time,seconds_elapsed,z,y,x
1778595595588106800,0.067106689453125,-0.8671183496057987,0.8019070417657495,-1.657481084050238
1778595595598100000,0.077099853515625,-0.027243980756402015,0.37044396245926614,-2.161917483500391
1778595595608094000,0.087093994140625,0.7709042929977178,0.0408253468632698,-2.4924083518862723
1778595595618087200,0.097087158203125,1.4526976393908262,-0.2575824301719665,-2.573748664489388
1778595595628081200,0.1070810546875,1.9065028988867998,-0.43540655623525376,-2.3975851651147004
1778595595638073900,0.117073974609375,2.112857246124744,-0.35867432194948196,-1.8517063098162412
1778595595648067000,0.127067138671875,2.129840529629588,-0.06288286489248275,-1.1751588281873613
1778595595658061000,0.13706103515625,2.1129554458022115,0.46090983080416914,-0.6148170747071504
1778595595668053800,0.1470537109375,2.028503723180294,0.9176943983718753,-0.2602302960659377
1778595595678048000,0.157048095703125,1.9170950200498103,1.075485497970879,-0.0278018521011807
1778595595688041000,0.167041015625,1.9182529579132794,1.0236892597600817,0.0312474990430288
1778595595698035000,0.177034912109375,1.9775451048374175,0.783268976791203,-0.05815611036522313
1778595595708028200,0.187028076171875,2.186120635256171,0.4860533321499824,-0.21615849636103956
1778595595718022000,0.19702197265625,2.524886141642928,0.19598346761018037,-0.31721520722731944
1778595595728014800,0.207014892578125,2.873261772418022,-0.04106646214276552,-0.317289551105164
1778595595738009000,0.217009033203125,3.1170909870475527,-0.20397095923274755,-0.22743626170065254
1778595595748002000,0.227001953125,3.1840684277772904,-0.35249943270683287,-0.05662219706252217
1778595595757995000,0.2369951171875,3.034375878959894,-0.4539025823906064,0.23725476814266294
1778595595767989000,0.246989013671875,2.749004109108448,-0.4663344862014055,0.44293282355424013
1778595595777982000,0.25698193359375,2.4229993000954386,-0.3785144561901688,0.5352009190155192
1778595595787976000,0.266975830078125,2.133915231722593,-0.19029840771108864,0.5058119621196762
1778595595797969000,0.276968994140625,1.7779788103044032,-0.09647446110993624,0.3348772302439436
1778595595807963000,0.286962890625,1.410282392987609,-0.12451426841914653,0.16893263480570167
1778595595817956000,0.2969560546875,1.056464278897643,-0.19678309355527163,0.2362473446657881
1778595595827950000,0.3069501953125,0.6224480079770088,-0.2462508888185024,0.5712115956060588
1778595595837943000,0.316943115234375,0.14988485651910305,-0.17342706014811993,0.9207173994548619
1778595595847936000,0.32693603515625,-0.23143910413384436,0.05303600913882255,1.1135524129714816
1778595595857930000,0.336929931640625,-0.515485762861371,0.23727175581008195,1.1642211084570735
1778595595867923000,0.3469228515625,-0.8044096722364426,0.20403291855305433,1.1925688857369123
1778595595877917000,0.3569169921875,-1.1677046397238968,-0.12282675372362137,1.3268082832261918
1778595595887910000,0.366909912109375,-1.5375374845474958,-0.4765753097087145,1.3734214197106658
1778595595897903900,0.37690380859375,-1.7015537422716616,-0.6425023694902658,1.3107377306520938
1778595595907897000,0.38689697265625,-1.8737831170678139,-0.7390905201077461,1.2104331898599863
1778595595917891000,0.39689111328125,-2.0888082620173694,-0.8447761694163084,1.1651586815681307
1778595595927883800,0.4068837890625,-2.457416533482075,-1.0098153404474257,1.2340361837655305
1778595595937877000,0.416876953125,-2.9637673882514237,-1.2014765609443188,1.5255840119034052
1778595595947871000,0.42687109375,-3.1032237897366284,-1.184803074041009,1.778821983130276
1778595595957864000,0.436864013671875,-2.941503533995151,-1.03086338917315,1.9141347089394927
1778595595967858200,0.446858154296875,-2.7867449339598416,-1.0653703466698528,2.098918444882333
1778595595977851000,0.456850830078125,-2.539002345278859,-1.3001941248059272,2.163390332531929
1778595595987844900,0.466844970703125,-1.9459744930535554,-1.4953551701173184,1.9683629966028033
1778595595997838000,0.476838134765625,-1.232049393862486,-1.5558143149942159,1.4474137076385318
1778595596007831000,0.4868310546875,-0.8377706745684146,-1.5300123497396707,0.9430544650778174
1778595596017824800,0.49682470703125,-1.0677572418063879,-1.3644023930832743,0.7668000725492835
1778595596027818000,0.50681787109375,-1.786455546748638,-0.8669880012243986,0.8233781382091343
1778595596037812000,0.51681201171875,-2.5880039843350646,-0.15327186860889194,1.097928069794923
1778595596047805200,0.52680517578125,-3.164441351765394,0.7832084787756204,1.2402107807472347
1778595596057799000,0.536798828125,-3.354696212595701,1.6562763844355939,1.3360457749098538
1778595596067792000,0.5467919921875,-2.979036269053817,2.247951360747218,1.3060004729971288
1778595596077785900,0.556785888671875,-2.3917162730813026,2.3921619710221886,1.1347604014992714
1778595596087779000,0.566779052734375,-1.8210124808669088,2.05187933807075,0.9905160350851714
1778595596097771800,0.576771728515625,-1.062156353059411,1.4767296723634005,0.7637547865692526
1778595596107766000,0.58676611328125,-0.330189985743165,1.021096320657432,0.5679139057675376
1778595596117759000,0.596759033203125,0.3260708599865436,0.6006321897491812,0.4083252917598933
1778595596127753000,0.6067529296875,0.7164280219227075,0.22282500504553318,0.30815986717753113
1778595596137746200,0.61674609375,0.9725199212759733,0.07007599126696586,0.21301232555611058
1778595596147740000,0.626739990234375,1.1598369750887154,0.15638327862769363,0.11870349978115409
1778595596157732900,0.63673291015625,1.3165426175385713,0.43069472528249025,-0.028770441405009478
1778595596167726000,0.64672607421875,1.4501999773561953,0.7365241767510772,-0.1230558497717604
1778595596177720000,0.656719970703125,1.6262649847924708,0.9650710665747523,-0.12111516403276472
1778595596187713000,0.666713134765625,1.9541759196877477,1.114251866477728,-0.02635404617935419
1778595596197707000,0.67670703125,2.3870032730847597,1.0897367261633277,0.054756695451587435
1778595596207700000,0.686699951171875,2.867193266159296,0.9635828738436102,0.06856094706151634
1778595596217694000,0.69669384765625,3.3039240567356347,0.7709700517103075,0.012520495409704744
1778595596227687000,0.70668701171875,3.661914488074183,0.5143418535232543,-0.06805555482264608
1778595596237679900,0.716679931640625,3.8307045360714196,0.23682167395502327,-0.09972644864320754
1778595596247674400,0.72667431640625,3.7865707953125236,-0.05262567477226257,-0.08560217129867523
1778595596257667600,0.73666748046875,3.6127374924510716,-0.1930003601461649,-0.028080979569815097
1778595596267661600,0.74666162109375,3.3787299991339443,-0.011927461419999598,0.07135876108650117
1778595596277654500,0.756654541015625,2.995267272886634,0.251902630969882,0.13734871601569465
1778595596287648500,0.7666484375,2.589469965234399,0.5071724002853035,0.12959018344394863
1778595596297641500,0.776641357421875,2.2864754449307916,0.6260092075899243,0.07826448535434902
1778595596307634700,0.786634765625,2.0401006374716757,0.46829614166319367,-0.06485943479561247
1778595596317628400,0.79662841796875,1.840479397881031,0.09020049540698528,-0.3231378387419507
1778595596327621400,0.806621337890625,1.7782669795960186,-0.21759557995945214,-0.6200959649581462
1778595596337615600,0.81661572265625,1.717676025032997,-0.4517626477524638,-0.8351943943396211
1778595596347608600,0.826608642578125,1.641528020375967,-0.6734133483216166,-0.7509453546829521
1778595596357601300,0.836601318359375,1.5138088184356688,-0.6866118525907396,-0.5205410004243254
1778595596367595500,0.846595458984375,1.213960194942355,-0.4089315140247345,-0.41859311287198214
1778595596377588500,0.85658837890625,0.7689286090105771,-0.03434124554097652,-0.4313324386641383
1778595596387582500,0.86658251953125,0.2567769590079784,0.19869243430793285,-0.48372098021227866
1778595596397575400,0.876575439453125,-0.287324657484889,0.30802842281758785,-0.5457215093122795
1778595596407569400,0.8865693359375,-0.9852133986324071,0.3124029846400022,-0.6291589037925005
1778595596417562400,0.896562255859375,-1.8145307176321743,0.29474399383068084,-0.6622511721856892
1778595596427555600,0.9065556640625,-2.625128138592839,0.32876375233232974,-0.5839227912822738
1778595596437549600,0.916549560546875,-3.2917788609117267,0.3487576158300042,-0.32835418515075
1778595596447542500,0.92654248046875,-3.7302199625372885,0.2081461990907788,0.018333593002101405
1778595596457536500,0.93653662109375,-3.810973415163159,-0.13299421973377465,0.17907989827804266
1778595596467529500,0.946529541015625,-3.4784757369995116,-0.3798287536591291,0.06755293906275182
1778595596477523500,0.9565234375,-3.1169407649219036,-0.7452230315133929,-0.24941033923011272
1778595596487516400,0.966516357421875,-2.9087895973950624,-1.4318179329693317,-0.7146192920003086
1778595596497509400,0.97650927734375,-2.738338338187337,-2.1790905904889106,-1.4734762235254049
1778595596507503600,0.986503662109375,-2.5992379105329513,-2.6878309707432986,-2.2892682905197144
1778595596517496600,0.99649658203125,-2.553461663264036,-2.8912714763611556,-2.7480460777312516
1778595596527490300,1.006490234375,-2.4932769514143467,-2.476058690109849,-2.772747680528462
1778595596537483500,1.0164833984375,-2.4498855534553527,-1.4742764339923857,-2.365380347080529
1778595596547476500,1.0264765625,-2.5576269662499427,-0.31305121941566466,-1.6103531299114227
1778595596557470500,1.036470458984375,-2.608853880140185,0.9318535643666982,-0.8910544479232281
1778595596567463400,1.04646337890625,-2.533278706935048,1.9323110016211866,-0.2998500299991108
1778595596577457400,1.05645751953125,-2.371953587990999,2.4858292657569048,0.15434841179922223
1778595596587450600,1.06645068359375,-1.9942519094884394,2.654045313258469,0.38007940395195033
1778595596597444600,1.076444580078125,-1.3044962059140204,2.534527830213308,0.2820054352235049
1778595596607437300,1.086437255859375,-0.4597112686693668,2.1481328499063848,-0.004892366018285975
1778595596617430500,1.096430419921875,0.2566337511450052,1.5375716790780425,-0.5490851405264809
1778595596627424500,1.106424560546875,0.7665700631856918,0.7215551556780934,-1.0988692231025545
1778595596637417500,1.11641748046875,1.2445727753490208,-0.0022501170143485066,-1.4717746803045273
1778595596647411700,1.12641162109375,1.6581968311041593,-0.48881665938347574,-1.6209155865885316
1778595596657404400,1.136404296875,1.9240736268907783,-0.7675818705767392,-1.421268774165213
1778595596667397400,1.1463974609375,2.171058675202727,-0.6867141439214348,-0.9943453841149806
1778595596677391600,1.1563916015625,2.3210814788877965,-0.25618776094317436,-0.483055684703961
1778595596687384300,1.16638427734375,2.3594442350298164,0.24383126045614478,0.009575546265300362
1778595596697378300,1.17637841796875,2.7249685690045355,0.780107882411778,0.39037681648470457
1778595596707371500,1.18637158203125,3.0871061831504103,1.0890990127816795,0.7680280069090426
1778595596717364500,1.196364501953125,3.3545530047327277,1.0857815587967634,1.1104958749450742
1778595596727358500,1.2063583984375,3.4811364806413647,0.8041372850358486,1.2702015759937464
1778595596737351400,1.216351318359375,3.3322575862944124,0.4399439074039459,1.1378772183455526
1778595596747345400,1.226345458984375,3.0030618722856044,0.15770926653444767,0.7688001603253185
1778595596757338600,1.236338623046875,2.6628748086631298,-0.11179594888240098,0.3507633661618456
1778595596767331300,1.246331298828125,2.439396308144927,-0.3325643136590719,0.010077668834850192
1778595596777325300,1.2563251953125,2.2286025171548127,-0.5290668367072939,-0.21725005445741116
1778595596787318500,1.266318603515625,2.131778804215789,-0.532080631570518,-0.39969011335093524
1778595596797312500,1.2763125,2.230657111597061,-0.44124446860849853,-0.3959241118809208
1778595596807305500,1.286305419921875,2.369316809746623,-0.324453195656836,-0.12994802043829112
1778595596817299500,1.296299560546875,2.44091957218945,-0.20923457884937524,0.30019407593011854
1778595596827292400,1.30629248046875,2.2315900085330007,-0.13201865269988775,0.7491140476025641
1778595596837285600,1.31628564453125,1.8503700927764177,0.046378012554347516,1.0555112890217453
1778595596847279600,1.326279541015625,1.3254665132284165,0.22329145351350307,1.1416869858920573
1778595596857272300,1.336272216796875,0.6367214480012655,0.2584381702184677,1.0029304032392798
1778595596867266300,1.346266357421875,0.1519347747862339,0.25987375597953793,0.8741109119068831
1778595596877259500,1.356259521484375,-0.08831190518140793,0.12865268339812755,0.8981659604288638
1778595596887252500,1.36625244140625,-0.1311035836815834,-0.16041764871031045,1.100631994991377
1778595596897246500,1.37624658203125,-0.13855974490642547,-0.5218053212717175,1.4554339324869214
1778595596907239400,1.386239501953125,-0.215199332472682,-0.7549336936667561,1.8142767428711055
1778595596917233400,1.3962333984375,-0.3513444174528122,-0.829586491329968,1.9781714200422167
1778595596927226600,1.4062265625,-0.6593605653107166,-0.7888996761545538,1.938543904661387
1778595596937219300,1.41621923828125,-1.0926748254418372,-0.7469754281386732,1.8241724062025546
1778595596947213300,1.42621337890625,-1.7002146026223897,-0.906012436145544,1.6766539865538477
1778595596957206500,1.43620654296875,-2.442620530888438,-1.175524081303179,1.510115809136629
1778595596967200500,1.446200439453125,-3.3412130461663008,-1.3635755868703126,1.2741504597499966
1778595596977193500,1.456193359375,-4.248022185647487,-1.4342664951652289,0.9862848272562026
1778595596987186400,1.4661865234375,-4.758850478091835,-1.4963020955786108,0.698054014711827
1778595596997180400,1.476180419921875,-4.576217782703042,-1.5582915187627076,0.6045449427461251
1778595597007173600,1.486173583984375,-4.175269668647647,-1.5291624549120664,0.7056188239429145
1778595597017167600,1.496167724609375,-3.9058495011657475,-1.4196803359299897,1.0649677572183311
1778595597027160300,1.506160400390625,-3.8844635987877845,-1.0233762482881545,1.552294616435468
1778595597037153500,1.516153564453125,-4.278301004055142,-0.34695611936599013,1.8784797504514454
1778595597047147500,1.5261474609375,-4.779691021546721,0.5035378431752324,1.8610590984426438
1778595597057140500,1.536140380859375,-4.680826742690801,1.3872121907845139,1.7624504017829894
1778595597067134500,1.546134521484375,-3.935634983098507,2.025400204207003,1.7701150911919772
1778595597077127400,1.55612744140625,-2.9649983913511035,2.1052999626129862,1.747463845053315
1778595597087120600,1.56612060546875,-2.2108739682406187,1.6712813536047935,1.7229212322100995
1778595597097114600,1.576114501953125,-1.5148925220191478,1.1633505361676215,1.7123749960154293
1778595597107107300,1.586107421875,-0.7688420997709036,0.681212039373815,1.5689124276287854
1778595597117101300,1.596101318359375,-0.12820844676196574,0.23061522053033112,1.2446215829268097
1778595597127094500,1.606094482421875,0.20263094280064106,-0.21939006216078996,0.8081200710617006
1778595597137087500,1.61608740234375,0.29499709180891515,-0.544072682659328,0.33660036424212153
1778595597147081500,1.62608154296875,0.41917876727283,-0.5081742708042264,-0.19319719789251685
1778595597157074400,1.636074462890625,0.6266074657440185,-0.18579934272617102,-0.6142957542467862
1778595597167067600,1.646067626953125,0.86545596935153,0.21876550052165983,-0.775637824325636
1778595597177061600,1.6560615234375,1.209747545683384,0.6439207118555903,-0.706449356482923
1778595597187054300,1.666054443359375,1.646042867451906,0.9997405211567878,-0.3837880857441574
1778595597197048300,1.67604833984375,2.1580752749890086,1.2674457014143465,-0.05437197045031935
1778595597207041500,1.68604150390625,2.7525971651643513,1.445116682742536,0.08432002253364772
1778595597217034500,1.696034423828125,3.3788936652630563,1.4046189603984356,0.13524316770434378
1778595597227028500,1.706028564453125,3.9484237375229596,1.2199226104781031,0.12081917676087468
1778595597237021400,1.716021484375,4.393547677913308,1.0842203008294105,0.1352004428074695
1778595597247016000,1.726015869140625,4.714163195103406,0.9503352697357534,0.22239147246647625
1778595597257009200,1.736009033203125,4.799838906562328,0.7976467539727687,0.28418878887826576
1778595597267001900,1.746001953125,4.747731702706218,0.7157146129563451,0.27361849595457316
1778595597276995800,1.755995849609375,4.590344507732987,0.7194239888682961,0.25029892210029064
1778595597286989000,1.765989013671875,4.306098527041077,0.7438394682005047,0.2540360628020018
1778595597296983000,1.775983154296875,3.9261552070915697,0.744422821046412,0.32453564977589994
1778595597306976000,1.78597607421875,3.442550437137484,0.7046890688121319,0.4541234585996717
1778595597316969000,1.795968994140625,3.0222172391325235,0.6667851623535156,0.5353805864313617
1778595597326963000,1.805962890625,2.6546055774897335,0.664346829290688,0.5404970161296427
1778595597336956000,1.815955810546875,2.279786760947108,0.6645829761341214,0.544371081084013
1778595597346948900,1.825948974609375,1.8999270276278257,0.5565834969252348,0.4568719535902142
1778595597356942800,1.83594287109375,1.5862269889146088,0.3106841980233788,0.41221740382760763
1778595597366936000,1.84593603515625,1.364932846698165,-0.03134849346578121,0.3756931882243603
1778595597376930000,1.855929931640625,1.0630483334630727,-0.30909312943965195,0.36477775339111684
1778595597386923000,1.865923095703125,0.4705202474534511,-0.44313831953108307,0.1971448395397514
1778595597396916000,1.875916015625,-0.2620890939414501,-0.3959481138110161,-0.14503526106346398
1778595597406910000,1.885909912109375,-1.1932628593504429,-0.2833680288136005,-0.4243377574712038
1778595597416903000,1.89590283203125,-2.322635722592473,-0.11024550457000731,-0.6749947722941637
1778595597426897200,1.905897216796875,-3.4206583388030527,0.29471038382202386,-0.9525593755260109
1778595597436889900,1.915889892578125,-4.476806391358375,0.7928314626455306,-1.2156012401476501
1778595597446883000,1.925883056640625,-5.031190332412719,1.2484855648785829,-1.3730673455759883
1778595597456877000,1.935876953125,-5.243939349123835,1.1965046177506447,-1.2748289435334503
1778595597466870000,1.9458701171875,-5.140168593525886,0.6075996906742454,-1.1268406413506715
1778595597476863000,1.955863037109375,-4.48336297339499,-0.20190584339648485,-1.1479315793700515
1778595597486857000,1.96585693359375,-3.6179987739801405,-1.0226637161046266,-1.3479111308790743
1778595597496850000,1.975849853515625,-2.856234649771452,-1.4700564782097936,-1.4360814356327056
1778595597506844200,1.98584423828125,-2.501245738336444,-1.672600911770761,-1.413103880149126
1778595597516836900,1.9958369140625,-2.28761643165946,-2.136614553809166,-1.9483434141419826
1778595597526830000,2.005830078125,-2.071585324537754,-1.9879826199606059,-2.2224270433902737
1778595597536824000,2.015823974609375,-2.3055922333329915,-1.4612997557803988,-2.0626766264170406
1778595597546817000,2.025817138671875,-2.278748650071025,-0.6478069056391715,-1.8386289477087556
1778595597556810000,2.03581005859375,-2.2662872279047965,0.2530518010050058,-1.2520432573601603
1778595597566804000,2.045803955078125,-1.9893524470090864,1.1323507100090384,-0.6467975094009191
1778595597576797000,2.055796875,-1.6765332827836275,1.8961358186513184,-0.299478913398087
1778595597586791000,2.065791015625,-1.2566717939436436,2.391568389043212,-0.13032514665499328
1778595597596783900,2.075783935546875,-0.9673328740268945,3.1473160294413565,-0.10259564740397036
1778595597606776800,2.08577685546875,0.3237012082457542,3.7812545687258243,-0.027811332315579054
1778595597616771000,2.09577099609375,0.8349971182018517,2.1950065370231866,-0.05599281311780214
1778595597626764000,2.105763916015625,1.4484902508288622,0.9533101938933134,-0.5551886815659701
1778595597636757000,2.115757080078125,1.8380431106448172,0.4277452278271317,-0.8287886189505458
1778595597646751000,2.1257509765625,1.3226304130196571,-0.6893903773933648,-1.7330479278184472
1778595597656744000,2.135743896484375,1.152739710304141,-1.5750713886499403,-2.5899752844080326
1778595597666738000,2.145738037109375,1.2134218502819538,-1.6893758132219314,-2.353066662821919
1778595597676731000,2.15573095703125,1.0278145229965447,-2.0160411319702862,-2.428696634954214
1778595597686723800,2.165723876953125,0.9211293412566185,-2.3421628453612326,-2.669081262087822
1778595597696718000,2.175718017578125,1.4669400997549296,-2.291891624760628,-2.500791564828157
1778595597706711000,2.1857109375,2.209839949017763,-1.909640904651582,-2.0483434190295635
1778595597716704000,2.1957041015625,3.08854293795526,-1.142924126471579,-1.4819729798443615
1778595597726698000,2.205697998046875,3.535387126266956,-0.42942455921620126,-0.7700184500738978
1778595597736691000,2.21569091796875,3.8982489630341526,-0.10756021100878715,-0.13210691550523043
1778595597746685000,2.225684814453125,4.464217543420196,-0.17967706045359372,0.15178864431381225
1778595597756678000,2.235677978515625,5.352574495887756,-0.33479572597295043,0.1104053713068366
1778595597766670800,2.2456708984375,5.893091824153065,-0.4697586154311895,0.19524697002917527
1778595597776665000,2.2556650390625,5.951573823738098,-0.894598477205634,0.5698474676460027
1778595597786658000,2.265657958984375,5.829304703897238,-1.3020502740666269,1.082703174264729
1778595597796651000,2.275651123046875,4.5182402255088085,-1.3220260173857212,1.4587614694744349
1778595597806645000,2.28564501953125,2.6425375385552643,-1.4799319755360483,0.7421186357572674
1778595597816638000,2.295637939453125,1.2893202640920878,-1.7021460090763867,0.14169015188664197
1778595597826632000,2.3056318359375,1.026782841861248,-1.7768366545319556,-0.17848901971280573
1778595597836625000,2.315625,1.0114964254021643,-1.902719434825331,0.04458148452639579
1778595597846617900,2.325617919921875,0.7606061863452196,-1.8797192291185258,0.5951949671313166
1778595597856611800,2.33561181640625,0.5680974091082811,-1.503649827992916,0.8136410264402627
1778595597866605000,2.34560498046875,0.22435995952785015,-1.0479324512653052,0.78069152751863
1778595597876597800,2.35559765625,-0.5774509283870458,-0.6017857436984777,0.589474251396954
1778595597886592000,2.365592041015625,-1.4474340197741984,-0.20054419965445994,0.46957887495011086
1778595597896585000,2.3755849609375,-1.955542531865835,-0.12936938030011952,0.8343389465540647
1778595597906578200,2.385578125,-1.9396534733384847,-0.2053882056195289,1.4751868268355726
1778595597916572200,2.395572265625,-1.9496628261774778,-0.2779841438181698,2.0603882232189177
1778595597926564900,2.40556494140625,-1.9034341589659451,-0.35952450903803107,2.627092424403131
1778595597936558800,2.415558837890625,-1.9026053069263695,-0.46637123801521957,3.1273435009926556
1778595597946552000,2.425552001953125,-2.9349048663824795,-0.7198009324219078,3.1492294618472454
1778595597956544800,2.435544677734375,-4.593334337198734,-0.731773694288358,2.970335368464887
1778595597966539000,2.4455390625,-4.020836647304892,-0.5773887498710304,3.2727468281835317
1778595597976532000,2.455531982421875,-3.5843653844475742,-1.0098306841470301,3.3675399120777842
1778595597986525200,2.465525146484375,-5.239656557238102,-1.9799524582400916,3.384401615029573
1778595597996519200,2.475519287109375,-4.6596834168970584,-2.464459437730908,3.440112104074657
1778595598006511900,2.485511962890625,-4.117390311130881,-2.777247914557159,3.476809849613905
1778595598016505000,2.495505126953125,-4.048595007324218,-2.3652603739626703,3.2777392296433447
1778595598026499000,2.5054990234375,-3.484506249335408,-0.7386103353753686,1.3730511250935493
1778595598036491800,2.51549169921875,-4.328261259010434,0.4729258472904563,0.5579730515874922
1778595598046485000,2.525485107421875,-5.402073563072085,1.754897794446349,0.7929822692930698
1778595598056479000,2.53547900390625,-6.674194270560145,2.6757638085916637,1.4238057452969253
1778595598066472000,2.545471923828125,-7.579706940490007,2.8994769946485754,1.692251953180134
1778595598076466200,2.555466064453125,-7.063064993330836,3.4455180547714233,1.932783879829943
1778595598086459000,2.565458984375,-6.052768591368198,3.732290631331503,1.8072582424111663
1778595598096452000,2.5754521484375,-3.395006011152267,3.7575676959291098,1.3147924128703772
1778595598106446000,2.585446044921875,-0.3843424316912889,3.263152193625271,1.4602651520356535
1778595598116438800,2.595438720703125,1.4458710082411765,2.2182710927546023,1.2366162633866071
1778595598126432000,2.605431884765625,1.8701947371870278,1.4638810044452548,1.4641940159171818
1778595598136426000,2.615426025390625,2.1372405767530203,0.9397492860525846,2.0946508505657313
1778595598146419000,2.6254189453125,2.2626766361922024,0.5369713262215257,2.3746045408912
1778595598156412000,2.635411865234375,1.7829589368045329,0.48291240377575156,2.545725808314979
1778595598166406000,2.645406005859375,1.311800391447544,1.1983210195228458,1.6828469959750771
1778595598176399000,2.655399169921875,0.9679822778463363,2.060805279587209,0.7085657641150057
1778595598186392000,2.66539208984375,0.7438906138658523,2.4377067476227876,0.24262614071639252
1778595598196385800,2.6753857421875,1.10369189401865,2.5006992103695866,0.07549564169552177
1778595598206379000,2.68537890625,1.8958762909322977,2.1522581131428478,-0.09140077457483857
1778595598216373000,2.695373046875,2.7933073612153527,1.7641434694364666,-0.42781924291141327
1778595598226366000,2.705365966796875,3.5557629748195407,1.775112607218325,-1.1241345241971312
1778595598236359000,2.71535888671875,4.144615587186813,1.7055112477257848,-1.173170503914356
1778595598246353000,2.725352783203125,4.737751575961709,1.4381009587615727,-0.9702180740743875
1778595598256345900,2.735345947265625,5.020961199343204,1.28584703502357,-0.8451456603158265
1778595598266338600,2.745338623046875,5.044564193248749,1.1418345776692032,-0.6844653420813381
1778595598276332500,2.75533251953125,4.841106151974201,0.8971648205623031,-0.36362273813709617
1778595598286325800,2.76532568359375,4.6430070073843,0.8489765437155962,0.05039484698027372
1778595598296318500,2.775318359375,4.385843679407238,0.8681140826448798,0.40488326154723764
1778595598306312400,2.7853125,4.121488394099473,0.9309563232660293,0.44999096190482374
1778595598316305700,2.7953056640625,3.9726521698504684,0.9771417358577251,0.24190409178584812
1778595598326298600,2.805298583984375,3.7539872070938345,0.8841679763451218,0.22049802340269087
1778595598336292900,2.81529296875,3.3731641817003486,0.5117614816412329,0.5169565660662949
1778595598346285600,2.82528564453125,3.148949183601141,0.01187514671087265,0.6434726758271455
1778595598356278800,2.83527880859375,2.9253397501796483,-0.3830956465005874,0.6405212786756456
1778595598366272800,2.845272705078125,2.8285417562037707,-0.5613067260548472,0.665882806686312
1778595598376265700,2.855265625,2.838096351012587,-0.542826774251461,1.0208204263254999
1778595598386258700,2.8652587890625,2.4836907924234866,-0.42254970501065253,1.3499958281986415
1778595598396252700,2.875252685546875,1.9273019412875174,-0.3578329026892781,1.5920516034148633
1778595598406245600,2.88524560546875,0.925050314092636,-0.5445563745230436,1.9115918925888835
1778595598416238600,2.895238525390625,-0.35749241868853565,-0.8768573610708117,1.6109122250989079
1778595598426232600,2.905232666015625,-0.689080580791831,-0.5800456210553646,-0.4829904374480247
1778595598436225500,2.9152255859375,-1.3442752585947513,0.38675212318152186,-2.122750717499107
1778595598446218800,2.92521875,-2.335539043307304,0.9376756946489214,-2.7495807399526235
1778595598456212700,2.935212646484375,-3.0025767191171644,0.6151017368674278,-2.8660712763920424
1778595598466205700,2.945205810546875,-3.5220740557074546,0.05092091668099165,-2.7155764712810515
1778595598476198700,2.95519873046875,-4.018219158282876,-0.3380567735955119,-1.7938479950875044
1778595598486192600,2.965192626953125,-3.715516898924112,-0.5076926247671246,-0.9517103574812412
1778595598496185600,2.975185546875,-2.986726823556423,-0.7346826405376196,-0.3006784984461963
1778595598506178600,2.985178466796875,-2.2251976771473885,-1.2664368166327475,0.03834434370249509
1778595598516172500,2.995172607421875,-1.714962674421072,-1.9866274059593676,-0.025924276459962127
1778595598526165800,3.005165771484375,-1.3381003693521023,-2.5095722526550293,-0.5548077194243669
1778595598536158500,3.015158447265625,-1.6379951700747013,-2.5712138853147626,-1.0192129911288619
1778595598546152700,3.025152587890625,-2.429511458468437,-2.0072695042327044,-1.409242674676329
1778595598556145700,3.035145751953125,-3.8235470655322072,-1.2619170011207461,-1.8737566674523054
1778595598566139600,3.0451396484375,-4.947447050321101,-0.386106518754363,-2.0853350329488514
1778595598576132600,3.055132568359375,-5.996190379577874,0.505330864071846,-2.0832497511073944
1778595598586125600,3.06512548828125,-6.5201370967924595,1.4250968080207704,-2.012492499577999
1778595598596119600,3.07511962890625,-6.0656274884194135,2.2002675262913107,-1.7737749288737772
1778595598606112800,3.08511279296875,-4.41372303545773,2.7413416116565466,-1.284085432178527
1778595598616105500,3.09510546875,-3.07578633223474,2.7308623032182453,-0.8300530859284102
1778595598626099700,3.105099609375,-1.6133277618080377,1.7950395429596304,-0.4519616774559021
1778595598636092700,3.1150927734375,0.2981131780028343,1.0811521454304456,-0.3810230780102312
1778595598646085600,3.125085693359375,1.3892512953966856,0.39215865840017794,-0.7959225605286657
1778595598656079600,3.13507958984375,2.3196873941808938,-0.16848375852704048,-1.4177265715137124
1778595598666072600,3.145072509765625,2.7833061916828155,-0.4667889519706368,-1.9858305564932524
1778595598676065800,3.155065673828125,2.7901480204015967,-0.5746215501800179,-2.431997722326219
1778595598686059800,3.165059814453125,2.5687521713763473,-0.5257809469044208,-2.6329227379918096
1778595598696052500,3.175052490234375,2.119767463904619,-0.2186769454553723,-2.596251003676653
1778595598706045700,3.185045654296875,1.7369003654628992,0.2519207511484623,-2.438376025186479
1778595598716039700,3.195039794921875,1.7729472458779811,0.5899830777019262,-2.1051894879758355
1778595598726032600,3.20503271484375,2.2038725650459527,0.6473264286458492,-1.527631884343922
1778595598736025600,3.215025634765625,2.927048307663202,0.5290247511312365,-0.915508140373975
1778595598746019600,3.22501953125,3.78920698903501,0.3558013968616724,-0.4052471264235675
1778595598756012800,3.2350126953125,4.638318557307124,0.14852262825518844,0.09501929386556147
1778595598766005800,3.245005859375,5.178348394316434,-0.01625789183974266,0.6208060859888792
1778595598775998700,3.254998779296875,5.337911179763078,-0.1531155090034008,1.1179343543827533
1778595598785992700,3.26499267578125,5.174349095547199,-0.1998527102589607,1.498007292061299
1778595598795985700,3.274985595703125,4.781272737780213,-0.16311375592648983,1.8103826580420135
1778595598805978600,3.284978515625,4.317293874794244,-0.10333820939958095,1.9674958583794533
1778595598815972600,3.29497265625,3.9584780985474586,-0.14769085360616444,2.112232684485614
1778595598825965600,3.304965576171875,3.80438819155395,-0.30705051769614217,2.417932518225163
1778595598835958800,3.314958740234375,3.4906840611875056,-0.47830607902407646,2.6548464005082844
1778595598845952800,3.324952880859375,3.096342798051238,-0.5972635900989175,2.7009038028061387
1778595598855945500,3.334945556640625,2.507504798731208,-0.6040779462888837,2.6473914083272216
1778595598865938700,3.344938720703125,1.601663042977452,-0.5515051707476377,2.6092279741495847
1778595598875932700,3.3549326171875,0.6482990730702877,-0.39742987680137154,2.6843933975100516
1778595598885925600,3.364925537109375,-0.19264906249046324,-0.1595613241419196,2.8006840274631974
1778595598895918600,3.374918701171875,-0.8607055599540472,0.06059475395530462,2.9342367578625677
1778595598905912600,3.38491259765625,-1.3812743251681328,0.16599983275681734,2.991560819584131
1778595598915905800,3.39490576171875,-1.8705302527517078,0.19641864415705204,2.916897500526905
1778595598925898500,3.4048984375,-2.0490590199530123,0.1740837704911828,2.9054715588882565
1778595598935892500,3.414892578125,-2.0792741254746914,0.13397943137884138,3.0355607048302886
1778595598945885700,3.4248857421875,-2.040989695265889,0.010906886200606822,3.0542887861758468
1778595598955878700,3.434878662109375,-1.8890332931697367,-0.24015987846702336,2.8931954301610587
1778595598965872600,3.44487255859375,-1.8383394632428884,-0.5654486481651664,2.630163210150599
1778595598975865600,3.454865478515625,-2.2795079440057275,-0.8164668975159526,2.3271944088101386
1778595598985858600,3.464858642578125,-3.186898098245263,-0.9554700022757053,1.875973905110359
1778595598995852800,3.474852783203125,-4.241274464952945,-1.0054290881872177,1.330179074833542
1778595599005845500,3.484845458984375,-4.899803255614638,-0.9880299173578619,1.0043516682140528
1778595599015838700,3.494838623046875,-5.414532647150755,-1.0748577214613557,0.8887406910881399
1778595599025831700,3.504831787109375,-5.738990226721763,-1.140391393123567,0.7424971136808395
1778595599035825700,3.51482568359375,-5.998611469244957,-1.026720882540941,0.594473520988971
1778595599045818600,3.524818603515625,-6.459455541336536,-0.58026861615628,0.3224481394447386
1778595599055811600,3.5348115234375,-7.337674546149373,0.2313064176648855,-0.08257292313799261
1778595599065805600,3.5448056640625,-8.59262200051844,1.252489539822936,-0.5350234070241451
1778595599075798800,3.554798828125,-9.344617010384798,2.320828380909562,-0.8376618073664606
1778595599085791500,3.56479150390625,-8.863046961128711,3.119470867921412,-0.8239258352197706
1778595599095785700,3.57478564453125,-7.20269149068594,3.3520334231272337,-0.2683868789114058
1778595599105778700,3.58477880859375,-4.949755911785364,2.878068295916915,0.6279330152593553
1778595599115771600,3.594771728515625,-2.828509022977948,2.262288221396506,1.1700744375951588
1778595599125765600,3.604765625,-0.9300380393773316,1.8373007678449154,1.3701936898358165
1778595599135758600,3.614758544921875,0.5838543656885623,1.0412184867098926,1.3709274109378455
1778595599145751800,3.624751708984375,1.6175684681177138,0.37792642716914415,1.5240926043018699
1778595599155745800,3.634745849609375,2.4314970793277024,0.0818733965665102,1.6894916946865617
1778595599165738500,3.644738525390625,2.689241422063112,0.05890548569411039,1.7386628450907766
1778595599175731700,3.654731689453125,2.3513047677159307,0.4849903790935874,1.4660261997804045
1778595599185725700,3.6647255859375,1.5218746359914541,0.4123194028973579,0.5281938532650471
1778595599195718400,3.674718505859375,0.7462760476976633,0.8062982624620199,-0.10117854714766145
1778595599205711600,3.684711669921875,0.39155601633191106,1.1885703176200388,-0.41156376222446556
1778595599215704600,3.69470458984375,0.43933834272623057,1.5176009041950105,-0.6690044458381831
1778595599225698800,3.70469873046875,0.777052878755331,1.6812576809570192,-0.7983997642971575
1778595599235691500,3.71469140625,1.3782961861401795,1.7741282723560927,-0.7227553252480924
1778595599245684700,3.724684814453125,2.2634786002248526,1.726765924939513,-0.4529286227919161
1778595599255681500,3.734681640625,3.418212699216604,1.6081828001350162,-0.03645283086746931
1778595599265674500,3.744674560546875,4.48248619056046,1.4887097407534717,0.2456824412807822
1778595599275667500,3.75466748046875,5.404374825751781,1.384858028873801,0.3730595517851412
1778595599285661400,3.764661376953125,6.026148295468092,1.3621893932089209,0.579238250195235
1778595599295654700,3.774654541015625,6.361761475303768,1.3902365070417522,0.7795246756963431
1778595599305647400,3.7846474609375,6.528451336151361,1.4038444688946008,0.9072488460727035
1778595599315640600,3.794640625,6.73705433909893,1.4578040226191282,0.7424066589184105
1778595599325634600,3.804634521484375,6.8017690955936905,1.3919181765183806,0.6938757061138748
1778595599335627500,3.81462744140625,6.533783929350972,0.9968123587504029,1.136032905653119
1778595599345620500,3.824620361328125,6.422122128242254,0.8068228708580136,1.02594902138561
1778595599355614500,3.834614501953125,6.272717164194583,0.7824290188357234,0.6418702090665698
1778595599365607400,3.844607421875,5.935794070804119,0.6777209823876619,0.3772482356466353
1778595599375600600,3.8546005859375,5.571290312048792,0.46418256886452436,0.0801769679121673
1778595599385594400,3.864594482421875,5.241704721939564,0.1311684656113386,-0.33453444468826055
1778595599395587300,3.87458740234375,4.5718578339278695,-0.19349486566483973,-0.6797504423886537
1778595599405580500,3.88458056640625,3.5302667145133015,-0.3435965798050165,-0.8855243593901395
1778595599415573500,3.894573486328125,2.167017290857434,-0.3196370275467634,-0.9132323043964803
1778595599425567500,3.9045673828125,0.42568975660204883,-0.17083967400342226,-1.0116400716565548
1778595599435560400,3.914560546875,-1.3202023090898989,0.03846738556027412,-1.390231246344745
1778595599445553700,3.9245537109375,-2.7003210344821214,0.35895518471747634,-1.7546010034568607
1778595599455547600,3.934547607421875,-4.015609268045425,0.7880123719260096,-1.9145114332973956
1778595599465540400,3.944540283203125,-4.965581257426739,1.1350038548663257,-1.887695322564244
1778595599477406500,3.956406494140625,-5.390988689956068,1.1861679326534271,-1.5909093015119433
1778595599487400400,3.966400390625,-5.356497222289443,0.875540140992403,-1.043067913968861
1778595599497393400,3.976393310546875,-4.85371604270041,0.22209230685681103,-0.5200210682034492
1778595599507386400,3.986386474609375,-4.119086593654751,-0.5420473143115639,-0.08562339674979448
1778595599517379600,3.996379638671875,-3.634547757720947,-1.1464848876930773,0.05657032074481248
1778595599527373600,4.00637353515625,-3.5819121460765597,-1.6374506879344581,-0.2055389392018318
1778595599537366300,4.0163662109375,-4.195059826266766,-1.9703592849865554,-0.657233782415092
1778595599547359500,4.026359375,-4.991227739858627,-1.953882051307708,-1.1898387301206588
1778595599557353500,4.036353515625,-5.6467801450580355,-1.5589423838868737,-1.5686588912591337
1778595599567346700,4.0463466796875,-6.3579270117074245,-1.0221576662786305,-1.6298846365943551
1778595599577339400,4.05633935546875,-7.066971937641501,-0.4195250964924693,-1.5999395801857113
1778595599587333400,4.06633349609375,-7.647128033334016,0.17866788341104983,-1.7774343281641602
1778595599597326600,4.07632666015625,-7.64577837229073,0.7738010373525321,-1.9636288076877593
1778595599607319600,4.086319580078125,-6.8738920825183385,1.283780457882583,-1.9287106390416622
1778595599617312500,4.0963125,-5.563987880080938,1.301097941777855,-1.6249530254110693
1778595599627306500,4.106306396484375,-3.9967882477194068,0.8072130392193794,-1.1699519802592695
1778595599637299500,4.116299560546875,-2.4320839393049476,0.20664982305318116,-0.9305188086315989
1778595599647292400,4.12629248046875,-0.9852209974169731,-0.3060379796527326,-0.8729103770107031
1778595599657286400,4.136286376953125,0.3688578623116016,-0.576189822410047,-0.9932087813004851
1778595599667279400,4.146279296875,1.462267431768775,-0.8355144200742244,-1.2465636569052934
1778595599677272600,4.1562724609375,2.200822529825568,-1.0547380396269261,-1.4197709368228912
1778595599687265300,4.166265380859375,2.7275702759355305,-1.2427386917896568,-1.4961498276263474
1778595599697259500,4.176259521484375,3.0327561688035725,-1.356785049947351,-1.4689748204529285
1778595599707252500,4.18625244140625,3.3187785115182398,-1.2900149683579802,-1.3629540939711033
1778595599717245700,4.19624560546875,3.690710958969593,-1.0773194353997706,-1.132834401872754
1778595599727239400,4.206239501953125,4.142962559282779,-0.8144491279527545,-0.7737427312940358
1778595599737232400,4.216232421875,4.509358415395021,-0.5017477448880672,-0.2585325705036521
1778595599747225600,4.2262255859375,4.646298450145125,-0.12106120535582303,0.37342882348895073
1778595599757218300,4.23621826171875,4.644994966331124,0.28383798441290853,0.9194627232186495
1778595599767212300,4.24621240234375,4.667631745553017,0.6711760907888412,1.3971350343838334
1778595599777205500,4.25620556640625,4.7427463155090805,0.8972554214552044,1.8177545019842682
1778595599787824400,4.266824462890625,5.138886152499913,0.7626061279907822,2.3069031698010862
1778595599797817300,4.2768173828125,5.401691870278119,0.6150809863403439,2.5597756687164304
1778595599807810600,4.286810546875,5.531752082386612,0.4072238333240151,2.765900883373618
1778595599817804500,4.296804443359375,5.438700289201736,0.17550065155178307,2.94667187654376
1778595599827797500,4.306797607421875,5.0710149778008455,0.07499240488111972,3.1389830853819847
1778595599837790500,4.31679052734375,4.673314467364549,0.06735124247819185,3.329601226566732
1778595599847783700,4.32678369140625,4.218157208737731,0.07211509587913752,3.5234412524074314
1778595599857777700,4.336777587890625,3.499077211001515,0.099994159668684,3.706823889380693
1778595599867770400,4.346770263671875,2.521118898063898,0.219093417301774,3.826309515982866
1778595599877763600,4.356763671875,1.5890256797224283,0.35274580868333577,3.7992461524903773
1778595599887757600,4.366757568359375,0.6013315701901912,0.4350570121452212,3.6582585959151386
1778595599897750300,4.376750244140625,-0.4478688551843166,0.4775280803889036,3.4060049595504998
1778595599907743500,4.386743408203125,-1.4468132575273513,0.5134843599110841,3.1777994305104014
1778595599917736400,4.396736328125,-2.204880865305662,0.5346037203073501,3.019492782604694
1778595599927730700,4.406730712890625,-2.78354000043869,0.5866255839675665,3.003129384563863
1778595599937723400,4.416723388671875,-3.4127608635514974,0.7105301960557698,2.9758897877216337
1778595599947716400,4.42671630859375,-4.075000199168921,0.8634310393951833,2.884015806144476
1778595599957710600,4.436710693359375,-4.779157937583327,0.9349180665038526,2.6946441578894853
1778595599967703600,4.44670361328125,-5.4393952857285734,0.8514334353484213,2.394450228089839
1778595599977696500,4.456696533203125,-5.99763531768918,0.6251476223245263,1.91788368620947
1778595599987689500,4.466689453125,-6.3360927810400725,0.34096564677953717,1.327503864274919
1778595599997683500,4.476683349609375,-6.389369028675556,-0.05347600799128413,0.7275700320534407
1778595600007676400,4.486676513671875,-6.122690268856287,-0.7012047338277101,0.2843123239263892
1778595600017669400,4.49666943359375,-5.770665467923879,-1.4277522909656166,0.14311726208031178
1778595600027663400,4.506663330078125,-5.467128511306643,-1.840547640811652,0.14671528657227753
1778595600037656600,4.516656494140625,-4.9900277164191005,-1.7509797442197799,0.10493541546314954
1778595600047649300,4.526649169921875,-4.867738722833991,-1.2682102560460566,-0.016399346137046814
1778595600057642500,4.536642578125,-5.5234284906774755,-0.4641093574978411,-0.04351882373094559
1778595600067636500,4.546636474609375,-6.053173080515861,0.49821299489066,0.16720365558862685
1778595600077629400,4.55662939453125,-6.183239137843251,1.4861642940543591,0.23952713352143762
1778595600087622400,4.566622314453125,-5.668917158064246,2.256600677279383,0.06987199312746524
1778595600097615400,4.576615478515625,-4.8111190099895,2.659103181169927,0.03650660688132047
1778595600107609600,4.586609619140625,-4.124327416917682,2.4702497115701436,0.2580567696854472
1778595600117602600,4.5966025390625,-3.155383016040921,1.980682818341255,0.5661176334679127
1778595600127595500,4.606595458984375,-1.8357739966690538,1.2834041719160973,0.9247770501092075
1778595600137589500,4.616589599609375,-0.041242695492506025,0.19329510530903934,1.0301818366497755
1778595600147582500,4.62658251953125,1.7322738747060298,-0.4705187861487269,1.2377891065582631
1778595600157575400,4.636575439453125,2.236401208207011,-0.26811726818978787,1.4623881355389952
1778595600167568400,4.646568359375,1.1443915686756372,0.2000651839658618,1.3694827650874852
1778595600177562400,4.656562255859375,0.004138999500870704,0.947519920054078,1.2524220275446771
1778595600187555600,4.6665556640625,-0.5402928718596697,1.9187687984809279,0.9004442806243896
1778595600197548300,4.67654833984375,-0.9879021993249654,2.640796247845888,0.7238768766239285
1778595600207542500,4.68654248046875,-1.1752724446296692,3.0942507942080497,0.6712965022981167
1778595600217535500,4.696535400390625,-0.9395306748658419,3.2125501336351037,0.6474851263388991
1778595600227528400,4.706528564453125,-0.39060675278306006,3.1092066635385156,0.8756076532706618
1778595600237521400,4.716521484375,0.6684528033047914,2.8277146577298637,1.0151534866049885
1778595600247513000,4.72651318359375,2.3915695580869913,2.3318775981903075,1.0477020035102962
1778595600257506000,4.736506103515625,4.22819228053987,1.9638953496694564,1.1859694874718785
1778595600267499300,4.746499267578125,5.420604076018929,1.7859210014805196,1.7681266938537359
1778595600277492000,4.756491943359375,6.03493424399197,1.4299272969171404,2.0485925714850426
1778595600287486000,4.76648583984375,5.658229175311327,0.4757287758819759,2.07342978336066
1778595600297479200,4.776479248046875,4.941176884010434,-0.028862229607999324,2.248203581942618
1778595600307472000,4.786471923828125,4.583035646024346,-0.0135078624792397,2.2677944175973535
1778595600317466000,4.796466064453125,4.619181895160675,0.4202826368615031,1.7613459476724267
1778595600327459000,4.806458984375,4.7101071977108715,0.8719457697622478,1.0859773736298084
1778595600337452300,4.816452392578125,4.8321740729779,0.6482363830976188,0.8158575334459542
1778595600347445000,4.826445068359375,5.029251473304629,0.1922207540757954,0.743924808396399
1778595600357439000,4.83643896484375,5.325255111807585,-0.06669803926646709,0.6754314101457596
1778595600367432200,4.84643212890625,5.538874481612444,-0.136643389891088,0.6229030582681298
1778595600377425200,4.856425048828125,5.477031481161713,-0.13399755155742168,0.5625725082069635
1778595600387418000,4.866418212890625,4.898052612555027,-0.11039192730337381,0.41457039669454093
1778595600397412000,4.876412109375,3.877546951267123,0.026901450929045674,0.05861614735871553
1778595600407405000,4.886405029296875,2.6024247238755223,0.22739508944004772,-0.49376463717967267
1778595600417398300,4.896398193359375,1.0067220506072043,0.7050634550824761,-0.9692004214644432
1778595600427392000,4.90639208984375,-0.5759726725280284,1.560715531039238,-1.4824053799122572
1778595600437385000,4.916385009765625,-1.6318915925025939,2.2784232175089416,-1.8656901192441582
1778595600447378200,4.926378173828125,-2.369477553266287,2.586983701376617,-1.9419412920147179
1778595600457371000,4.936370849609375,-2.731231721052527,2.522810504412651,-1.9272306296169757
1778595600467365000,4.946365234375,-2.649865689486265,2.249021474196762,-1.808977467419207
1778595600477358000,4.956358154296875,-1.9576970795512199,1.893813951575011,-1.592181513404846
1778595600487351300,4.966351318359375,-1.1976742460519074,1.6608094978205858,-1.2345017554506659
1778595600497344000,4.976343994140625,-0.8389251053005456,1.3994716606378554,-0.9015735769152641
1778595600507338000,4.986337890625,-0.5743436100214719,0.6637760436654091,-0.8261816513225436
1778595600517331200,4.996331298828125,-0.618773703378439,-0.3136073919937014,-0.9822387667357921
1778595600527324200,5.00632421875,-0.9435749818205833,-1.0482426862582563,-1.554316477651894
1778595600537317000,5.016317138671875,-1.405097683826089,-1.2256629076957701,-2.2500527169406412
1778595600547311000,5.02631103515625,-1.845830111259222,-1.018356374299526,-2.9680542717903853
1778595600557304000,5.036303955078125,-2.473749828645587,-0.7116684063054621,-3.3975790765106675
1778595600567297300,5.04629736328125,-3.7124013972520826,-0.24373174560442565,-3.204818662600219
1778595600577291000,5.056291015625,-4.770086742377281,0.49761707482412454,-2.746583019441366
1778595600587284000,5.066283935546875,-5.210611080017686,1.260200698722154,-2.2956132756322623
1778595600597277200,5.076277099609375,-5.1836353948086495,1.743432543710619,-1.9118559503525494
1778595600607270000,5.086269775390625,-4.626796461817622,1.6719044539391994,-1.6492387408837674
1778595600617264000,5.09626416015625,-4.191051759669184,1.0149753535591066,-1.3607295497894287
1778595600627257000,5.106257080078125,-3.283926393845677,0.22757833705246447,-1.2990335565939546
1778595600637250300,5.116250244140625,-2.077540433549881,-0.2608941850684583,-1.5445035241678355
1778595600647243000,5.126242919921875,-1.0249877751380205,-0.5655347190134227,-1.5955226405262946
1778595600657237000,5.136237060546875,-0.36089667417407034,-0.6984869993016123,-1.2475816017761825
1778595600667230200,5.146230224609375,-0.13375205236375332,-0.6911376594521105,-0.6740262195229529
1778595600677223200,5.15622314453125,-0.2111076792448759,-0.7453224002346396,-0.3388751042410731
1778595600687216000,5.166216064453125,-0.20213234562873839,-0.8153180197417735,-0.13187515257596968
1778595600697210000,5.176210205078125,0.10613923829495907,-0.7247637424610555,0.07017302190065383
1778595600707203000,5.186203125,0.5135913274168968,-0.567513764001429,0.35008681860715146
1778595600717196000,5.196196044921875,0.6370166315555572,-0.6067044954001903,0.8609934369847178
1778595600727189000,5.20618896484375,0.8186702527791261,-0.7165683071762323,1.2832280846968291
1778595600737183000,5.216182861328125,0.6309861192196607,-0.6900518369767814,1.5147636349424718
1778595600747176200,5.22617626953125,0.3386293127864599,-0.47668731871582565,1.5811469091713428
1778595600757169000,5.2361689453125,0.5688058496385813,-0.1683165852665901,2.1393606376469134
1778595600767162000,5.246162109375,1.3306886317908764,-0.027257351694628593,3.2449709325075147
1778595600777156000,5.256156005859375,2.42820096039176,0.07661664508208632,3.861353356835246
1778595600787149300,5.2661494140625,3.3722371299833056,1.2343234762743114,4.615689376869797
1778595600797142000,5.27614208984375,3.0759657804548737,1.4759667251668869,5.200891065514087
1778595600807135200,5.28613525390625,2.160671136701107,0.4335606361076236,4.520299496126174
1778595600817129200,5.296129150390625,1.9343068516135216,0.013532996920496225,4.049558591659367
1778595600827122200,5.3061220703125,1.4417588967472315,-0.5374091331169009,3.426899863541126
1778595600837115100,5.316115234375,1.1464812344312667,-1.20665893201828,2.9406957247436045
1778595600847108000,5.326108154296875,1.235575814422965,-1.8199791922964155,2.742534036311507
1778595600857102000,5.33610205078125,1.6696230650037527,-2.047947843840718,2.6690426836431027
1778595600867095000,5.346094970703125,2.0278595800578594,-1.871737436584383,2.8541034829616545
1778595600877088000,5.356087890625,2.448260582602024,-1.3415421803690493,3.2583085529863833
1778595600887081200,5.366081298828125,2.8206080405950544,-0.6940597574438899,3.704657066735625
1778595600897075200,5.3760751953125,2.697988792142272,-0.34889724349640305,4.0619618538975715
1778595600907068000,5.38606787109375,1.7723662311196327,-0.437923434427008,4.313820645725727
1778595600917061000,5.39606103515625,0.21907529712319374,-0.9056780896246432,4.346571407204866
1778595600927054000,5.40605419921875,-0.6870224792182446,-1.725123856820911,4.144652412065863
1778595600937048300,5.41604833984375,-1.2733406046718359,-2.403486498112976,3.4621471180111167
1778595600947041000,5.426041015625,-1.781201864004135,-2.463066522067785,2.5133143617928027
1778595600957034000,5.436033935546875,-3.1496623003065585,-2.208708753030747,1.5259493380844593
1778595600967027200,5.446027099609375,-4.063832908466458,-1.0821019935011864,-0.02292494851350784
1778595600977021200,5.456021240234375,-4.554665876108408,0.12876827260181306,-1.172553248798847
1778595600987014100,5.46601416015625,-4.372458128133416,0.9271763663358986,-0.4494675225526094
1778595600997007000,5.476007080078125,-3.3656863931655883,1.9928860279627143,0.16843524321019648
1778595601007000300,5.486000244140625,-1.975026400014758,3.294939663030207,0.3002612959474325
1778595601016994000,5.495994140625,-1.05180739300251,3.341778863355517,-0.2534668115466833
1778595601026987000,5.505987060546875,-3.055853551274538,3.099156101906299,-1.7324807954549788
1778595601036980200,5.515980224609375,-6.124786364352703,3.761174488249421,-2.8121728052049875
1778595601046973000,5.525972900390625,-7.288323363003134,5.319614475572109,-2.775149188712239
1778595601056967000,5.535966796875,-6.429227576333284,6.485709926533699,-1.7675713980585335
1778595601066960100,5.545960205078125,-4.9270261935830115,6.401514224499464,-0.6738812580943108
1778595601076953000,5.555953125,-3.791534555199742,5.492788437741995,0.02526303607225418
1778595601086946000,5.565946044921875,-3.130649556800723,4.308549427324533,0.41824733164161443
1778595601096940000,5.57593994140625,-2.6095471231013536,3.446879406252503,0.5191854941621422
1778595601106933000,5.58593310546875,-1.0672358482807873,2.640081377574801,0.33510493805259467
1778595601116926200,5.59592626953125,0.37719898967742915,1.657658486443758,0.3122892951324582
1778595601126919000,5.6059189453125,1.1359522416323422,1.0222561582170426,-0.08144348071664571
1778595601136913200,5.6159130859375,0.8232260163873434,0.6980867479376495,-0.47837125321477647
1778595601146906000,5.625906005859375,-0.11817922017872333,0.8634110925856977,-0.7181903554201126
1778595601156899300,5.6358994140625,-0.8976064268499613,1.2117146079726517,-0.48325873299539085
1778595601166892000,5.64589208984375,-0.7732721911728382,1.5755302383333443,-0.1302192020624876
1778595601176885200,5.65588525390625,-0.015503858602046965,1.9679685904577373,0.22739976561516523
1778595601186879200,5.665879150390625,0.610990794417262,2.3191201156869528,0.6318766383185982
1778595601196872000,5.675871826171875,1.2012193713128565,2.5802362729430195,1.178828968067467
1778595601206865200,5.685865234375,1.9609914449214934,2.7137898801252245,1.6997501999810336
1778595601216858000,5.695858154296875,2.589537769773602,2.5042887592941523,1.2216302911788224
1778595601226852000,5.70585205078125,3.4058372017681595,1.9167668110087512,0.1840954614177346
1778595601236845000,5.715844970703125,4.304149146538973,1.5461621050298213,-0.14531506438553332
1778595601246838000,5.725838134765625,4.5834091555118555,1.5839581671997904,0.2589902511432767
1778595601256830700,5.735830810546875,3.837565069490671,0.6841990923605858,1.5491569029316306
1778595601266824700,5.74582470703125,4.002701855677366,0.03428178870500997,1.6046721616655588
1778595601276817700,5.755817626953125,4.461827433413267,0.20686865343563257,1.0264256989866494
1778595601286810600,5.765810546875,4.5028369046717875,0.2792424367835745,0.8405132512748241
1778595601296803800,5.775803955078125,4.959974523460865,0.16586312769986689,0.7439873522385955
1778595601306796500,5.785796630859375,5.202766796258092,0.05221613042356912,0.6178446058347821
1778595601316790500,5.79579052734375,5.2617701893687245,0.04564925988838076,0.5772744027763604
1778595601326783700,5.80578369140625,5.324686956530809,-0.12305692748399451,0.1663262882322073
1778595601336776400,5.8157763671875,5.114781054291129,-0.23142302978187798,-0.5525567256271838
1778595601346769700,5.825769775390625,4.803070728090405,-0.03345452583432197,-0.8036039088115096
1778595601356763600,5.835763671875,4.9624096416532995,0.4667123065378517,-0.3490095447644591
1778595601366756600,5.845756591796875,5.333998390233516,0.8155651994358748,-0.03470131102502346
1778595601376749600,5.85574951171875,5.434691638082265,0.905833280186355,-0.08174655531644821
1778595601386742500,5.865742431640625,5.475263302445411,0.7536332785926759,0.0858557442009449
1778595601396736500,5.875736572265625,4.873098788562417,0.4988347069855779,-0.049040802022814745
1778595601406729700,5.885729736328125,3.965806834000349,0.36852143343146887,-0.394870255446434
1778595601416722400,5.895722412109375,3.7193554541736837,0.801174270511791,-0.7579787604510784
1778595601426715600,5.905715576171875,2.506722708442807,1.5898004634872078,-0.8038964620172977
1778595601436708600,5.91570849609375,0.48929976672530173,1.7114869611345231,-0.3659501581713557
1778595601446702600,5.92570263671875,-0.34440497357845307,1.4182070485070346,-0.37896833743751046
1778595601456695600,5.935695556640625,0.343377384096384,1.2886550781816244,-0.6778022309303283
1778595601466688500,5.9456884765625,2.0796780301004647,1.7037426306180654,-0.5202300347790122
1778595601476681700,5.955681640625,3.3685312612026928,1.4538358496405184,-0.6500318882122635
1778595601486675500,5.965675537109375,3.595854746711254,1.819177812785655,-0.6844315859422088
1778595601496668700,5.975668701171875,2.275322182753682,3.3213416400045155,-0.39504941140562294
1778595601506661600,5.98566162109375,0.73199617793262,5.479167908668518,-0.6251949685975909
1778595601516654600,5.995654541015625,-1.0442577082753182,7.516260011973976,-0.33820027371942996
1778595601526647600,6.0056474609375,-2.1931582788079975,8.917555965429544,0.07263970427513122
1778595601536641500,6.0156416015625,-2.2767875791311263,8.647031051576137,-0.4758107550770044
1778595601546634800,6.025634765625,-2.6702234178602695,6.856660961732268,-2.1561814240664243
1778595601556627500,6.03562744140625,-3.4215649322539567,4.356367117293178,-4.158091739353537
1778595601566620700,6.04562060546875,-3.216775350114703,2.4056661802396175,-5.3752668046891685
1778595601576614700,6.05561474609375,-0.2665326293468475,2.552236213122308,-4.167478576380014
1778595601586607600,6.065607666015625,2.746896323174238,4.15589481383115,-1.2300707872658967
1778595601596600600,6.0756005859375,4.889935941594839,5.337383941018581,1.0851496906340121
1778595601606593500,6.085593505859375,6.85330054538846,5.072078223118186,2.250027582499385
1778595601616586800,6.095586669921875,7.962035694271326,4.9168286246955395,3.30876272893846
1778595601626580700,6.105580810546875,7.478740136396884,5.434757104533911,3.3970570984631774
1778595601636573400,6.115573486328125,4.91682687112987,5.772694343402981,2.2169839755535126
1778595601646566700,6.125566650390625,1.6809493456602096,6.332521936815977,0.6645020198523998
1778595601656559600,6.1355595703125,-1.1967834346920252,7.051900040715933,-0.6223796189159154
1778595601666552600,6.145552490234375,-3.594399871727824,8.273273726785183,-0.47123687129020686
1778595601676546600,6.155546630859375,-5.38762827361226,9.080848585054278,0.12417816833257675
1778595601686539800,6.165539794921875,-5.810305988916754,9.504213698101044,0.5860030681550502
1778595601696532500,6.175532470703125,-4.787288637068867,8.556710729181766,-1.0386433755248785
1778595601706525400,6.185525390625,-4.322637573909759,6.287552914276719,-4.131607052531838
1778595601716519700,6.195519775390625,-4.407947959187626,3.5842180849313734,-7.102585687336325
1778595601726512600,6.2055126953125,-4.981555656149983,0.3738438340306282,-10.28776529122591
1778595601736505600,6.215505615234375,-4.536036578962206,-2.6488912914961573,-12.319850964546204
1778595601746498600,6.22549853515625,-3.149911306631565,-4.120213551858067,-13.508969563698768
1778595601756491800,6.23549169921875,-0.5979448503613471,-4.504626710698008,-13.677453322225809
1778595601766485800,6.24548583984375,2.5492583663553,-6.006612989392877,-12.53472354928255
1778595601776478500,6.255478515625,5.02231086038649,-8.207586325865984,-11.455437782245873
1778595601786471700,6.2654716796875,7.96905872477591,-10.456796162241696,-12.377337523353098
1778595601796464600,6.275464599609375,12.731174342143534,-13.023451653599738,-13.382944306194782
1778595601806457600,6.28545751953125,14.965557196265458,-14.839288777655362,-13.538513638091086
1778595601816451600,6.29545166015625,14.794057304787636,-15.069949298632144,-13.397746738529204
1778595601826444500,6.305444580078125,13.350769883298874,-13.555764048099517,-11.269362252926825
1778595601836437800,6.315437744140625,10.904686060214042,-11.619928087222576,-9.543746667066216
1778595601846430500,6.325430419921875,8.79176860833466,-9.276794935524464,-7.982940535134077
1778595601856424400,6.335424560546875,7.010944929993152,-6.652210986810922,-5.613362444102764
1778595601866417700,6.345417724609375,4.943977328383922,-4.734720829963684,-2.2439567381531
1778595601876410400,6.355410400390625,4.579200597906112,-3.465098953554034,-0.21200667391121386
1778595601886403600,6.365403564453125,4.748187922041118,-3.306733268937468,0.2174304525256157
1778595601896396500,6.375396484375,3.9185625600054856,-4.839629065158963,-1.5109247874319554
1778595601906390800,6.385390869140625,2.6535689279183745,-4.700155712538957,-2.768778484636545
1778595601916383500,6.395383544921875,1.5270678207203745,-4.446241157224774,-3.9475469546884296
1778595601926376700,6.405376708984375,-0.23944705402255057,-4.253241966122388,-5.254099508610367
1778595601936369700,6.41536962890625,-1.9396694015599787,-2.7830945947587487,-5.7972378330290315
1778595601946362400,6.4253623046875,-5.513897861266136,-0.6072942779868841,-5.196005047038197
1778595601956356600,6.435356689453125,-13.7760528126657,5.58000319533646,-0.36113632814884183
1778595601966349600,6.445349609375,-14.803945077073573,9.882464827179907,2.3120710739582777
1778595601976342800,6.4553427734375,-14.737543390405177,12.928960183000564,4.025696946817637
1778595601986335500,6.46533544921875,-11.794543480372429,13.009222052717208,4.0885049929082395
1778595601996328700,6.47532861328125,-8.11318487163782,11.84737724493742,3.647092181995511
1778595602006322700,6.48532275390625,-5.6748769432514905,10.689444057643414,3.823648772341013
1778595602016315600,6.495315673828125,-3.0483202331602572,9.12892317239344,3.158396810904145
1778595602026308600,6.50530859375,1.1084195070624352,6.761683753442764,2.282901678097248
1778595602036301600,6.515301513671875,4.434403419914841,2.455350833123922,1.806789894247055
1778595602046294800,6.525294677734375,3.1037282321274278,-0.03248421949744224,-1.4925982726246119
1778595602056288800,6.535288818359375,1.83468576304093,0.04405541482567787,-3.6425440171718595
1778595602066281500,6.545281494140625,3.425032900625467,1.4208423654466866,-3.812884801742434
1778595602076274700,6.555274658203125,4.9558974832803,2.223476844704151,-3.5950831778168677
1778595602086267600,6.565267578125,5.6300061203897,1.396035256448388,-3.0419337469935415
1778595602096260600,6.575260498046875,5.8376358943909405,-0.6348620838701725,-1.56779876729846
1778595602106254600,6.585254638671875,6.110387836644053,-1.5155141610488294,-1.5494997250199316
1778595602116247600,6.59524755859375,9.270752148228883,-1.232220951037109,-1.9228513916194439
1778595602126240500,6.605240478515625,6.3333408519834276,1.873506638213992,-0.28540450307726856
1778595602136233500,6.6152333984375,0.6267864025074988,3.541353633455932,3.0107728850543496
1778595602146226700,6.625226806640625,-1.4144178853571414,1.4518711254388093,2.83132115778923
1778595602156220700,6.635220703125,-2.85159413048923,-1.5459420325383544,1.7631097424745559
1778595602166213600,6.645213623046875,-3.671393095037341,-3.6502167437568307,0.8993892186135053
1778595602176206600,6.65520654296875,-2.7400001339197155,-4.675558154638112,0.30373452501595016
1778595602186199600,6.665199462890625,-1.1049893864832818,-5.19456303153634,-0.49021337443888185
1778595602196192500,6.675192626953125,-0.5226844421938062,-5.03269898341,-1.2226058582127093
1778595602206186500,6.6851865234375,1.674575718975067,-4.26286144286096,-1.1546002434790135
1778595602216179700,6.6951796875,4.179326250562071,-2.4944331357121468,-1.1282745466113089
1778595602226172700,6.705172607421875,2.1440165006287395,0.17982435996979473,-2.899277088162303
1778595602236165600,6.71516552734375,-2.0633482420682907,3.675801559129357,-1.462384920668602
1778595602246158600,6.72515869140625,-3.8895004239112136,3.898910349552333,-0.7496978388398885
1778595602256151800,6.73515185546875,-5.231161700615287,0.968732511691749,-1.1726479413449764
1778595602266146000,6.74514599609375,-5.521955495515465,-1.3535443144604562,-1.403452254706621
1778595602276138800,6.755138671875,-4.180115939635038,-0.5434253246665001,-1.142638587528467
1778595602286132000,6.765132080078125,-2.4038971247404812,0.9565706569939851,-0.6121890642911195
1778595602296125000,6.775125,-1.056591120147705,2.3692110112845897,-0.35085283454358573
1778595602306118000,6.785117919921875,-0.8623539116829633,-0.44266222645193337,0.19754326427280902
1778595602316112000,6.79511181640625,0.11442717416882514,-0.8439294894590973,-0.04047404920756817
1778595602326104800,6.805104736328125,-0.8294909220010042,5.172299177280068,-0.3760159173727035
1778595602336098000,6.81509814453125,-0.6772966194957495,7.739280831852555,-0.9009422932744026
1778595602346090800,6.8250908203125,-1.9646540590822696,4.007736927235126,-1.9093121110886335
1778595602356084000,6.835083984375,-2.4596394702285527,-0.012679156570136546,-3.1862031017184256
1778595602366078000,6.845077880859375,-0.19576571493996306,-1.5856395444154738,-5.906290328422188
1778595602376070700,6.855070556640625,3.3420711243003605,-2.744255161015689,-6.284125862437486
1778595602386064000,6.86506396484375,6.0412172697842115,-3.5997546767592428,-3.8775346763074396
1778595602396056800,6.875056884765625,6.150070443212986,-4.450026520982385,-1.727916848540306
1778595602406050000,6.885050048828125,4.391667270994186,-2.6488296244367957,0.9561825344592332
1778595602416042800,6.895042724609375,3.4606256075322626,0.6979699896901845,3.5731267820745702
1778595602426036700,6.90503662109375,3.3239339945852753,0.8422747079893946,3.0937305697262287
1778595602436030000,6.915030029296875,2.0818939525842666,-1.4052505363002419,2.3478262779504058
1778595602446022700,6.925022705078125,1.8822621915996074,-1.0647238654598592,1.2958856139570474
1778595602456016000,6.935015869140625,1.9992963333964346,0.2969680996209383,0.8618816179960965
1778595602466008800,6.9450087890625,3.092435269218683,-0.6642980217128992,0.668263418212533
1778595602476002800,6.9550029296875,2.86433144698739,-0.5838935286551714,-0.8523556647598743
1778595602485995800,6.964995849609375,-2.3905929681397975,-2.1532076689526436,-1.1436316902190446
1778595602495988700,6.97498876953125,-5.116612361371517,-2.499134153009951,0.20735855584442614
1778595602505982000,6.98498193359375,-3.5468496005237102,-1.342862176926434,1.8629799835026264
1778595602515974700,6.994974609375,-2.4767127701044083,-1.0355942170873285,5.078625452804565
1778595602525968000,7.0049677734375,-3.0499779372394085,0.2421855390757322,8.53425106009245
1778595602535961900,7.0149619140625,-3.187733380025625,2.3570222685799003,9.220463976493477
1778595602545954800,7.024954833984375,-3.3474539863824844,0.6761106245815753,10.509677857601641
1778595602555947800,7.03494775390625,-2.7829648308992385,-0.812322052796185,11.068017842805386
1778595602565940700,7.044940673828125,-3.148883717149496,-0.3002668489053845,11.187943029868602
1778595602575934000,7.054933837890625,-4.14620548672676,0.7547744114518166,10.207523295253514
1778595602585928000,7.064927978515625,-4.488941065788269,1.265358373746276,8.88828252467215
1778595602595921000,7.0749208984375,-3.4144553925096988,0.19001842172592878,8.297795004579424
1778595602605913900,7.084913818359375,-3.086159842211008,-0.0396337989911437,7.121518935865163
1778595602615907000,7.094906982421875,-3.2443186060786244,0.022364976543188093,6.440915676039457
1778595602625899800,7.104899658203125,-2.4639199240267273,-0.4153215073227882,6.706119102609157
1778595602635893000,7.11489306640625,-0.6279483589589595,-1.2642460285902022,5.053305133587122
1778595602645887000,7.124886962890625,0.6495709927022457,-5.129558352184295,0.4001958343833685
1778595602655879700,7.134879638671875,-0.10494520620480179,-3.7970062646090983,-1.759485706758499
1778595602665873000,7.144872802734375,0.7609770654842257,4.870739073693752,-3.6823803529977797
1778595602675865900,7.154865966796875,-2.064809985183924,3.8695156205028294,-7.837281187355518
1778595602685859000,7.164859130859375,-1.8654867056265472,-0.13824790247827767,-10.967660110521315
1778595602695851800,7.174851806640625,-0.08205284478664397,-1.20388011495471,-12.524573911190032
1778595602705845800,7.184845703125,-0.38523148948550223,-1.4598250070527194,-12.713271605706215
1778595602715839000,7.1948388671875,-0.5652043180152774,-1.7054121712654828,-12.870606193709373
1778595602725831700,7.204831787109375,-0.6470566717937588,-1.9069117719486355,-12.98262513769269
1778595602735825000,7.214824951171875,-0.6690668435499072,-2.051717717768252,-13.052032435917853
1778595602745817900,7.22481787109375,4.438898685507476,2.000818720658123,-8.426406771445274
1778595602755811800,7.234811767578125,3.9254242624685167,2.836577178621292,-5.191760249075293
1778595602765804800,7.2448046875,2.854393113557994,2.3725530151888727,-1.7368600334525108
1778595602775797800,7.2547978515625,2.361482170598209,1.5171946614816785,3.174811354610324
1778595602785791000,7.264791015625,2.988600508473813,1.589408249299228,7.245348729151487
1778595602795783700,7.27478369140625,5.024379483354092,1.2835706145241856,8.84361453090608
1778595602805777000,7.28477685546875,5.425949528700113,0.5583610279917717,9.661380528321862
1778595602815771000,7.29477099609375,4.2078436122551555,-0.5076517082348465,9.18569602997303
1778595602825763800,7.304763916015625,2.1762528828449548,-0.9002756460592151,8.745642232453823
1778595602835756800,7.3147568359375,0.6448620843589306,-0.8892699756592511,8.176434816277027
1778595602845749800,7.324749755859375,-0.11614113847985863,-0.7054957090198993,7.503518603822588
1778595602855743000,7.334742919921875,-0.7230874798119068,-0.12115765146762132,7.005364499512314
1778595602865735700,7.344735595703125,-1.497019888459146,0.7176371054515243,6.840906343239546
1778595602875730000,7.35472998046875,-2.018558813879639,0.512520483314991,6.718016461151838
1778595602885723000,7.364722900390625,-2.19082194481492,-0.25640871021747585,6.326446416294575
1778595602895715800,7.3747158203125,-2.208840416586399,-0.8019877057865261,6.015020752254128
1778595602905708800,7.384708740234375,-2.5296821437478063,-0.37699294571131464,5.228163687843084
1778595602915701800,7.39470166015625,-1.6910218268632888,-0.03733750474750996,2.6816724481135603
1778595602925695000,7.404695068359375,-0.5233212787926197,0.6105079793363809,-8.837716120517253
1778595602935689000,7.41468896484375,-1.3702235004521905,4.2667610806480045,-21.613604049134253
1778595602945682000,7.424681884765625,-2.652452783370018,8.075451645570993,-22.564008584713935
1778595602955675000,7.4346748046875,-2.818833432137966,8.833404102537035,-22.36026295866966
1778595602965667800,7.444667724609375,-2.266944522769749,10.13071244277358,-9.263326966664195
1778595602975660800,7.454660888671875,-1.5099641257062553,14.701054026919602,-5.801480292904377
1778595602985653800,7.46465380859375,-6.021797114521265,8.983992138889432,-11.313054095137119
1778595602995647000,7.47464697265625,-3.7877252260446546,-3.1099323474645613,-18.395593604266644
1778595603005640700,7.484640625,3.56387672317028,-3.88037808303982,-10.300832862591744
1778595603015634000,7.494634033203125,5.870356845253705,-2.8629698032453654,-2.0259049388587473
1778595603025627000,7.504626953125,4.889268709857761,-2.5814582159534094,1.258720543166995
1778595603035619800,7.514619873046875,5.241154102319479,-1.7975135318577289,2.3681033423036335
1778595603045612800,7.52461279296875,6.228644798234105,-1.6146590104117988,2.010247350999713
1778595603055606000,7.53460595703125,6.958528514057398,-1.8306702437892555,2.0090829833954573
1778595603065600000,7.54460009765625,6.493738919210434,-1.6918579854264855,2.483767949312925
1778595603075592700,7.5545927734375,5.309053334069252,-1.4567755563542246,3.245194219869375
1778595603085586000,7.5645859375,4.064288251018524,-1.2199229758042842,3.8988925216346977
1778595603095579000,7.574578857421875,2.8807167645990845,-1.2993845619887112,4.255007806751132
1778595603105571800,7.58457177734375,1.9112229131460188,-1.1696428412448614,4.584619700345397
1778595603115564800,7.594564697265625,1.190589110096544,-0.786930860299617,4.827751580360531
1778595603125558800,7.604558837890625,0.9987873120851815,-0.4673926169522106,4.777273439010978
1778595603135552000,7.614552001953125,0.44795989446863527,-0.3081756492685526,4.568825334364176
1778595603145544700,7.624544677734375,-0.4574947616636753,-0.05630027163177728,4.597476843830943
1778595603155538000,7.634537841796875,-1.5613161272808909,-0.11426789195388555,4.8525130966514345
1778595603165531000,7.64453076171875,-2.8593445984855292,-0.5495629506386817,5.228984356576204
1778595603175523800,7.65452392578125,-3.9982866695836186,-0.7130329726569354,5.731607715255022
1778595603185516800,7.664516845703125,-4.2465529898777605,-0.547179343437776,6.334913800388574
1778595603195510800,7.6745107421875,-3.7012335220277306,-0.8019858060903847,6.782899559950828
1778595603205504000,7.68450390625,-3.4575635896131396,-1.0884748895339666,7.424363818565011
1778595603215496700,7.69449658203125,-3.308136413733661,-0.97410192977041,8.108389454054832
1778595603225490000,7.704489990234375,-2.902242367708683,-0.8448270228207111,8.26923351148367
1778595603235483000,7.71448291015625,-2.402384966611862,-0.6464877858646214,8.466520755168794
1778595603245475800,7.724475830078125,-2.067521728360653,-0.6084466628924012,8.212695047181844
1778595603255470000,7.734469970703125,-2.0621932268142698,-0.863315888582915,6.740929134705662
1778595603265463000,7.744463134765625,-2.1547709727466104,-0.9412506305262446,4.2434249209851025
1778595603275456000,7.7544560546875,-2.022587192612886,-0.7881045802541077,1.0091630140185355
1778595603285449000,7.764448974609375,-1.2820739462256432,-0.4060153343170881,-2.9448820705175396
1778595603295442200,7.774442138671875,0.1031063003398478,1.2569308832712471,-6.796223736426234
1778595603305435000,7.784434814453125,1.0900234341502189,4.015578872907161,-8.471586221864818
1778595603315428000,7.794427978515625,-0.20047595672383903,5.846767295351624,-8.040311943128705
1778595603325422000,7.804422119140625,-2.489585111159086,2.5549568702578545,-10.422242735254764
1778595603335415000,7.8144150390625,-3.012512422198057,-0.07356902101449668,-12.164036133456229
1778595603345408000,7.824407958984375,-1.2468586943291127,-0.530197375107184,-9.015597821986674
1778595603355401000,7.83440087890625,0.6460206067442894,-1.3832503014162183,-5.312537669053674
1778595603365394200,7.844394287109375,2.6055823111236096,-1.5589122810095548,-4.053900712516904
1778595603375387000,7.854386962890625,4.240477177095413,-1.4214258644230664,-3.2477105866044758
1778595603385380000,7.864380126953125,4.559176047009229,-1.0765566343337296,-2.3172896853893996
1778595603395374000,7.8743740234375,4.536008229650557,-0.827934047947824,-1.1350064852148294
1778595603405367000,7.884366943359375,4.793367956982553,-0.6316768779627978,-0.15976210741102695
1778595603415360000,7.894360107421875,5.277624176582694,-0.2638612181805074,0.5039426245838403
1778595603425353000,7.90435302734375,5.599762957817315,0.2095860226355493,0.9559738601446152
1778595603435346200,7.91434619140625,5.8545712471008295,0.5625153711922466,1.2884072409003973
1778595603445339000,7.9243388671875,5.327927545887231,0.5772453228123485,1.3967501267194746
1778595603455332000,7.93433203125,4.3401600788578385,0.48412528669685123,0.8537748839080334
1778595603465326000,7.944326171875,3.1440114349380135,0.48507396572381256,0.9701911860674619
1778595603478441000,7.95744091796875,1.6497522433638572,0.19581644048020241,1.4976906273275612
1778595603488434200,7.96743408203125,0.21131050834059714,-0.06586392652988433,1.7858809617310762
1778595603498427000,7.977427001953125,-0.9544520574048161,-0.3330060660772025,1.878896514558792
1778595603508420000,7.987420166015625,-1.6413278216287492,-0.5622017751984298,1.7670207784384488
1778595603518413000,7.9974130859375,-2.289293132700026,-0.583316021028161,1.4806331095427274
1778595603528406000,8.007406005859375,-2.41113584382236,-0.5167851550221443,0.9182850577414036
1778595603538400000,8.01739990234375,-1.9707263647332787,-0.3911696473628282,-0.15879413916170595
1778595603548393000,8.02739306640625,-1.785346124202013,-0.5389660071700811,-1.5109206957787273
1778595603558386200,8.03738623046875,-2.0682591027244923,-0.8571462600372731,-2.7285698083668946
1778595603568379000,8.04737890625,-2.5846026514589786,-0.6247299814343452,-3.578752220740914
1778595603578372000,8.0573720703125,-3.314727482561767,-0.37677009674087164,-4.305734369903803
1778595603588365000,8.067364990234376,-3.7766789313733575,-0.07414645557627081,-5.038440157410502
1778595603598358000,8.07735791015625,-3.0888895594358443,0.5540029789127409,-6.222344236785173
1778595603608352000,8.08735205078125,-1.822480215331912,1.2822639158397913,-7.358577633446455
1778595603618345000,8.097344970703125,-1.1966861117973924,1.5537835398189723,-7.669087351685762
1778595603628338200,8.107338134765625,-0.8598810918286443,1.6414862270608543,-7.0775406779289245
1778595603638331000,8.117330810546875,-0.5636863146677613,1.583104472979903,-5.858327384763956
1778595603648324000,8.127323974609375,0.11512509330511092,1.1368453910797833,-4.235056321090459
1778595603658317000,8.137317138671875,1.2223273335322737,0.6425146444499492,-2.7704034554898738
1778595603668310000,8.14731005859375,2.21962747579962,0.4157208819039166,-1.657111958476901
1778595603678303000,8.157302978515625,2.91375511084795,0.18415055260583757,-0.4896130704581737
1778595603688297000,8.167296875,3.397121103610098,-0.10134133649393916,0.6103074883282185
1778595603698290200,8.177290283203124,3.5187285446718333,-0.10261442516967653,1.9918220519930123
1778595603708283000,8.187282958984374,3.137066730366647,0.11934504908770321,3.800176711338758
1778595603718276000,8.197276123046874,2.7740532101690767,0.1484708980679512,4.916521166181564
1778595603728269000,8.20726904296875,2.024589472346008,0.07663958756625652,5.816877184000611
1778595603738262000,8.217261962890625,0.9081003483355045,-0.2507739192008972,6.354979267817735
1778595603748255000,8.2272548828125,0.044564825652539726,-0.7731121783055365,6.002622458451986
1778595603758249000,8.2372490234375,-0.8064312411919236,-0.8833562215708196,6.058381170552969
1778595603768242200,8.2472421875,-1.5393275828346609,-0.8028918150193989,6.262120366856456
1778595603778235000,8.25723486328125,-1.8704174400269984,-0.8747676953151822,6.311466873827576
1778595603788854000,8.26785400390625,-2.0281331363022326,-0.9758268538668751,6.660337010121345
1778595603798847000,8.277846923828125,-2.108386822712421,-1.000927538984269,7.348772278746962
1778595603808840000,8.28783984375,-2.284227666004002,-1.1562889272183179,7.761917611074447
1778595603818833200,8.297833251953126,-2.596183199137449,-1.479989697072655,7.883247988760471
1778595603828825900,8.307825927734376,-2.971319703327119,-1.7039043970510364,8.002864548265933
1778595603838819000,8.317819091796874,-3.398482747352123,-1.9618461620546876,8.054372032663226
1778595603848812000,8.32781201171875,-3.7399382234752174,-2.176861224001646,8.108705095875262
1778595603858805000,8.337804931640624,-3.960170873939991,-2.4512659018978473,7.951144882422685
1778595603868799000,8.347799072265625,-3.2092578140914436,-2.5479718336760997,7.57022657996118
1778595603878792000,8.3577919921875,-2.9966718789875504,-2.7462106789976355,6.0062108383327715
1778595603888785200,8.36778515625,-3.0722891377687453,-2.4376712379179892,2.165754723575711
1778595603898777900,8.37777783203125,-1.5644693306148052,-1.6963025437451897,-3.5013130072295664
1778595603908771000,8.38777099609375,-0.47977658996805544,-0.3091806615926325,-8.575872525769471
1778595603918764000,8.397763916015625,-0.6132214760787784,1.8646613607183098,-9.709382634946703
1778595603928757000,8.407757080078126,-0.6299294497735798,1.9321099260911345,-9.702020581746101
1778595603938751000,8.4177509765625,-0.6527108981631696,1.940124597981572,-9.704729256182908
1778595603948744000,8.427743896484374,-0.6971392379544675,1.9286602240286765,-9.714158763307333
1778595603958737200,8.437737060546874,-0.19580781878232956,1.7464153589136897,-7.266831077641248
1778595603968729900,8.447729736328125,1.4088511911407113,1.0126296672157942,-4.13193964548707
1778595603978723000,8.45772314453125,2.9630174466669557,0.6284348273016512,-3.219488700726628
1778595603988716000,8.467716064453125,4.65054032549858,0.39272053006663915,-2.9509008924156426
1778595603998709000,8.477708984375,5.486688367301225,-0.04587897699102759,-2.029614899292588
1778595604008702000,8.487701904296875,6.2225453123152255,-0.6751224903270602,-0.9900409649193286
1778595604018696200,8.4976962890625,7.551423095291852,-1.0551974738322198,0.43499359152019024
1778595604028689000,8.50768896484375,8.064245191901922,-1.1266603894129394,2.2765374037623403
1778595604038681900,8.517681884765626,7.931176445627212,-1.0605315283365546,3.1316701320201155
1778595604048675000,8.527675048828126,6.167460553953052,-0.7542688000172376,3.146259798386693
1778595604058668000,8.53766796875,3.2761259492278096,-0.38931744362488385,2.779356577274203
1778595604068661000,8.547660888671874,1.2099763860031962,-0.5132857685990632,2.007999864333868
1778595604078654000,8.557654052734375,-0.17355302461534738,-0.7329017484702169,1.4151812709450722
1778595604088647200,8.567647216796875,-1.334741706573963,-0.9080997638136148,0.8128893312901257
1778595604098641000,8.577640869140625,-2.2452257351756093,-1.0914422149069607,0.18714637342095375
1778595604108634000,8.587634033203125,-2.7567618836283683,-1.0397492909401655,-0.5892454110771417
1778595604118627000,8.597626953125,-2.837115815542638,-0.5433223026834428,-1.5067559773147106
1778595604128620000,8.6076201171875,-3.029491906310618,0.6345651467502117,-2.866203086078167
1778595604138613000,8.617613037109376,-3.265974557569623,2.2720798398315907,-4.522762671369314
1778595604148606000,8.62760595703125,-3.360067968761921,3.4425188729554415,-6.0147898661077015
1778595604158599200,8.63759912109375,-3.3528806876063344,3.7555171931400895,-7.238506900432705
1778595604168592000,8.647591796875,-3.10737068028301,3.4931706173062325,-7.952055567526817
1778595604178586000,8.657586181640625,-2.5935996123850344,2.7449296992763874,-8.458553721812367
1778595604188579000,8.6675791015625,-1.7170611080050469,2.478874039791524,-8.475283322817086
1778595604198572000,8.677572021484375,-0.8537135091096162,2.648826994088292,-7.842282356643676
1778595604208565000,8.68756494140625,0.3141033588171005,2.3760575161784887,-6.2722776037335395
1778595604218558000,8.697557861328125,1.1875368829190731,1.5112586955614387,-4.009098863238096
1778595604228551000,8.707551025390625,2.1260624723955988,0.5593596836403012,-2.2781337330430746
1778595604238544000,8.7175439453125,2.88343011521101,-0.3250640210315585,-1.0863935532152653
1778595604248538000,8.7275380859375,3.1477319167658684,-0.9401710185959935,0.25853870798349377
1778595604258533000,8.737533203125,2.9681787749528885,-1.179554944254458,1.6635025362968443
1778595604268526300,8.7475263671875,2.880653343974054,-1.1428985536389051,2.811642643851042
1778595604278519000,8.75751904296875,2.807307537256181,-1.0039743593342603,3.672985332664847
1778595604288512300,8.76751220703125,2.8457708311632275,-0.8982976239845156,4.120091386783122
1778595604298505200,8.777505126953125,2.49868816280812,-0.8734551514118909,4.230518677660823
1778595604308498200,8.787498291015625,1.5562202654466033,-0.9390959367103874,4.262531772515177
1778595604318491100,8.7974912109375,0.49754474024027584,-0.893917070812732,4.480699307143688
1778595604328484400,8.807484375,-0.25673253534436224,-0.8087604147918522,4.928507956573367
1778595604338478300,8.817478271484376,-0.7180442249476909,-0.663633566454798,5.448421472749113
1778595604348471000,8.827470947265626,-0.9549746199741959,-0.5255747568078338,6.005138825187086
1778595604358464300,8.83746435546875,-1.3216031157985328,-0.6340411228761077,6.386043099123239
1778595604368457200,8.847457275390624,-1.7628844092860816,-0.7766466360419988,6.976347663864493
1778595604378450200,8.8574501953125,-2.261886362597346,-0.9703729723751544,7.438596342056989
1778595604388443100,8.867443115234375,-2.7552953182071445,-1.205711714296043,7.885625239285826
1778595604398436400,8.877436279296875,-3.26010537327528,-1.6417109757274388,8.228639050766825
1778595604408429000,8.887428955078125,-3.6302760717511173,-1.9464196064725516,8.503869365832209
1778595604418423300,8.89742333984375,-3.3986744705319403,-2.0779177424296735,8.691489786505699
1778595604428416300,8.907416259765625,-3.4648704054951667,-2.0852311341829597,8.627747674435376
1778595604438409200,8.9174091796875,-3.2870272824704645,-1.7528320940881967,8.36811649504006
1778595604448402200,8.927402099609376,-2.873205658316612,-1.2730487821184098,7.582541287133097
1778595604458395100,8.93739501953125,-2.237391096027195,-0.863781314137578,5.550591807413101
1778595604468388400,8.947388427734374,-0.6446423041284084,-0.3388694051526487,1.6285925509572028
1778595604478381000,8.957381103515624,1.706344483679533,0.8548838680632412,-3.6568653879910706
1778595604488374300,8.967374267578125,3.515556636637449,3.0296295612156388,-8.27131967010796
1778595604498367200,8.9773671875,2.4242928470373153,4.718837324394285,-10.311397511225938
1778595604508361200,8.987361328125,-1.0999788648448885,4.75330219631493,-11.811091295069456
1778595604518354200,8.997354248046875,-1.1624316677570343,4.747360531306266,-11.823529920881986
1778595604528347100,9.00734716796875,-1.2265398366607725,4.732504615218937,-11.837877595186233
1778595604538340400,9.01734033203125,-0.04189282996430993,0.35002646672204135,-6.762579825499653
1778595604548333000,9.0273330078125,1.3695089224420487,-0.001552197878062725,-4.618824752286076
1778595604558326300,9.037326171875,3.04089212898612,-0.33125878401845693,-3.459364209294319
1778595604568319200,9.0473193359375,4.495739055365323,-0.7223398763149976,-2.4669483319371937
1778595604578312200,9.057312255859374,5.136107919958233,-1.019572472091019,-1.3411866449296475
1778595604588306200,9.06730615234375,5.177279888302087,-1.0529207610718905,-0.43644671293795106
1778595604598299400,9.07729931640625,4.8656993259608745,-0.697612846815586,0.4918664023429155
1778595604608292400,9.087292236328125,4.7089337700173255,0.031697306903451676,1.4681471374571322
1778595604618285000,9.09728515625,4.416227419494092,0.48573973615616556,1.0757231061190367
1778595604628278300,9.1072783203125,3.8460219321906566,0.8952547491572797,0.467366751858592
1778595604638271200,9.117271240234375,2.8987855052530764,1.3525957815639673,0.558558011868596
1778595604648264200,9.12726416015625,2.1065327192783356,1.2577455606549977,0.7636755107879638
1778595604658257200,9.137257080078125,1.1340157206118107,0.681444240694493,1.057861286213994
1778595604668250400,9.14725048828125,-0.03842091607004404,-0.05246873064488172,1.4171177919656037
1778595604678244000,9.157244140625,-1.109784950196743,-0.6351445540733635,1.8057020990103483
1778595604688237300,9.1672373046875,-1.8590581338837742,-1.117993829485029,2.026998579314351
1778595604698230300,9.177230224609374,-2.1125907041430474,-1.4130080185592173,1.9337509712964296
1778595604708223200,9.18722314453125,-2.411073592241108,-1.3874500911936163,1.7727637060046195
1778595604718216200,9.19721630859375,-2.535003338770568,-1.123888002090156,1.2861673530191182
1778595604728209200,9.207209228515625,-2.6329288754716513,-0.5299925732500851,0.1695370669722557
1778595604738202400,9.217202392578125,-2.7422362224087116,0.2829216002203524,-1.5015122314423321
1778595604748195000,9.227195068359375,-3.4014676083818074,1.199863426659256,-2.9517233147144317
1778595604758188300,9.237188232421875,-2.751170639492571,1.8647483083494008,-3.9850598160028454
1778595604768181200,9.24718115234375,-2.22975373301655,1.9571993591621517,-4.557430664646625
1778595604778175200,9.25717529296875,-2.1523896305680275,1.5415253851398825,-5.2667403789967295
1778595604788168200,9.267168212890626,-1.3574831152141094,0.9546879119873046,-6.761403182935714
1778595604798161200,9.2771611328125,-0.043890871913731096,0.7286135497570038,-8.464346333739162
1778595604808154400,9.287154296875,1.0620838723450898,0.9507187160953878,-9.330317266875506
1778595604818147000,9.29714697265625,1.8115502405166626,1.4463538233220576,-8.747039239770174
1778595604828140300,9.307140380859375,2.856547076721489,1.5887863180086015,-7.199571897360682
1778595604838133200,9.31713330078125,3.6862574866920705,0.7867514120794832,-5.120023631119728
1778595604848126200,9.327126220703125,4.282482381393015,-0.15783464647978543,-2.8588761041909456
1778595604858119200,9.337119140625,5.337585016548633,-0.9868684723630547,-1.5398457614898682
1778595604868113200,9.347113037109375,6.123275959789753,-1.1016690098889172,0.25738427725136276
1778595604878106000,9.357106201171876,6.159242760705948,-0.8479248427055776,2.3613147050768135
1778595604888099000,9.36709912109375,5.721023192876577,-0.6870799084939062,3.729204648014903
1778595604898092300,9.37709228515625,4.6386648865267635,-0.8915433274187147,4.218509675437212
1778595604908085200,9.387085205078124,2.8630744326636193,-1.1999291123066096,4.431992851641774
1778595604918078200,9.397078125,1.0541972107484936,-1.3098226616337894,4.544837725055218
1778595604928071200,9.4070712890625,-0.4516343451976776,-1.3836182579457759,4.775781154626608
1778595604938064400,9.417064453125,-1.7029449043691158,-1.3206398237243293,5.224492305853962
1778595604948057000,9.42705712890625,-2.7173908272266387,-1.2686593149878085,5.6022676341146225
1778595604958050300,9.43705029296875,-3.4496488709658384,-1.1822692447144538,6.126465695741772
1778595604968043300,9.447043212890625,-3.8038665057674046,-1.084104054038599,6.604833734086156
1778595604978037000,9.457037109375,-3.9348797808170315,-0.9957130192063748,6.947488649126887
1778595604988030200,9.4670302734375,-3.8524098796620962,-1.0151912613321095,7.2569269387423985
1778595604998023200,9.477023193359376,-3.6522698768943545,-1.0728613600123673,7.592206356579065
1778595605008016100,9.48701611328125,-3.5273663168966767,-1.170858500644937,7.968279557096958
1778595605018009000,9.497009033203126,-3.0076106216311453,-1.2785435801424085,8.373889233222604
1778595605028002300,9.507002197265624,-2.5057386658415197,-1.3896376643657684,8.76355198315382
1778595605037995300,9.516995361328124,-2.0306100478097795,-1.4533110951140522,9.118764181950688
1778595605047988200,9.52698828125,-1.723537610542774,-1.4844076596453786,9.422301723089813
1778595605057981200,9.536981201171875,-1.4077742095589636,-1.3884753425881267,9.518529808223247
1778595605067974400,9.546974365234375,-1.2132616912841796,-1.1795561863634734,9.223757757341861
1778595605077968100,9.556968017578125,-1.2584896570205688,-0.8765748908676206,8.366153086012602
1778595605087961000,9.566961181640625,-0.5125672450661659,-0.5040099907316267,5.661773716050386
1778595605097954300,9.576954345703125,1.0912317870266734,0.2403323854897171,-0.914227891305089
1778595605107947000,9.586947021484375,2.4780171307012435,1.664094364710152,-8.552434367036819
1778595605117940200,9.596940185546876,1.7177496747910976,2.808527726700902,-13.630187713181972
1778595605127933200,9.60693310546875,1.6041136509999632,2.8517998821943995,-13.65879772159457
1778595605137926400,9.616926513671874,1.5660504623264073,2.843185198584199,-13.670640135079621
1778595605147919000,9.626919189453124,-1.3110606789961456,-0.1616574927035719,-7.607382882922887
1778595605157912300,9.636912353515624,1.238403146803379,-1.0196752018131314,-5.823304586699605
1778595605167905300,9.6469052734375,3.156081227438152,-1.410439483245462,-4.321346365055442
1778595605177898200,9.656898193359375,4.766052372294664,-1.434085293379426,-1.922871265363693
1778595605187892200,9.666892333984375,5.675131210273504,-1.0575429409798234,0.42320144691765305
1778595605197885200,9.67688525390625,6.022217970281839,-0.29382790189906954,1.853196840634942
1778595605207878100,9.686878173828125,6.2497290873169895,0.31827969465367495,1.539247211074829
1778595605217871000,9.69687109375,5.9668491342812775,0.5907157028254121,0.12817688257992266
1778595605227864300,9.7068642578125,5.085659589225053,0.8646779707163572,-0.6083744744390249
1778595605237857300,9.716857177734376,4.36267849239707,1.0343022775806485,-0.4157622368276119
1778595605247850200,9.726850341796874,3.603646715761721,0.8057987885072827,-0.37665421527624127
1778595605257840600,9.736840576171875,2.8219676385104653,0.47120479565151036,-0.15076690005064008
1778595605267833600,9.74683349609375,2.0213632037758824,-0.011805807801708578,0.14345219312310217
1778595605277826800,9.756826904296876,0.5674401142433285,-0.5619361099995672,0.7167652910530566
1778595605287819500,9.766819580078124,-0.7164955342009663,-0.9407830860797315,1.665249087703228
1778595605297812700,9.776812744140624,-1.3101160916224122,-1.1510402129098771,2.6266899810820816
1778595605307806700,9.786806640625,-1.443393219950795,-1.2564634118899702,3.299357771733403
1778595605317799700,9.796799560546875,-1.6166323563113807,-1.1485499304641038,3.27398016937077
1778595605327792600,9.806792724609375,-1.1750646470978856,-0.5248579868406057,2.4675918905377388
1778595605337785600,9.81678564453125,-0.24435703789591787,0.5156592197321355,0.7523100671648979
1778595605347778800,9.82677880859375,0.6222711901053786,1.992095023715496,-1.5327058266073466
1778595605357771500,9.836771484375,1.4938558714702725,3.9570688162714243,-3.9959231553226706
1778595605367764700,9.8467646484375,2.47351046693176,6.0127218276619905,-6.487766274541616
1778595605377757700,9.8567578125,2.5686308830842375,7.793321634119748,-8.609981131598353
1778595605387750700,9.866750732421876,1.2792235252305864,8.960406680640578,-9.339013783550262
1778595605397743600,9.87674365234375,-0.25561405270844695,8.646233763718605,-8.151537106385826
1778595605407736800,9.88673681640625,-1.0659893553510307,6.967874434551597,-6.330017845040559
1778595605417729500,9.8967294921875,-0.8895569759070873,5.31198412682414,-5.4480163990795605
1778595605427723500,9.9067236328125,-0.325978797788918,4.005914972504973,-4.99558651959002
1778595605437716700,9.916716796875,0.6786275758385658,3.4773788816735145,-4.033556428146362
1778595605447709700,9.926709716796875,1.7575334036469459,3.1159646133661267,-3.1436849794626234
1778595605457702700,9.93670263671875,2.5689266511604187,2.565309629707038,-2.3898534018188715
1778595605467695600,9.946695556640625,3.0575568480610844,1.6747613046750425,-2.1411358306258914
1778595605477688800,9.956688720703125,3.463924064555764,0.743151266740635,-1.8711913470089434
1778595605487681500,9.966681640625,3.870271115045249,-0.00955203752554953,-1.1678887641191482
1778595605497674800,9.9766748046875,4.031465008825063,-0.5795339452061802,-0.1255488721638918
1778595605507667700,9.986667724609376,3.842460148055851,-1.1089172274515031,1.199431903374195
1778595605517660700,9.99666064453125,3.396563469727337,-1.7061900237701833,2.1121885530829427
1778595605527653600,10.006653564453124,3.0488869271323082,-2.05729697920531,3.0471728166908023
1778595605537646800,10.016646728515624,2.4710782713487744,-2.1778090262457726,3.8556770647644996
1778595605547639800,10.026639892578125,1.7115619260668753,-2.4096762926638124,4.543747591730952
1778595605557632800,10.0366328125,1.4029343683123587,-2.738069165857136,4.7324528850317
1778595605567626800,10.046626708984375,1.5500336857661603,-3.2236838143289086,4.443687965610623
1778595605577619700,10.05661962890625,1.9233616792291401,-3.598079437023401,3.929626682594418
1778595605587612700,10.06661279296875,2.2055144870340824,-3.6925153780430553,3.4000744004577395
1778595605597605600,10.076605712890625,2.1464473810374733,-3.624754970242083,3.0313299353927374
1778595605607598800,10.086598876953126,2.2076444848001002,-3.4499940311416983,2.7125013016194104
1778595605617591600,10.096591552734376,2.3875971473246813,-3.0065079210862518,2.402102058017254
1778595605627584800,10.106584716796876,2.5650577007725834,-2.4187290754303334,1.5599901393741369
1778595605637577700,10.11657763671875,2.7591432258069513,-1.7442583270102738,0.2862947299152612
1778595605647570700,10.12657080078125,2.933279311007261,-1.037367145043984,-1.0802326924979686
1778595605657563600,10.136563720703125,3.0921719421073792,-0.3500685522980988,-2.349840540382266
1778595605667556900,10.146556884765625,2.7493708965942263,0.18030198741890488,-3.605427461698651
1778595605677549800,10.1565498046875,2.0245055934548377,0.6284153919488191,-5.273787959420681
1778595605687542800,10.166542724609375,1.4348933948919176,1.3505489320367574,-7.253601009190082
1778595605697535700,10.17653564453125,0.7972223910808562,2.6536376092404126,-8.685272811686993
1778595605707529700,10.18652978515625,-0.1669379903897643,4.473714270561933,-8.651021582517027
1778595605717522700,10.196522705078126,-1.3290543085873125,6.0518999918401235,-8.006810655543207
1778595605727515600,10.206515625,-2.848764460021257,6.769297735577822,-7.616901821896433
1778595605737508900,10.2165087890625,-3.4006416789516805,6.725485481858253,-7.346546419391036
1778595605747501600,10.22650146484375,-3.8889138561949133,6.405228861108422,-6.834189602205157
1778595605757494800,10.236494873046874,-4.317058604733646,6.652735302945971,-5.423405104914307
1778595605767487700,10.24648779296875,-4.290039664904773,7.071456389579176,-3.6717461462587115
1778595605777481000,10.25648095703125,-3.797883339704573,7.19496937200129,-2.1829513575702904
1778595605787473700,10.2664736328125,-2.8991046542048453,7.158025835007429,-0.8134808674424886
1778595605797467000,10.276466796875,-1.7940395721368492,7.128518000972271,0.6359387731909751
1778595605807459800,10.2864599609375,-0.881553848323971,6.320005569592118,1.3251403500139713
1778595605817452500,10.29645263671875,-0.08025134832262992,5.03732488964498,1.5955594654053449
1778595605827445800,10.30644580078125,0.3988236692473292,3.947958458098769,2.0901088232219216
1778595605837438700,10.316438720703125,0.3988829982191324,2.708601956093311,2.610689278873801
1778595605847431700,10.326431640625,0.06580810468941926,1.6469496070332825,3.328259456568956
1778595605857425700,10.33642578125,-0.09889321268945932,0.6656320467956364,3.948058995863795
1778595605867419000,10.3464189453125,0.1911357353180647,-0.22218707246817648,4.545239876115322
1778595605877411800,10.356411865234374,0.7423889771312475,-0.9455346645209938,5.2382805927097795
1778595605887404800,10.36640478515625,0.947091173247993,-1.8599562517672776,5.153978507691622
1778595605897397800,10.376397705078125,1.276580024984479,-2.5697575490266082,5.026371533954143
1778595605907390700,10.386390625,1.9572046198591588,-2.9403081867307423,5.398312749233842
1778595605917383700,10.3963837890625,2.2441841171681878,-3.2194355092346667,5.663866888937354
1778595605927376600,10.406376708984375,1.9162500936582683,-3.0604847182065247,6.017673312589526
1778595605937369900,10.416369873046875,1.4471896896243095,-2.51182733810544,6.006455168482661
1778595605947362600,10.426362548828125,0.9995955597281455,-1.9501221142522989,5.5744712801724665
1778595605957355800,10.436355712890625,0.39916532229185103,-1.681545996379107,5.124537893673777
1778595605967348700,10.4463486328125,-0.22971622586399315,-1.5017697133347392,4.840208910873532
1778595605977341700,10.456341796875,-0.5745746422983705,-1.3846096070706844,4.3198979198127985
1778595605987334700,10.466334716796876,-0.6691619744874536,-1.3348206170290708,3.508603748759627
1778595605997328000,10.476327880859374,-0.6545674858152866,-1.2944853917703032,2.5791607526659965
1778595606007320600,10.486320556640624,-0.5306006221458316,-1.257290218102932,1.7145225294381379
1778595606017313800,10.496313720703125,0.05160276146531105,-1.17188813595362,0.6752782654106616
1778595606027306800,10.506306640625,0.7553121715903282,-1.0280712742365896,-0.4613344859570265
1778595606037300700,10.51630078125,0.7491602248318493,-0.7427154326066374,-1.2179612472772599
1778595606047293700,10.526293701171875,0.49059039105772967,-0.3929494434516877,-1.7635680076360702
1778595606057286700,10.53628662109375,0.4488765709221363,-0.08819200512878596,-2.389343698731065
1778595606067280000,10.54627978515625,0.5331365703642368,0.10977701027542353,-2.950922519725561
1778595606077272600,10.5562724609375,1.0596819257698953,0.3456974245417863,-3.083178196051717
1778595606087265800,10.566265869140626,2.3974232525512575,0.6006531594719737,-2.937000377357006
1778595606097258800,10.5762587890625,4.267456369435787,0.5533225954331458,-3.0696488523930308
1778595606107251700,10.586251708984374,6.482286966347694,0.3531396303065121,-3.5508529909461735
1778595606117244700,10.59624462890625,8.512056763941048,0.23337321400158106,-4.195024754953384
1778595606127238000,10.60623779296875,9.437374789059161,0.16381006762757896,-4.33802160552442
1778595606137230600,10.616230712890625,8.734925608128309,0.37154571315608914,-4.059368330273032
1778595606147223800,10.626223876953125,7.028429148757457,1.0585036027055232,-3.953265916857123
1778595606157216800,10.636216796875,4.9046051029384135,1.91758981782943,-4.290915570956468
1778595606167209700,10.646209716796875,3.098123836249113,2.8215464904889465,-4.686740935170651
1778595606177202700,10.65620263671875,1.8569418723821638,3.788047589866817,-4.773586274930834
1778595606187196000,10.66619580078125,0.9879059987172484,4.501158742326497,-4.457330121994018
1778595606197188600,10.676188720703125,-0.07054156295210123,4.87793190780729,-3.689175419965386
1778595606207181600,10.686181640625,-1.0627893902659415,5.286847347480059,-2.8327456376343965
1778595606217174800,10.6961748046875,-1.9046233687505125,5.675232917082309,-2.4031775782942773
1778595606227167700,10.706167724609376,-2.500132224136591,6.185249308621883,-1.92535723696053
1778595606237161700,10.71616162109375,-2.8039199406445023,6.79190295061767,-1.2569400894910097
1778595606247154700,10.72615478515625,-2.97216638328433,7.117964458253979,-0.7463093654453754
1778595606257148000,10.73614794921875,-2.9710639750003813,7.312434890952706,0.04214344372451305
1778595606267140900,10.746140869140625,-2.9475623956426977,6.965915117177367,0.7883703915834427
1778595606277133800,10.7561337890625,-3.0509514584466815,6.853146816131472,1.5065250911682844
1778595606287126800,10.766126708984375,-3.639933250151574,6.193738904547691,2.1498007831186055
1778595606297119700,10.77611962890625,-4.102806782244145,5.1267158222347495,2.1781880886912344
1778595606307113000,10.786113037109375,-4.267772011256218,3.868245746697485,2.2712071486502885
1778595606317106000,10.79610595703125,-4.131522296857834,2.92510331107527,2.5901234607070682
1778595606327099000,10.806098876953126,-3.7883132550656793,1.9473508959732948,2.801666024237871
1778595606337091800,10.816091796875,-3.204779791894555,0.9389362891692667,3.345387701502442
1778595606347085000,10.8260849609375,-2.472652681058645,0.21999906090460716,4.006377913841605
1778595606357077800,10.836077880859374,-1.902225952219963,-0.3257533184699714,4.652857954791188
1778595606367071000,10.846071044921874,-1.604971729134023,-0.7324164491713047,5.1851037137955425
1778595606377064000,10.85606396484375,-1.3013687215432523,-1.0537734323784709,5.5004661327630275
1778595606387057000,10.866056884765625,-1.2222367326393724,-1.4153639340355992,5.703657047533989
1778595606397049900,10.8760498046875,-0.9755565124928951,-1.8171737794868648,5.647160084286332
1778595606407043000,10.88604296875,-0.8551397425204514,-2.039952753433585,5.259985059517621
1778595606417035800,10.896035888671875,-0.9227113497510552,-2.1047863140024243,4.876510058310628
1778595606427029000,10.906029052734375,-0.6625567310035229,-2.2176979690417644,4.272924571713805
1778595606437022000,10.91602197265625,-0.3159279438957572,-2.2529285646378994,3.67370721719861
1778595606447015000,10.926014892578126,0.4223334319114685,-2.177406436794251,2.882912813338637
1778595606457007900,10.9360078125,1.0043328173831105,-2.0005255829304454,2.050538444855809
1778595606467001900,10.946001953125,1.4253285709500312,-1.7124321330301462,1.118484974002838
1778595606476995000,10.9559951171875,1.9553285968542098,-1.4087268341086805,0.07725976529121399
1778595606486987800,10.96598779296875,2.3030020707093177,-1.088239619473368,-0.540555322188139
1778595606496981000,10.97598095703125,2.5529905386209486,-1.0094628737479447,-0.9218488877028226
1778595606506974000,10.985973876953125,2.906321161454916,-1.1794435928344726,-1.3325591018378733
1778595606516967000,10.995966796875,3.355037865640223,-1.463754309325665,-1.6638777993500231
1778595606526959900,11.0059599609375,3.872399066984653,-1.7354845073156058,-1.9016081125825643
1778595606536953000,11.015953125,4.470264422369003,-1.945982676360011,-1.6794541386663913
1778595606546945800,11.02594580078125,5.092805369326472,-2.1349488125540317,-1.5524632510006426
1778595606556939000,11.03593896484375,5.56704259147644,-2.0672157311514017,-1.6153759265094993
1778595606566932000,11.045931884765626,5.822156001186371,-1.7271011482432483,-1.8179618611246346
1778595606576925000,11.055925048828126,6.145733290791511,-1.2663612671785056,-2.2748101415783166
1778595606586918000,11.06591796875,6.609034692907333,-0.5251793277494609,-2.9278268908202647
1778595606596910800,11.075910888671874,6.978196506601572,0.49260779529474674,-3.819459503957629
1778595606606903800,11.08590380859375,7.44991502392888,1.8855188553079962,-4.682725269788503
1778595606616896800,11.095896728515624,7.351439452129602,2.735792160835862,-5.399150369101762
1778595606626890000,11.105889892578125,6.102229664629697,2.716458807073533,-5.834943002045154
1778595606636882700,11.115882568359375,4.1443773945167655,2.8580291319727897,-5.797341293403506
1778595606646876000,11.1258759765625,1.9735209638878701,3.221213917084038,-6.178991417270899
1778595606656868900,11.135868896484375,-0.1257204293385148,2.8031162230461835,-6.346347048550844
1778595606666862000,11.145862060546875,-1.9709651419252157,1.696762854733318,-5.525800480505824
1778595606676854800,11.155854736328125,-3.2446520758166906,1.2686813806891442,-4.411888221246004
1778595606686848000,11.165847900390625,-3.633680619497597,1.0299627140063792,-4.01811686695218
1778595606696841000,11.175841064453126,-3.5226667609035966,0.8570352739434689,-3.848609610596299
1778595606706834000,11.185833984375,-3.596343407011032,0.9844525703277438,-3.3457454288989306
1778595606716827000,11.195826904296876,-3.4038580106496807,1.153183654679358,-2.5858237176865337
1778595606726820000,11.205820068359374,-3.1148388242065903,1.2349261183425784,-1.6685720946460962
1778595606736812800,11.215812744140624,-3.3742031693592667,1.0636220416978002,-0.9497978018581866
1778595606746806000,11.225805908203125,-4.3003649518251414,1.0067559528768062,-0.35159459282159805
1778595606756799000,11.235799072265625,-5.2970618675023315,1.073115627034381,0.38997956079542634
1778595606766793000,11.24579296875,-6.730376761031151,0.9478176608916371,0.8687468275904655
1778595606776786000,11.255785888671875,-7.391881352633237,0.8548722506906836,0.8231833462893963
1778595606786779000,11.26577880859375,-7.298389414465427,0.8334247543185949,0.9947036960333585
1778595606796772000,11.275772216796875,-6.552555849838257,0.6154180362749845,1.7860381981194018
1778595606806764800,11.285764892578126,-5.2828059631347655,0.45350423072278495,2.4865689782083034
1778595606816758000,11.295758056640626,-4.161237636163831,0.01071319025941193,2.981135871681571
1778595606826751000,11.3057509765625,-3.190952634333074,-0.4807428777169436,3.672823420101404
1778595606836744000,11.315743896484374,-2.1800398540377617,-0.7354070092894136,4.234222792875767
1778595606846737000,11.32573681640625,-1.2720023418053983,-0.9725617876563221,4.568484558102488
1778595606856730000,11.335730224609375,-0.642300709438324,-1.0118964575704186,4.817593758961558
1778595606866722800,11.345722900390625,-0.1824184681162238,-0.9219888076301663,5.068686827114224
1778595606876715800,11.3557158203125,-0.016743045008182526,-0.9454976204462349,5.22007741202116
1778595606886709000,11.365708984375,0.10903671330213546,-0.9757749775491654,5.606445796582102
1778595606896701700,11.37570166015625,0.31053397589772935,-1.1083427885644137,5.895874148347973
1778595606906695000,11.38569482421875,0.4617497887596488,-1.3002910093091427,6.001937398797273
1778595606916688000,11.39568798828125,0.3678767423197627,-1.4006038795381783,6.041038406085968
1778595606926680800,11.405680908203125,0.6002300386890769,-1.3440348739676176,5.908592175623774
1778595606936673800,11.415673828125,0.7664616343751549,-1.2725617292538285,5.172828754112124
1778595606946667000,11.4256669921875,1.1022013631999492,-1.0322983904123306,4.369938838788867
1778595606956659700,11.43565966796875,1.48560797534585,-0.6151784553654491,3.5382056908190247
1778595606966653000,11.44565283203125,1.850841217419505,-0.26739494526460766,2.7847382703125474
1778595606976646000,11.45564599609375,2.029754892285168,-0.06026625265330076,1.68245916570127
1778595606986638800,11.465638916015624,2.0481287533655763,0.05460092036798596,0.7081155361294746
1778595606996631800,11.4756318359375,1.8779925514563918,-0.0415422629609704,-0.06555763705968856
1778595607006625000,11.485625,1.6625974041506648,-0.2657192671373486,-0.8608242178976535
1778595607016618000,11.495617919921875,1.4311296584442257,-0.5205427539899945,-1.4337123684138058
1778595607026611000,11.50561083984375,1.4415093059003352,-0.6798917505554855,-1.7479741326630114
1778595607036604000,11.51560400390625,1.6577102166309952,-0.5750608183801174,-1.9462772753924131
1778595607046597000,11.52559716796875,1.974996297137439,-0.2276150158010423,-1.9736533580958842
1778595607056589800,11.53558984375,2.2865642922580243,-0.030248277138918638,-2.0480273388177155
1778595607066583000,11.5455830078125,2.7554505087688566,-0.16835852471217513,-2.4771090759456156
1778595607076576000,11.555575927734376,3.2488381293296813,-0.5737390682570636,-2.863490319988131
1778595607086569000,11.56556884765625,3.46015535967201,-0.8787522349067032,-3.5228871256560086
1778595607096562000,11.57556201171875,3.4388369695723053,-0.9814262813091278,-3.853395091307163
1778595607106555000,11.585554931640624,3.838804840418696,-1.113610061442852,-4.209018793514371
1778595607116547800,11.5955478515625,4.516359818589687,-1.088647615752369,-4.534653015649319
1778595607126540800,11.605540771484375,4.965545017069578,-1.1002446761742233,-4.727569789165258
1778595607136534000,11.615533935546875,4.906426473146677,-1.0346613201513886,-4.250931351092458
1778595607146526700,11.625526611328125,4.0185049894869325,-0.5717275823041796,-3.4990620134323835
1778595607156520000,11.63552001953125,2.77492297874093,0.5448148793287575,-2.859712555015087
1778595607166513000,11.645512939453125,1.7204986812382936,1.3359627728015184,-2.2933318866968153
1778595607176505900,11.655505859375,0.6670023122355342,1.384436880852282,-1.9629256278544662
1778595607186498800,11.665498779296875,-0.3813920574530959,1.4399015784427522,-1.4738099855244158
1778595607196492000,11.675491943359376,-1.101133149446547,1.644188617887348,-0.8881593840688466
1778595607206484700,11.685484619140626,-1.3665508032888174,1.740547635924071,-0.5060299522519112
1778595607216478000,11.69547802734375,-1.2530363600507377,1.749048337765783,-0.32560908769369123
1778595607226471000,11.705470947265624,-1.188019990260899,1.7899353516884147,-0.25226211193203923
1778595607236463900,11.7154638671875,-1.608478275950253,1.8374479212306438,-0.4001122477531433
1778595607246456800,11.725456787109374,-2.2615613684266807,2.0196834339953957,-0.617141718262434
1778595607256451000,11.735451171875,-2.8858827690601347,2.3760645304411647,-0.9530267007768154
1778595607266444300,11.7454443359375,-3.47546691057235,2.897593080598116,-0.949377530619502
1778595607276437000,11.75543701171875,-3.7715781011030076,3.526280275225639,-0.5479857644498348
1778595607286431000,11.765430908203125,-3.643227907782793,3.7945109406620263,0.10170330167412757
1778595607296424200,11.775424072265626,-3.84948463986516,3.4622967556148767,0.8188298272550105
1778595607306417200,11.785417236328126,-4.108971442353726,2.792208460062742,1.6032570341706276
1778595607316410000,11.79541015625,-3.9571357440277932,2.1121740861661733,2.115787454357743
1778595607326403000,11.805403076171874,-3.8893671529203653,1.4561561092816293,2.3394103317826986
1778595607336396300,11.815396240234374,-3.589116378366947,1.063298947223276,2.6041578312784432
1778595607346389000,11.825388916015624,-3.049426440836489,0.6200611128404736,3.2012516177684067
1778595607356382200,11.83538232421875,-2.4145848152324554,-0.017775310665369033,3.8682887090563773
1778595607366375200,11.845375244140625,-1.7431787150800226,-0.6918047450587153,4.507584975981712
1778595607376368000,11.8553681640625,-1.1428072220936416,-1.2240011119633913,5.0427907538354395
1778595607386361000,11.865361083984375,-0.8593994457915425,-1.5901913625009356,5.491400782775878
1778595607396354300,11.875354248046875,-0.6846899446174503,-1.734713815204054,5.921194467565417
1778595607406347000,11.885346923828125,-0.6394459045290947,-1.9452520239979028,6.026551615571975
1778595607416340200,11.89534033203125,-0.6281640475362539,-2.033694715952128,5.767025650116801
1778595607426333200,11.905333251953126,-0.3810670632824302,-2.0323026770718395,5.129538478440046
1778595607436326100,11.915326171875,-0.17755758408159017,-1.869423022162169,4.4482063198179
1778595607446319000,11.925319091796876,0.10395955616831778,-1.7155697004035115,3.657242989131808
1778595607456312000,11.93531201171875,0.52591304885149,-1.487336698834598,2.8582208551526067
1778595607466305300,11.94530517578125,1.0859805885002016,-1.1914470421001315,2.0565175192654133
1778595607480669200,11.959669189453125,1.9904709296450018,-0.5781327731713652,0.9218915578007697
1778595607490662100,11.969662109375,2.0310800034090875,-0.3029271541558206,0.13858721743524074
1778595607500655000,11.979655029296875,1.6893024557247758,-0.2832389956064522,-0.6368406904667615
1778595607510648300,11.9896484375,1.5674518535569308,-0.4067487631581723,-1.3566203609049319
1778595607520641000,11.99964111328125,1.7347794277861712,-0.6947178560264409,-2.032274473890662
1778595607530634200,12.00963427734375,2.228739879798889,-1.0173941051386297,-2.5587574315845965
1778595607540627200,12.019627197265624,3.255399972063303,-1.2421689290776847,-2.673872003495693
1778595607550620200,12.0296201171875,4.368276750795543,-1.2577420535236596,-2.631196644851565
1778595607560613000,12.039613037109374,5.695229410928487,-1.1578837951943277,-2.9442601392269134
1778595607570606300,12.0496064453125,7.136058917871117,-1.6693272969275712,-3.304934110561013
1778595607580599000,12.05959912109375,8.97347600557208,-2.844393697591126,-4.029506860494614
1778595607590592300,12.06959228515625,8.84805455918014,-3.1908243317782876,-3.906018427991867
1778595607600585200,12.079585205078125,7.476799523723125,-3.160390907330811,-2.5760405748188493
1778595607610578200,12.089578125,6.808904938822984,-3.5988211953014133,-1.335079560226202
1778595607620571100,12.099571044921875,6.189261466872692,-3.575013034212589,-0.041405192577838895
1778595607630564000,12.109564208984375,4.3678462504237885,-2.8283219759732483,0.7970861974805593
1778595607640557000,12.11955712890625,3.4009716415584084,-1.0076415035396813,0.7331359956175089
1778595607650550000,12.129550048828126,3.466898696452379,0.9271069543614983,-0.2834258964806795
1778595607660543200,12.139543212890626,1.9047984330564736,1.3773008914925158,-2.135174291872978
1778595607670536000,12.149535888671876,0.19073241521418094,1.2202217395551502,-1.9829811584115027
1778595607680529200,12.159529052734374,-0.9628197805166244,0.9956189111821353,-0.34597967554926873
1778595607690522000,12.169522216796874,-1.8100933197066187,0.793514330343157,0.7497948694735765
1778595607700515000,12.17951513671875,-2.0207652378827334,0.2201240755237639,1.2667431061029433
1778595607710508000,12.189508056640625,-2.9838205807209013,-0.8782289416849612,0.627727409684658
1778595607720501200,12.199501220703125,-2.874079226280749,-1.3831595543928443,-1.2136702720850705
1778595607730494200,12.209494140625,-1.8789280787408351,-1.4069368819519876,-3.1062486905157565
1778595607740487200,12.219487060546875,-0.5912262096308172,-1.189208031001687,-4.859370122939348
1778595607750480100,12.229480224609375,-0.058440498530864714,-1.130535915672034,-5.915666059532761
1778595607760473300,12.239473388671875,-0.6000549743831157,-0.6221516553789377,-5.777091117057204
1778595607770466000,12.249466064453125,-1.7635514948926865,0.3376043536528945,-4.608415586474537
1778595607780459300,12.259459228515626,-3.6933997596621513,1.4910589342281222,-3.4574370406240225
1778595607791077000,12.2700771484375,-5.354809707593917,1.7839152146160602,-3.6745121038407085
1778595607801070300,12.2800703125,-6.393638376557827,1.20637894603312,-4.277065324780344
1778595607811063000,12.29006298828125,-6.683648912125825,0.9466478133946656,-3.9124072522461413
1778595607821056000,12.300055908203126,-4.816763153356313,0.7944115714438259,-3.4862305889099834
1778595607831049200,12.31004931640625,-2.6373592591345307,0.4254625237174332,-2.830058590507507
1778595607841042000,12.3200419921875,-1.0528351286150515,-0.2713770006380975,-1.9068740702867506
1778595607851035100,12.33003515625,0.05619929547533393,-0.5191422395423054,-1.361363171517849
1778595607861028000,12.340028076171874,1.1183129784367978,-0.5781771968349814,-1.2911217605561016
1778595607871021000,12.35002099609375,1.8158008836984634,-0.3576842879988253,-1.2619587944358586
1778595607881014000,12.360013916015625,2.0423289810456335,-0.39194428499713535,-1.4257804063707589
1778595607891007200,12.37000732421875,1.798081979395449,-0.6137307407751679,-1.3803700698047876
1778595607901000200,12.380000244140625,1.6817258829906583,-0.6882372618354856,-0.9583534487575291
1778595607910993200,12.3899931640625,1.6848586280584334,-0.5775321769297123,-0.31291561033725734
1778595607920986000,12.399986083984375,1.7298561460398136,-0.35636429144144055,0.24084756847023964
1778595607930979300,12.409979248046875,2.0984180941447614,-0.026469050861150024,1.0683066923826932
1778595607940972000,12.419971923828125,2.640967805020511,0.3856166894108057,1.9224772976100444
1778595607950965200,12.42996533203125,2.909899604463577,0.5858936164312064,2.561632110238075
1778595607960958200,12.439958251953126,3.1355040110945698,0.7081161206513643,3.1091935117959975
1778595607970951200,12.449951171875,2.768571563887596,0.8576860660023987,3.729762281897664
1778595607980944100,12.459944091796874,2.472984689491987,0.9950143694177269,4.209272476014495
1778595607990937300,12.469937255859374,2.3559387111268935,0.9199819247871637,4.486788856190443
1778595608000930000,12.479929931640624,1.9840413349889217,0.7961426330201328,4.847264674603939
1778595608010923300,12.48992333984375,1.4829785036250949,0.6740107296928763,5.242841032493114
1778595608020916200,12.499916259765625,1.103175176668167,0.5760590356372296,5.601539904361963
1778595608030909200,12.5099091796875,1.220739772079885,0.6219232534505427,5.950607609054446
1778595608040902100,12.519902099609375,1.390921566696465,0.7709627451866865,6.318593949228525
1778595608050895000,12.52989501953125,1.5850737272262572,0.9229179782390594,6.79149378529489
1778595608060888000,12.53988818359375,1.7780037986151873,0.8089980229400098,7.248381813237071
1778595608070881000,12.549881103515625,1.6803939037345348,0.30266470382735133,7.437488088554144
1778595608080874200,12.559874267578126,1.3510416839897632,-0.08964812222123146,7.368409291630983
1778595608090867000,12.569866943359376,0.7230978550754487,-0.1712901942498982,7.030685987773537
1778595608100860200,12.579860107421876,-0.06491393232867121,-0.11332023584023117,6.216589618781208
1778595608110853000,12.58985302734375,-0.9671161625362932,-0.1257243748612702,4.94038134971857
1778595608120846000,12.59984619140625,-1.6202695437699555,0.24960239120349287,3.1175977675259112
1778595608130839000,12.609839111328125,-1.1731085445940495,0.978159242337197,0.03979600381553173
1778595608140832300,12.619832275390625,-0.08393880466371774,1.6916243228010832,-4.294750619074702
1778595608150825200,12.6298251953125,0.5699804463759064,2.457486676108837,-8.522809044101834
1778595608160818200,12.639818115234375,-0.08208294766396283,3.501615205046534,-10.994010357308387
1778595608170811100,12.64981103515625,-1.9205448682427406,4.213546792332828,-12.331009487420319
1778595608180804400,12.659804443359375,-1.8878256709456442,4.2069361420214175,-12.322366746759414
1778595608190797000,12.669797119140625,-1.7903882100224493,4.1585792306095355,-12.30211890850067
1778595608200790300,12.679790283203126,-1.6816694766283034,4.084369500538706,-12.284578575634956
1778595608210783200,12.689783203125,-0.5872331944718957,3.1878283648326993,-6.266652165067195
1778595608220776200,12.699776123046876,0.6867518455833196,3.3884555665954945,-3.7428836292773484
