time,seconds_elapsed,z,y,x
1778595595588106800,0.067106689453125,0.01284863706678152,0.11002343147993088,0.17626093327999115
1778595595598100000,0.077099853515625,-0.1530369222164154,-0.009298891760408878,0.33196645975112915
1778595595608094000,0.087093994140625,-0.3762790560722351,-0.1966053992509842,0.4053027331829071
1778595595618087200,0.097087158203125,-0.621870756149292,-0.41611286997795105,0.3801310956478119
1778595595628081200,0.1070810546875,-0.8322378396987915,-0.6087340116500854,0.2578373849391937
1778595595638073900,0.117073974609375,-0.9486405253410339,-0.7208862900733948,0.06818188726902008
1778595595648067000,0.127067138671875,-0.9533332586288452,-0.728201687335968,-0.16910655796527863
1778595595658061000,0.13706103515625,-0.8608001470565796,-0.588462233543396,-0.40697917342185974
1778595595668053800,0.1470537109375,-0.7289145588874817,-0.35639438033103943,-0.6185915470123291
1778595595678048000,0.157048095703125,-0.6020533442497253,-0.12822118401527405,-0.7741532325744629
1778595595688041000,0.167041015625,-0.5102107524871826,0.07921936362981796,-0.8454766869544983
1778595595698035000,0.177034912109375,-0.465236634016037,0.2462020069360733,-0.8319835662841797
1778595595708028200,0.187028076171875,-0.4634997248649597,0.3170072138309479,-0.7554536461830139
1778595595718022000,0.19702197265625,-0.4898337721824646,0.27856993675231934,-0.6354703307151794
1778595595728014800,0.207014892578125,-0.5241193175315857,0.15935087203979492,-0.48515912890434265
1778595595738009000,0.217009033203125,-0.5635694265365601,0.014850931242108345,-0.31756868958473206
1778595595748002000,0.227001953125,-0.5967659950256348,-0.10880709439516068,-0.14544805884361267
1778595595757995000,0.2369951171875,-0.6175501346588135,-0.19688540697097778,0.008782497607171535
1778595595767989000,0.246989013671875,-0.6167322993278503,-0.24043473601341248,0.13297289609909058
1778595595777982000,0.25698193359375,-0.5898649096488953,-0.2538326680660248,0.22360210120677948
1778595595787976000,0.266975830078125,-0.5532624125480652,-0.22364601492881775,0.28366169333457947
1778595595797969000,0.276968994140625,-0.5309075713157654,-0.1646188348531723,0.3077333867549896
1778595595807963000,0.286962890625,-0.5190882086753845,-0.13429048657417297,0.2953307628631592
1778595595817956000,0.2969560546875,-0.48881521821022034,-0.12526488304138184,0.2676871418952942
1778595595827950000,0.3069501953125,-0.4063328802585602,-0.08492225408554077,0.22931843996047974
1778595595837943000,0.316943115234375,-0.27093350887298584,0.018448293209075928,0.19334392249584198
1778595595847936000,0.32693603515625,-0.12771695852279663,0.1692953258752823,0.16026239097118378
1778595595857930000,0.336929931640625,-0.0005537308752536774,0.3006517291069031,0.13730047643184662
1778595595867923000,0.3469228515625,0.09179191291332245,0.3794155418872833,0.1473507136106491
1778595595877917000,0.3569169921875,0.16739420592784882,0.42823299765586853,0.1905089169740677
1778595595887910000,0.366909912109375,0.22685353457927704,0.42579835653305054,0.2509852945804596
1778595595897903900,0.37690380859375,0.26917126774787903,0.37581324577331543,0.32610201835632324
1778595595907897000,0.38689697265625,0.2931567430496216,0.29646700620651245,0.4024777412414551
1778595595917891000,0.39689111328125,0.29786786437034607,0.22725826501846313,0.47013595700263977
1778595595927883800,0.4068837890625,0.3186311721801758,0.24549053609371185,0.5297116637229919
1778595595937877000,0.416876953125,0.38699841499328613,0.2897464632987976,0.5738886594772339
1778595595947871000,0.42687109375,0.49707671999931335,0.33390969038009644,0.5898119211196899
1778595595957864000,0.436864013671875,0.6044244766235352,0.3982635736465454,0.5772495269775391
1778595595967858200,0.446858154296875,0.6834987998008728,0.4481930434703827,0.5298215746879578
1778595595977851000,0.456850830078125,0.7185593843460083,0.36412304639816284,0.4525623917579651
1778595595987844900,0.466844970703125,0.6930438876152039,0.10912483930587769,0.33468103408813477
1778595595997838000,0.476838134765625,0.5850784778594971,-0.31001460552215576,0.1679682582616806
1778595596007831000,0.4868310546875,0.4419916272163391,-0.740296483039856,-0.032454315572977066
1778595596017824800,0.49682470703125,0.3355630338191986,-0.9740463495254517,-0.21824218332767487
1778595596027818000,0.50681787109375,0.2774201035499573,-1.0171120166778564,-0.3586136996746063
1778595596037812000,0.51681201171875,0.29518067836761475,-0.882064700126648,-0.4340153634548187
1778595596047805200,0.52680517578125,0.41227373480796814,-0.5537451505661011,-0.4306853413581848
1778595596057799000,0.536798828125,0.5666325092315674,-0.16398996114730835,-0.37733954191207886
1778595596067792000,0.5467919921875,0.6866918206214905,0.18016502261161804,-0.2885580360889435
1778595596077785900,0.556785888671875,0.7445823550224304,0.47169071435928345,-0.1497817039489746
1778595596087779000,0.566779052734375,0.7153698801994324,0.6289988160133362,0.00017823697999119759
1778595596097771800,0.576771728515625,0.6429263353347778,0.6025215983390808,0.12940345704555511
1778595596107766000,0.58676611328125,0.5513242483139038,0.4430032968521118,0.22932499647140503
1778595596117759000,0.596759033203125,0.45918893814086914,0.24484741687774658,0.2892674207687378
1778595596127753000,0.6067529296875,0.3705650568008423,0.06697888672351837,0.29821324348449707
1778595596137746200,0.61674609375,0.30372872948646545,-0.03237808868288994,0.24563929438591003
1778595596147740000,0.626739990234375,0.2717124819755554,-0.00656060641631484,0.14716145396232605
1778595596157732900,0.63673291015625,0.28195199370384216,0.13247235119342804,0.01886325143277645
1778595596167726000,0.64672607421875,0.33096960186958313,0.3248971998691559,-0.10474684089422226
1778595596177720000,0.656719970703125,0.40687182545661926,0.5043772459030151,-0.19758380949497223
1778595596187713000,0.666713134765625,0.48887455463409424,0.6105788350105286,-0.23402464389801025
1778595596197707000,0.67670703125,0.5604045987129211,0.6171464920043945,-0.20809060335159302
1778595596207700000,0.686699951171875,0.6132861375808716,0.5320976376533508,-0.12405188381671906
1778595596217694000,0.69669384765625,0.6282958984375,0.3750055730342865,-0.00013687898172065616
1778595596227687000,0.70668701171875,0.6093767881393433,0.18920587003231049,0.13681112229824066
1778595596237679900,0.716679931640625,0.554527223110199,0.013367445208132267,0.26113763451576233
1778595596247674400,0.72667431640625,0.48335450887680054,-0.1650875061750412,0.3422980010509491
1778595596257667600,0.73666748046875,0.4428744614124298,-0.30864500999450684,0.3769637942314148
1778595596267661600,0.74666162109375,0.4568805396556854,-0.3395720422267914,0.37748444080352783
1778595596277654500,0.756654541015625,0.5103141069412231,-0.26084622740745544,0.3627035915851593
1778595596287648500,0.7666484375,0.568296492099762,-0.13057367503643036,0.34460368752479553
1778595596297641500,0.776641357421875,0.5919833183288574,0.0020953703206032515,0.3405708074569702
1778595596307634700,0.786634765625,0.5532188415527344,0.09571240842342377,0.3566291630268097
1778595596317628400,0.79662841796875,0.46390900015830994,0.15000811219215393,0.36786967515945435
1778595596327621400,0.806621337890625,0.3385702669620514,0.16019868850708008,0.36360037326812744
1778595596337615600,0.81661572265625,0.19155611097812653,0.09228309243917465,0.3452913165092468
1778595596347608600,0.826608642578125,0.06279013305902481,-0.06910313665866852,0.3064429759979248
1778595596357601300,0.836601318359375,-0.018803521990776062,-0.2286280244588852,0.2481629103422165
1778595596367595500,0.846595458984375,-0.05562305450439453,-0.3209267854690552,0.17675183713436127
1778595596377588500,0.85658837890625,-0.0888933539390564,-0.3873002529144287,0.09713704138994217
1778595596387582500,0.86658251953125,-0.13561132550239563,-0.4524853825569153,0.011350500397384167
1778595596397575400,0.876575439453125,-0.18507112562656403,-0.46139541268348694,-0.075478196144104
1778595596407569400,0.8865693359375,-0.22188585996627808,-0.3867962956428528,-0.15665693581104279
1778595596417562400,0.896562255859375,-0.23082880675792694,-0.22829966247081757,-0.22854779660701752
1778595596427555600,0.9065556640625,-0.1791352480649948,-0.018963472917675972,-0.26939910650253296
1778595596437549600,0.916549560546875,-0.058929670602083206,0.2095244973897934,-0.2434985190629959
1778595596447542500,0.92654248046875,0.08231747150421143,0.38774269819259644,-0.1414981186389923
1778595596457536500,0.93653662109375,0.19336654245853424,0.4106537103652954,-0.0032189032062888145
1778595596467529500,0.946529541015625,0.24231837689876556,0.3051522970199585,0.15523198246955872
1778595596477523500,0.9565234375,0.2041371762752533,0.12256314605474472,0.30983543395996094
1778595596487516400,0.966516357421875,0.04350969195365906,-0.08850275725126266,0.4263138473033905
1778595596497509400,0.97650927734375,-0.23161491751670837,-0.316316694021225,0.4645134210586548
1778595596507503600,0.986503662109375,-0.5929116010665894,-0.516156017780304,0.40482133626937866
1778595596517496600,0.99649658203125,-0.9443446397781372,-0.6800106167793274,0.23302772641181946
1778595596527490300,1.006490234375,-1.1871453523635864,-0.7542163729667664,-0.026803845539689064
1778595596537483500,1.0164833984375,-1.2723828554153442,-0.6919364333152771,-0.3215813934803009
1778595596547476500,1.0264765625,-1.1921873092651367,-0.5201055407524109,-0.6126640439033508
1778595596557470500,1.036470458984375,-0.9823628067970276,-0.26854532957077026,-0.8397693037986755
1778595596567463400,1.04646337890625,-0.6972652673721313,0.011709511280059814,-0.9681315422058105
1778595596577457400,1.05645751953125,-0.40163812041282654,0.2702447772026062,-0.9846610426902771
1778595596587450600,1.06645068359375,-0.14687612652778625,0.42522478103637695,-0.9163277745246887
1778595596597444600,1.076444580078125,0.016770854592323303,0.4170515239238739,-0.7844624519348145
1778595596607437300,1.086437255859375,0.09251488000154495,0.2999161183834076,-0.6048604846000671
1778595596617430500,1.096430419921875,0.07549025863409042,0.18931494653224945,-0.38541099429130554
1778595596627424500,1.106424560546875,-0.03705386817455292,0.08633904159069061,-0.15972568094730377
1778595596637417500,1.11641748046875,-0.22481964528560638,-0.015991119667887688,0.04093719273805618
1778595596647411700,1.12641162109375,-0.4591056704521179,-0.13244636356830597,0.19731828570365906
1778595596657404400,1.136404296875,-0.6787148118019104,-0.24812087416648865,0.2835571765899658
1778595596667397400,1.1463974609375,-0.8131384253501892,-0.2676679491996765,0.2911892533302307
1778595596677391600,1.1563916015625,-0.8503394722938538,-0.13635146617889404,0.22464974224567413
1778595596687384300,1.16638427734375,-0.7960293292999268,0.012937091290950775,0.09108049422502518
1778595596697378300,1.17637841796875,-0.6796292662620544,0.13118985295295715,-0.07875782996416092
1778595596707371500,1.18637158203125,-0.5328810811042786,0.17766892910003662,-0.2442258894443512
1778595596717364500,1.196364501953125,-0.384127676486969,0.13090108335018158,-0.3582342565059662
1778595596727358500,1.2063583984375,-0.2687305212020874,0.05816801264882088,-0.4041849672794342
1778595596737351400,1.216351318359375,-0.20335045456886292,0.008568769320845604,-0.38170310854911804
1778595596747345400,1.226345458984375,-0.19740094244480133,0.004539673216640949,-0.29887160658836365
1778595596757338600,1.236338623046875,-0.23789973556995392,0.038917116820812225,-0.16940408945083618
1778595596767331300,1.246331298828125,-0.3193453252315521,0.13265559077262878,-0.020381322130560875
1778595596777325300,1.2563251953125,-0.42508646845817566,0.2462257593870163,0.11459790170192719
1778595596787318500,1.266318603515625,-0.5220707654953003,0.3093176484107971,0.21691788733005524
1778595596797312500,1.2763125,-0.5873833298683167,0.27734366059303284,0.27350547909736633
1778595596807305500,1.286305419921875,-0.6003374457359314,0.14810554683208466,0.28592169284820557
1778595596817299500,1.296299560546875,-0.5590115785598755,-0.017888173460960388,0.26349547505378723
1778595596827292400,1.30629248046875,-0.4715874493122101,-0.15723328292369843,0.21818046271800995
1778595596837285600,1.31628564453125,-0.3541043996810913,-0.20704227685928345,0.17032642662525177
1778595596847279600,1.326279541015625,-0.24238640069961548,-0.11931642889976501,0.12644073367118835
1778595596857272300,1.336272216796875,-0.15366241335868835,0.06259699910879135,0.08086033910512924
1778595596867266300,1.346266357421875,-0.07963798195123672,0.22356058657169342,0.0347953736782074
1778595596877259500,1.356259521484375,-0.01311499159783125,0.3093686103820801,0.0010590300662443042
1778595596887252500,1.36625244140625,0.05609416961669922,0.29437634348869324,-0.014773462899029255
1778595596897246500,1.37624658203125,0.12947501242160797,0.18022924661636353,-0.015175669454038143
1778595596907239400,1.386239501953125,0.21058477461338043,-0.006112664472311735,0.0013481798814609647
1778595596917233400,1.3962333984375,0.28351739048957825,-0.19531504809856415,0.021405549719929695
1778595596927226600,1.4062265625,0.34621140360832214,-0.36710649728775024,0.04298248142004013
1778595596937219300,1.41621923828125,0.39867597818374634,-0.4769882261753082,0.06558568775653839
1778595596947213300,1.42621337890625,0.4329111874103546,-0.5182749629020691,0.0830024927854538
1778595596957206500,1.43620654296875,0.46560993790626526,-0.4494550824165344,0.09234254062175751
1778595596967200500,1.446200439453125,0.5008728504180908,-0.21048323810100555,0.08995954692363739
1778595596977193500,1.456193359375,0.5221944451332092,0.1027194932103157,0.06125616282224655
1778595596987186400,1.4661865234375,0.5054988265037537,0.24756962060928345,-0.011435620486736298
1778595596997180400,1.476180419921875,0.46570277214050293,0.17887645959854126,-0.12955661118030548
1778595597007173600,1.486173583984375,0.4120344817638397,-0.04254061356186867,-0.2722381055355072
1778595597017167600,1.496167724609375,0.3696867525577545,-0.3284650146961212,-0.4295728802680969
1778595597027160300,1.506160400390625,0.37908053398132324,-0.46965357661247253,-0.5593559145927429
1778595597037153500,1.516153564453125,0.4482162296772003,-0.3306419253349304,-0.6336798071861267
1778595597047147500,1.5261474609375,0.5842227935791016,0.004241239279508591,-0.6581345796585083
1778595597057140500,1.536140380859375,0.7346284985542297,0.3687920868396759,-0.6441859006881714
1778595597067134500,1.546134521484375,0.8396622538566589,0.6087386012077332,-0.5992228984832764
1778595597077127400,1.55612744140625,0.9000707268714905,0.7399338483810425,-0.5058792233467102
1778595597087120600,1.56612060546875,0.9369446039199829,0.764390766620636,-0.3605063259601593
1778595597097114600,1.576114501953125,0.9366894960403442,0.6653533577919006,-0.18330146372318268
1778595597107107300,1.586107421875,0.876338541507721,0.41966715455055237,-0.003853406058624387
1778595597117101300,1.596101318359375,0.7482739090919495,0.09928742796182632,0.1649330109357834
1778595597127094500,1.606094482421875,0.563369870185852,-0.16804201900959015,0.2954537272453308
1778595597137087500,1.61608740234375,0.3678663671016693,-0.32031118869781494,0.35100194811820984
1778595597147081500,1.62608154296875,0.21604008972644806,-0.3287566006183624,0.3268699645996094
1778595597157074400,1.636074462890625,0.14133627712726593,-0.19378045201301575,0.24630695581436157
1778595597167067600,1.646067626953125,0.1433837115764618,0.02852771058678627,0.14527568221092224
1778595597177061600,1.6560615234375,0.2019730806350708,0.24768447875976562,0.052822623401880264
1778595597187054300,1.666054443359375,0.29978805780410767,0.41697177290916443,-0.01227754820138216
1778595597197048300,1.67604833984375,0.4063200056552887,0.5372782349586487,-0.03988073021173477
1778595597207041500,1.68604150390625,0.48707398772239685,0.5737395286560059,-0.021242598071694374
1778595597217034500,1.696034423828125,0.5339477062225342,0.5192970633506775,0.03402408957481384
1778595597227028500,1.706028564453125,0.5634848475456238,0.41559892892837524,0.11601429432630539
1778595597237021400,1.716021484375,0.5700394511222839,0.26869794726371765,0.20888981223106384
1778595597247016000,1.726015869140625,0.5553598403930664,0.10300567001104355,0.2974306046962738
1778595597257009200,1.736009033203125,0.5284688472747803,-0.054432403296232224,0.35681816935539246
1778595597267001900,1.746001953125,0.5070719718933105,-0.1856708526611328,0.387073814868927
1778595597276995800,1.755995849609375,0.49852216243743896,-0.2531995475292206,0.38908663392066956
1778595597286989000,1.765989013671875,0.5059385299682617,-0.277153879404068,0.3864450454711914
1778595597296983000,1.775983154296875,0.514799952507019,-0.2509037256240845,0.3922116160392761
1778595597306976000,1.78597607421875,0.5159805417060852,-0.19067418575286865,0.4191499948501587
1778595597316969000,1.795968994140625,0.4995066821575165,-0.12188984453678131,0.46723946928977966
1778595597326963000,1.805962890625,0.4709879755973816,-0.0624515525996685,0.522465169429779
1778595597336956000,1.815955810546875,0.4216783344745636,-0.03368500620126724,0.5576705932617188
1778595597346948900,1.825948974609375,0.3535322844982147,-0.08367173373699188,0.5502880811691284
1778595597356942800,1.83594287109375,0.26686108112335205,-0.2508588433265686,0.49081531167030334
1778595597366936000,1.84593603515625,0.1697009801864624,-0.47599610686302185,0.3730263411998749
1778595597376930000,1.855929931640625,0.08238719403743744,-0.6694315075874329,0.2043852061033249
1778595597386923000,1.865923095703125,0.013752210885286331,-0.8119891881942749,0.013306848704814911
1778595597396916000,1.875916015625,-0.04147833213210106,-0.8585397005081177,-0.17205651104450226
1778595597406910000,1.885909912109375,-0.08309661597013474,-0.7431566715240479,-0.32914891839027405
1778595597416903000,1.89590283203125,-0.09673603624105453,-0.4298893213272095,-0.453437477350235
1778595597426897200,1.905897216796875,-0.07278436422348022,0.09485381841659546,-0.5463309288024902
1778595597436889900,1.915889892578125,-0.00574145745486021,0.641166090965271,-0.6033387184143066
1778595597446883000,1.925883056640625,0.09690982103347778,1.1053367853164673,-0.6061137318611145
1778595597456877000,1.935876953125,0.2182484269142151,1.4195915460586548,-0.5528448224067688
1778595597466870000,1.9458701171875,0.3195345401763916,1.5512027740478516,-0.47480008006095886
1778595597476863000,1.955863037109375,0.35570454597473145,1.5059542655944824,-0.3939555585384369
1778595597486857000,1.96585693359375,0.35646486282348633,1.2876352071762085,-0.33414337038993835
1778595597496850000,1.975849853515625,0.2846488058567047,1.0533527135849,-0.30557602643966675
1778595597506844200,1.98584423828125,0.012752029113471508,0.7090539932250977,-0.3464624285697937
1778595597516836900,1.9958369140625,-0.3813098073005676,0.40879687666893005,-0.4553714990615845
1778595597526830000,2.005830078125,-0.7328790426254272,0.2947086691856384,-0.6186480522155762
1778595597536824000,2.015823974609375,-0.9666226506233215,0.256882905960083,-0.8300739526748657
1778595597546817000,2.025817138671875,-1.0464307069778442,0.37053704261779785,-1.0418360233306885
1778595597556810000,2.03581005859375,-0.959338903427124,0.5733340382575989,-1.2298160791397095
1778595597566804000,2.045803955078125,-0.7565250396728516,0.8207651376724243,-1.3750272989273071
1778595597576797000,2.055796875,-0.4975316822528839,1.0524407625198364,-1.4613410234451294
1778595597586791000,2.065791015625,-0.2026132345199585,1.346539855003357,-1.5038954019546509
1778595597596783900,2.075783935546875,0.1040831059217453,1.442618727684021,-1.5544458627700806
1778595597606776800,2.08577685546875,0.3380761742591858,1.4170135259628296,-1.5308736562728882
1778595597616771000,2.09577099609375,0.5521626472473145,1.2314435243606567,-1.4143800735473633
1778595597626764000,2.105763916015625,0.7186722755432129,1.0899854898452759,-1.2249361276626587
1778595597636757000,2.115757080078125,0.7216956615447998,1.0779733657836914,-0.9976611137390137
1778595597646751000,2.1257509765625,0.5870358347892761,1.0131174325942993,-0.746444821357727
1778595597656744000,2.135743896484375,0.44400036334991455,0.8284865617752075,-0.4953024089336395
1778595597666738000,2.145738037109375,0.16744840145111084,0.6863581538200378,-0.276873916387558
1778595597676731000,2.15573095703125,-0.2789750397205353,0.5617053508758545,-0.14184068143367767
1778595597686723800,2.165723876953125,-0.8286712169647217,0.5218657851219177,-0.12210799008607864
1778595597696718000,2.175718017578125,-1.3426463603973389,0.5770894885063171,-0.20440322160720825
1778595597706711000,2.1857109375,-1.6182597875595093,0.6411774158477783,-0.32611820101737976
1778595597716704000,2.1957041015625,-1.6458408832550049,0.7790507674217224,-0.4448835253715515
1778595597726698000,2.205697998046875,-1.5460714101791382,0.9615169763565063,-0.5590713620185852
1778595597736691000,2.21569091796875,-1.439319372177124,1.046265959739685,-0.6689808368682861
1778595597746685000,2.225684814453125,-1.3483604192733765,0.8869125247001648,-0.7786412835121155
1778595597756678000,2.235677978515625,-1.3774269819259644,0.6387737989425659,-0.9249189496040344
1778595597766670800,2.2456708984375,-1.4826351404190063,0.4710193872451782,-1.1150729656219482
1778595597776665000,2.2556650390625,-1.5601524114608765,0.37435922026634216,-1.3034248352050781
1778595597786658000,2.265657958984375,-1.5738633871078491,0.46890702843666077,-1.4080370664596558
1778595597796651000,2.275651123046875,-1.6140857934951782,0.800879180431366,-1.4315240383148193
1778595597806645000,2.28564501953125,-1.6513134241104126,1.1533639430999756,-1.336517572402954
1778595597816638000,2.295637939453125,-1.6353440284729004,1.2627029418945312,-1.1322479248046875
1778595597826632000,2.3056318359375,-1.5775885581970215,1.1514484882354736,-0.8933439254760742
1778595597836625000,2.315625,-1.4963361024856567,0.8924615383148193,-0.6487705707550049
1778595597846617900,2.325617919921875,-1.4237582683563232,0.4960574805736542,-0.3995365500450134
1778595597856611800,2.33561181640625,-1.4239331483840942,-0.03409036621451378,-0.16758297383785248
1778595597866605000,2.34560498046875,-1.5014092922210693,-0.5700302124023438,0.07865981757640839
1778595597876597800,2.35559765625,-1.5939701795578003,-0.9811757206916809,0.3567390739917755
1778595597886592000,2.365592041015625,-1.6596943140029907,-1.2829173803329468,0.6077030897140503
1778595597896585000,2.3755849609375,-1.6725465059280396,-1.5942753553390503,0.7879869341850281
1778595597906578200,2.385578125,-1.6190886497497559,-1.8967689275741577,0.9207093119621277
1778595597916572200,2.395572265625,-1.499332070350647,-2.1993370056152344,1.0104342699050903
1778595597926564900,2.40556494140625,-1.321283221244812,-2.495349168777466,1.0444761514663696
1778595597936558800,2.415558837890625,-1.1837037801742554,-2.226064443588257,0.9339107871055603
1778595597946552000,2.425552001953125,-0.9737681150436401,-1.4680546522140503,0.8250852823257446
1778595597956544800,2.435544677734375,-0.5547574162483215,-1.174538493156433,0.6880251169204712
1778595597966539000,2.4455390625,-0.12628944218158722,-1.0691516399383545,0.5637734532356262
1778595597976532000,2.455531982421875,0.20603510737419128,-0.626989483833313,0.45156797766685486
1778595597986525200,2.465525146484375,0.519161581993103,-0.5497767329216003,0.3557266891002655
1778595597996519200,2.475519287109375,0.790784478187561,-0.4467305541038513,0.2401411086320877
1778595598006511900,2.485511962890625,0.9574459195137024,-0.5468073487281799,0.05295790731906891
1778595598016505000,2.495505126953125,0.839151918888092,-0.8465176820755005,-0.12679505348205566
1778595598026499000,2.5054990234375,0.6337680816650391,-1.1195491552352905,-0.13031123578548431
1778595598036491800,2.51549169921875,0.6100631356239319,-1.400320291519165,0.05684790760278702
1778595598046485000,2.525485107421875,0.7695702314376831,-1.3801281452178955,0.4796055555343628
1778595598056479000,2.53547900390625,0.9695554375648499,-1.1945024728775024,1.0912936925888062
1778595598066472000,2.545471923828125,1.1961650848388672,-0.9565325379371643,1.7695244550704956
1778595598076466200,2.555466064453125,1.2639561891555786,-0.6264970302581787,2.2970974445343018
1778595598086459000,2.565458984375,1.1426860094070435,-0.550264298915863,2.432096481323242
1778595598096452000,2.5754521484375,1.0285568237304688,-0.6679753661155701,2.1981709003448486
1778595598106446000,2.585446044921875,0.9654459357261658,-1.0124338865280151,1.7980257272720337
1778595598116438800,2.595438720703125,0.9057424068450928,-1.0110971927642822,1.4099067449569702
1778595598126432000,2.605431884765625,0.8865929245948792,-0.992892861366272,1.0530636310577393
1778595598136426000,2.615426025390625,0.909948468208313,-0.9791945219039917,0.7444990873336792
1778595598146419000,2.6254189453125,0.9587921500205994,-0.9525620937347412,0.5136400461196899
1778595598156412000,2.635411865234375,0.9785082936286926,-0.9593713283538818,0.33856654167175293
1778595598166406000,2.645406005859375,0.9983494281768799,-0.8500320315361023,0.18654343485832214
1778595598176399000,2.655399169921875,1.0459848642349243,-0.5981227159500122,0.06081332266330719
1778595598186392000,2.66539208984375,1.146882176399231,-0.3666450083255768,-0.008349766954779625
1778595598196385800,2.6753857421875,1.2300364971160889,-0.19639231264591217,-0.032429203391075134
1778595598206379000,2.68537890625,1.2546632289886475,-0.15019606053829193,-0.022691618651151657
1778595598216373000,2.695373046875,1.2321422100067139,-0.25558650493621826,0.005902493838220835
1778595598226366000,2.705365966796875,1.1922270059585571,-0.410238653421402,0.05467855557799339
1778595598236359000,2.71535888671875,1.1327565908432007,-0.6242858171463013,0.12066308408975601
1778595598246353000,2.725352783203125,1.0600857734680176,-0.8332805633544922,0.19503264129161835
1778595598256345900,2.735345947265625,0.9649671912193298,-0.9741122126579285,0.2676919996738434
1778595598266338600,2.745338623046875,0.8375370502471924,-1.0703157186508179,0.3335109353065491
1778595598276332500,2.75533251953125,0.7009243965148926,-1.1360143423080444,0.38053590059280396
1778595598286325800,2.76532568359375,0.5684942007064819,-1.153621792793274,0.4027080535888672
1778595598296318500,2.775318359375,0.450753778219223,-1.0659193992614746,0.39475202560424805
1778595598306312400,2.7853125,0.3452627956867218,-0.8706740140914917,0.35270923376083374
1778595598316305700,2.7953056640625,0.2530028223991394,-0.5722892880439758,0.2941957116127014
1778595598326298600,2.805298583984375,0.17064855992794037,-0.26252472400665283,0.2213106006383896
1778595598336292900,2.81529296875,0.09454920887947083,-0.0508817620575428,0.1444818079471588
1778595598346285600,2.82528564453125,0.025874808430671692,0.09962305426597595,0.06730633229017258
1778595598356278800,2.83527880859375,-0.02364940196275711,0.14980469644069672,-0.013613863848149776
1778595598366272800,2.845272705078125,-0.0000980030745267868,0.012921414338052273,-0.08367577195167542
1778595598376265700,2.855265625,0.10866096615791321,-0.2155618667602539,-0.13907656073570251
1778595598386258700,2.8652587890625,0.2887931764125824,-0.4704956114292145,-0.1566145420074463
1778595598396252700,2.875252685546875,0.4952920377254486,-0.6131017208099365,-0.11688485741615295
1778595598406245600,2.88524560546875,0.6333015561103821,-0.6552148461341858,-0.010557620786130428
1778595598416238600,2.895238525390625,0.5849706530570984,-0.8185713887214661,0.054934628307819366
1778595598426232600,2.905232666015625,0.44303640723228455,-0.8337115049362183,0.06561816483736038
1778595598436225500,2.9152255859375,0.23105977475643158,-0.6355903744697571,0.03828831762075424
1778595598446218800,2.92521875,-0.043639685958623886,-0.32345855236053467,-0.016494235023856163
1778595598456212700,2.935212646484375,-0.25410225987434387,0.0016298792324960232,-0.030485324561595917
1778595598466205700,2.945205810546875,-0.3241255283355713,0.33402860164642334,0.014128748327493668
1778595598476198700,2.95519873046875,-0.2908376157283783,0.5437940955162048,0.10984621942043304
1778595598486192600,2.965192626953125,-0.21111030876636505,0.509114146232605,0.18926115334033966
1778595598496185600,2.975185546875,-0.16071273386478424,0.3234354555606842,0.1771726757287979
1778595598506178600,2.985178466796875,-0.19843454658985138,0.05322980508208275,0.03634098917245865
1778595598516172500,2.995172607421875,-0.3406517505645752,-0.2645943760871887,-0.21438400447368622
1778595598526165800,3.005165771484375,-0.5125372409820557,-0.5586915016174316,-0.5263307690620422
1778595598536158500,3.015158447265625,-0.6399405598640442,-0.7376716732978821,-0.8395279049873352
1778595598546152700,3.025152587890625,-0.7450445890426636,-0.7020143270492554,-1.0567805767059326
1778595598556145700,3.035145751953125,-0.8239021301269531,-0.5475471019744873,-1.1345999240875244
1778595598566139600,3.0451396484375,-0.8497606515884399,-0.28692427277565,-1.0510448217391968
1778595598576132600,3.055132568359375,-0.786203920841217,0.03054775670170784,-0.8042902946472168
1778595598586125600,3.06512548828125,-0.6563529968261719,0.332387238740921,-0.4650115370750427
1778595598596119600,3.07511962890625,-0.4780344069004059,0.45178741216659546,-0.12063077837228775
1778595598606112800,3.08511279296875,-0.29509255290031433,0.5231287479400635,0.1999320536851883
1778595598616105500,3.09510546875,-0.1692366600036621,0.41055744886398315,0.3956993818283081
1778595598626099700,3.105099609375,-0.08234917372465134,0.21952490508556366,0.43347659707069397
1778595598636092700,3.1150927734375,-0.06612306833267212,0.020646655932068825,0.34040990471839905
1778595598646085600,3.125085693359375,-0.11057388782501221,-0.15442556142807007,0.15263281762599945
1778595598656079600,3.13507958984375,-0.20733250677585602,-0.2503490447998047,-0.05770124867558479
1778595598666072600,3.145072509765625,-0.35584715008735657,-0.2928014397621155,-0.2211599498987198
1778595598676065800,3.155065673828125,-0.5282005071640015,-0.32267966866493225,-0.3183287978172302
1778595598686059800,3.165059814453125,-0.6818938851356506,-0.31090450286865234,-0.3233102560043335
1778595598696052500,3.175052490234375,-0.7960534691810608,-0.196597620844841,-0.23367393016815186
1778595598706045700,3.185045654296875,-0.8769333958625793,-0.019416186958551407,-0.09710650891065598
1778595598716039700,3.195039794921875,-0.9303048253059387,0.16374166309833527,0.020047033205628395
1778595598726032600,3.20503271484375,-0.9707933664321899,0.31699806451797485,0.06032494828104973
1778595598736025600,3.215025634765625,-1.0058486461639404,0.4232223629951477,0.022110018879175186
1778595598746019600,3.22501953125,-1.0467263460159302,0.4534042477607727,-0.0628296360373497
1778595598756012800,3.2350126953125,-1.080499529838562,0.37944120168685913,-0.15672194957733154
1778595598766005800,3.245005859375,-1.0975557565689087,0.22391313314437866,-0.22653724253177643
1778595598775998700,3.254998779296875,-1.1014751195907593,0.05299316346645355,-0.25899213552474976
1778595598785992700,3.26499267578125,-1.0751463174819946,-0.09985310584306717,-0.25023484230041504
1778595598795985700,3.274985595703125,-1.02424156665802,-0.21401472389698029,-0.20625552535057068
1778595598805978600,3.284978515625,-0.9597796201705933,-0.2992539703845978,-0.16873104870319366
1778595598815972600,3.29497265625,-0.8788039088249207,-0.37493982911109924,-0.18621262907981873
1778595598825965600,3.304965576171875,-0.7981977462768555,-0.37081462144851685,-0.25753074884414673
1778595598835958800,3.314958740234375,-0.7226389050483704,-0.319936066865921,-0.36196669936180115
1778595598845952800,3.324952880859375,-0.6531146764755249,-0.2650541663169861,-0.44896233081817627
1778595598855945500,3.334945556640625,-0.5954107642173767,-0.23646286129951477,-0.46932902932167053
1778595598865938700,3.344938720703125,-0.5295385718345642,-0.24497218430042267,-0.41959503293037415
1778595598875932700,3.3549326171875,-0.4360290765762329,-0.25981080532073975,-0.32664942741394043
1778595598885925600,3.364925537109375,-0.3120402693748474,-0.2587711215019226,-0.22203141450881958
1778595598895918600,3.374918701171875,-0.17283454537391663,-0.20833942294120789,-0.11589527130126953
1778595598905912600,3.38491259765625,-0.05023378133773804,-0.088044174015522,0.011967083439230919
1778595598915905800,3.39490576171875,0.07901494204998016,-0.031507719308137894,0.11068226397037506
1778595598925898500,3.4048984375,0.2305690348148346,0.008700420148670673,0.18067307770252228
1778595598935892500,3.414892578125,0.3863869905471802,0.050203483551740646,0.20444230735301971
1778595598945885700,3.4248857421875,0.518200159072876,0.028595659881830215,0.16382856667041779
1778595598955878700,3.434878662109375,0.612271785736084,-0.05187679082155228,0.06653972715139389
1778595598965872600,3.44487255859375,0.6788375377655029,-0.1399555206298828,-0.04254734888672829
1778595598975865600,3.454865478515625,0.7146071791648865,-0.17254889011383057,-0.10407125949859619
1778595598985858600,3.464858642578125,0.7255447506904602,-0.15118928253650665,-0.08553832024335861
1778595598995852800,3.474852783203125,0.7391112446784973,-0.16751126945018768,-0.01653588004410267
1778595599005845500,3.484845458984375,0.7594383358955383,-0.22612078487873077,0.056293588131666183
1778595599015838700,3.494838623046875,0.7800687551498413,-0.34022045135498047,0.0882689356803894
1778595599025831700,3.504831787109375,0.7916268706321716,-0.5254433751106262,0.05766522139310837
1778595599035825700,3.51482568359375,0.7877859473228455,-0.7413904070854187,0.005084139294922352
1778595599045818600,3.524818603515625,0.78095942735672,-0.8633067607879639,0.039900440722703934
1778595599055811600,3.5348115234375,0.8000778555870056,-0.7548424601554871,0.24023236334323883
1778595599065805600,3.5448056640625,0.8651250600814819,-0.4063566029071808,0.5904622673988342
1778595599075798800,3.554798828125,0.981440544128418,0.11202859878540039,0.9876498579978943
1778595599085791500,3.56479150390625,1.1436797380447388,0.601158857345581,1.3008320331573486
1778595599095785700,3.57478564453125,1.3012433052062988,0.9365242719650269,1.4510929584503174
1778595599105778700,3.58477880859375,1.4233862161636353,1.1754945516586304,1.4433977603912354
1778595599115771600,3.594771728515625,1.5103834867477417,1.294328212738037,1.2948087453842163
1778595599125765600,3.604765625,1.5202925205230713,1.2504500150680542,1.0524266958236694
1778595599135758600,3.614758544921875,1.4654852151870728,1.0269383192062378,0.8043592572212219
1778595599145751800,3.624751708984375,1.373045802116394,0.6297637820243835,0.5744855999946594
1778595599155745800,3.634745849609375,1.277664065361023,0.13230837881565094,0.3845188319683075
1778595599165738500,3.644738525390625,1.2140233516693115,-0.3139559328556061,0.26745158433914185
1778595599175731700,3.654731689453125,1.1254109144210815,-0.547417402267456,0.22340315580368042
1778595599185725700,3.6647255859375,1.0325918197631836,-0.5503474473953247,0.22654995322227478
1778595599195718400,3.674718505859375,0.944210410118103,-0.36270222067832947,0.2532328963279724
1778595599205711600,3.684711669921875,0.883159339427948,-0.04463662952184677,0.2907925248146057
1778595599215704600,3.69470458984375,0.8507329821586609,0.33993640542030334,0.33303138613700867
1778595599225698800,3.70469873046875,0.8218646049499512,0.7553831338882446,0.41456910967826843
1778595599235691500,3.71469140625,0.7769181728363037,1.0911728143692017,0.4697258472442627
1778595599245684700,3.724684814453125,0.737526535987854,1.2913365364074707,0.46583977341651917
1778595599255681500,3.734681640625,0.7016136050224304,1.38379967212677,0.42756274342536926
1778595599265674500,3.744674560546875,0.6653826236724854,1.362430214881897,0.37340494990348816
1778595599275667500,3.75466748046875,0.6378653645515442,1.250305414199829,0.32901906967163086
1778595599285661400,3.764661376953125,0.6209537982940674,1.0743465423583984,0.3007892966270447
1778595599295654700,3.774654541015625,0.6216856241226196,0.8719527721405029,0.30005204677581787
1778595599305647400,3.7846474609375,0.6027231216430664,0.6119068264961243,0.2921227514743805
1778595599315640600,3.794640625,0.5848572850227356,0.38733309507369995,0.27551010251045227
1778595599325634600,3.804634521484375,0.6201713681221008,0.2577551305294037,0.26754456758499146
1778595599335627500,3.81462744140625,0.6416818499565125,0.08679099380970001,0.2583392560482025
1778595599345620500,3.824620361328125,0.6108517646789551,-0.14341503381729126,0.21106041967868805
1778595599355614500,3.834614501953125,0.5602492690086365,-0.36187174916267395,0.11291205883026123
1778595599365607400,3.844607421875,0.5028033256530762,-0.5534454584121704,-0.0376121960580349
1778595599375600600,3.8546005859375,0.4113464653491974,-0.7539529204368591,-0.2520594596862793
1778595599385594400,3.864594482421875,0.2803306579589844,-0.9642028212547302,-0.5167028307914734
1778595599395587300,3.87458740234375,0.1294894516468048,-1.181490182876587,-0.7811241149902344
1778595599405580500,3.88458056640625,-0.011588582769036293,-1.3940695524215698,-1.0126361846923828
1778595599415573500,3.894573486328125,-0.13794510066509247,-1.5307819843292236,-1.1703299283981323
1778595599425567500,3.9045673828125,-0.25905874371528625,-1.537996530532837,-1.2460724115371704
1778595599435560400,3.914560546875,-0.3697671592235565,-1.426135778427124,-1.2535407543182373
1778595599445553700,3.9245537109375,-0.4540887176990509,-1.1747597455978394,-1.1774922609329224
1778595599455547600,3.934547607421875,-0.4893020987510681,-0.8288119435310364,-1.0362792015075684
1778595599465540400,3.944540283203125,-0.4696889817714691,-0.4390002489089966,-0.8716269135475159
1778595599477406500,3.956406494140625,-0.37361210584640503,-0.04449622705578804,-0.730440080165863
1778595599487400400,3.966400390625,-0.27112331986427307,0.123252272605896,-0.7252809405326843
1778595599497393400,3.976393310546875,-0.1811761111021042,0.1630532145500183,-0.7980334162712097
1778595599507386400,3.986386474609375,-0.14816446602344513,0.043956827372312546,-0.8918135166168213
1778595599517379600,3.996379638671875,-0.20598968863487244,-0.23524124920368195,-0.9822110533714294
1778595599527373600,4.00637353515625,-0.3262701630592346,-0.5148658156394958,-1.0426839590072632
1778595599537366300,4.0163662109375,-0.44081324338912964,-0.679524302482605,-1.0906370878219604
1778595599547359500,4.026359375,-0.5169105529785156,-0.7216359376907349,-1.1352347135543823
1778595599557353500,4.036353515625,-0.5589022636413574,-0.65505450963974,-1.139291763305664
1778595599567346700,4.0463466796875,-0.5593307614326477,-0.4401129484176636,-1.042755126953125
1778595599577339400,4.05633935546875,-0.5287824273109436,-0.09449935704469681,-0.8113677501678467
1778595599587333400,4.06633349609375,-0.4236326217651367,0.3152572214603424,-0.5031536817550659
1778595599597326600,4.07632666015625,-0.2592910826206207,0.6953265070915222,-0.16424353420734406
1778595599607319600,4.086319580078125,-0.1068723052740097,1.0004421472549438,0.15017618238925934
1778595599617312500,4.0963125,-0.02460247091948986,1.1382793188095093,0.39577874541282654
1778595599627306500,4.106306396484375,-0.007197914179414511,1.11116623878479,0.5893567800521851
1778595599637299500,4.116299560546875,-0.0010020695626735687,0.9708680510520935,0.7149783372879028
1778595599647292400,4.12629248046875,-0.021741900593042374,0.7823556661605835,0.7527939677238464
1778595599657286400,4.136286376953125,-0.07993702590465546,0.6028264164924622,0.7223449945449829
1778595599667279400,4.146279296875,-0.17762163281440735,0.45353853702545166,0.6525716781616211
1778595599677272600,4.1562724609375,-0.3057015836238861,0.3593374788761139,0.5597383975982666
1778595599687265300,4.166265380859375,-0.4535493850708008,0.3367253541946411,0.4610060155391693
1778595599697259500,4.176259521484375,-0.6139808893203735,0.37254035472869873,0.37107717990875244
1778595599707252500,4.18625244140625,-0.7608165144920349,0.42641574144363403,0.2792891561985016
1778595599717245700,4.19624560546875,-0.8880735039710999,0.4756908714771271,0.17956790328025818
1778595599727239400,4.206239501953125,-0.9794729948043823,0.4886673092842102,0.09548982977867126
1778595599737232400,4.216232421875,-1.021276831626892,0.4644719660282135,0.05801408737897873
1778595599747225600,4.2262255859375,-1.0124626159667969,0.4083583652973175,0.07882057130336761
1778595599757218300,4.23621826171875,-0.9581674337387085,0.32397717237472534,0.14016194641590118
1778595599767212300,4.24621240234375,-0.875892162322998,0.2517145574092865,0.2139628380537033
1778595599777205500,4.25620556640625,-0.8106092810630798,0.2095356583595276,0.2900690734386444
1778595599787824400,4.266824462890625,-0.7547984719276428,0.11700546741485596,0.31197571754455566
1778595599797817300,4.2768173828125,-0.6970636248588562,0.02259499952197075,0.2642616033554077
1778595599807810600,4.286810546875,-0.6458563208580017,-0.041864681988954544,0.16778644919395447
1778595599817804500,4.296804443359375,-0.6094673871994019,-0.10776905715465546,0.050051718950271606
1778595599827797500,4.306797607421875,-0.5729895830154419,-0.19465814530849457,-0.05271753668785095
1778595599837790500,4.31679052734375,-0.5163825154304504,-0.33098357915878296,-0.1367606669664383
1778595599847783700,4.32678369140625,-0.44609132409095764,-0.4987216889858246,-0.212136372923851
1778595599857777700,4.336777587890625,-0.3641606271266937,-0.6863284707069397,-0.2756022810935974
1778595599867770400,4.346770263671875,-0.2661592364311218,-0.8689627051353455,-0.3109530806541443
1778595599877763600,4.356763671875,-0.1536516398191452,-1.0129587650299072,-0.3348124325275421
1778595599887757600,4.366757568359375,-0.04188862070441246,-1.0680819749832153,-0.3565824627876282
1778595599897750300,4.376750244140625,0.05972665920853615,-1.0224220752716064,-0.36766812205314636
1778595599907743500,4.386743408203125,0.15236498415470123,-0.8767818808555603,-0.3604336678981781
1778595599917736400,4.396736328125,0.2552443742752075,-0.711355447769165,-0.3448149263858795
1778595599927730700,4.406730712890625,0.3799397051334381,-0.5672052502632141,-0.32408860325813293
1778595599937723400,4.416723388671875,0.5278316736221313,-0.46301090717315674,-0.28250986337661743
1778595599947716400,4.42671630859375,0.6929508447647095,-0.4161110520362854,-0.21965688467025757
1778595599957710600,4.436710693359375,0.8551236391067505,-0.40147870779037476,-0.14263677597045898
1778595599967703600,4.44670361328125,1.0133333206176758,-0.3840046525001526,-0.0413769967854023
1778595599977696500,4.456696533203125,1.1653118133544922,-0.33189117908477783,0.06736849993467331
1778595599987689500,4.466689453125,1.2905198335647583,-0.22383660078048706,0.16002120077610016
1778595599997683500,4.476683349609375,1.3707373142242432,-0.02522207610309124,0.24539533257484436
1778595600007676400,4.486676513671875,1.3974014520645142,0.15839728713035583,0.3168274462223053
1778595600017669400,4.49666943359375,1.3661202192306519,0.24683767557144165,0.3530200123786926
1778595600027663400,4.506663330078125,1.3021879196166992,0.23487049341201782,0.3201422393321991
1778595600037656600,4.516656494140625,1.2197006940841675,0.12432267516851425,0.20336340367794037
1778595600047649300,4.526649169921875,1.1360423564910889,-0.04033844545483589,0.0939711406826973
1778595600057642500,4.536642578125,1.1311638355255127,-0.23591755330562592,0.08784836530685425
1778595600067636500,4.546636474609375,1.2322322130203247,-0.3393464684486389,0.15484711527824402
1778595600077629400,4.55662939453125,1.3558417558670044,-0.2575286030769348,0.2602170407772064
1778595600087622400,4.566622314453125,1.4838693141937256,-0.00919015146791935,0.3989783823490143
1778595600097615400,4.576615478515625,1.6110087633132935,0.28243574500083923,0.5928191542625427
1778595600107609600,4.586609619140625,1.709824800491333,0.5855221152305603,0.8270313739776611
1778595600117602600,4.5966025390625,1.7640328407287598,0.7794324159622192,1.0647474527359009
1778595600127595500,4.606595458984375,1.6833134889602661,0.7633847594261169,1.2117406129837036
1778595600137589500,4.616589599609375,1.397007942199707,0.3992866575717926,1.1396257877349854
1778595600147582500,4.62658251953125,1.1042042970657349,-0.18449608981609344,0.883024275302887
1778595600157575400,4.636575439453125,0.9520883560180664,-0.6740177273750305,0.6296234726905823
1778595600167568400,4.646568359375,0.8582899570465088,-0.9066656231880188,0.44805315136909485
1778595600177562400,4.656562255859375,0.8380573391914368,-1.0566532611846924,0.3302587866783142
1778595600187555600,4.6665556640625,0.8744169473648071,-1.0056614875793457,0.2160230278968811
1778595600197548300,4.67654833984375,0.9903486371040344,-0.6773306727409363,0.12333191186189651
1778595600207542500,4.68654248046875,1.1808689832687378,-0.18397821485996246,0.09218837320804596
1778595600217535500,4.696535400390625,1.4140281677246094,0.3510669767856598,0.12004078179597855
1778595600227528400,4.706528564453125,1.635503888130188,0.8430625200271606,0.18400432169437408
1778595600237521400,4.716521484375,1.7961546182632446,1.1830377578735352,0.22988605499267578
1778595600247513000,4.72651318359375,1.8422904014587402,1.254902958869934,0.23570746183395386
1778595600257506000,4.736506103515625,1.8288207054138184,1.043296217918396,0.18838031589984894
1778595600267499300,4.746499267578125,1.7921026945114136,0.6539101004600525,0.15288330614566803
1778595600277492000,4.756491943359375,1.7542840242385864,0.2512437403202057,0.17971907556056976
1778595600287486000,4.76648583984375,1.5915074348449707,0.0325004905462265,0.2480187714099884
1778595600297479200,4.776479248046875,1.397607445716858,-0.00547413295134902,0.3763962686061859
1778595600307472000,4.786471923828125,1.2653477191925049,0.09788341820240021,0.5551367402076721
1778595600317466000,4.796466064453125,1.2055531740188599,0.07496202737092972,0.7523639798164368
1778595600327459000,4.806458984375,1.1449310779571533,0.06407368928194046,0.8935093879699707
1778595600337452300,4.816452392578125,1.0511783361434937,0.07678817212581635,0.9294891357421875
1778595600347445000,4.826445068359375,0.9344774484634399,0.06143718212842941,0.8839397430419922
1778595600357439000,4.83643896484375,0.8034610748291016,-0.047912780195474625,0.7642883658409119
1778595600367432200,4.84643212890625,0.671480655670166,-0.2306027114391327,0.5953829288482666
1778595600377425200,4.856425048828125,0.5413534641265869,-0.4371894598007202,0.40237879753112793
1778595600387418000,4.866418212890625,0.4139667749404907,-0.6466931104660034,0.20073114335536957
1778595600397412000,4.876412109375,0.2823042869567871,-0.8421927690505981,0.019647855311632156
1778595600407405000,4.886405029296875,0.1403396874666214,-0.9877874851226807,-0.11237195879220963
1778595600417398300,4.896398193359375,0.012795173563063145,-1.040481448173523,-0.17659196257591248
1778595600427392000,4.90639208984375,-0.07010423392057419,-0.9865162372589111,-0.17402786016464233
1778595600437385000,4.916385009765625,-0.0999942347407341,-0.8106900453567505,-0.14278090000152588
1778595600447378200,4.926378173828125,-0.08740787208080292,-0.5193599462509155,-0.11055504530668259
1778595600457371000,4.936370849609375,-0.03808291256427765,-0.19531609117984772,-0.0855785384774208
1778595600467365000,4.946365234375,0.03771438077092171,0.10691514611244202,-0.10310906171798706
1778595600477358000,4.956358154296875,0.13483268022537231,0.26757168769836426,-0.19578078389167786
1778595600487351300,4.966351318359375,0.2709803879261017,0.30643999576568604,-0.31458383798599243
1778595600497344000,4.976343994140625,0.39350923895835876,0.22459785640239716,-0.3802310526371002
1778595600507338000,4.986337890625,0.443865031003952,-0.03680901601910591,-0.40862685441970825
1778595600517331200,4.996331298828125,0.4089038372039795,-0.3829113245010376,-0.4493294060230255
1778595600527324200,5.00632421875,0.2869499623775482,-0.74810391664505,-0.5226678252220154
1778595600537317000,5.016317138671875,0.13058069348335266,-1.0628859996795654,-0.6394625902175903
1778595600547311000,5.02631103515625,-0.05774952843785286,-1.2757843732833862,-0.8015859723091125
1778595600557304000,5.036303955078125,-0.22773051261901855,-1.393082857131958,-0.9365295767784119
1778595600567297300,5.04629736328125,-0.30482983589172363,-1.354385495185852,-0.9752420783042908
1778595600577291000,5.056291015625,-0.24832959473133087,-1.2263915538787842,-0.8779816627502441
1778595600587284000,5.066283935546875,-0.061685945838689804,-1.0094469785690308,-0.6759158968925476
1778595600597277200,5.076277099609375,0.21188287436962128,-0.6060844659805298,-0.4340434670448303
1778595600607270000,5.086269775390625,0.4748111665248871,-0.17650939524173737,-0.28244274854660034
1778595600617264000,5.09626416015625,0.6370646953582764,0.24837595224380493,-0.23616020381450653
1778595600627257000,5.106257080078125,0.7109021544456482,0.4915803372859955,-0.25785911083221436
1778595600637250300,5.116250244140625,0.7033817172050476,0.5539000034332275,-0.33155667781829834
1778595600647243000,5.126242919921875,0.6268512606620789,0.44572240114212036,-0.42541712522506714
1778595600657237000,5.136237060546875,0.5257673859596252,0.16986246407032013,-0.49470850825309753
1778595600667230200,5.146230224609375,0.4119313657283783,-0.056760817766189575,-0.5095196962356567
1778595600677223200,5.15622314453125,0.2867829203605652,-0.1193268895149231,-0.45076984167099
1778595600687216000,5.166216064453125,0.1899956613779068,-0.11216245591640472,-0.3436164855957031
1778595600697210000,5.176210205078125,0.13244669139385223,-0.20850859582424164,-0.23699356615543365
1778595600707203000,5.186203125,0.0750662311911583,-0.2030712217092514,-0.1791481077671051
1778595600717196000,5.196196044921875,0.01510394737124443,-0.14963604509830475,-0.14046020805835724
1778595600727189000,5.20618896484375,-0.034700360149145126,-0.13355427980422974,-0.11929474025964737
1778595600737183000,5.216182861328125,-0.09861598163843155,-0.03331216797232628,-0.07824711501598358
1778595600747176200,5.22617626953125,-0.12277112156152725,0.16194680333137512,-0.003551306901499629
1778595600757169000,5.2361689453125,-0.07838690280914307,0.31259772181510925,0.06476829946041107
1778595600767162000,5.246162109375,0.03494737297296524,0.2892540395259857,0.0769842192530632
1778595600777156000,5.256156005859375,0.20361286401748657,-0.06966717541217804,0.011568469926714897
1778595600787149300,5.2661494140625,0.586571455001831,-0.5194463133811951,-0.11565792560577393
1778595600797142000,5.27614208984375,0.9659639596939087,-0.8929423689842224,-0.23564419150352478
1778595600807135200,5.28613525390625,1.2792761325836182,-1.2141244411468506,-0.2610741853713989
1778595600817129200,5.296129150390625,1.5122747421264648,-1.2561330795288086,-0.2715696394443512
1778595600827122200,5.3061220703125,1.6438970565795898,-0.9758230447769165,-0.32258862257003784
1778595600837115100,5.316115234375,1.6719790697097778,-0.538743257522583,-0.4520748257637024
1778595600847108000,5.326108154296875,1.620868444442749,-0.23665077984333038,-0.6174190640449524
1778595600857102000,5.33610205078125,1.54055655002594,-0.08294090628623962,-0.7785841226577759
1778595600867095000,5.346094970703125,1.5004563331604004,-0.1192224845290184,-0.8889226317405701
1778595600877088000,5.356087890625,1.560312032699585,-0.43100276589393616,-0.9602449536323547
1778595600887081200,5.366081298828125,1.7390774488449097,-0.8171246647834778,-1.0320606231689453
1778595600897075200,5.3760751953125,2.005919933319092,-1.0120127201080322,-1.1051533222198486
1778595600907068000,5.38606787109375,2.291555643081665,-0.7855679392814636,-1.1922173500061035
1778595600917061000,5.39606103515625,2.505486488342285,-0.24389655888080597,-1.268107533454895
1778595600927054000,5.40605419921875,2.6291515827178955,0.16714876890182495,-1.2362055778503418
1778595600937048300,5.41604833984375,2.689225196838379,0.3504478335380554,-1.0155707597732544
1778595600947041000,5.426041015625,2.643178939819336,0.35500290989875793,-0.5959159135818481
1778595600957034000,5.436033935546875,2.330576181411743,0.3801887333393097,-0.008282740600407124
1778595600967027200,5.446027099609375,1.7226707935333252,0.23260647058486938,0.5687115788459778
1778595600977021200,5.456021240234375,1.007246732711792,-0.03757067024707794,1.1247329711914062
1778595600987014100,5.46601416015625,0.7695542573928833,-0.394778847694397,1.4797685146331787
1778595600997007000,5.476007080078125,0.8936771750450134,-0.4198177456855774,1.491260051727295
1778595601007000300,5.486000244140625,1.1975371837615967,-0.16726137697696686,1.0244343280792236
1778595601016994000,5.495994140625,1.462196707725525,-0.0020444614347070456,0.259569376707077
1778595601026987000,5.505987060546875,1.516737699508667,0.3896261155605316,-0.38352063298225403
1778595601036980200,5.515980224609375,1.5144628286361694,0.9191892743110657,-0.6028831005096436
1778595601046973000,5.525972900390625,1.5543439388275146,1.288933515548706,-0.4128496050834656
1778595601056967000,5.535966796875,1.5973089933395386,1.326775074005127,0.009270581416785717
1778595601066960100,5.545960205078125,1.6142443418502808,1.1149927377700806,0.5282557010650635
1778595601076953000,5.555953125,1.559340238571167,0.8121612071990967,1.0514026880264282
1778595601086946000,5.565946044921875,1.4441834688186646,0.38112595677375793,1.5076264142990112
1778595601096940000,5.57593994140625,1.3019922971725464,0.00731882406398654,1.7987548112869263
1778595601106933000,5.58593310546875,1.0993138551712036,-0.42409515380859375,1.90928053855896
1778595601116926200,5.59592626953125,0.9161036014556885,-0.746137797832489,1.8391658067703247
1778595601126919000,5.6059189453125,0.734427273273468,-0.9420636296272278,1.656461238861084
1778595601136913200,5.6159130859375,0.5382393002510071,-0.8715917468070984,1.4534754753112793
1778595601146906000,5.625906005859375,0.3786584138870239,-0.5343812108039856,1.261745810508728
1778595601156899300,5.6358994140625,0.3080829381942749,-0.03128154203295708,1.130942463874817
1778595601166892000,5.64589208984375,0.3228807747364044,0.41127273440361023,1.0577765703201294
1778595601176885200,5.65588525390625,0.40908750891685486,0.6648328304290771,1.04129159450531
1778595601186879200,5.665879150390625,0.5280458331108093,0.8023216724395752,1.0588324069976807
1778595601196872000,5.675871826171875,0.6643906235694885,0.8379896283149719,1.0925309658050537
1778595601206865200,5.685865234375,0.7874388098716736,0.7767544984817505,1.1572414636611938
1778595601216858000,5.695858154296875,0.820550799369812,0.7182213068008423,1.2260569334030151
1778595601226852000,5.70585205078125,0.7361786365509033,0.6022099852561951,1.237355351448059
1778595601236845000,5.715844970703125,0.6096594929695129,0.38426297903060913,1.1948245763778687
1778595601246838000,5.725838134765625,0.5569568872451782,0.26826420426368713,1.1550662517547607
1778595601256830700,5.735830810546875,0.6326717734336853,0.20972228050231934,1.2321360111236572
1778595601266824700,5.74582470703125,0.6770690679550171,0.030170103535056114,1.307705044746399
1778595601276817700,5.755817626953125,0.6528584361076355,-0.12366069108247757,1.3229247331619263
1778595601286810600,5.765810546875,0.6046381592750549,-0.16252952814102173,1.2378334999084473
1778595601296803800,5.775803955078125,0.5513339638710022,-0.25124767422676086,1.1099570989608765
1778595601306796500,5.785796630859375,0.5165919661521912,-0.2592827081680298,0.9699915647506714
1778595601316790500,5.79579052734375,0.49867334961891174,-0.19273070991039276,0.8071327805519104
1778595601326783700,5.80578369140625,0.4240475594997406,-0.09697062522172928,0.6131159067153931
1778595601336776400,5.8157763671875,0.2732367217540741,-0.07294683903455734,0.4457058310508728
1778595601346769700,5.825769775390625,0.17087095975875854,-0.19534705579280853,0.34827888011932373
1778595601356763600,5.835763671875,0.15775799751281738,-0.4197324812412262,0.2879524528980255
1778595601366756600,5.845756591796875,0.15906988084316254,-0.5795935392379761,0.1759985089302063
1778595601376749600,5.85574951171875,0.15675798058509827,-0.5367804169654846,-0.05938032269477844
1778595601386742500,5.865742431640625,0.17622941732406616,-0.44964921474456787,-0.4040791094303131
1778595601396736500,5.875736572265625,0.19490854442119598,-0.17925718426704407,-0.8312389850616455
1778595601406729700,5.885729736328125,0.20907843112945557,0.1965326964855194,-1.2752939462661743
1778595601416722400,5.895722412109375,0.20055729150772095,0.47313085198402405,-1.658491611480713
1778595601426715600,5.905715576171875,0.20154373347759247,0.598454475402832,-1.8046510219573975
1778595601436708600,5.91570849609375,0.20078127086162567,0.48364898562431335,-1.6235986948013306
1778595601446702600,5.92570263671875,0.18172475695610046,0.10923438519239426,-1.2049891948699951
1778595601456695600,5.935695556640625,0.089155413210392,-0.3502642512321472,-0.8414278030395508
1778595601466688500,5.9456884765625,-0.09622003883123398,-0.7717542052268982,-0.8266909122467041
1778595601476681700,5.955681640625,-0.2333562672138214,-1.1181988716125488,-1.1854567527770996
1778595601486675500,5.965675537109375,-0.18883565068244934,-1.233467698097229,-1.7904233932495117
1778595601496668700,5.975668701171875,0.03140058368444443,-1.167881727218628,-2.433157205581665
1778595601506661600,5.98566162109375,0.37004148960113525,-1.2322337627410889,-2.8467137813568115
1778595601516654600,5.995654541015625,0.8673257827758789,-1.6072725057601929,-2.9628517627716064
1778595601526647600,6.0056474609375,1.3922580480575562,-2.2413177490234375,-2.7633583545684814
1778595601536641500,6.0156416015625,1.767296552658081,-2.9149324893951416,-2.2930197715759277
1778595601546634800,6.025634765625,1.8732088804244995,-3.318179130554199,-1.6317672729492188
1778595601556627500,6.03562744140625,1.7075952291488647,-3.1907575130462646,-0.9421968460083008
1778595601566620700,6.04562060546875,1.4525368213653564,-2.790982961654663,-0.48546308279037476
1778595601576614700,6.05561474609375,1.433168888092041,-2.829211473464966,-0.4476233720779419
1778595601586607600,6.065607666015625,1.7670329809188843,-3.1527981758117676,-0.6627287268638611
1778595601596600600,6.0756005859375,2.181595802307129,-3.959383010864258,-0.9089663624763489
1778595601606593500,6.085593505859375,2.4307098388671875,-5.428591728210449,-1.0556870698928833
1778595601616586800,6.095586669921875,2.538886308670044,-7.291150093078613,-1.0198173522949219
1778595601626580700,6.105580810546875,2.5912725925445557,-9.049432754516602,-0.7718858122825623
1778595601636573400,6.115573486328125,2.6661791801452637,-10.034582138061523,-0.38940316438674927
1778595601646566700,6.125566650390625,2.853848457336426,-10.459555625915527,0.1416519284248352
1778595601656559600,6.1355595703125,3.206066131591797,-10.594562530517578,0.8019620776176453
1778595601666552600,6.145552490234375,3.7512238025665283,-10.292364120483398,1.516800045967102
1778595601676546600,6.155546630859375,4.431854724884033,-9.57807731628418,2.240968704223633
1778595601686539800,6.165539794921875,5.237066745758057,-8.540055274963379,2.85713791847229
1778595601696532500,6.175532470703125,5.865505218505859,-7.590893268585205,3.394890546798706
1778595601706525400,6.185525390625,6.268908500671387,-6.673205375671387,3.9211721420288086
1778595601716519700,6.195519775390625,6.401886940002441,-5.8615875244140625,4.440224647521973
1778595601726512600,6.2055126953125,6.177926540374756,-5.103105545043945,4.949395656585693
1778595601736505600,6.215505615234375,5.617051124572754,-4.154654502868652,5.386462211608887
1778595601746498600,6.22549853515625,4.860101699829102,-2.981311559677124,5.709481716156006
1778595601756491800,6.23549169921875,4.192483425140381,-2.018724203109741,5.857174396514893
1778595601766485800,6.24548583984375,3.716264486312866,-1.6586873531341553,5.780020236968994
1778595601776478500,6.255478515625,3.258129596710205,-1.5887999534606934,5.584714889526367
1778595601786471700,6.2654716796875,2.529913902282715,-1.7000956535339355,5.133228302001953
1778595601796464600,6.275464599609375,1.561729907989502,-1.5387892723083496,4.04901647567749
1778595601806457600,6.28545751953125,0.5755139589309692,-1.2082667350769043,2.6781370639801025
1778595601816451600,6.29545166015625,-0.23865434527397156,-0.7591382265090942,1.4328720569610596
1778595601826444500,6.305444580078125,-0.8072312474250793,-0.4167766273021698,0.6242753267288208
1778595601836437800,6.315437744140625,-1.3449742794036865,-0.1309087723493576,0.19773942232131958
1778595601846430500,6.325430419921875,-1.9204405546188354,0.21883858740329742,-0.012773344293236732
1778595601856424400,6.335424560546875,-2.2161436080932617,0.4509919285774231,0.030191432684659958
1778595601866417700,6.345417724609375,-2.2342779636383057,0.22985847294330597,0.232174351811409
1778595601876410400,6.355410400390625,-2.1473402976989746,-0.4846910834312439,0.3661414682865143
1778595601886403600,6.365403564453125,-2.159147024154663,-1.5148694515228271,0.33380669355392456
1778595601896396500,6.375396484375,-2.4061951637268066,-2.673466444015503,0.3580062687397003
1778595601906390800,6.385390869140625,-2.778564214706421,-3.4052600860595703,0.2915510833263397
1778595601916383500,6.395383544921875,-3.248875856399536,-3.6224982738494873,0.004996803589165211
1778595601926376700,6.405376708984375,-3.757629156112671,-3.265620708465576,-0.42924386262893677
1778595601936369700,6.41536962890625,-4.104185581207275,-2.5694048404693604,-0.9060873985290527
1778595601946362400,6.4253623046875,-3.978607416152954,-2.084864377975464,-0.8311651945114136
1778595601956356600,6.435356689453125,-3.0020196437835693,-2.1248879432678223,0.18891584873199463
1778595601966349600,6.445349609375,-1.6521121263504028,-2.4673972129821777,1.1736739873886108
1778595601976342800,6.4553427734375,-0.39219412207603455,-2.25972056388855,1.758529782295227
1778595601986335500,6.46533544921875,0.32382896542549133,-1.5015809535980225,1.683814525604248
1778595601996328700,6.47532861328125,0.4242120087146759,-0.4600624144077301,1.284943699836731
1778595602006322700,6.48532275390625,0.09325005859136581,0.5037862062454224,0.9168102145195007
1778595602016315600,6.495315673828125,-0.5496218204498291,1.0607596635818481,0.5316916108131409
1778595602026308600,6.50530859375,-1.0336445569992065,0.7582871913909912,0.06920117139816284
1778595602036301600,6.515301513671875,-1.2174144983291626,0.06394325941801071,-0.31115761399269104
1778595602046294800,6.525294677734375,-1.4912371635437012,0.1741027981042862,-0.31889063119888306
1778595602056288800,6.535288818359375,-1.724303960800171,0.699180543422699,-0.29696983098983765
1778595602066281500,6.545281494140625,-1.8037729263305664,1.0326151847839355,-0.4842776656150818
1778595602076274700,6.555274658203125,-1.9042439460754395,1.176929235458374,-0.8052961826324463
1778595602086267600,6.565267578125,-2.0812954902648926,1.023542881011963,-1.1779435873031616
1778595602096260600,6.575260498046875,-2.2378439903259277,0.551228404045105,-1.5559263229370117
1778595602106254600,6.585254638671875,-2.454674243927002,0.026262333616614342,-1.9110947847366333
1778595602116247600,6.59524755859375,-2.26499080657959,-0.9934632182121277,-2.184464931488037
1778595602126240500,6.605240478515625,-1.3055591583251953,-1.234848141670227,-1.9824981689453125
1778595602136233500,6.6152333984375,-0.17167775332927704,-0.5470594763755798,-1.4271985292434692
1778595602146226700,6.625226806640625,0.6325103640556335,0.34048205614089966,-0.7397241592407227
1778595602156220700,6.635220703125,1.0841834545135498,1.192960262298584,-0.14454862475395203
1778595602166213600,6.645213623046875,1.2520544528961182,1.9356650114059448,0.2741309106349945
1778595602176206600,6.65520654296875,1.1433968544006348,2.112093210220337,0.5238523483276367
1778595602186199600,6.665199462890625,0.6386038064956665,1.6751956939697266,0.5770165324211121
1778595602196192500,6.675192626953125,-0.10614249855279922,1.009496808052063,0.39302682876586914
1778595602206186500,6.6851865234375,-0.9374750852584839,0.08111831545829773,-0.042129699140787125
1778595602216179700,6.6951796875,-1.7680946588516235,-1.2145202159881592,-0.7017672657966614
1778595602226172700,6.705172607421875,-2.343902826309204,-1.7918742895126343,-1.4396802186965942
1778595602236165600,6.71516552734375,-2.6248462200164795,-1.2807536125183105,-2.232431173324585
1778595602246158600,6.72515869140625,-2.6986494064331055,-0.24496281147003174,-2.968843460083008
1778595602256151800,6.73515185546875,-2.819161891937256,0.6544679403305054,-3.083996295928955
1778595602266146000,6.74514599609375,-2.8897712230682373,1.0615824460983276,-2.619126796722412
1778595602276138800,6.755138671875,-2.5203495025634766,0.760328471660614,-2.0149991512298584
1778595602286132000,6.765132080078125,-1.594434142112732,-0.05975976586341858,-1.724331259727478
1778595602296125000,6.775125,-0.7091512680053711,-0.43851348757743835,-1.8052932024002075
1778595602306118000,6.785117919921875,-0.4208585023880005,-0.3825860321521759,-1.9923597574234009
1778595602316112000,6.79511181640625,-0.32908210158348083,-0.00981904286891222,-2.0777127742767334
1778595602326104800,6.805104736328125,-0.1729191392660141,0.30331116914749146,-2.3016581535339355
1778595602336098000,6.81509814453125,0.015029781498014927,-0.07131548970937729,-2.542696714401245
1778595602346090800,6.8250908203125,0.25679418444633484,-0.27015137672424316,-2.14691424369812
1778595602356084000,6.835083984375,0.36407577991485596,-0.34772205352783203,-1.2418646812438965
1778595602366078000,6.845077880859375,0.09509038180112839,-0.515239953994751,-0.43808120489120483
1778595602376070700,6.855070556640625,-0.2820527255535126,-0.9073534607887268,-0.01874709315598011
1778595602386064000,6.86506396484375,-0.6348085999488831,-1.4393247365951538,-0.07922534644603729
1778595602396056800,6.875056884765625,-1.042751669883728,-1.7676950693130493,-0.45207345485687256
1778595602406050000,6.885050048828125,-1.0345275402069092,-1.7067465782165527,-0.527066707611084
1778595602416042800,6.895042724609375,-0.6108758449554443,-1.736796498298645,-0.6532226204872131
1778595602426036700,6.90503662109375,-0.08403415977954865,-1.6249991655349731,-0.8342863917350769
1778595602436030000,6.915030029296875,0.410593718290329,-1.0385395288467407,-0.8591841459274292
1778595602446022700,6.925022705078125,0.7471426725387573,-0.3586750328540802,-0.8880687952041626
1778595602456016000,6.935015869140625,0.9486700296401978,0.18179233372211456,-0.862614095211029
1778595602466008800,6.9450087890625,0.895529568195343,0.22397787868976593,-1.132760763168335
1778595602476002800,6.9550029296875,0.4877340793609619,-0.24828782677650452,-1.5994917154312134
1778595602485995800,6.964995849609375,0.0389685332775116,-0.2635195255279541,-1.1877830028533936
1778595602495988700,6.97498876953125,-0.35483798384666443,-0.17013294994831085,-0.45974084734916687
1778595602505982000,6.98498193359375,-0.7800707221031189,-0.24945972859859467,0.0560479499399662
1778595602515974700,6.994974609375,-0.8198807239532471,-0.18010760843753815,0.395524263381958
1778595602525968000,7.0049677734375,-0.8017094135284424,-0.14595869183540344,0.5730292797088623
1778595602535961900,7.0149619140625,-0.8459314107894897,-0.1815718561410904,0.691403865814209
1778595602545954800,7.024954833984375,-0.7423384189605713,-0.2328459620475769,0.6848447322845459
1778595602555947800,7.03494775390625,-0.5517194867134094,-0.11307242512702942,0.3134351968765259
1778595602565940700,7.044940673828125,-0.3595193922519684,0.1720176339149475,0.02260524220764637
1778595602575934000,7.054933837890625,-0.3527754247188568,0.4344462752342224,-0.014154395088553429
1778595602585928000,7.064927978515625,-0.4084879457950592,0.3281414210796356,0.18867488205432892
1778595602595921000,7.0749208984375,-0.45247355103492737,-0.308711975812912,0.5528345108032227
1778595602605913900,7.084913818359375,-0.584792971611023,-0.8393257260322571,1.0147075653076172
1778595602615907000,7.094906982421875,-0.6650987863540649,-1.1455910205841064,1.4733119010925293
1778595602625899800,7.104899658203125,-0.576025664806366,-1.3129770755767822,1.6971900463104248
1778595602635893000,7.11489306640625,-0.5786361694335938,-1.536456823348999,1.5635079145431519
1778595602645887000,7.124886962890625,-1.132784366607666,-1.4124006032943726,0.7080681324005127
1778595602655879700,7.134879638671875,-0.6091839075088501,-2.605931043624878,0.8595269918441772
1778595602665873000,7.144872802734375,0.3503357172012329,-3.583723783493042,1.9695836305618286
1778595602675865900,7.154865966796875,1.0331546068191528,-4.163532733917236,2.193915367126465
1778595602685859000,7.164859130859375,1.3171818256378174,-4.606990337371826,2.243352174758911
1778595602695851800,7.174851806640625,1.8279402256011963,-4.722851753234863,2.671281337738037
1778595602705845800,7.184845703125,1.9005409479141235,-3.8022212982177734,2.9275262355804443
1778595602715839000,7.1948388671875,1.51422917842865,-2.4649124145507812,2.802243709564209
1778595602725831700,7.204831787109375,1.0201044082641602,-1.628280520439148,2.568450927734375
1778595602735825000,7.214824951171875,0.3291826546192169,-0.9186137318611145,2.366396188735962
1778595602745817900,7.22481787109375,-0.5528062582015991,-0.22340378165245056,2.0952939987182617
1778595602755811800,7.234811767578125,-1.4307125806808472,0.4356578290462494,1.8882684707641602
1778595602765804800,7.2448046875,-2.0987634658813477,0.7863434553146362,1.8079259395599365
1778595602775797800,7.2547978515625,-2.180462598800659,1.2916936874389648,1.7222014665603638
1778595602785791000,7.264791015625,-1.653664231300354,1.6808979511260986,1.294141411781311
1778595602795783700,7.27478369140625,-0.9046111702919006,1.7811908721923828,0.3864126205444336
1778595602805777000,7.28477685546875,-0.3015369772911072,1.7651005983352661,-0.4758840501308441
1778595602815771000,7.29477099609375,0.15083472430706024,1.5935405492782593,-0.9582129716873169
1778595602825763800,7.304763916015625,0.5811980962753296,1.4691461324691772,-1.002529501914978
1778595602835756800,7.3147568359375,0.9064880013465881,1.3125559091567993,-0.8291603922843933
1778595602845749800,7.324749755859375,1.146738886833191,1.2186046838760376,-0.7249820232391357
1778595602855743000,7.334742919921875,1.4243711233139038,1.2091166973114014,-0.808810830116272
1778595602865735700,7.344735595703125,1.7735671997070312,1.2118403911590576,-0.9316965341567993
1778595602875730000,7.35472998046875,2.0384151935577393,1.175224781036377,-0.9192951917648315
1778595602885723000,7.364722900390625,2.1083405017852783,0.9984262585639954,-0.7300751805305481
1778595602895715800,7.3747158203125,1.9533915519714355,0.5393336415290833,-0.5243110060691833
1778595602905708800,7.384708740234375,1.6045204401016235,-0.1349738985300064,-0.2194368988275528
1778595602915701800,7.39470166015625,0.7889421582221985,-0.716392993927002,-0.16420061886310577
1778595602925695000,7.404695068359375,-1.5565041303634644,-1.108807921409607,-0.42542847990989685
1778595602935689000,7.41468896484375,-4.955946445465088,-1.3906203508377075,-0.795791745185852
1778595602945682000,7.424681884765625,-7.374237537384033,-1.5278303623199463,-1.2370423078536987
1778595602955675000,7.4346748046875,-8.583305358886719,-1.125490665435791,-1.8238730430603027
1778595602965667800,7.444667724609375,-8.74646282196045,-1.43332040309906,-1.6995562314987183
1778595602975660800,7.454660888671875,-4.709916591644287,-2.226386547088623,0.12868835031986237
1778595602985653800,7.46465380859375,-0.47355490922927856,-0.4199640452861786,1.8164403438568115
1778595602995647000,7.47464697265625,0.15177610516548157,1.4636977910995483,2.286820650100708
1778595603005640700,7.484640625,-0.1642545610666275,0.9971655011177063,2.49532413482666
1778595603015634000,7.494634033203125,-0.5769787430763245,0.23726524412631989,2.2982475757598877
1778595603025627000,7.504626953125,-0.6967940926551819,-0.017394209280610085,1.956739068031311
1778595603035619800,7.514619873046875,-0.42405152320861816,0.4377652704715729,1.6402969360351562
1778595603045612800,7.52461279296875,-0.0395355224609375,0.8555172085762024,1.3468658924102783
1778595603055606000,7.53460595703125,0.12297278642654419,0.8638455867767334,0.9751203656196594
1778595603065600000,7.54460009765625,0.11808454990386963,0.6455585360527039,0.5900517702102661
1778595603075592700,7.5545927734375,0.09653225541114807,0.31796225905418396,0.31015896797180176
1778595603085586000,7.5645859375,0.07635188847780228,0.010204431600868702,0.15703944861888885
1778595603095579000,7.574578857421875,0.04832357540726662,-0.23832841217517853,0.15180647373199463
1778595603105571800,7.58457177734375,0.03258908540010452,-0.35235002636909485,0.2427411824464798
1778595603115564800,7.594564697265625,0.020004959776997566,-0.4247426986694336,0.37048426270484924
1778595603125558800,7.604558837890625,-0.007302827667444944,-0.5409547686576843,0.4944021999835968
1778595603135552000,7.614552001953125,-0.015609903261065483,-0.6654735207557678,0.6094790101051331
1778595603145544700,7.624544677734375,-0.011613031849265099,-0.6766523718833923,0.7144250869750977
1778595603155538000,7.634537841796875,-0.06176085025072098,-0.5132784843444824,0.770810067653656
1778595603165531000,7.64453076171875,-0.16736078262329102,-0.03347541391849518,0.7502198815345764
1778595603175523800,7.65452392578125,-0.1422489583492279,0.7010179162025452,0.6566467881202698
1778595603185516800,7.664516845703125,0.06772052496671677,1.3776400089263916,0.5313751697540283
1778595603195510800,7.6745107421875,0.24112674593925476,1.6626391410827637,0.4518934488296509
1778595603205504000,7.68450390625,0.36248940229415894,1.5503010749816895,0.4774717688560486
1778595603215496700,7.69449658203125,0.44340968132019043,1.2574775218963623,0.5794897079467773
1778595603225490000,7.704489990234375,0.4629168212413788,0.8414722681045532,0.7294760346412659
1778595603235483000,7.71448291015625,0.4628097712993622,0.39892861247062683,0.8629066348075867
1778595603245475800,7.724475830078125,0.4115540385246277,0.036318205296993256,0.9321847558021545
1778595603255470000,7.734469970703125,0.2161622941493988,-0.08633685857057571,0.9059175848960876
1778595603265463000,7.744463134765625,-0.210470512509346,0.14631874859333038,0.7554511427879333
1778595603275456000,7.7544560546875,-0.831144392490387,0.5585495829582214,0.5263043642044067
1778595603285449000,7.764448974609375,-1.54141104221344,0.917667806148529,0.2686711847782135
1778595603295442200,7.774442138671875,-1.8660151958465576,0.8180727362632751,0.08452210575342178
1778595603305435000,7.784434814453125,-1.3098150491714478,0.3825843632221222,-0.062482528388500214
1778595603315428000,7.794427978515625,-0.15806666016578674,0.1981736272573471,-0.14666087925434113
1778595603325422000,7.804422119140625,0.14063242077827454,0.34196433424949646,-0.05440151318907738
1778595603335415000,7.8144150390625,0.1990714818239212,0.11874248087406158,0.2610718905925751
1778595603345408000,7.824407958984375,0.40313833951950073,-0.5064774751663208,0.5417970418930054
1778595603355401000,7.83440087890625,0.5583994388580322,-1.126394510269165,0.6297661662101746
1778595603365394200,7.844394287109375,0.5248446464538574,-1.5441781282424927,0.4473646879196167
1778595603375387000,7.854386962890625,0.4333643913269043,-1.7112685441970825,0.0394420325756073
1778595603385380000,7.864380126953125,0.39384815096855164,-1.407504677772522,-0.4411647915840149
1778595603395374000,7.8743740234375,0.417718768119812,-0.9586009979248047,-0.8602387309074402
1778595603405367000,7.884366943359375,0.43192005157470703,-0.6146305799484253,-1.1326823234558105
1778595603415360000,7.894360107421875,0.4187846779823303,-0.44064387679100037,-1.232330322265625
1778595603425353000,7.90435302734375,0.37352851033210754,-0.3956984877586365,-1.1936646699905396
1778595603435346200,7.91434619140625,0.32456648349761963,-0.3603086769580841,-1.0903908014297485
1778595603445339000,7.9243388671875,0.23660387098789215,-0.4999701678752899,-0.8898582458496094
1778595603455332000,7.93433203125,0.1489463448524475,-0.6836161613464355,-0.6920891404151917
1778595603465326000,7.944326171875,0.1470336616039276,-0.8055205345153809,-0.5589993000030518
1778595603478441000,7.95744091796875,0.2052704095840454,-0.8414559960365295,-0.451541543006897
1778595603488434200,7.96743408203125,0.24890635907649994,-0.7476627826690674,-0.3565550744533539
1778595603498427000,7.977427001953125,0.27219435572624207,-0.6057024598121643,-0.24143540859222412
1778595603508420000,7.987420166015625,0.3007389307022095,-0.4731886386871338,-0.15833747386932373
1778595603518413000,7.9974130859375,0.3661397695541382,-0.2725103795528412,-0.17269937694072723
1778595603528406000,8.007406005859375,0.41240987181663513,-0.14685457944869995,-0.29286694526672363
1778595603538400000,8.01739990234375,0.38459181785583496,-0.1423298716545105,-0.5089015364646912
1778595603548393000,8.02739306640625,0.2933616042137146,-0.1424235999584198,-0.7745906114578247
1778595603558386200,8.03738623046875,0.18542610108852386,-0.07846245914697647,-1.000441074371338
1778595603568379000,8.04737890625,0.15660248696804047,-0.013983989134430885,-1.0887696743011475
1778595603578372000,8.0573720703125,0.12971441447734833,0.06317923963069916,-1.0079996585845947
1778595603588365000,8.067364990234376,0.05828944593667984,0.08357704430818558,-0.8190147876739502
1778595603598358000,8.07735791015625,-0.08898815512657166,0.03256472572684288,-0.6724682450294495
1778595603608352000,8.08735205078125,-0.2509072422981262,0.009593282826244831,-0.606269121170044
1778595603618345000,8.097344970703125,-0.34929323196411133,0.1249435767531395,-0.5522951483726501
1778595603628338200,8.107338134765625,-0.2836439907550812,0.30482861399650574,-0.4683583080768585
1778595603638331000,8.117330810546875,-0.12811006605625153,0.47036218643188477,-0.3433237075805664
1778595603648324000,8.127323974609375,0.007306019775569439,0.41013839840888977,-0.2097703367471695
1778595603658317000,8.137317138671875,0.10100747644901276,0.17613789439201355,-0.13464948534965515
1778595603668310000,8.14731005859375,0.1619953215122223,-0.15003594756126404,-0.09475520998239517
1778595603678303000,8.157302978515625,0.16939544677734375,-0.4591114819049835,-0.08247724175453186
1778595603688297000,8.167296875,0.13539263606071472,-0.6331549882888794,-0.09010667353868484
1778595603698290200,8.177290283203124,0.12555544078350067,-0.6228562593460083,-0.15189547836780548
1778595603708283000,8.187282958984374,0.18264730274677277,-0.5702109932899475,-0.19692666828632355
1778595603718276000,8.197276123046874,0.21231597661972046,-0.23605194687843323,-0.30653518438339233
1778595603728269000,8.20726904296875,0.24461941421031952,0.1604621559381485,-0.334805428981781
1778595603738262000,8.217261962890625,0.19199641048908234,0.3878902494907379,-0.21822582185268402
1778595603748255000,8.2272548828125,0.04589573293924332,0.3965248763561249,-0.00665968656539917
1778595603758249000,8.2372490234375,-0.031503453850746155,0.3686530590057373,0.2246454358100891
1778595603768242200,8.2472421875,-0.024342942982912064,0.35666391253471375,0.40856024622917175
1778595603778235000,8.25723486328125,-0.009550681337714195,0.3051812946796417,0.5530244708061218
1778595603788854000,8.26785400390625,0.03370251506567001,0.23560775816440582,0.6664155721664429
1778595603798847000,8.277846923828125,0.12322787195444107,0.22767260670661926,0.7221184968948364
1778595603808840000,8.28783984375,0.1907147616147995,0.35057321190834045,0.7215957045555115
1778595603818833200,8.297833251953126,0.23319856822490692,0.5471675395965576,0.7219666838645935
1778595603828825900,8.307825927734376,0.25905826687812805,0.7768710255622864,0.7603172063827515
1778595603838819000,8.317819091796874,0.26717105507850647,1.060146450996399,0.8284538984298706
1778595603848812000,8.32781201171875,0.2727588713169098,1.3994123935699463,0.9151009321212769
1778595603858805000,8.337804931640624,0.27369576692581177,1.790811538696289,1.0001646280288696
1778595603868799000,8.347799072265625,0.3509523570537567,1.798512578010559,0.5469892024993896
1778595603878792000,8.3577919921875,0.23229707777500153,1.5691100358963013,0.17702873051166534
1778595603888785200,8.36778515625,-0.14059637486934662,1.349436640739441,-0.2928336560726166
1778595603898777900,8.37777783203125,-0.7675468325614929,1.09046471118927,-0.6818839311599731
1778595603908771000,8.38777099609375,-1.200711965560913,0.6243311166763306,-0.9674215912818909
1778595603918764000,8.397763916015625,-0.9073298573493958,0.09288665652275085,-1.0187071561813354
1778595603928757000,8.407757080078126,-0.17767637968063354,-0.09890584647655487,-0.8890687823295593
1778595603938751000,8.4177509765625,0.20811684429645538,-0.17464107275009155,-0.7179441452026367
1778595603948744000,8.427743896484374,0.21622692048549652,-0.618228554725647,-0.4503273367881775
1778595603958737200,8.437737060546874,0.2639230787754059,-1.2506523132324219,-0.15710105001926422
1778595603968729900,8.447729736328125,0.38565194606781006,-1.782211422920227,0.019387468695640564
1778595603978723000,8.45772314453125,0.46851086616516113,-1.9709187746047974,0.038046639412641525
1778595603988716000,8.467716064453125,0.5088526606559753,-1.6433460712432861,-0.07869188487529755
1778595603998709000,8.477708984375,0.5182117819786072,-0.8594017624855042,-0.19034810364246368
1778595604008702000,8.487701904296875,0.4208412766456604,-0.17335595190525055,-0.271576464176178
1778595604018696200,8.4976962890625,0.2809046804904938,0.08806739747524261,-0.26822328567504883
1778595604028689000,8.50768896484375,0.14273814857006073,-0.15001598000526428,-0.2310790866613388
1778595604038681900,8.517681884765626,-0.03453170880675316,-0.754908561706543,-0.25393831729888916
1778595604048675000,8.527675048828126,-0.054078347980976105,-1.0003221035003662,-0.3999268710613251
1778595604058668000,8.53766796875,0.00013109203428030014,-0.8200692534446716,-0.5697838664054871
1778595604068661000,8.547660888671874,0.030068308115005493,-0.5951444506645203,-0.6418516039848328
1778595604078654000,8.557654052734375,0.02555025741457939,-0.4158327579498291,-0.6043800711631775
1778595604088647200,8.567647216796875,-0.00382066797465086,-0.20260195434093475,-0.5197793245315552
1778595604098641000,8.577640869140625,-0.0837293490767479,-0.12261392176151276,-0.43864932656288147
1778595604108634000,8.587634033203125,-0.18532340228557587,0.1270764172077179,-0.41356658935546875
1778595604118627000,8.597626953125,-0.22848792374134064,0.3891807496547699,-0.48581016063690186
1778595604128620000,8.6076201171875,-0.14351537823677063,0.7868972420692444,-0.717383623123169
1778595604138613000,8.617613037109376,0.06633985042572021,1.1842416524887085,-0.9572955369949341
1778595604148606000,8.62760595703125,0.17754392325878143,1.285408854484558,-1.0502867698669434
1778595604158599200,8.63759912109375,0.14579744637012482,0.7980823516845703,-0.8497233390808105
1778595604168592000,8.647591796875,0.05169299617409706,-0.09593004733324051,-0.3861476480960846
1778595604178586000,8.657586181640625,-0.03817111253738403,-0.958603024482727,0.13438580930233002
1778595604188579000,8.6675791015625,-0.11652053892612457,-1.2195614576339722,0.5120647549629211
1778595604198572000,8.677572021484375,-0.18842241168022156,-0.9547722935676575,0.6847313642501831
1778595604208565000,8.68756494140625,-0.24782638251781464,-0.44694387912750244,0.7161805033683777
1778595604218558000,8.697557861328125,-0.1971280425786972,-0.007042665034532547,0.7196245193481445
1778595604228551000,8.707551025390625,-0.14248055219650269,0.1858016699552536,0.7201712131500244
1778595604238544000,8.7175439453125,-0.1539696902036667,0.20419639348983765,0.6727118492126465
1778595604248538000,8.7275380859375,-0.19414855539798737,0.23472023010253906,0.5815425515174866
1778595604258533000,8.737533203125,-0.20398014783859253,0.29346317052841187,0.47120538353919983
1778595604268526300,8.7475263671875,-0.1725267618894577,0.4250326454639435,0.2838318645954132
1778595604278519000,8.75751904296875,-0.11343415081501007,0.5128423571586609,0.06306324899196625
1778595604288512300,8.76751220703125,-0.07563028484582901,0.3862287998199463,-0.07863913476467133
1778595604298505200,8.777505126953125,-0.09107954800128937,0.16045132279396057,-0.09832468628883362
1778595604308498200,8.787498291015625,-0.12465804070234299,-0.002347940346226096,0.02310149371623993
1778595604318491100,8.7974912109375,-0.13158172369003296,-0.008958438411355019,0.2515746057033539
1778595604328484400,8.807484375,-0.13504202663898468,0.02460816502571106,0.5150087475776672
1778595604338478300,8.817478271484376,-0.12984754145145416,0.0171465203166008,0.7580706477165222
1778595604348471000,8.827470947265626,-0.1141253411769867,0.005663283169269562,0.9192233085632324
1778595604358464300,8.83746435546875,-0.08311283588409424,0.02490888349711895,1.0008846521377563
1778595604368457200,8.847457275390624,-0.04007508605718613,0.10658087581396103,1.0128414630889893
1778595604378450200,8.8574501953125,0.009506846778094769,0.28273487091064453,0.9839618802070618
1778595604388443100,8.867443115234375,0.054522790014743805,0.5123113393783569,0.9415385127067566
1778595604398436400,8.877436279296875,0.0766664445400238,0.7607424259185791,0.9098058938980103
1778595604408429000,8.887428955078125,0.08586225658655167,0.9239184260368347,0.9052082896232605
1778595604418423300,8.89742333984375,0.10016396641731262,0.9643833041191101,0.9099907875061035
1778595604428416300,8.907416259765625,0.11241618543863297,0.9503437876701355,0.9138181805610657
1778595604438409200,8.9174091796875,0.08688046038150787,0.9383425116539001,0.8998307585716248
1778595604448402200,8.927402099609376,-0.04469279199838638,0.9894502758979797,0.8236806392669678
1778595604458395100,8.93739501953125,-0.393004447221756,1.0378494262695312,0.635075032711029
1778595604468388400,8.947388427734374,-0.9282459616661072,0.9198378324508667,0.28779399394989014
1778595604478381000,8.957381103515624,-1.3585903644561768,0.4383939504623413,-0.19353245198726654
1778595604488374300,8.967374267578125,-1.1931350231170654,-0.43097710609436035,-0.6035008430480957
1778595604498367200,8.9773671875,-0.4569370746612549,-1.036821961402893,-0.7792322039604187
1778595604508361200,8.987361328125,0.13703657686710358,-0.7676100730895996,-0.7568949460983276
1778595604518354200,8.997354248046875,0.18651491403579712,-0.46914854645729065,-0.4967286288738251
1778595604528347100,9.00734716796875,0.26787370443344116,-0.8310745358467102,-0.09911558777093887
1778595604538340400,9.01734033203125,0.45164939761161804,-1.1575043201446533,0.12327513843774796
1778595604548333000,9.0273330078125,0.5745644569396973,-1.1641758680343628,0.08533338457345963
1778595604558326300,9.037326171875,0.6060994863510132,-1.0300220251083374,-0.15922576189041138
1778595604568319200,9.0473193359375,0.5560126304626465,-0.7810039520263672,-0.5287284851074219
1778595604578312200,9.057312255859374,0.4828614890575409,-0.5503095388412476,-0.8792939186096191
1778595604588306200,9.06730615234375,0.36965328454971313,-0.28778138756752014,-1.1270450353622437
1778595604598299400,9.07729931640625,0.3271992802619934,-0.15022167563438416,-1.19988214969635
1778595604608292400,9.087292236328125,0.3219808042049408,-0.17198921740055084,-1.1506909132003784
1778595604618285000,9.09728515625,0.21545782685279846,-0.31271597743034363,-1.012719988822937
1778595604628278300,9.1072783203125,0.11276397109031677,-0.4443581998348236,-0.8328561186790466
1778595604638271200,9.117271240234375,0.11608412861824036,-0.4584316909313202,-0.709086537361145
1778595604648264200,9.12726416015625,0.1742779016494751,-0.4177356958389282,-0.6854681372642517
1778595604658257200,9.137257080078125,0.2403258979320526,-0.314151793718338,-0.6836417317390442
1778595604668250400,9.14725048828125,0.31981146335601807,-0.1352507323026657,-0.6587042212486267
1778595604678244000,9.157244140625,0.40324723720550537,0.08921167254447937,-0.6063587069511414
1778595604688237300,9.1672373046875,0.417460560798645,0.22341389954090118,-0.5349783897399902
1778595604698230300,9.177230224609374,0.36016130447387695,0.2794196605682373,-0.46944576501846313
1778595604708223200,9.18722314453125,0.30845367908477783,0.3545334041118622,-0.4526765048503876
1778595604718216200,9.19721630859375,0.2715529203414917,0.4292055070400238,-0.532252848148346
1778595604728209200,9.207209228515625,0.24165058135986328,0.5597679615020752,-0.7239512801170349
1778595604738202400,9.217202392578125,0.1971912384033203,0.9479468464851379,-0.997861385345459
1778595604748195000,9.227195068359375,0.19024720788002014,1.2957234382629395,-1.2954466342926025
1778595604758188300,9.237188232421875,0.1643519550561905,1.0428038835525513,-1.4709787368774414
1778595604768181200,9.24718115234375,0.09972865879535675,0.4022732973098755,-1.4128817319869995
1778595604778175200,9.25717529296875,-0.014515885151922703,-0.24914681911468506,-1.2445062398910522
1778595604788168200,9.267168212890626,-0.1719696968793869,-0.7000882029533386,-1.124363899230957
1778595604798161200,9.2771611328125,-0.3290059268474579,-0.9917517304420471,-1.066824197769165
1778595604808154400,9.287154296875,-0.37646475434303284,-1.105654239654541,-1.0065876245498657
1778595604818147000,9.29714697265625,-0.20061571896076202,-1.0994895696640015,-0.8292837738990784
1778595604828140300,9.307140380859375,-0.06402184069156647,-1.0974314212799072,-0.5022121667861938
1778595604838133200,9.31713330078125,0.001369682140648365,-0.8297787308692932,-0.16348707675933838
1778595604848126200,9.327126220703125,0.005501675419509411,-0.4419321119785309,0.10380305349826813
1778595604858119200,9.337119140625,-0.07022078335285187,-0.008992677554488182,0.19510981440544128
1778595604868113200,9.347113037109375,-0.0885932445526123,0.3464098274707794,0.09129055589437485
1778595604878106000,9.357106201171876,-0.024970056489109993,0.5057022571563721,-0.18500201404094696
1778595604888099000,9.36709912109375,0.032873596996068954,0.44948312640190125,-0.538062334060669
1778595604898092300,9.37709228515625,0.02959337830543518,0.2105105072259903,-0.8039398193359375
1778595604908085200,9.387085205078124,0.009734109044075012,-0.0034948333632200956,-0.9175420999526978
1778595604918078200,9.397078125,-0.001843450590968132,-0.13229061663150787,-0.8711375594139099
1778595604928071200,9.4070712890625,-0.017786119133234024,-0.16272246837615967,-0.7140552401542664
1778595604938064400,9.417064453125,-0.0361078679561615,-0.09753946959972382,-0.49323925375938416
1778595604948057000,9.42705712890625,-0.06633376330137253,0.0721282884478569,-0.24658502638339996
1778595604958050300,9.43705029296875,-0.0757959708571434,0.2794971764087677,0.0026367849204689264
1778595604968043300,9.447043212890625,-0.07856888324022293,0.5030067563056946,0.21935725212097168
1778595604978037000,9.457037109375,-0.07651878148317337,0.7451730370521545,0.367157906293869
1778595604988030200,9.4670302734375,-0.0849970281124115,1.0045075416564941,0.4345710277557373
1778595604998023200,9.477023193359376,-0.10093152523040771,1.2582719326019287,0.4476969540119171
1778595605008016100,9.48701611328125,-0.11959216743707657,1.3698338270187378,0.4438108205795288
1778595605018009000,9.497009033203126,-0.13154336810112,1.320726990699768,0.4367657005786896
1778595605028002300,9.507002197265624,-0.12213512510061264,1.1086254119873047,0.42473387718200684
1778595605037995300,9.516995361328124,-0.10311509668827057,0.787902295589447,0.3965187668800354
1778595605047988200,9.52698828125,-0.08155335485935211,0.4266258478164673,0.35494276881217957
1778595605057981200,9.536981201171875,-0.07393644750118256,0.058680057525634766,0.2970176935195923
1778595605067974400,9.546974365234375,-0.1070515438914299,-0.2451476752758026,0.23188789188861847
1778595605077968100,9.556968017578125,-0.180801123380661,-0.5183219313621521,0.15087586641311646
1778595605087961000,9.566961181640625,-0.41280239820480347,-0.8335156440734863,-0.014359897933900356
1778595605097954300,9.576954345703125,-0.7513695359230042,-1.189117431640625,-0.25775232911109924
1778595605107947000,9.586947021484375,-0.9405810832977295,-1.5666275024414062,-0.4257054924964905
1778595605117940200,9.596940185546876,-0.6815817952156067,-1.4908115863800049,-0.38682228326797485
1778595605127933200,9.60693310546875,-0.09457310289144516,-0.8168779015541077,-0.10951868444681168
1778595605137926400,9.616926513671874,0.1974553018808365,-0.07690716534852982,0.1963522881269455
1778595605147919000,9.626919189453124,0.18319761753082275,0.10624856501817703,0.33934900164604187
1778595605157912300,9.636912353515624,0.11220920085906982,0.036350179463624954,0.30650821328163147
1778595605167905300,9.6469052734375,0.06514210253953934,-0.17807580530643463,0.11283919215202332
1778595605177898200,9.656898193359375,0.11503882706165314,-0.4623147249221802,-0.20869490504264832
1778595605187892200,9.666892333984375,0.26895084977149963,-0.6528076529502869,-0.6073998212814331
1778595605197885200,9.67688525390625,0.47692111134529114,-0.8482179045677185,-0.9468745589256287
1778595605207878100,9.686878173828125,0.551932692527771,-0.8488793969154358,-1.2140802145004272
1778595605217871000,9.69687109375,0.49017369747161865,-0.6431001424789429,-1.3017749786376953
1778595605227864300,9.7068642578125,0.36269286274909973,-0.409257709980011,-1.1630079746246338
1778595605237857300,9.716857177734376,0.2288559526205063,-0.32301202416419983,-0.8816133141517639
1778595605247850200,9.726850341796874,0.0908389464020729,-0.2386573851108551,-0.6269749402999878
1778595605257840600,9.736840576171875,0.042452238500118256,-0.19508062303066254,-0.4963759779930115
1778595605267833600,9.74683349609375,0.043445367366075516,-0.14233186841011047,-0.4196239709854126
1778595605277826800,9.756826904296876,0.10720943659543991,0.0646066665649414,-0.35395148396492004
1778595605287819500,9.766819580078124,0.24673621356487274,0.30172812938690186,-0.29467442631721497
1778595605297812700,9.776812744140624,0.36872339248657227,0.3849002420902252,-0.27673375606536865
1778595605307806700,9.786806640625,0.42708098888397217,0.3681429624557495,-0.330729216337204
1778595605317799700,9.796799560546875,0.42265641689300537,0.3633367419242859,-0.4845485985279083
1778595605327792600,9.806792724609375,0.3911539614200592,0.3293885290622711,-0.7915695309638977
1778595605337785600,9.81678564453125,0.33863773941993713,0.3442004919052124,-1.3114073276519775
1778595605347778800,9.82677880859375,0.32467925548553467,0.4184727370738983,-1.993679404258728
1778595605357771500,9.836771484375,0.36301732063293457,0.336419939994812,-2.7072227001190186
1778595605367764700,9.8467646484375,0.4148483872413635,-0.09893862158060074,-3.296180248260498
1778595605377757700,9.8567578125,0.5055841207504272,-0.5681284666061401,-3.62862491607666
1778595605387750700,9.866750732421876,0.676399827003479,-0.7825701832771301,-3.649965286254883
1778595605397743600,9.87674365234375,0.8587014675140381,-0.7533180117607117,-3.3248441219329834
1778595605407736800,9.88673681640625,0.9329396486282349,-0.6621569395065308,-2.7608420848846436
1778595605417729500,9.8967294921875,0.8507891297340393,-0.48698878288269043,-2.1038153171539307
1778595605427723500,9.9067236328125,0.6975729465484619,-0.23550085723400116,-1.498898983001709
1778595605437716700,9.916716796875,0.5826114416122437,0.06883213669061661,-1.0293517112731934
1778595605447709700,9.926709716796875,0.49668529629707336,0.39299312233924866,-0.729720413684845
1778595605457702700,9.93670263671875,0.44173869490623474,0.6246223449707031,-0.4941667318344116
1778595605467695600,9.946695556640625,0.36222440004348755,0.8244179487228394,-0.2919861376285553
1778595605477688800,9.956688720703125,0.2651849389076233,0.9038763046264648,-0.12172703444957733
1778595605487681500,9.966681640625,0.16981810331344604,0.9148018956184387,-0.00010809639934450388
1778595605497674800,9.9766748046875,0.10389368236064911,0.8335126042366028,0.06408020853996277
1778595605507667700,9.986667724609376,0.07282091677188873,0.731399416923523,0.1383780986070633
1778595605517660700,9.99666064453125,0.042679257690906525,0.6990553140640259,0.2415260523557663
1778595605527653600,10.006653564453124,0.033747896552085876,0.6251438856124878,0.32553666830062866
1778595605537646800,10.016646728515624,0.0574263334274292,0.6045076251029968,0.4296553432941437
1778595605547639800,10.026639892578125,0.09525910764932632,0.6327178478240967,0.5521171689033508
1778595605557632800,10.0366328125,0.08439207822084427,0.7015501856803894,0.6650120615959167
1778595605567626800,10.046626708984375,-0.005405707284808159,0.7287703156471252,0.738940954208374
1778595605577619700,10.05661962890625,-0.15347906947135925,0.6832044124603271,0.7568213939666748
1778595605587612700,10.06661279296875,-0.3266701400279999,0.6458444595336914,0.7030725479125977
1778595605597605600,10.076605712890625,-0.47304171323776245,0.6487665176391602,0.6065524220466614
1778595605607598800,10.086598876953126,-0.5414854288101196,0.5999646782875061,0.48378631472587585
1778595605617591600,10.096591552734376,-0.5355221033096313,0.4912762939929962,0.317087322473526
1778595605627584800,10.106584716796876,-0.48772451281547546,0.3263346552848816,0.09806492179632187
1778595605637577700,10.11657763671875,-0.42548859119415283,0.08090226352214813,-0.15671436488628387
1778595605647570700,10.12657080078125,-0.40451839566230774,-0.23099224269390106,-0.44069865345954895
1778595605657563600,10.136563720703125,-0.46509066224098206,-0.5736970901489258,-0.7341529130935669
1778595605667556900,10.146556884765625,-0.6053261160850525,-0.7740753889083862,-1.00905442237854
1778595605677549800,10.1565498046875,-0.7893867492675781,-0.7214398980140686,-1.2756365537643433
1778595605687542800,10.166542724609375,-0.9328132271766663,-0.4384482800960541,-1.5579062700271606
1778595605697535700,10.17653564453125,-0.812232255935669,-0.06313644349575043,-1.8238615989685059
1778595605707529700,10.18652978515625,-0.31558647751808167,0.2419004589319229,-2.0256524085998535
1778595605717522700,10.196522705078126,0.2724117934703827,0.5015637278556824,-2.177488327026367
1778595605727515600,10.206515625,0.6762917637825012,0.7390002608299255,-2.306997299194336
1778595605737508900,10.2165087890625,0.7981300354003906,0.7360931634902954,-2.334782600402832
1778595605747501600,10.22650146484375,0.7616463303565979,0.624230146408081,-2.248394727706909
1778595605757494800,10.236494873046874,0.7316625714302063,0.48229217529296875,-2.0914556980133057
1778595605767487700,10.24648779296875,0.682965874671936,0.3304610848426819,-1.8853671550750732
1778595605777481000,10.25648095703125,0.6237878203392029,0.18304657936096191,-1.6340906620025635
1778595605787473700,10.2664736328125,0.6223402619361877,-0.06513664126396179,-1.347839593887329
1778595605797467000,10.276466796875,0.7069579362869263,-0.4588317275047302,-1.0104142427444458
1778595605807459800,10.2864599609375,0.6962883472442627,-0.8932554125785828,-0.6770191788673401
1778595605817452500,10.29645263671875,0.6376804113388062,-1.2545279264450073,-0.3902292549610138
1778595605827445800,10.30644580078125,0.6035237908363342,-1.429894208908081,-0.148514062166214
1778595605837438700,10.316438720703125,0.6380774974822998,-1.2800135612487793,0.05932993441820145
1778595605847431700,10.326431640625,0.7210932374000549,-0.9212793111801147,0.23753683269023895
1778595605857425700,10.33642578125,0.7958737015724182,-0.3276684582233429,0.37287095189094543
1778595605867419000,10.3464189453125,0.8514532446861267,0.38499537110328674,0.4047033488750458
1778595605877411800,10.356411865234374,0.847395122051239,0.8580577373504639,0.39190420508384705
1778595605887404800,10.36640478515625,0.7031789422035217,1.0810902118682861,0.38614946603775024
1778595605897397800,10.376397705078125,0.5212671756744385,1.0194119215011597,0.3780566453933716
1778595605907390700,10.386390625,0.3424486517906189,0.7553327083587646,0.3201659619808197
1778595605917383700,10.3963837890625,0.21806837618350983,0.5511425733566284,0.18053480982780457
1778595605927376600,10.406376708984375,0.19348911941051483,0.36241447925567627,0.03739094361662865
1778595605937369900,10.416369873046875,0.21604688465595245,0.14515244960784912,-0.08013594895601273
1778595605947362600,10.426362548828125,0.21900416910648346,-0.039603091776371,-0.18556752800941467
1778595605957355800,10.436355712890625,0.18967531621456146,-0.11583607643842697,-0.2890656888484955
1778595605967348700,10.4463486328125,0.14688809216022491,-0.07498516142368317,-0.39116013050079346
1778595605977341700,10.456341796875,0.09075770527124405,0.07599956542253494,-0.5051131248474121
1778595605987334700,10.466334716796876,0.040844403207302094,0.28249675035476685,-0.6265175938606262
1778595605997328000,10.476327880859374,0.020412631332874298,0.5039750933647156,-0.740775465965271
1778595606007320600,10.486320556640624,0.05572877824306488,0.637432873249054,-0.8229687809944153
1778595606017313800,10.496313720703125,0.07947991043329239,0.5272879600524902,-0.8659010529518127
1778595606027306800,10.506306640625,0.06635505706071854,0.26650214195251465,-0.8703482747077942
1778595606037300700,10.51630078125,0.0571058988571167,0.05549111217260361,-0.8097773194313049
1778595606047293700,10.526293701171875,0.066883385181427,-0.03352992981672287,-0.6989416480064392
1778595606057286700,10.53628662109375,0.049209583550691605,-0.01788252778351307,-0.5599336624145508
1778595606067280000,10.54627978515625,-0.000001600012183189392,0.08520612865686417,-0.43125349283218384
1778595606077272600,10.5562724609375,-0.046798668801784515,0.17925246059894562,-0.37106311321258545
1778595606087265800,10.566265869140626,-0.07842328399419785,0.17954003810882568,-0.46444517374038696
1778595606097258800,10.5762587890625,-0.10471880435943604,0.15519927442073822,-0.7632939219474792
1778595606107251700,10.586251708984374,-0.1002669483423233,0.06416822224855423,-1.2145658731460571
1778595606117244700,10.59624462890625,-0.05716581642627716,-0.15359579026699066,-1.6954081058502197
1778595606127238000,10.60623779296875,0.006911244243383408,-0.4377528429031372,-2.067021608352661
1778595606137230600,10.616230712890625,0.0931747555732727,-0.7003522515296936,-2.211229085922241
1778595606147223800,10.626223876953125,0.204961359500885,-0.8798627853393555,-2.098764657974243
1778595606157216800,10.636216796875,0.2938153147697449,-1.0147862434387207,-1.8082352876663208
1778595606167209700,10.646209716796875,0.37815460562705994,-1.0167824029922485,-1.5154390335083008
1778595606177202700,10.65620263671875,0.5151108503341675,-0.9489415287971497,-1.2787096500396729
1778595606187196000,10.66619580078125,0.6358705163002014,-0.8819068670272827,-1.1156624555587769
1778595606197188600,10.676188720703125,0.7474865317344666,-0.7481729984283447,-1.0279895067214966
1778595606207181600,10.686181640625,0.8588828444480896,-0.5319715738296509,-1.0117872953414917
1778595606217174800,10.6961748046875,0.9176625609397888,-0.1868724822998047,-1.0589934587478638
1778595606227167700,10.706167724609376,0.9367660880088806,0.1791556030511856,-1.1607279777526855
1778595606237161700,10.71616162109375,0.9092974662780762,0.5513177514076233,-1.3173953294754028
1778595606247154700,10.72615478515625,0.8194247484207153,0.9209205508232117,-1.5463733673095703
1778595606257148000,10.73614794921875,0.7050939202308655,1.263486623764038,-1.8166828155517578
1778595606267140900,10.746140869140625,0.5946232080459595,1.4119377136230469,-2.0044174194335938
1778595606277133800,10.7561337890625,0.5565581321716309,1.2967532873153687,-2.021371603012085
1778595606287126800,10.766126708984375,0.5768190026283264,1.006276249885559,-1.820918321609497
1778595606297119700,10.77611962890625,0.6071257591247559,0.6042388081550598,-1.4517405033111572
1778595606307113000,10.786113037109375,0.6620845794677734,0.24831339716911316,-1.0319509506225586
1778595606317106000,10.79610595703125,0.7213529348373413,0.0739234909415245,-0.6885451674461365
1778595606327099000,10.806098876953126,0.7208517789840698,0.047092877328395844,-0.43975818157196045
1778595606337091800,10.816091796875,0.693506121635437,0.035727307200431824,-0.28082019090652466
1778595606347085000,10.8260849609375,0.6666620969772339,0.050497714430093765,-0.23563522100448608
1778595606357077800,10.836077880859374,0.6477922797203064,0.09199882298707962,-0.2332354485988617
1778595606367071000,10.846071044921874,0.6295956969261169,0.09273699671030045,-0.21968142688274384
1778595606377064000,10.85606396484375,0.6100065112113953,0.0660284236073494,-0.15360493957996368
1778595606387057000,10.866056884765625,0.558988630771637,0.019879616796970367,-0.04772071912884712
1778595606397049900,10.8760498046875,0.47104889154434204,-0.06903614103794098,0.08772525936365128
1778595606407043000,10.88604296875,0.33956122398376465,-0.08087798953056335,0.23700527846813202
1778595606417035800,10.896035888671875,0.19310203194618225,0.005291253328323364,0.3830468952655792
1778595606427029000,10.906029052734375,0.0273156575858593,0.14530770480632782,0.4825296998023987
1778595606437022000,10.91602197265625,-0.1136675551533699,0.3051828444004059,0.5255983471870422
1778595606447015000,10.926014892578126,-0.23081587255001068,0.3731852173805237,0.480739951133728
1778595606457007900,10.9360078125,-0.3062584400177002,0.3495057225227356,0.4130389392375946
1778595606467001900,10.946001953125,-0.3523296117782593,0.19779767096042633,0.3477189242839813
1778595606476995000,10.9559951171875,-0.33139103651046753,-0.0031961516942828894,0.29572176933288574
1778595606486987800,10.96598779296875,-0.22097638249397278,-0.1515444964170456,0.2741606831550598
1778595606496981000,10.97598095703125,-0.08338922262191772,-0.2123444676399231,0.27158862352371216
1778595606506974000,10.985973876953125,-0.01627596653997898,-0.20488525927066803,0.2863130271434784
1778595606516967000,10.995966796875,-0.04209158569574356,-0.17021223902702332,0.2897879183292389
1778595606526959900,11.0059599609375,-0.10196547955274582,-0.08342793583869934,0.2589606046676636
1778595606536953000,11.015953125,-0.18323610723018646,-0.019371453672647476,0.18222160637378693
1778595606546945800,11.02594580078125,-0.2709791362285614,0.04079141095280647,0.027048736810684204
1778595606556939000,11.03593896484375,-0.3544175922870636,0.13594110310077667,-0.18950647115707397
1778595606566932000,11.045931884765626,-0.413530170917511,0.18348681926727295,-0.4171331822872162
1778595606576925000,11.055925048828126,-0.4642482101917267,0.1594850718975067,-0.6412072777748108
1778595606586918000,11.06591796875,-0.48707637190818787,0.07248625159263611,-0.8298218250274658
1778595606596910800,11.075910888671874,-0.4680113196372986,0.03360063582658768,-0.9238412380218506
1778595606606903800,11.08590380859375,-0.45972222089767456,-0.10592039674520493,-0.8424324989318848
1778595606616896800,11.095896728515624,-0.5436645746231079,-0.46660828590393066,-0.7984445691108704
1778595606626890000,11.105889892578125,-0.5732651948928833,-0.8346073627471924,-0.958824634552002
1778595606636882700,11.115882568359375,-0.37537336349487305,-0.9908654093742371,-1.122926950454712
1778595606646876000,11.1258759765625,-0.0072733075357973576,-0.8339346051216125,-1.1231697797775269
1778595606656868900,11.135868896484375,0.26563891768455505,-0.4894203245639801,-1.0174851417541504
1778595606666862000,11.145862060546875,0.39976784586906433,-0.07930845767259598,-0.8676273226737976
1778595606676854800,11.155854736328125,0.4952932894229889,0.35216838121414185,-0.7611389756202698
1778595606686848000,11.165847900390625,0.5246783494949341,0.7529469132423401,-0.7856316566467285
1778595606696841000,11.175841064453126,0.49450206756591797,1.1896756887435913,-0.979260265827179
1778595606706834000,11.185833984375,0.40487855672836304,1.558932900428772,-1.3004776239395142
1778595606716827000,11.195826904296876,0.2596052587032318,1.6904488801956177,-1.7110211849212646
1778595606726820000,11.205820068359374,0.09136756509542465,1.3492344617843628,-1.943185567855835
1778595606736812800,11.215812744140624,-0.07259261608123779,0.8269832730293274,-1.9650927782058716
1778595606746806000,11.225805908203125,-0.13794773817062378,0.32028934359550476,-1.783539056777954
1778595606756799000,11.235799072265625,-0.0669100433588028,-0.16159500181674957,-1.3742146492004395
1778595606766793000,11.24579296875,0.06234245002269745,-0.4456910789012909,-0.7819335460662842
1778595606776786000,11.255785888671875,0.16891710460186005,-0.5321000218391418,-0.12324410676956177
1778595606786779000,11.26577880859375,0.19456492364406586,-0.43240272998809814,0.43597331643104553
1778595606796772000,11.275772216796875,0.24405577778816223,-0.26693254709243774,0.800654411315918
1778595606806764800,11.285764892578126,0.31203800439834595,-0.17975622415542603,1.0186766386032104
1778595606816758000,11.295758056640626,0.3308444321155548,-0.1770765483379364,1.162936806678772
1778595606826751000,11.3057509765625,0.33275821805000305,-0.2977367639541626,1.2629761695861816
1778595606836744000,11.315743896484374,0.320960134267807,-0.5415579676628113,1.2985807657241821
1778595606846737000,11.32573681640625,0.26433029770851135,-0.7926272749900818,1.2454794645309448
1778595606856730000,11.335730224609375,0.1921224296092987,-0.953396737575531,1.0998567342758179
1778595606866722800,11.345722900390625,0.1293284296989441,-0.9882910847663879,0.9000301957130432
1778595606876715800,11.3557158203125,0.08883746713399887,-0.918052077293396,0.6978017091751099
1778595606886709000,11.365708984375,0.078411765396595,-0.8073346614837646,0.5229085683822632
1778595606896701700,11.37570166015625,0.06701210141181946,-0.6433955430984497,0.3607023358345032
1778595606906695000,11.38569482421875,0.039659976959228516,-0.3840155005455017,0.2255563884973526
1778595606916688000,11.39568798828125,0.030313080176711082,-0.11821845918893814,0.128806933760643
1778595606926680800,11.405680908203125,0.023907620459794998,0.13638468086719513,0.07070834189653397
1778595606936673800,11.415673828125,-0.0009934678673744202,0.296898752450943,0.0714753270149231
1778595606946667000,11.4256669921875,-0.015395947732031345,0.28867167234420776,0.09561824798583984
1778595606956659700,11.43565966796875,-0.018432483077049255,0.22577501833438873,0.07753857970237732
1778595606966653000,11.44565283203125,0.007540665566921234,0.12968194484710693,0.021807726472616196
1778595606976646000,11.45564599609375,0.011931952089071274,0.05970259755849838,-0.04930506646633148
1778595606986638800,11.465638916015624,0.03295326977968216,-0.022646190598607063,-0.08039981126785278
1778595606996631800,11.4756318359375,0.05851481854915619,-0.07164862006902695,-0.07497096061706543
1778595607006625000,11.485625,0.08101290464401245,-0.06664447486400604,-0.027378367260098457
1778595607016618000,11.495617919921875,0.0975753664970398,-0.014852919615805149,0.035033345222473145
1778595607026611000,11.50561083984375,0.1065264344215393,0.034605544060468674,0.09088783711194992
1778595607036604000,11.51560400390625,0.1006070226430893,0.0763268992304802,0.09699739515781403
1778595607046597000,11.52559716796875,0.10548873990774155,0.12222743034362793,0.028768958523869514
1778595607056589800,11.53558984375,0.1139589250087738,0.1629737913608551,-0.09415163844823837
1778595607066583000,11.5455830078125,0.11386975646018982,0.1322193592786789,-0.2353086918592453
1778595607076576000,11.555575927734376,0.09328219294548035,-0.007790485396981239,-0.33929207921028137
1778595607086569000,11.56556884765625,0.04940459132194519,-0.08809331059455872,-0.4129796624183655
1778595607096562000,11.57556201171875,0.008520805276930332,-0.11599498242139816,-0.4544306993484497
1778595607106555000,11.585554931640624,-0.04955902323126793,-0.14669595658779144,-0.5286396145820618
1778595607116547800,11.5955478515625,-0.1166488453745842,-0.21765455603599548,-0.64031583070755
1778595607126540800,11.605540771484375,-0.1462325155735016,-0.35344648361206055,-0.739270806312561
1778595607136534000,11.615533935546875,-0.09613871574401855,-0.5277807116508484,-0.761391282081604
1778595607146526700,11.625526611328125,-0.017222724854946136,-0.6507924199104309,-0.6739717721939087
1778595607156520000,11.63552001953125,0.06295520067214966,-0.7634130120277405,-0.5362511873245239
1778595607166513000,11.645512939453125,0.1578003466129303,-0.8373883962631226,-0.403634250164032
1778595607176505900,11.655505859375,0.24158045649528503,-0.8538773655891418,-0.2613391578197479
1778595607186498800,11.665498779296875,0.3568607568740845,-0.7929969429969788,-0.11977784335613251
1778595607196492000,11.675491943359376,0.489559143781662,-0.631447970867157,-0.038415346294641495
1778595607206484700,11.685484619140626,0.5918042063713074,-0.42132505774497986,-0.06375285238027573
1778595607216478000,11.69547802734375,0.6412274241447449,-0.24111856520175934,-0.2026662677526474
1778595607226471000,11.705470947265624,0.6565542817115784,-0.03560236468911171,-0.41919466853141785
1778595607236463900,11.7154638671875,0.6293745636940002,0.2518254220485687,-0.6492359042167664
1778595607246456800,11.725456787109374,0.5611833930015564,0.615689218044281,-0.872255265712738
1778595607256451000,11.735451171875,0.43871742486953735,0.9832096695899963,-1.0469346046447754
1778595607266444300,11.7454443359375,0.326318621635437,1.26401948928833,-1.155286431312561
1778595607276437000,11.75543701171875,0.2787971496582031,1.3613876104354858,-1.1880238056182861
1778595607286431000,11.765430908203125,0.28084564208984375,1.2389814853668213,-1.134763240814209
1778595607296424200,11.775424072265626,0.30097198486328125,1.0295372009277344,-0.962557852268219
1778595607306417200,11.785417236328126,0.3726027309894562,0.6799718141555786,-0.6719028949737549
1778595607316410000,11.79541015625,0.45352715253829956,0.3261061906814575,-0.34028103947639465
1778595607326403000,11.805403076171874,0.5194473266601562,0.17085568606853485,-0.06472541391849518
1778595607336396300,11.815396240234374,0.5573904514312744,0.15078769624233246,0.13875846564769745
1778595607346389000,11.825388916015624,0.5754268765449524,0.16165420413017273,0.29765841364860535
1778595607356382200,11.83538232421875,0.5590617656707764,0.16470564901828766,0.4198375642299652
1778595607366375200,11.845375244140625,0.5201506614685059,0.15055690705776215,0.5018656253814697
1778595607376368000,11.8553681640625,0.48403072357177734,0.1566273272037506,0.5418192148208618
1778595607386361000,11.865361083984375,0.4696539044380188,0.20547528564929962,0.5449036955833435
1778595607396354300,11.875354248046875,0.45348483324050903,0.24481549859046936,0.5449897050857544
1778595607406347000,11.885346923828125,0.4234199523925781,0.29910171031951904,0.5654080510139465
1778595607416340200,11.89534033203125,0.36740463972091675,0.3698855936527252,0.5941829681396484
1778595607426333200,11.905333251953126,0.3017607629299164,0.43724575638771057,0.6134069561958313
1778595607436326100,11.915326171875,0.25896695256233215,0.4766296446323395,0.6316501498222351
1778595607446319000,11.925319091796876,0.22625501453876495,0.48290327191352844,0.6225162148475647
1778595607456312000,11.93531201171875,0.2040005773305893,0.4423521161079407,0.5787301063537598
1778595607466305300,11.94530517578125,0.18533045053482056,0.3227613866329193,0.49692487716674805
1778595607480669200,11.959669189453125,0.1964251846075058,0.09225147217512131,0.32637977600097656
1778595607490662100,11.969662109375,0.21071605384349823,0.09461407363414764,0.2176167517900467
1778595607500655000,11.979655029296875,0.23537878692150116,0.21573038399219513,0.16416259109973907
1778595607510648300,11.9896484375,0.2704256474971771,0.3649551570415497,0.17558839917182922
1778595607520641000,11.99964111328125,0.28684136271476746,0.486977756023407,0.2239987999200821
1778595607530634200,12.00963427734375,0.2746490240097046,0.47862571477890015,0.27752599120140076
1778595607540627200,12.019627197265624,0.24419604241847992,0.30051562190055847,0.2884545624256134
1778595607550620200,12.0296201171875,0.20959657430648804,0.005662358831614256,0.23604393005371094
1778595607560613000,12.039613037109374,0.18243339657783508,-0.4173317849636078,0.12318608909845352
1778595607570606300,12.0496064453125,0.11793821305036545,-1.1704298257827759,0.019415175542235374
1778595607580599000,12.05959912109375,-0.002696588635444641,-2.044504404067993,-0.1253523975610733
1778595607590592300,12.06959228515625,-0.08212924003601074,-2.3445076942443848,-0.347379207611084
1778595607600585200,12.079585205078125,-0.17592096328735352,-2.2209489345550537,-0.5555457472801208
1778595607610578200,12.089578125,-0.3110138475894928,-1.8439596891403198,-0.721686065196991
1778595607620571100,12.099571044921875,-0.4769783318042755,-0.9877949357032776,-0.8649516105651855
1778595607630564000,12.109564208984375,-0.6125908493995667,0.3667128384113312,-0.9389175176620483
1778595607640557000,12.11955712890625,-0.584692120552063,1.02170729637146,-0.8300458788871765
1778595607650550000,12.129550048828126,-0.5784648060798645,1.2219518423080444,-0.6508256793022156
1778595607660543200,12.139543212890626,-0.7246339917182922,1.2243984937667847,-0.3987937271595001
1778595607670536000,12.149535888671876,-0.8146632313728333,1.0841052532196045,-0.09434130042791367
1778595607680529200,12.159529052734374,-0.6971451044082642,0.8875631093978882,0.20073401927947998
1778595607690522000,12.169522216796874,-0.4160817265510559,0.8903816938400269,0.3847629427909851
1778595607700515000,12.17951513671875,-0.14616608619689941,1.0457861423492432,0.49351072311401367
1778595607710508000,12.189508056640625,-0.10951478779315948,1.3866363763809204,0.5328554511070251
1778595607720501200,12.199501220703125,-0.2056162804365158,1.8208218812942505,0.3967069685459137
1778595607730494200,12.209494140625,-0.320221871137619,2.105177402496338,0.07244529575109482
1778595607740487200,12.219487060546875,-0.4964410960674286,2.01845121383667,-0.318781316280365
1778595607750480100,12.229480224609375,-0.711946427822113,1.6534667015075684,-0.6178809404373169
1778595607760473300,12.239473388671875,-0.8276064395904541,1.1598598957061768,-0.7601667046546936
1778595607770466000,12.249466064453125,-0.7022326588630676,0.7483705282211304,-0.7070144414901733
1778595607780459300,12.259459228515626,-0.44160693883895874,0.50990891456604,-0.4080231785774231
1778595607791077000,12.2700771484375,-0.3058219254016876,0.2680188715457916,0.18593332171440125
1778595607801070300,12.2800703125,-0.2992130219936371,0.07256709039211273,0.8576733469963074
1778595607811063000,12.29006298828125,-0.2566041946411133,0.0016930247657001019,1.3304771184921265
1778595607821056000,12.300055908203126,-0.21791860461235046,-0.12943889200687408,1.4671283960342407
1778595607831049200,12.31004931640625,-0.2270568162202835,-0.5055024027824402,1.5299407243728638
1778595607841042000,12.3200419921875,-0.2531576454639435,-0.8396899700164795,1.475443959236145
1778595607851035100,12.33003515625,-0.2535552382469177,-1.1017935276031494,1.2702234983444214
1778595607861028000,12.340028076171874,-0.22739338874816895,-1.266448974609375,0.9416855573654175
1778595607871021000,12.35002099609375,-0.19445426762104034,-1.3815977573394775,0.6031485199928284
1778595607881014000,12.360013916015625,-0.1999286562204361,-1.3763478994369507,0.3874758780002594
1778595607891007200,12.37000732421875,-0.21269141137599945,-1.2602696418762207,0.3087821304798126
1778595607901000200,12.380000244140625,-0.195016011595726,-0.9834527969360352,0.2915341556072235
1778595607910993200,12.3899931640625,-0.14478114247322083,-0.5913286805152893,0.2894717752933502
1778595607920986000,12.399986083984375,-0.07185685634613037,-0.22158417105674744,0.30618709325790405
1778595607930979300,12.409979248046875,0.002199780195951462,0.04547342658042908,0.30527180433273315
1778595607940972000,12.419971923828125,0.07720424979925156,0.14474596083164215,0.3008706569671631
1778595607950965200,12.42996533203125,0.13800007104873657,0.1612381637096405,0.250393807888031
1778595607960958200,12.439958251953126,0.19974200427532196,0.13456180691719055,0.1820719987154007
1778595607970951200,12.449951171875,0.2710295617580414,0.1341555118560791,0.12827061116695404
1778595607980944100,12.459944091796874,0.3296806216239929,0.08152639865875244,0.09531744569540024
1778595607990937300,12.469937255859374,0.3517826795578003,0.004619517829269171,0.073275126516819
1778595608000930000,12.479929931640624,0.3484257757663727,-0.059296879917383194,0.08572327345609665
1778595608010923300,12.48992333984375,0.3277242183685303,-0.0651722401380539,0.12981374561786652
