time,seconds_elapsed,z,y,x
1778948658712250400,0.13525048828125,-0.7467794418334961,-0.2145707607269287,-0.2505372166633606
1778948658728568600,0.151568603515625,-0.7434892654418945,0.14281022548675537,-0.24964657425880432
1778948658744901400,0.1679013671875,-0.3231821060180664,0.18449640274047852,-0.04078999161720276
1778948658761238500,0.184238525390625,0.4242086410522461,0.014999985694885254,0.20756566524505615
1778948658777575400,0.200575439453125,0.7347812652587891,-0.4363069534301758,0.22518807649612427
1778948658793906400,0.216906494140625,0.672856330871582,-0.6684119701385498,0.3150598704814911
1778948658810237000,0.23323681640625,-0.13303375244140625,-0.1788313388824463,0.34624218940734863
1778948658826562800,0.249562744140625,-0.16243362426757812,0.360522985458374,-0.24063408374786377
1778948658842914600,0.26591455078125,-0.9859371185302734,-0.825874924659729,0.19800209999084473
1778948658859240700,0.28224072265625,0.5782089233398438,-0.7294076681137085,0.08990365266799927
1778948658875571500,0.298571533203125,0.7609720230102539,-0.13180088996887207,0.25018787384033203
1778948658891893000,0.31489306640625,0.42952919006347656,0.034049272537231445,0.39754584431648254
1778948658908219600,0.3312197265625,0.25719642639160156,0.00691831111907959,0.4173618257045746
1778948658924538000,0.3475380859375,-0.14038848876953125,0.05102896690368652,0.24080204963684082
1778948658940881000,0.363880859375,-0.4116182327270508,0.27170097827911377,0.08134740591049194
1778948658957212000,0.3802119140625,-0.48135948181152344,0.5787761211395264,0.037436485290527344
1778948658973542000,0.3965419921875,-0.6307106018066406,0.6117233037948608,0.6188241839408875
1778948658989868000,0.412867919921875,0.03419780731201172,0.4080986976623535,0.3995261788368225
1778948659006206200,0.429206298828125,0.38962650299072266,0.27954745292663574,-0.575965166091919
1778948659022537200,0.445537109375,-0.1433572769165039,-0.1594775915145874,-0.905684232711792
1778948659038860500,0.461860595703125,-0.9486246109008789,0.025507330894470215,-0.7142934203147888
1778948659055210800,0.478210693359375,-0.6967363357543945,-0.012743115425109863,-0.2923282980918884
1778948659071513300,0.494513427734375,0.3158092498779297,-0.05699634552001953,0.44219863414764404
1778948659087855600,0.510855712890625,0.8413248062133789,-0.4598085880279541,0.2966192364692688
1778948659104197000,0.527197021484375,0.5541563034057617,-0.3376173973083496,-0.18092811107635498
1778948659120512300,0.54351220703125,-0.0032567977905273438,-0.237257719039917,-0.3339763581752777
1778948659136849700,0.559849609375,-0.3316612243652344,-0.3738597631454468,-0.2943418622016907
1778948659153178000,0.57617822265625,-0.6006145477294922,-0.3486424684524536,-0.11563831567764282
1778948659169507800,0.5925078125,-0.07850265502929688,-0.0467073917388916,-0.1448383331298828
1778948659185855000,0.60885498046875,0.8016166687011719,0.35391736030578613,-0.14471369981765747
1778948659202183000,0.625182861328125,1.2950992584228516,0.4634723663330078,-0.06783229112625122
1778948659218496500,0.64149658203125,0.9845418930053711,0.3257639408111572,0.08844703435897827
1778948659234829800,0.657829833984375,0.2732534408569336,0.3033103942871094,-0.06151789426803589
1778948659251161300,0.674161376953125,-0.2073497772216797,0.24111270904541016,-0.04069334268569946
1778948659267491300,0.6904912109375,-0.24645423889160156,0.2427220344543457,-0.19434833526611328
1778948659283822000,0.706822021484375,-0.2964954376220703,0.3794527053833008,-0.13910028338432312
1778948659300148000,0.72314794921875,-0.1830892562866211,0.12068438529968262,0.05330371856689453
1778948659316489000,0.739489013671875,-0.18897628784179688,-0.05178499221801758,0.24959078431129456
1778948659332829200,0.7558291015625,-0.11319351196289062,-0.15365946292877197,0.04838651418685913
1778948659349138400,0.772138427734375,0.12703227996826172,-0.3293365240097046,-0.06842911243438721
1778948659365473800,0.788473876953125,0.05073833465576172,-0.33773910999298096,-0.1369021236896515
1778948659381792500,0.80479248046875,-0.13161945343017578,-0.3351632356643677,-0.15185967087745667
1778948659398135000,0.821135009765625,-0.20907306671142578,-0.18381357192993164,0.015736430883407593
1778948659414455800,0.837455810546875,-0.35028839111328125,-0.002994537353515625,0.021305620670318604
1778948659430796300,0.85379638671875,-0.5145587921142578,0.16582083702087402,-0.06761720776557922
1778948659447127000,0.870126953125,-0.6258573532104492,0.028887271881103516,-0.05934405326843262
1778948659463457500,0.88645751953125,-0.5939836502075195,-0.4225602149963379,0.035166919231414795
1778948659479788300,0.902788330078125,-0.6811332702636719,-0.7335721254348755,0.2736538052558899
1778948659496117800,0.91911767578125,-0.6367664337158203,-0.8910735845565796,0.5483714938163757
1778948659512449800,0.93544970703125,-0.6260986328125,-1.0552215576171875,0.7669287919998169
1778948659528779300,0.951779296875,-1.545384407043457,-1.2204838991165161,0.8213410973548889
1778948659545110300,0.9681103515625,-2.292187213897705,-1.0776957273483276,1.2215845584869385
1778948659561438700,0.984438720703125,-3.8475799560546875,-1.5936402082443237,2.6096014976501465
1778948659577771500,1.000771484375,-2.5343751907348633,-0.22713708877563477,2.6964902877807617
1778948659594101500,1.0171015625,-1.0846452713012695,0.07982420921325684,-0.8900017738342285
1778948659610429000,1.033428955078125,-0.32196903228759766,-0.6336753368377686,-2.772467613220215
1778948659626765300,1.049765380859375,-1.3548412322998047,-2.321195125579834,-0.03994584083557129
1778948659643111200,1.066111083984375,-2.763258457183838,-4.941199779510498,1.6122479438781738
1778948659659420700,1.082420654296875,-5.062469482421875,-4.060233116149902,-0.052776336669921875
1778948659675768300,1.098768310546875,-7.341009140014648,-3.3025288581848145,-0.7583370208740234
1778948659692107300,1.115107177734375,-6.450309753417969,-3.60255765914917,-0.7242908477783203
1778948659708399600,1.131399658203125,-2.9097604751586914,-4.160064220428467,-0.7538738250732422
1778948659724733000,1.14773291015625,-1.9098424911499023,-3.4645211696624756,-0.9039807319641113
1778948659741073200,1.1640732421875,-2.3061347007751465,-3.697267532348633,-0.7639298439025879
1778948659757409300,1.1804091796875,-1.4843134880065918,-4.700617790222168,-1.548985481262207
1778948659773738000,1.196738037109375,1.372236728668213,-4.039781093597412,0.053558349609375
1778948659790067500,1.2130673828125,6.971447944641113,-1.7939845323562622,1.2898626327514648
1778948659806402000,1.229402099609375,8.909141540527344,-0.7329437732696533,2.8312535285949707
1778948659822740000,1.245739990234375,6.237532615661621,-1.290693998336792,5.7381768226623535
1778948659839073500,1.262073486328125,3.658106803894043,1.9471756219863892,4.938150882720947
1778948659855403500,1.278403564453125,2.0659070014953613,3.549504518508911,3.427666664123535
1778948659871724300,1.294724365234375,1.8282794952392578,3.09295654296875,2.5458149909973145
1778948659888059600,1.3110595703125,2.9377198219299316,0.8929564952850342,2.6090574264526367
1778948659904382000,1.3273818359375,2.778876304626465,1.9273700714111328,2.319614887237549
1778948659920721000,1.343720947265625,3.4683947563171387,2.8109869956970215,2.38649320602417
1778948659937037300,1.360037353515625,3.7605252265930176,3.0557429790496826,2.183018207550049
1778948659953368800,1.376368896484375,4.130866050720215,3.2557244300842285,2.0511116981506348
1778948659969706200,1.392706298828125,3.7741880416870117,2.92071270942688,1.7024168968200684
1778948659986033700,1.40903369140625,2.4996538162231445,2.020329475402832,0.8733615875244141
1778948660002351900,1.425351806640625,0.7371244430541992,1.6705080270767212,-0.05759000778198242
1778948660018693600,1.441693603515625,-0.12764358520507812,1.295472264289856,-0.5878903865814209
1778948660035060200,1.458060302734375,-0.21466827392578125,0.7093605995178223,-0.18695068359375
1778948660051372500,1.47437255859375,0.6000137329101562,1.3596516847610474,-0.03965282440185547
1778948660067726300,1.490726318359375,0.6263246536254883,0.270571231842041,0.32558202743530273
1778948660084028700,1.507028564453125,1.8865699768066406,0.2893388271331787,0.3319859504699707
1778948660100362500,1.523362548828125,-0.9262890815734863,2.782984733581543,0.4995884895324707
1778948660116692000,1.53969189453125,0.07172012329101562,2.426112174987793,0.1423511505126953
1778948660133004800,1.5560048828125,0.4069032669067383,1.265257477760315,0.8854594230651855
1778948660149338600,1.572338623046875,0.7954034805297852,1.7682595252990723,0.7572693824768066
1778948660165656800,1.58865673828125,0.4643898010253906,1.5983037948608398,0.8250784873962402
1778948660181986600,1.604986572265625,0.5018692016601562,1.2784345149993896,0.947227954864502
1778948660198330600,1.62133056640625,1.1986560821533203,0.5907384157180786,0.6345272064208984
1778948660214660900,1.637660888671875,1.2124271392822266,0.33890247344970703,0.4940834045410156
1778948660230988800,1.65398876953125,0.9354343414306641,0.19668054580688477,0.23975038528442383
1778948660247325200,1.6703251953125,0.6425247192382812,-0.13739752769470215,0.0158383846282959
1778948660263649800,1.68664990234375,0.2234344482421875,-0.1582503318786621,-0.16696786880493164
1778948660279986200,1.702986083984375,-0.09441852569580078,-0.2083449363708496,-0.3643913269042969
1778948660296313900,1.71931396484375,-0.10584068298339844,-0.19304537773132324,-0.26613450050354004
1778948660312630800,1.735630859375,-0.03148841857910156,-0.2043144702911377,-0.25746774673461914
1778948660328972300,1.75197216796875,0.10731315612792969,-0.46369314193725586,-0.19495844841003418
1778948660345293300,1.768293212890625,0.06830692291259766,-0.526329755783081,-0.30646514892578125
1778948660361636000,1.784635986328125,-0.3093757629394531,-0.4602172374725342,-0.5292844772338867
1778948660377999600,1.80099951171875,-0.61578369140625,-0.3402225971221924,-0.7374310493469238
1778948660394311000,1.817310791015625,-0.3964548110961914,-0.5129437446594238,-0.5594997406005859
1778948660410641200,1.83364111328125,-0.1020193099975586,-0.318676233291626,-0.4406869411468506
1778948660426954800,1.849954833984375,-0.04590892791748047,-0.18417024612426758,-0.31661367416381836
1778948660443288000,1.8662880859375,-0.1217803955078125,-0.11733579635620117,-0.35170602798461914
1778948660459617500,1.882617431640625,-0.12666606903076172,-0.08591783046722412,-0.348374605178833
1778948660475949000,1.898948974609375,-0.2104930877685547,-0.11242175102233887,-0.3979377746582031
1778948660492280000,1.915280029296875,-0.08929634094238281,-0.19446885585784912,-0.3330988883972168
1778948660508611000,1.931611083984375,-0.19602394104003906,-0.26293861865997314,-0.4295918941497803
1778948660524943400,1.947943359375,-0.2539358139038086,-0.4523097276687622,-0.4407663345336914
1778948660541290000,1.9642900390625,-0.3212709426879883,-0.2828660011291504,-0.5154252052307129
1778948660557595400,1.980595458984375,-0.29520320892333984,0.0016840696334838867,-0.4725785255432129
1778948660573945000,1.996945068359375,-0.051319122314453125,-0.03716456890106201,-0.3521847724914551
1778948660590259200,2.01325927734375,0.1027212142944336,-0.1407308578491211,-0.30474090576171875
1778948660606592500,2.029592529296875,0.2494668960571289,-0.2289104461669922,-0.20810222625732422
1778948660622911700,2.045911865234375,0.04655742645263672,-0.2387988567352295,-0.25576019287109375
1778948660639254000,2.06225390625,-0.06634521484375,-0.07593870162963867,-0.24106788635253906
1778948660655572000,2.078572021484375,-0.03060436248779297,0.014507055282592773,-0.1648104190826416
1778948660671914500,2.09491455078125,0.14908885955810547,-0.010390520095825195,-0.1064605712890625
1778948660688244700,2.11124462890625,0.12818145751953125,-0.07150399684906006,-0.06331443786621094
1778948660704563000,2.12756298828125,-0.04078483581542969,-0.12165963649749756,-0.10245180130004883
1778948660720906000,2.143906005859375,-0.09567451477050781,-0.04016149044036865,-0.09945034980773926
1778948660737237000,2.160237060546875,-0.11600208282470703,0.09301972389221191,-0.14985990524291992
1778948660753568300,2.176568359375,-0.1392498016357422,0.07384073734283447,-0.12579822540283203
1778948660769898200,2.192898193359375,-0.09449958801269531,0.029937386512756348,-0.050995588302612305
1778948660786229500,2.2092294921875,-0.030541419982910156,0.09488880634307861,0.02456378936767578
1778948660802559000,2.22555908203125,0.21903324127197266,0.03538715839385986,0.11687493324279785
1778948660818908000,2.241907958984375,0.2726259231567383,-0.09235930442810059,0.02476668357849121
1778948660835233500,2.258233642578125,0.13351058959960938,-0.18106651306152344,-0.09490251541137695
1778948660851559200,2.27455908203125,-0.10208797454833984,-0.0758131742477417,-0.1694028377532959
1778948660867907600,2.290907470703125,-0.20655059814453125,-0.008367657661437988,-0.10557675361633301
1778948660884220700,2.307220703125,-0.018700599670410156,0.152349591255188,-0.04318976402282715
1778948660900553000,2.323552978515625,0.1736583709716797,0.2105323076248169,0.06850934028625488
1778948660916887800,2.3398876953125,0.17506980895996094,0.09871387481689453,0.05572104454040527
1778948660933187600,2.3561875,0.041481971740722656,-0.06009054183959961,-0.016479015350341797
1778948660949534200,2.3725341796875,-0.10216236114501953,-0.09723985195159912,-0.04144477844238281
1778948660965851000,2.388850830078125,-0.16326522827148438,-0.02339470386505127,-0.07178401947021484
1778948660982195700,2.40519580078125,-0.10001468658447266,0.006745576858520508,-0.07498764991760254
1778948660998518300,2.421518310546875,-0.08376693725585938,-0.028020501136779785,-0.09045886993408203
1778948661014856400,2.4378564453125,0.022484779357910156,-0.021477222442626953,-0.008424043655395508
1778948661031203600,2.45420361328125,0.033214569091796875,-0.07092511653900146,0.025826454162597656
1778948661047529200,2.470529296875,-0.0894002914428711,-0.1117706298828125,-0.02600550651550293
1778948661063843600,2.486843505859375,-0.07904434204101562,0.03619515895843506,-0.06829118728637695
1778948661080185000,2.50318505859375,-0.1191263198852539,-0.006009459495544434,-0.09831070899963379
1778948661096529000,2.51952880859375,-0.01456451416015625,-0.09324324131011963,-0.08606171607971191
1778948661112836900,2.5358369140625,0.15122413635253906,-0.12235355377197266,-0.05583524703979492
1778948661129190100,2.552190185546875,0.2674579620361328,-0.050569772720336914,0.04147744178771973
1778948661145492200,2.5684921875,0.14295101165771484,0.08811807632446289,0.02668929100036621
1778948661161835000,2.5848349609375,-0.0151824951171875,0.1405266523361206,-0.0031583309173583984
1778948661178152400,2.60115234375,-0.05729484558105469,0.06826186180114746,-0.06306672096252441
1778948661194495000,2.617494873046875,-0.04171466827392578,-0.1389482021331787,-0.11655044555664062
1778948661210818800,2.63381884765625,-0.06837940216064453,-0.1031806468963623,-0.15757274627685547
1778948661227152000,2.65015185546875,-0.019339561462402344,0.017308712005615234,-0.11032652854919434
1778948661243471400,2.666471435546875,-0.025798797607421875,-0.08333802223205566,-0.12257695198059082
1778948661259813400,2.6828134765625,-0.1228790283203125,-0.058785438537597656,-0.17351460456848145
1778948661276144000,2.69914404296875,-0.28472328186035156,-0.08467578887939453,-0.22571563720703125
1778948661292490000,2.715489990234375,-0.06314373016357422,-0.02463400363922119,-0.10705089569091797
1778948661308785200,2.73178515625,0.12042808532714844,-0.058962345123291016,-0.03791522979736328
1778948661325135400,2.74813525390625,0.03145027160644531,-0.039865851402282715,-0.08106040954589844
1778948661341466600,2.764466552734375,-0.12465953826904297,-0.028330206871032715,-0.15233469009399414
1778948661357796000,2.780796142578125,-0.06540775299072266,-0.010598182678222656,-0.08474540710449219
1778948661374127600,2.797127685546875,-0.13420391082763672,0.09677743911743164,-0.09001874923706055
1778948661390457300,2.813457275390625,-0.18235111236572266,0.09049534797668457,-0.10291528701782227
1778948661406805800,2.8298056640625,-0.0712594985961914,0.04894685745239258,-0.07709670066833496
1778948661423129900,2.8461298828125,0.18184757232666016,0.11727380752563477,-0.000885009765625
1778948661439446500,2.862446533203125,0.3692951202392578,0.1545792818069458,0.14578819274902344
1778948661455779600,2.878779541015625,0.3542661666870117,0.24760305881500244,0.1341266632080078
1778948661472107500,2.895107421875,0.26184654235839844,0.13197290897369385,0.052182674407958984
1778948661488443600,2.911443603515625,0.23877716064453125,0.05187714099884033,-0.010982990264892578
1778948661504771600,2.927771484375,0.23351383209228516,0.05741262435913086,-0.014202594757080078
1778948661521101600,2.9441015625,0.25637054443359375,0.10840260982513428,0.007417917251586914
1778948661537449700,2.96044970703125,0.2714414596557617,0.12659478187561035,0.08356618881225586
1778948661553745000,2.976744873046875,0.22006893157958984,0.14551007747650146,0.07465600967407227
1778948661570108000,2.99310791015625,0.04948902130126953,0.18583917617797852,-0.0035860538482666016
1778948661586428700,3.0094287109375,-0.09080696105957031,0.16195273399353027,-0.06764864921569824
1778948661602769000,3.025768798828125,-0.034198760986328125,0.02868783473968506,-0.07242178916931152
1778948661619095000,3.042094970703125,-0.04380226135253906,0.02656257152557373,-0.07341337203979492
1778948661635429600,3.0584296875,0.05650520324707031,-0.007486224174499512,-0.004456996917724609
1778948661651758800,3.0747587890625,0.07928943634033203,0.07527351379394531,-0.025728225708007812
1778948661668073500,3.091073486328125,0.02518939971923828,0.09282088279724121,0.012442588806152344
1778948661684390700,3.107390625,-0.06690025329589844,0.13034629821777344,-0.04659843444824219
1778948661700737500,3.123737548828125,-0.08581924438476562,0.030517101287841797,-0.05069708824157715
1778948661717067800,3.14006787109375,0.015439033508300781,-0.09630739688873291,-0.09150552749633789
1778948661733398500,3.1563984375,0.13993358612060547,-0.1823204755783081,-0.12211489677429199
1778948661749726000,3.172725830078125,0.11376667022705078,-0.13728749752044678,-0.057161569595336914
1778948661766059300,3.189059326171875,-0.12296867370605469,0.04677867889404297,-0.09552931785583496
1778948661782387200,3.20538720703125,-0.15771770477294922,0.1494901180267334,-0.1032106876373291
1778948661798719200,3.22171923828125,-0.03777790069580078,0.08237004280090332,-0.08907151222229004
1778948661815059500,3.2380595703125,0.08642578125,0.03832435607910156,-0.08663344383239746
1778948661831383800,3.2543837890625,0.11462783813476562,-0.03873550891876221,-0.06883382797241211
1778948661847711700,3.270711669921875,0.0901021957397461,-0.08303797245025635,-0.06701087951660156
1778948661864042800,3.287042724609375,0.01739025115966797,-0.05454695224761963,-0.12874698638916016
1778948661880372700,3.303372802734375,-0.05542469024658203,0.030908823013305664,-0.12558603286743164
1778948661896703700,3.319703857421875,0.06401824951171875,0.05700063705444336,-0.10756468772888184
1778948661913033700,3.33603369140625,0.03923797607421875,0.05285918712615967,-0.011188268661499023
1778948661929349000,3.35234912109375,0.009962081909179688,0.07861816883087158,0.024649381637573242
1778948661945698000,3.368697998046875,0.08580207824707031,-0.037528276443481445,0.016890764236450195
1778948661962026000,3.38502587890625,0.1329050064086914,-0.10345768928527832,-0.010231494903564453
1778948661978355500,3.40135546875,0.03102874755859375,-0.02184438705444336,-0.08969807624816895
1778948661994686200,3.417686279296875,-0.04193592071533203,0.002332925796508789,-0.09910202026367188
1778948662011017000,3.434016845703125,-0.11361312866210938,0.02312314510345459,-0.05845355987548828
1778948662027364400,3.4503642578125,-0.1080331802368164,-0.042328834533691406,-0.05728030204772949
1778948662043711200,3.466711181640625,0.026185989379882812,-0.05774331092834473,-0.03446626663208008
1778948662060020200,3.483020263671875,-0.036337852478027344,-0.03715181350708008,-0.009929656982421875
1778948662076348200,3.49934814453125,-0.1416788101196289,0.0660010576248169,-0.02578425407409668
1778948662092683300,3.515683349609375,-0.2113361358642578,0.014513731002807617,-0.05147743225097656
1778948662108996000,3.53199609375,-0.16069889068603516,0.04547441005706787,-0.03645968437194824
1778948662125330700,3.54833056640625,-0.03727149963378906,-0.006042122840881348,-0.04487466812133789
1778948662141644800,3.564644775390625,-0.043259620666503906,-0.1417217254638672,-0.08498668670654297
1778948662157991700,3.58099169921875,-0.0973367691040039,-0.17111432552337646,-0.11412906646728516
1778948662174322000,3.597322021484375,-0.2601490020751953,-0.16463828086853027,-0.19114398956298828
1778948662190651000,3.61365087890625,-0.4586067199707031,-0.05656635761260986,-0.2101130485534668
1778948662206980900,3.62998095703125,-0.5240516662597656,0.1589730978012085,-0.20397162437438965
1778948662223313400,3.6463134765625,-0.548192024230957,0.12966561317443848,-0.23761415481567383
1778948662239643600,3.6626435546875,-0.9309391975402832,-0.013394832611083984,-0.39366960525512695
1778948662255975000,3.678974853515625,-1.450368881225586,-0.17039310932159424,-0.743710994720459
1778948662272307700,3.6953076171875,-2.1545400619506836,-0.5331429243087769,-1.1466455459594727
1778948662288648200,3.711648193359375,-2.919253349304199,-1.172955870628357,-1.8359951972961426
1778948662304948200,3.7279482421875,-3.5520424842834473,-1.5957297086715698,-2.397185802459717
1778948662321308700,3.74430859375,-3.8519654273986816,-2.146190881729126,-2.178659200668335
1778948662337647400,3.7606474609375,-0.8313851356506348,-3.651618003845215,-1.4986701011657715
1778948662353964500,3.776964599609375,-1.6826510429382324,-2.1437950134277344,-1.2692675590515137
1778948662370267600,3.793267578125,-1.446751594543457,-1.001562476158142,-0.8498306274414062
1778948662386616000,3.809615966796875,-0.3267068862915039,-0.8063392639160156,-1.031663417816162
1778948662402969000,3.825968994140625,-0.36882734298706055,-1.234737515449524,-0.3560810089111328
1778948662419298000,3.842298095703125,0.6926956176757812,-0.9274536371231079,-0.12308406829833984
1778948662435619800,3.858619873046875,1.4405317306518555,-0.6787382364273071,0.9464225769042969
1778948662451941400,3.87494140625,2.3781051635742188,0.4562898874282837,1.926316261291504
1778948662468270600,3.8912705078125,2.704059362411499,0.7802770137786865,1.7922372817993164
1778948662484588500,3.907588623046875,2.1707606315612793,-0.023700237274169922,1.8446588516235352
1778948662500912400,3.923912353515625,2.1737289428710938,-0.3194699287414551,1.7590007781982422
1778948662517262800,3.940262939453125,1.782911777496338,-0.20607566833496094,1.628274917602539
1778948662533589000,3.956589111328125,1.1470985412597656,0.12571406364440918,2.0895605087280273
1778948662549927200,3.97292724609375,1.0116093158721924,0.8105792999267578,2.7428531646728516
1778948662566251000,3.9892509765625,0.6291673183441162,1.468076467514038,3.0162363052368164
1778948662582604500,4.0056044921875,-0.5223839282989502,1.170835018157959,4.027803421020508
1778948662598924800,4.0219248046875,-4.4517927169799805,1.6780204772949219,3.4083633422851562
1778948662615243300,4.0382431640625,-6.037969589233398,0.4011263847351074,2.1160888671875
1778948662631578000,4.054578125,-1.658324122428894,-0.6888060569763184,1.2599782943725586
1778948662647907000,4.070906982421875,0.7903282642364502,-0.667302131652832,1.8856487274169922
1778948662664231400,4.0872314453125,-1.106626272201538,-0.2648477554321289,2.715799331665039
1778948662680564700,4.103564697265625,-3.4044227600097656,-0.053182363510131836,2.149503707885742
1778948662696898300,4.119898193359375,-0.017400741577148438,-0.9149386882781982,1.4208745956420898
1778948662713231000,4.136231201171875,1.2135181427001953,-1.3202931880950928,0.9246139526367188
1778948662729558800,4.152558837890625,0.9145522117614746,-0.6814980506896973,0.5608978271484375
1778948662745889800,4.168889892578125,0.24602437019348145,-0.7560746669769287,0.15763092041015625
1778948662762218200,4.18521826171875,0.8420798778533936,-0.5498671531677246,-0.3482494354248047
1778948662778551800,4.2015517578125,-4.392202377319336,0.3947103023529053,-2.2702393531799316
1778948662794893800,4.217893798828125,0.8897144794464111,-0.7769970893859863,-1.771906852722168
1778948662811225600,4.2342255859375,-0.42523741722106934,-0.27915000915527344,-2.32962703704834
1778948662827556000,4.25055615234375,0.061697959899902344,0.26923513412475586,-2.4513039588928223
1778948662843879700,4.266879638671875,-0.5955352783203125,1.1071281433105469,-1.8528108596801758
1778948662860226000,4.28322607421875,-0.6080002784729004,2.9168529510498047,0.0675039291381836
1778948662876565000,4.29956494140625,-0.4049663543701172,2.2262096405029297,0.9231886863708496
1778948662892875500,4.31587548828125,0.12471246719360352,1.3576161861419678,0.5019321441650391
1778948662909209300,4.332209228515625,-1.3296706676483154,0.2652125358581543,-0.08031463623046875
1778948662925561000,4.34856103515625,-3.1457972526550293,-1.162496566772461,-1.9722867012023926
1778948662941869000,4.364869140625,-5.344634532928467,-3.0125880241394043,-3.5805392265319824
1778948662958198500,4.381198486328125,-1.487026333808899,-1.7073798179626465,-4.002969741821289
1778948662974528800,4.39752880859375,-0.1968677043914795,-1.6911087036132812,-2.8473243713378906
1778948662990859300,4.413859375,2.652045726776123,1.1837949752807617,-0.20483875274658203
1778948663007191000,4.43019091796875,4.343830108642578,1.5550222396850586,1.5749201774597168
1778948663023519000,4.44651904296875,3.149595022201538,3.5950870513916016,3.68070125579834
1778948663039875300,4.462875244140625,1.3782250881195068,4.107884883880615,3.7162246704101562
1778948663056181800,4.479181640625,-0.13549292087554932,1.79915189743042,3.8017873764038086
1778948663072508400,4.49550830078125,-0.32195568084716797,-0.4096651077270508,3.335120677947998
1778948663088829700,4.51182958984375,-2.1060588359832764,-0.08033895492553711,1.7588019371032715
1778948663105160700,4.52816064453125,-4.7328782081604,0.822265625,0.19050073623657227
1778948663121487000,4.544487060546875,-3.2924439907073975,-0.07034826278686523,-0.003531932830810547
1778948663137825300,4.5608251953125,0.8733711242675781,0.446014404296875,-0.3708624839782715
1778948663154147800,4.57714794921875,2.8374428749084473,-1.3935003280639648,2.6923646926879883
1778948663170483000,4.59348291015625,3.5084569454193115,-1.3306565284729004,3.9377527236938477
1778948663186825200,4.6098251953125,1.3226518630981445,-0.2708415985107422,2.2878098487854004
1778948663203143400,4.626143310546875,-0.6423889994621277,0.23019075393676758,0.1945633888244629
1778948663219474000,4.642473876953125,-1.3204851150512695,0.31011343002319336,-0.5761561393737793
1778948663235804400,4.658804443359375,-1.3794429302215576,0.7977032661437988,0.06583738327026367
1778948663252135000,4.675135009765625,-0.35692673921585083,-0.8674640655517578,0.8167047500610352
1778948663268465700,4.691465576171875,1.0738362073898315,-1.102107048034668,1.2164855003356934
1778948663284796000,4.7077958984375,0.3250521421432495,-0.2293262481689453,0.33474111557006836
1778948663301126700,4.724126708984375,-0.05374115705490112,-0.4332571029663086,-0.7866334915161133
1778948663317453300,4.740453369140625,0.5158921480178833,0.010244369506835938,-1.6533524990081787
1778948663333788400,4.756788330078125,2.79852032661438,-0.5424222946166992,-3.0598154067993164
1778948663350116900,4.773116943359375,2.469191074371338,-0.6967058181762695,-2.5311131477355957
1778948663366452000,4.789451904296875,1.8336782455444336,-0.5736103057861328,-2.632491111755371
1778948663382779000,4.80577880859375,-1.935589075088501,-2.851078987121582,-2.972832441329956
1778948663399096000,4.822095947265625,-3.545544147491455,-3.879359245300293,-4.134685039520264
1778948663415437000,4.83843701171875,-1.3468546867370605,-1.6339330673217773,-2.744295835494995
1778948663431760400,4.854760498046875,1.6434674263000488,2.8362865447998047,0.07603716850280762
1778948663448099300,4.871099365234375,2.2999699115753174,3.9675660133361816,1.9188623428344727
1778948663464433700,4.88743359375,0.39922142028808594,3.624915599822998,2.528657913208008
1778948663480775400,4.903775390625,-1.4720336198806763,3.517526626586914,3.3571975231170654
1778948663497106700,4.920106689453125,-2.3008604049682617,1.6261239051818848,4.0399274826049805
1778948663513436700,4.936436767578125,-1.7364158630371094,1.3120369911193848,5.485350608825684
1778948663529765000,4.95276513671875,0.12998461723327637,-1.4225568771362305,4.746849536895752
1778948663546081500,4.96908154296875,-0.22467315196990967,-0.7052030563354492,3.318183660507202
1778948663562429000,4.985428955078125,0.7617076635360718,0.8279142379760742,2.300069570541382
1778948663578741800,5.00174169921875,1.5319494009017944,0.5537605285644531,0.8615782260894775
1778948663595089200,5.018089111328125,1.1250207424163818,-0.8978433609008789,-0.2727084159851074
1778948663611420000,5.034419921875,0.5071749687194824,-1.1174888610839844,-0.020972728729248047
1778948663627730400,5.05073046875,0.146978497505188,-0.4160022735595703,-0.8658726215362549
1778948663644070000,5.06706982421875,-0.30541765689849854,-0.9148139953613281,-1.7606781721115112
1778948663660395500,5.0833955078125,-0.8701989650726318,-0.26435184478759766,-4.425451755523682
1778948663676728800,5.099728759765625,-0.3401342034339905,0.6793289184570312,-6.579516410827637
1778948663693059000,5.11605908203125,-0.29289066791534424,0.1685171127319336,-3.8746347427368164
1778948663709401300,5.1324013671875,-0.6948275566101074,-0.03983783721923828,-3.8298263549804688
1778948663725718000,5.148718017578125,-2.4738945960998535,-0.5096673965454102,-2.1839089393615723
1778948663742029300,5.165029296875,-1.8985066413879395,-2.4284286499023438,-0.8745558261871338
1778948663758384000,5.181384033203125,-0.5374917984008789,-0.303924560546875,2.5884640216827393
1778948663774709800,5.197709716796875,0.509806215763092,1.4351444244384766,3.7846450805664062
1778948663791051800,5.2140517578125,1.159893274307251,1.3130683898925781,4.255744934082031
1778948663807386400,5.230386474609375,0.6166861653327942,1.585970401763916,2.074486017227173
1778948663823716600,5.246716552734375,0.37407785654067993,1.5576324462890625,1.1230475902557373
1778948663840046600,5.263046630859375,-0.3325238525867462,0.09919452667236328,1.913731575012207
1778948663856360000,5.27935986328125,-6.513698101043701,-0.5587301254272461,-0.5532619953155518
1778948663872694000,5.295694091796875,-3.285081386566162,2.930598735809326,0.46942317485809326
1778948663889024800,5.312024658203125,1.417451024055481,-2.732362747192383,2.874730110168457
1778948663905354800,5.328354736328125,0.0780370831489563,0.40205955505371094,-0.13100171089172363
1778948663921684500,5.3446845703125,-0.20589938759803772,0.6991853713989258,-0.783314049243927
1778948663938011000,5.361010986328125,-0.6645910143852234,2.167581558227539,-0.04208207130432129
1778948663954351600,5.3773515625,-0.583714485168457,4.942227363586426,1.1529107093811035
1778948663970675200,5.39367529296875,3.9002649784088135,5.396155834197998,2.2796549797058105
1778948663987009300,5.41000927734375,2.0241472721099854,2.385301113128662,2.2428553104400635
1778948664003334700,5.426334716796875,0.6329073905944824,-1.209634780883789,1.3625657558441162
1778948664019650000,5.442650146484375,1.789621114730835,-3.2583885192871094,-1.1078417301177979
1778948664035998500,5.45899853515625,1.5518996715545654,-1.6559028625488281,-1.482335090637207
1778948664052324600,5.47532470703125,1.6012380123138428,-1.4012317657470703,-1.7253309488296509
1778948664068663600,5.49166357421875,-0.10847462713718414,-1.847768783569336,-1.4961830377578735
1778948664084993300,5.5079931640625,-1.5491786003112793,-1.786585807800293,-1.626732587814331
1778948664101336300,5.52433642578125,-1.5462589263916016,-2.0979719161987305,-0.9208624362945557
1778948664117649000,5.54064892578125,-1.1551933288574219,-1.6019468307495117,-0.1298081874847412
1778948664133982000,5.55698193359375,-6.967292785644531,0.5379533767700195,0.3101046085357666
1778948664150313000,5.57331298828125,-0.800336480140686,1.2308249473571777,0.08967399597167969
1778948664166642200,5.58964208984375,1.0216891765594482,1.562281608581543,0.07948637008666992
1778948664182974500,5.605974365234375,1.7016384601593018,0.6959495544433594,1.200444221496582
1778948664199303400,5.622303466796875,-1.1906449794769287,0.20602130889892578,1.3874585628509521
1778948664215634400,5.638634521484375,-0.5004552006721497,-1.1297454833984375,2.109204053878784
1778948664231964700,5.654964599609375,0.5978281497955322,-1.0598201751708984,1.3350131511688232
1778948664248296700,5.671296630859375,0.813531219959259,0.37017345428466797,0.12230515480041504
1778948664264611800,5.68761181640625,0.08267378807067871,1.849843978881836,-1.088263750076294
1778948664280956400,5.703956298828125,-0.07295936346054077,2.2652206420898438,-1.453985571861267
1778948664297286400,5.720286376953125,-0.37289321422576904,1.176675796508789,-0.27927470207214355
1778948664313619700,5.73661962890625,0.21052902936935425,-0.19638633728027344,1.1299736499786377
1778948664329959700,5.752959716796875,0.37930846214294434,-1.3168115615844727,2.502509355545044
1778948664346279000,5.76927880859375,1.9876925945281982,-0.4651002883911133,2.916154623031616
1778948664362607000,5.785607177734375,1.1837409734725952,5.476930618286133,-2.771087169647217
1778948664378939600,5.801939697265625,-0.49696943163871765,6.042215347290039,-3.461109161376953
1778948664395275800,5.81827587890625,-2.8421075344085693,3.6660566329956055,-2.1616296768188477
1778948664411601000,5.834600830078125,0.773513913154602,3.0697078704833984,-1.184733271598816
1778948664427930400,5.850930419921875,3.865834951400757,2.3274712562561035,-2.014927864074707
1778948664444269300,5.867269287109375,-1.6079320907592773,0.5085964202880859,-0.8848109245300293
1778948664460601900,5.883601806640625,-0.07025057077407837,-0.24628067016601562,0.5285977125167847
1778948664476940300,5.899940185546875,1.2073549032211304,0.5595607757568359,-0.6747243404388428
1778948664493249000,5.9162490234375,0.6970291137695312,2.633213520050049,-1.5936472415924072
1778948664509597700,5.93259765625,-0.667241632938385,2.0739288330078125,-1.0586628913879395
1778948664525923600,5.948923583984375,-0.10113251209259033,1.38092041015625,-0.24643254280090332
1778948664542247200,5.9652470703125,0.4847450256347656,1.6353569030761719,0.24464130401611328
1778948664558581500,5.98158154296875,-0.8199374675750732,4.0025410652160645,-1.0334737300872803
1778948664574909700,5.99790966796875,3.586397647857666,4.0295281410217285,-0.19310325384140015
1778948664591232800,6.014232666015625,0.8570308685302734,5.726253509521484,1.244938850402832
1778948664607556400,6.030556396484375,1.0021346807479858,5.429232120513916,-0.22463291883468628
1778948664623896300,6.046896240234375,0.8538322448730469,-18.797630310058594,3.0436742305755615
1778948664640206600,6.06320654296875,3.4483742713928223,-50.42485809326172,2.936328649520874
1778948664656545500,6.079545654296875,-1.4752558469772339,-5.206524848937988,-0.728371798992157
1778948664672875300,6.095875244140625,-2.2987797260284424,8.646696090698242,-1.0348228216171265
1778948664689216800,6.112216796875,-0.3326594829559326,9.316329956054688,-0.9593348503112793
1778948664705596000,6.128595947265625,0.05162334442138672,1.6208858489990234,-0.6036345958709717
1778948664721867300,6.1448671875,0.053681135177612305,-1.5132980346679688,-1.2606537342071533
1778948664738215700,6.161215576171875,-0.2258317470550537,-1.696065902709961,-1.4871848821640015
1778948664754542600,6.17754248046875,-0.5125820636749268,-0.2575387954711914,-0.6063681244850159
1778948664770873900,6.193873779296875,0.033660054206848145,0.4837665557861328,0.13521263003349304
1778948664787203600,6.21020361328125,0.881615400314331,0.24737834930419922,0.30044394731521606
1778948664803534300,6.226534423828125,1.0738872289657593,0.07916736602783203,0.27499133348464966
1778948664819864800,6.24286474609375,0.5755194425582886,0.1353473663330078,0.08302253484725952
1778948664836195000,6.259195068359375,-0.02968740463256836,0.03280162811279297,-0.07376843690872192
1778948664852525600,6.275525634765625,-0.3756065368652344,-0.04893779754638672,-0.16421455144882202
1778948664868876300,6.291876220703125,-0.48131120204925537,-0.08307647705078125,-0.20150946080684662
1778948664885163800,6.308163818359375,-0.5150300860404968,-0.10738182067871094,-0.13089269399642944
1778948664901537000,6.324537109375,-0.5413045287132263,-0.11754131317138672,-0.04840397834777832
1778948664917840600,6.340840576171875,-0.5175288915634155,-0.11733531951904297,-0.011050708591938019
1778948664934192400,6.3571923828125,-0.35768842697143555,-0.12989139556884766,-0.01836245507001877
1778948664950492200,6.3734921875,-0.3109419345855713,-0.1434011459350586,-0.08707185834646225
1778948664966839000,6.389839111328125,-0.21732008457183838,-0.10492610931396484,-0.18237370252609253
1778948664983160000,6.40616015625,-0.22570955753326416,-0.02520275115966797,-0.2014651894569397
1778948664999498200,6.422498291015625,-0.2565743923187256,0.03139209747314453,-0.10913439095020294
1778948665015831000,6.4388310546875,-0.19464325904846191,0.042937278747558594,0.03889501839876175
1778948665032161300,6.455161376953125,-0.07266390323638916,-0.024283409118652344,0.11364228278398514
1778948665048509200,6.47150927734375,-0.010331869125366211,-0.02182769775390625,0.09977731853723526
1778948665064852000,6.48785205078125,-0.04935288429260254,-0.00036907196044921875,0.031139694154262543
1778948665081167000,6.5041669921875,-0.09270501136779785,-0.02039623260498047,-0.0010403171181678772
1778948665097496600,6.52049658203125,-0.08366000652313232,-0.07402324676513672,0.015968240797519684
1778948665113810400,6.536810546875,-0.06604063510894775,-0.18436622619628906,-0.0036639422178268433
1778948665130142700,6.553142822265625,-0.10800862312316895,-0.2563762664794922,-0.052672743797302246
1778948665146474500,6.569474609375,-0.1930485963821411,-0.17269611358642578,-0.016139604151248932
1778948665162805000,6.585804931640625,-0.12484586238861084,-0.038384437561035156,0.06394130736589432
1778948665179133200,6.60213330078125,0.04517531394958496,0.06344985961914062,0.15083739161491394
1778948665195468000,6.618468017578125,0.17497694492340088,0.03471183776855469,0.19311845302581787
1778948665211794400,6.63479443359375,0.2977231740951538,0.055548667907714844,0.1155218705534935
1778948665228110000,6.651110107421875,0.30497753620147705,0.055454254150390625,0.051509931683540344
1778948665244456200,6.667456298828125,0.3382824659347534,0.04389190673828125,-0.03603365272283554
1778948665260777500,6.683777587890625,0.4081728458404541,-0.11302947998046875,-0.12434768676757812
1778948665277118500,6.700118408203125,0.3724609613418579,-0.12543296813964844,-0.19163239002227783
1778948665293436200,6.716436279296875,0.2461177110671997,-0.107666015625,-0.1907133311033249
1778948665309779500,6.732779541015625,0.13879871368408203,-0.10382366180419922,-0.12663020193576813
1778948665326109700,6.749109619140625,0.10968649387359619,-0.08831024169921875,-0.09604769945144653
1778948665342440700,6.765440673828125,0.07060694694519043,-0.0047321319580078125,-0.038979895412921906
1778948665358770700,6.781770751953125,0.05084681510925293,0.09967708587646484,0.034476034343242645
1778948665375101400,6.798101318359375,0.10675549507141113,0.14977645874023438,0.11725547164678574
1778948665391447300,6.814447265625,0.10174977779388428,0.11017894744873047,0.17647798359394073
1778948665407782000,6.830781982421875,0.07664859294891357,0.062103271484375,0.2461770474910736
1778948665424103200,6.847103271484375,0.11039423942565918,0.07319164276123047,0.2815128564834595
1778948665440421000,6.863421142578125,0.19962918758392334,0.09771156311035156,0.28880977630615234
1778948665456749600,6.87974951171875,0.25366759300231934,0.12113666534423828,0.2586354613304138
1778948665473089800,6.89608984375,0.2743443250656128,0.13466644287109375,0.1757284700870514
1778948665489412600,6.91241259765625,0.26512300968170166,0.16582679748535156,0.04704006761312485
1778948665505748000,6.928748046875,0.2560657262802124,0.06938457489013672,-0.08625932037830353
1778948665522071600,6.945071533203125,0.3048057556152344,0.10547542572021484,-0.13409630954265594
1778948665538409500,6.961409423828125,0.29465508460998535,0.23874378204345703,-0.11311571300029755
1778948665554736600,6.977736572265625,0.26921868324279785,0.29328155517578125,-0.12126016616821289
1778948665571078000,6.994077880859375,0.09567844867706299,0.26639556884765625,-0.03563594073057175
1778948665587383300,7.01038330078125,-0.0273134708404541,0.23755645751953125,0.025430798530578613
1778948665603719000,7.026718994140625,0.22485947608947754,-0.25998497009277344,-0.5230981111526489
1778948665620061000,7.04306103515625,-0.04194998741149902,-0.40410423278808594,-1.1006829738616943
1778948665636389000,7.05938916015625,-0.22174257040023804,-0.057908058166503906,-1.3403173685073853
1778948665652720000,7.07572021484375,-0.5390804409980774,-0.1476736068725586,-0.6808768510818481
1778948665669050400,7.09205029296875,-0.9143271446228027,-0.46155643463134766,0.05261678621172905
1778948665685380600,7.108380615234375,-1.0174643993377686,-0.5339221954345703,0.5380074977874756
1778948665701711400,7.12471142578125,-1.0465061664581299,-0.12861347198486328,1.1127095222473145
1778948665718028500,7.141028564453125,-0.4611821174621582,0.21592140197753906,1.5364420413970947
1778948665734360800,7.15736083984375,0.2342677116394043,0.36289501190185547,1.3201266527175903
1778948665750702800,7.173702880859375,0.5218100547790527,0.38890647888183594,0.9161756634712219
1778948665767032600,7.190032470703125,0.7535345554351807,0.38053131103515625,0.6103654503822327
1778948665783363800,7.20636376953125,0.7496300935745239,0.12345409393310547,0.36550021171569824
1778948665799692300,7.2226923828125,0.19945156574249268,-0.004851341247558594,0.18750935792922974
1778948665816027000,7.23902685546875,-0.4191685914993286,-0.015437126159667969,0.13482250273227692
1778948665832352300,7.255352294921875,-0.7253288626670837,-0.040787696838378906,0.09148066490888596
1778948665848689000,7.27168896484375,-0.7672790288925171,-0.05324077606201172,-0.000027768313884735107
1778948665865003000,7.2880029296875,-0.7525332570075989,-0.14362621307373047,-0.14527156949043274
1778948665881339000,7.3043388671875,-0.712331235408783,-0.18068408966064453,-0.22078436613082886
1778948665897676800,7.3206767578125,-0.3059418201446533,-0.1875600814819336,-0.13991683721542358
1778948665913995000,7.3369951171875,-0.020012974739074707,-0.10146617889404297,-0.05654184892773628
1778948665930337800,7.353337890625,0.05680572986602783,0.018441200256347656,0.016136525198817253
1778948665946668300,7.369668212890625,0.2503514289855957,0.1060791015625,0.08908043056726456
1778948665962997800,7.385997802734375,0.3367201089859009,0.0841512680053711,0.1311160773038864
1778948665979327000,7.402326904296875,0.2393054962158203,0.010829925537109375,0.054683391004800797
1778948665995662800,7.418662841796875,0.13498246669769287,0.03202342987060547,-0.04658776894211769
1778948666011990300,7.434990234375,0.14254772663116455,0.012117385864257812,-0.06862039864063263
1778948666028320500,7.451320556640625,0.052930593490600586,-0.0072574615478515625,-0.103045754134655
1778948666044639500,7.467639404296875,0.0052490234375,0.0025091171264648438,-0.1430511325597763
1778948666060981800,7.483981689453125,-0.03906238079071045,0.034618377685546875,-0.16505800187587738
1778948666077325600,7.50032568359375,-0.1486133337020874,-0.04015159606933594,-0.17063896358013153
1778948666093643800,7.516643798828125,-0.21078109741210938,-0.04278087615966797,-0.10120820254087448
1778948666109955600,7.53295556640625,-0.23722100257873535,-0.0286712646484375,-0.008882558904588223
1778948666126305300,7.54930517578125,-0.17197251319885254,-0.03674507141113281,0.09618672728538513
1778948666142631200,7.565631103515625,-0.07635855674743652,-0.041466712951660156,0.19426988065242767
1778948666158966500,7.581966552734375,0.04629802703857422,-0.07509803771972656,0.25556349754333496
1778948666175295500,7.59829541015625,0.01239776611328125,-0.06571769714355469,0.17680953443050385
1778948666191632100,7.614632080078125,-0.06355404853820801,-0.019443511962890625,0.09085315465927124
1778948666240627700,7.663627685546875,-0.009485840797424316,0.024845123291015625,0.06956517696380615
1778948666256966100,7.679966064453125,0.12095451354980469,-0.03250312805175781,-0.031459882855415344
1778948666273308400,7.696308349609375,0.12620794773101807,-0.027733802795410156,-0.10861580073833466
1778948666289606700,7.712606689453125,0.10991907119750977,-0.023189544677734375,-0.1128871962428093
1778948666305937200,7.728937255859375,-0.0510103702545166,-0.02357006072998047,-0.06484223157167435
1778948666322268000,7.745267822265625,-0.10124838352203369,-0.009514808654785156,-0.020648175850510597
1778948666338605000,7.76160498046875,-0.09271085262298584,0.0143585205078125,0.05674397572875023
1778948666354929000,7.777928955078125,-0.011594653129577637,0.00909423828125,0.12027682363986969
1778948666371261400,7.794261474609375,0.04724395275115967,0.014058113098144531,0.14054328203201294
1778948666387600000,7.810599853515625,0.05148589611053467,-0.00036716461181640625,0.1408403217792511
1778948666403936300,7.826936279296875,-0.013435959815979004,-0.010281562805175781,0.14964090287685394
1778948666420258000,7.843258056640625,-0.06346642971038818,-0.03396129608154297,0.11062105000019073
1778948666436586000,7.8595859375,-0.06916368007659912,-0.010149002075195312,0.0712219849228859
1778948666452911600,7.87591162109375,-0.030535221099853516,0.004252433776855469,0.04647573083639145
1778948666469219800,7.8922197265625,0.03680002689361572,0.022914886474609375,0.08518192172050476
1778948666485572400,7.908572265625,0.051746368408203125,0.02299022674560547,0.11347831785678864
1778948666501904400,7.924904296875,0.04365503787994385,0.003958702087402344,0.054923802614212036
1778948666518233900,7.94123388671875,0.04941070079803467,-0.04325103759765625,-0.017625980079174042
1778948666534563600,7.9575634765625,-0.01877462863922119,0.023596763610839844,-0.027477387338876724
1778948666550895000,7.97389501953125,-0.04980063438415527,0.047306060791015625,0.03998006507754326
1778948666567242000,7.990241943359375,0.027253270149230957,-0.01544189453125,0.07415351271629333
1778948666583569000,8.00656884765625,0.081595778465271,-0.058297157287597656,0.06948013603687286
1778948666599881500,8.022881591796875,0.04502677917480469,-0.03893852233886719,0.04100044071674347
1778948666616216300,8.03921630859375,-0.03510236740112305,-0.014331817626953125,0.04035954922437668
1778948666632547300,8.05554736328125,-0.054676055908203125,0.023975372314453125,0.05418965592980385
1778948666648877600,8.071877685546875,-0.024520158767700195,0.04329872131347656,0.06780282407999039
1778948666665207800,8.088207763671875,-0.007157802581787109,0.0006084442138671875,0.047740764915943146
1778948666681538600,8.10453857421875,0.030373454093933105,-0.056387901306152344,0.013272365555167198
1778948666697869300,8.120869384765625,0.022855043411254883,-0.046558380126953125,-0.0445559099316597
1778948666714199000,8.137198974609374,-0.028635621070861816,-0.04170417785644531,-0.039442822337150574
1778948666730545000,8.153544921875,-0.04750525951385498,-0.012880325317382812,0.03765111789107323
1778948666746870300,8.169870361328124,-0.03133571147918701,0.02570629119873047,0.08095201104879379
1778948666763187500,8.1861875,0.010394692420959473,0.011181831359863281,0.08081723004579544
1778948666779510800,8.2025107421875,0.07601284980773926,0.025963783264160156,0.0570165179669857
1778948666795851500,8.2188515625,0.09267723560333252,0.0023202896118164062,0.013361864723265171
1778948666812170500,8.23517041015625,0.04690241813659668,-0.016037940979003906,-0.016114812344312668
1778948666828512500,8.251512451171875,-0.03429985046386719,-0.03516387939453125,0.002611412201076746
1778948666844855800,8.267855712890626,-0.10056090354919434,-0.011143684387207031,0.04102988913655281
1778948666861189000,8.284189208984374,-0.05481100082397461,0.017975807189941406,0.06032716855406761
1778948666877518600,8.3005185546875,0.003447413444519043,0.013808250427246094,0.026535874232649803
1778948666893848600,8.3168486328125,0.03135573863983154,0.00001430511474609375,0.031182941049337387
1778948666910179300,8.333179443359375,0.02975451946258545,0.014760017395019531,0.04535422474145889
1778948666926507800,8.3495078125,0.022540926933288574,-0.008881568908691406,0.04495573788881302
1778948666942840000,8.365840087890625,0.005858778953552246,-0.008652687072753906,0.03533708304166794
1778948666959170600,8.382170654296875,-0.04007160663604736,-0.008419036865234375,0.04456919804215431
1778948666975501300,8.398501220703125,-0.042975664138793945,-0.008116722106933594,0.07352806627750397
1778948666991829500,8.41482958984375,-0.009912490844726562,-0.02680683135986328,0.055014099925756454
1778948667008158500,8.431158447265625,-0.019837260246276855,-0.02627086639404297,0.02583446353673935
1778948667024460300,8.447460205078125,-0.05944013595581055,-0.0019273757934570312,0.040590181946754456
1778948667040809500,8.4638095703125,-0.07664787769317627,0.036663055419921875,0.08400948345661163
1778948667057139700,8.4801396484375,-0.06418859958648682,0.013079643249511719,0.10280299186706543
1778948667073470000,8.496469970703124,-0.046311020851135254,-0.04878425598144531,0.05933544412255287
1778948667089800400,8.512800537109374,-0.053349971771240234,-0.010198593139648438,0.05923282727599144
1778948667106132200,8.52913232421875,-0.08007991313934326,-0.0003910064697265625,0.05929071456193924
1778948667122460400,8.54546044921875,-0.06909596920013428,0.0046329498291015625,0.08774759620428085
1778948667138791700,8.561791748046875,-0.013173460960388184,-0.03812122344970703,0.0730363205075264
1778948667155122700,8.578122802734375,-0.03423953056335449,-0.004282951354980469,0.0582861602306366
1778948667171453200,8.594453125,-0.055596113204956055,0.0103759765625,0.05781165882945061
1778948667187783400,8.610783447265625,-0.03360247611999512,-0.03235912322998047,0.023488560691475868
1778948667204114200,8.6271142578125,-0.021149039268493652,0.01104736328125,-0.0007118529174476862
1778948667220462300,8.64346240234375,-0.033286333084106445,0.020880699157714844,0.023412253707647324
1778948667236788000,8.6597880859375,-0.026061296463012695,0.006808280944824219,0.02387973852455616
1778948667253120000,8.6761201171875,0.029239535331726074,0.031045913696289062,0.02479281835258007
1778948667269445400,8.6924453125,0.02679455280303955,0.012174606323242188,0.0015133419074118137
1778948667285762800,8.7087626953125,-0.024576425552368164,0.012322425842285156,0.021007593721151352
1778948667302111000,8.725111083984375,-0.06696832180023193,-0.010929107666015625,0.04512377828359604
1778948667318449000,8.741448974609375,-0.06614327430725098,-0.006047248840332031,0.05044356361031532
1778948667334771500,8.757771484375,-0.06463289260864258,0.007885932922363281,0.05078708752989769
1778948667351085300,8.774085205078125,-0.06675517559051514,-0.01999187469482422,0.03210263326764107
1778948667367418000,8.790418212890625,-0.05065810680389404,-0.034149169921875,0.018058817833662033
1778948667383749400,8.806749267578125,-0.049489736557006836,-0.005299568176269531,0.004288649186491966
1778948667400066800,8.82306689453125,-0.03930056095123291,-0.01061248779296875,0.014577101916074753
1778948667416410600,8.83941064453125,-0.02483367919921875,0.018181800842285156,0.03500230610370636
1778948667432740600,8.85574072265625,-0.024307966232299805,0.008670806884765625,0.06884242594242096
1778948667449075700,8.87207568359375,-0.028223037719726562,-0.015156745910644531,0.05930270627140999
1778948667465398500,8.8883984375,-0.03233325481414795,-0.010294914245605469,0.0305595975369215
1778948667481745700,8.90474560546875,-0.06965601444244385,0.004702568054199219,0.01096879318356514
1778948667498059000,8.92105908203125,-0.09825170040130615,0.0047168731689453125,0.025563418865203857
1778948667514390000,8.93739013671875,-0.03612029552459717,-0.00539398193359375,0.030389118939638138
1778948667530723300,8.953723388671875,-0.006174921989440918,-0.005321502685546875,0.00257341330870986
1778948667547053800,8.9700537109375,0.0032514333724975586,0.023444175720214844,0.01745864748954773
1778948667563380700,8.986380615234374,0.017225265502929688,0.009043693542480469,0.008412143215537071
1778948667579715300,9.00271533203125,-0.026401638984680176,0.023336410522460938,0.009066153317689896
1778948667596046800,9.019046875,-0.0267026424407959,-0.0006961822509765625,0.014444122090935707
1778948667612374800,9.035374755859374,-0.05203592777252197,-0.000789642333984375,0.03833635151386261
1778948667628704500,9.05170458984375,-0.018925905227661133,-0.03433418273925781,0.05374816060066223
1778948667645037300,9.068037353515624,-0.01891481876373291,-0.04390525817871094,0.03510522469878197
1778948667661367800,9.084367919921876,-0.04227340221405029,-0.02955150604248047,0.030359014868736267
1778948667677696300,9.1006962890625,-0.07134759426116943,-0.0002803802490234375,0.030859243124723434
1778948667694029000,9.117029052734376,-0.07134342193603516,-0.00028133392333984375,0.03587614744901657
1778948667710363400,9.13336328125,-0.05263411998748779,0.02306842803955078,0.05516871064901352
1778948667726686500,9.1496865234375,-0.009463310241699219,0.023079872131347656,0.051171887665987015
1778948667743034000,9.1660341796875,0.019038796424865723,0.027840614318847656,0.03222079947590828
1778948667759358500,9.1823583984375,0.027098655700683594,0.02288055419921875,0.046843789517879486
1778948667775704300,9.198704345703124,-0.008287787437438965,-0.015622138977050781,0.07549568265676498
1778948667792020000,9.21502001953125,-0.03862428665161133,-0.054093360900878906,0.06018122285604477
1778948667808352300,9.231352294921875,-0.04825162887573242,-0.07271194458007812,-0.002179514616727829
1778948667824669400,9.24766943359375,-0.07121741771697998,-0.02003002166748047,-0.040207985788583755
1778948667841016300,9.264016357421875,-0.03766763210296631,0.027303695678710938,0.008617972955107689
1778948667857351200,9.28035107421875,0.02518308162689209,0.037016868591308594,0.032572802156209946
1778948667873677800,9.296677734375,0.0597233772277832,0.03713703155517578,0.018479611724615097
1778948667890007600,9.313007568359374,0.07877182960510254,0.02277088165283203,0.008431189693510532
1778948667906338800,9.3293388671875,0.03482341766357422,0.02745532989501953,0.002729250118136406
1778948667922676200,9.34567626953125,-0.003764033317565918,-0.001361846923828125,0.007259664125740528
1778948667938975200,9.361975341796875,0.010202169418334961,-0.04447746276855469,0.0074400510638952255
1778948667955316500,9.37831640625,0.0000016689300537109375,-0.0205535888671875,0.060667164623737335
1778948667971646500,9.394646484375,-0.01461648941040039,-0.001373291015625,0.10401775687932968
1778948667987977200,9.410977294921874,0.019593358039855957,0.017850875854492188,0.13258491456508636
1778948668004297700,9.427297607421876,0.03966343402862549,-0.0059680938720703125,0.07851666957139969
1778948668020638200,9.44363818359375,0.01749575138092041,-0.03461647033691406,0.00019301986321806908
1778948668036985900,9.45998583984375,0.0076367855072021484,-0.005335807800292969,-0.033972784876823425
1778948668053313300,9.476313232421875,-0.030313968658447266,0.013844490051269531,-0.034326836466789246
1778948668069626000,9.492626220703125,-0.019697189331054688,0.022939682006835938,-0.006188621744513512
1778948668085960200,9.508960205078125,0.029155611991882324,-0.010376930236816406,0.002802039496600628
1778948668102290400,9.52529052734375,0.02578151226043701,-0.01021575927734375,0.007268719375133514
1778948668118620000,9.541619873046875,0.017220616340637207,-0.0005273818969726562,0.011720197275280952
1778948668134951400,9.557951416015625,0.02766430377960205,-0.014784812927246094,0.0017182580195367336
1778948668151282400,9.574282470703125,0.0337451696395874,-0.03803539276123047,-0.03206367790699005
1778948668167612200,9.590612060546874,-0.0040798187255859375,-0.009866714477539062,-0.0033629643730819225
1778948668183942700,9.606942626953124,-0.038053035736083984,0.014075279235839844,0.02998247742652893
1778948668200272100,9.623272216796876,-0.03697192668914795,0.028557777404785156,0.048394739627838135
1778948668216620500,9.63962060546875,0.003380894660949707,0.014435768127441406,0.028182119131088257
1778948668232948700,9.65594873046875,0.006211042404174805,-0.022996902465820312,-0.011068415828049183
1778948668249283800,9.672283935546876,-0.006632685661315918,-0.022825241088867188,-0.03546559065580368
1778948668265586000,9.6885859375,-0.025040864944458008,0.025115966796875,-0.011964794248342514
1778948668281926000,9.70492578125,-0.03383970260620117,-0.013081550598144531,-0.003397506196051836
1778948668298243000,9.7212431640625,-0.0043294429779052734,-0.017778396606445312,-0.007666515186429024
1778948668314586600,9.737586669921875,-0.04229593276977539,-0.017740249633789062,0.011188640259206295
1778948668330916400,9.753916259765624,-0.07550609111785889,-0.02727985382080078,0.011629519984126091
1778948668347247600,9.77024755859375,-0.02846360206604004,-0.003973960876464844,0.045467302203178406
1778948668363581400,9.78658154296875,-0.03818154335021973,0.024723052978515625,0.07471680641174316
1778948668379921700,9.802921630859375,-0.018907546997070312,0.010380744934082031,0.0834946408867836
1778948668396249600,9.81924951171875,-0.013804912567138672,-0.018296241760253906,0.06342673301696777
1778948668412554500,9.835554443359374,-0.06610727310180664,-0.032085418701171875,0.02881883643567562
1778948668428897300,9.851897216796875,-0.114765465259552,-0.032176971435546875,0.027960428968071938
1778948668445244700,9.86824462890625,-0.11621850728988647,-0.017917633056640625,0.05635153502225876
1778948668461559000,9.88455908203125,-0.08227455615997314,-0.017866134643554688,0.06605295836925507
1778948668477906000,9.900906005859374,-0.009784698486328125,0.005611419677734375,0.0850801020860672
1778948668494236200,9.917236083984376,0.015384197235107422,0.010538101196289062,0.06493296474218369
1778948668510562000,9.93356201171875,0.025229811668395996,0.015286445617675781,0.025541510432958603
1778948668526870300,9.949870361328125,0.0048073530197143555,0.0055694580078125,0.005511907394975424
1778948668543213600,9.966213623046874,-0.06822693347930908,0.010743141174316406,-0.00039907218888401985
1778948668559544300,9.98254443359375,-0.07905066013336182,-0.0037555694580078125,0.028012501075863838
1778948668575874800,9.998874755859376,-0.07488775253295898,-0.009141921997070312,0.06116118282079697
1778948668592203800,10.015203857421875,-0.03638339042663574,-0.02826213836669922,0.07486002147197723
1778948668608535300,10.031535400390625,-0.02188551425933838,-0.05217456817626953,0.05028391629457474
1778948668624852700,10.047852783203124,-0.017444849014282227,-0.04264259338378906,0.021101096644997597
1778948668641196300,10.0641962890625,-0.04741108417510986,0.024213790893554688,0.039861563593149185
1778948668657527000,10.080527099609375,-0.05767476558685303,0.024133682250976562,0.06788196414709091
1778948668673857800,10.09685791015625,0.018677353858947754,0.024176597595214844,0.07179903984069824
1778948668690187800,10.113187744140625,0.057565927505493164,0.014670372009277344,0.04201018437743187
1778948668706518500,10.1295185546875,0.04366350173950195,-0.01406097412109375,-0.0029370272532105446
1778948668722847700,10.14584765625,0.028696060180664062,-0.03753089904785156,-0.03725164756178856
1778948668739176400,10.162176513671875,0.0032330751419067383,-0.013776779174804688,-0.02808118239045143
1778948668755500500,10.17850048828125,-0.02703869342803955,0.023799896240234375,0.0003327280282974243
1778948668771843300,10.19484326171875,-0.007971405982971191,0.028575897216796875,0.028725875541567802
1778948668788183300,10.211183349609374,0.04036271572113037,0.009487152099609375,0.037655435502529144
1778948668804491500,10.227491455078125,0.050209999084472656,-0.014410972595214844,0.008085532113909721
1778948668820846600,10.2438466796875,0.0502089262008667,-0.014479637145996094,-0.04050416126847267
1778948668837175000,10.260175048828126,0.006078004837036133,-0.009817123413085938,-0.040956445038318634
1778948668853507300,10.27650732421875,-0.028077125549316406,0.0002765655517578125,-0.03135913237929344
1778948668869836800,10.2928369140625,-0.009258389472961426,-0.005074501037597656,0.007234469056129456
1778948668886167800,10.309167724609376,0.005921840667724609,0.023733139038085938,0.0218668095767498
1778948668902464500,10.325464599609376,0.05381500720977783,0.009448051452636719,0.041526034474372864
1778948668918801400,10.341801513671875,0.05870711803436279,-0.00968170166015625,0.04113192856311798
1778948668935148500,10.3581484375,0.020447134971618652,-0.019317626953125,0.0161865446716547
1778948668951475500,10.374475341796876,-0.0320206880569458,-0.023555755615234375,-0.0038387123495340347
1778948668967805400,10.390805419921875,-0.05578339099884033,-0.03789329528808594,-0.008534019812941551
1778948668984137200,10.40713720703125,-0.04139089584350586,0.004651069641113281,0.02983037196099758
1778948669000463600,10.423463623046874,-0.02548503875732422,0.009612083435058594,0.044477663934230804
1778948669016804400,10.439804443359375,0.03337061405181885,0.009775161743164062,0.02953161671757698
1778948669033165300,10.456165283203125,0.04865264892578125,-0.009264945983886719,0.01939753070473671
1778948669049454800,10.472454833984376,-0.008596181869506836,0.0003261566162109375,0.02845075912773609
1778948669065789000,10.488788818359374,-0.022646188735961914,0.0009593963623046875,0.03277593106031418
1778948669082119700,10.50511962890625,-0.02160954475402832,-0.02763843536376953,0.01330883614718914
1778948669098449400,10.521449462890626,-0.015679001808166504,-0.008963584899902344,0.03235083818435669
1778948669114780700,10.53778076171875,-0.04389750957489014,0.015086174011230469,0.060676172375679016
1778948669131110700,10.554110595703126,-0.01894557476043701,0.010416030883789062,0.0740811824798584
1778948669147441400,10.57044140625,0.02060556411743164,-0.018157958984375,0.05361156165599823
1778948669163770400,10.586770263671875,-0.0017052888870239258,-0.03180408477783203,0.009356118738651276
1778948669180102400,10.603102294921875,-0.02019822597503662,-0.031734466552734375,0.008481668308377266
1778948669196432600,10.6194326171875,-0.06247210502624512,0.0018520355224609375,0.04534240439534187
1778948669212780000,10.635780029296875,-0.05630826950073242,0.0260009765625,0.0727459266781807
1778948669229090000,10.652090087890626,0.02362060546875,0.0018463134765625,0.047531627118587494
1778948669245438200,10.668438232421876,0.05147826671600342,0.016571998596191406,-0.0017073936760425568
1778948669261768200,10.684768310546875,0.057991743087768555,-0.0023794174194335938,-0.026589591056108475
1778948669278081800,10.701081787109375,0.03468334674835205,0.03118610382080078,-0.027297981083393097
1778948669294427400,10.717427490234375,0.0019562244415283203,0.02648639678955078,-0.01332082599401474
1778948669310759400,10.733759521484375,-0.030442237854003906,0.01703643798828125,0.02420445904135704
1778948669327086800,10.7500869140625,-0.010809183120727539,0.0075855255126953125,0.05336626246571541
1778948669343424800,10.7664248046875,0.010015130043029785,-0.011437416076660156,0.02419367805123329
1778948669359734000,10.782734130859374,0.005708932876586914,-0.020956993103027344,0.009506076574325562
1778948669376081700,10.79908154296875,-0.03258204460144043,-0.006600379943847656,0.008734505623579025
1778948669392410400,10.815410400390626,-0.07528793811798096,-0.006560325622558594,0.032275933772325516
1778948669408742100,10.8317421875,-0.0501633882522583,-0.016000747680664062,0.05554576218128204
1778948669425067800,10.84806787109375,-0.05770397186279297,-0.015779495239257812,0.04988684132695198
1778948669441390300,10.864390380859374,-0.031649112701416016,-0.010763168334960938,0.020067553967237473
1778948669457720000,10.880719970703124,-0.02010202407836914,-0.01958465576171875,-0.01407691091299057
1778948669474050800,10.89705078125,-0.025001049041748047,0.01336669921875,0.014437273144721985
1778948669490381600,10.913381591796876,-0.057717084884643555,0.023024559020996094,0.052542634308338165
1778948669506712000,10.929712158203126,-0.018622636795043945,0.027963638305664062,0.08061887323856354
1778948669523042300,10.946042236328125,0.007501125335693359,-0.010150909423828125,0.05144134536385536
1778948669539369700,10.96236962890625,-0.020418643951416016,-0.005280494689941406,0.01650601252913475
1778948669555706400,10.978706298828126,-0.03467559814453125,-0.010058403015136719,0.015729211270809174
1778948669572022800,10.995022705078124,-0.058226585388183594,-0.028564453125,0.01052987203001976
1778948669588364500,11.011364501953125,-0.08097153902053833,0.009848594665527344,0.029235079884529114
1778948669604692500,11.0276923828125,-0.06963604688644409,0.0046558380126953125,0.047652021050453186
1778948669621014500,11.0440146484375,-0.03934752941131592,0.0048236846923828125,0.042000699788331985
1778948669637355800,11.060355712890624,0.004356503486633301,0.014527320861816406,0.046709489077329636
1778948669653686300,11.076686279296876,0.01921403408050537,0.0050067901611328125,0.05075167119503021
1778948669670016500,11.0930166015625,0.01901400089263916,0.00498199462890625,0.04052899032831192
1778948669686350600,11.1093505859375,-0.038385629653930664,-0.009438514709472656,0.03950072079896927
1778948669702674400,11.12567431640625,-0.06756669282913208,-0.004108428955078125,0.0343712642788887
1778948669719008000,11.142008056640625,-0.08185470104217529,-0.0041027069091796875,0.0381409153342247
1778948669735338200,11.158338134765625,-0.057396650314331055,-0.0040493011474609375,0.023807693272829056
1778948669751669500,11.17466943359375,-0.013712406158447266,-0.004580497741699219,0.023326173424720764
1778948669767996200,11.19099609375,0.010755419731140137,-0.014096260070800781,0.02270139753818512
1778948669784339700,11.207339599609375,-0.0035247802734375,0.009835243225097656,0.022040370851755142
1778948669800672500,11.223672607421875,-0.01356804370880127,0.009781837463378906,0.011758651584386826
1778948669817008400,11.24000830078125,-0.05210161209106445,0.01932239532470703,0.006326012313365936
1778948669833335600,11.25633544921875,-0.037744760513305664,-0.0040111541748046875,0.02493474632501602
1778948669849665300,11.272665283203125,-0.018181800842285156,-0.027896881103515625,-0.008940458297729492
1778948669865995500,11.28899560546875,0.015120625495910645,0.010369300842285156,-0.017752449959516525
1778948669882327300,11.305327392578125,-0.005126357078552246,0.01922321319580078,0.010682471096515656
1778948669898656000,11.321656005859374,-0.025917410850524902,-0.00003528594970703125,0.05369597673416138
1778948669914957300,11.337957275390625,0.0015755891799926758,-0.0001697540283203125,0.044279973953962326
1778948669931303200,11.35430322265625,-0.013198137283325195,0.0050983428955078125,0.009801004081964493
1778948669947634700,11.370634765625,-0.04356515407562256,0.0192718505859375,0.004627685993909836
1778948669963965200,11.386965087890625,-0.026023507118225098,-0.019788742065429688,-0.0052225179970264435
1778948669980295700,11.403295654296874,-0.017842650413513184,-0.010370254516601562,0.004418648779392242
1778948669996626000,11.4196259765625,-0.04307138919830322,-0.010510444641113281,0.023898035287857056
1778948670012960300,11.435960205078125,-0.03439176082611084,-0.0010385513305664062,0.03832746669650078
1778948670029283300,11.452283447265625,-0.011165142059326172,0.008454322814941406,0.014289606362581253
1778948670045617400,11.468617431640626,-0.011873841285705566,-0.02512359619140625,-0.004938635975122452
1778948670061947000,11.48494677734375,-0.013244986534118652,-0.020488739013671875,0.000028856098651885986
1778948670078265300,11.501265380859374,-0.024472832679748535,0.0032596588134765625,0.010170839726924896
1778948670094609700,11.517609619140625,-0.016211867332458496,-0.006453514099121094,0.03961209952831268
1778948670110939000,11.53393896484375,0.0016390085220336914,-0.016098976135253906,0.045542094856500626
1778948670127269600,11.55026953125,-0.012523174285888672,0.007784843444824219,0.03642483055591583
1778948670143587000,11.566587158203125,-0.00853574275970459,0.022057533264160156,0.02724587917327881
1778948670159931100,11.58293115234375,-0.019982218742370605,0.007559776306152344,0.0419904924929142
1778948670176263700,11.599263671875,0.0025157928466796875,0.0074024200439453125,0.0423123799264431
1778948670192604200,11.615604248046875,0.015331387519836426,0.007229804992675781,0.023393746465444565
1778948670208920600,11.631920654296875,0.028583288192749023,-0.012099266052246094,0.014285560697317123
1778948670225266400,11.648266357421875,0.026591777801513672,-0.021889686584472656,0.0007042586803436279
1778948670241593900,11.66459375,-0.01367342472076416,0.00241851806640625,0.0014822296798229218
1778948670257914600,11.68091455078125,-0.024769067764282227,-0.02167797088623047,0.006365776062011719
1778948670274250500,11.69725048828125,-0.007216930389404297,0.0015411376953125,0.02652142196893692
1778948670290558500,11.713558349609375,0.0017036199569702148,0.0014705657958984375,0.04606746509671211
1778948670306892000,11.72989208984375,-0.0038094520568847656,0.010961532592773438,0.06534218788146973
1778948670323234600,11.746234619140624,0.0005955696105957031,0.015702247619628906,0.046057816594839096
1778948670339566600,11.762566650390625,-0.004230380058288574,-0.0178680419921875,0.012497492134571075
1778948670355896300,11.778896240234374,-0.04376685619354248,-0.012623786926269531,-0.011736873537302017
1778948670372218000,11.795218017578126,-0.04975581169128418,-0.013356208801269531,0.017374608665704727
1778948670388557800,11.811557861328126,-0.01233673095703125,0.01532745361328125,0.047056227922439575
1778948670404887300,11.82788720703125,0.08881092071533203,0.024972915649414062,0.057228364050388336
1778948670421219800,11.8442197265625,0.08002543449401855,0.0011348724365234375,0.042957376688718796
1778948670437548800,11.860548828125,0.06454575061798096,-0.02292156219482422,0.028558045625686646
1778948670453896700,11.876896728515625,-0.037813782691955566,-0.03695964813232422,0.0033495016396045685
1778948670470224000,11.893223876953124,-0.10618925094604492,-0.0036830902099609375,-0.039568401873111725
1778948670486555000,11.909554931640624,-0.0918428897857666,-0.008466720581054688,-0.02470889687538147
1778948670502889500,11.925889404296875,-0.03811085224151611,-0.008869171142578125,0.004922401160001755
1778948670519196000,11.94219580078125,0.05388998985290527,-0.0038909912109375,0.04514482244849205
1778948670535536400,11.958536376953125,0.1165475845336914,-0.008625984191894531,0.05506899952888489
1778948670551863600,11.974863525390624,0.07171392440795898,0.02946186065673828,0.050543542951345444
1778948670568192500,11.991192626953126,-0.04543769359588623,0.019628524780273438,0.06837013363838196
1778948670584510200,12.00751025390625,-0.07893264293670654,-0.009154319763183594,0.04389490559697151
1778948670600850400,12.023850341796875,-0.03479409217834473,-0.018606185913085938,-0.004227302968502045
1778948670617187300,12.040187255859376,0.019409775733947754,-0.013642311096191406,-0.017683733254671097
1778948670633515000,12.056514892578125,0.05373036861419678,-0.01833057403564453,-0.03624831512570381
1778948670649845500,12.072845458984375,0.04381871223449707,0.029489517211914062,-0.011610530316829681
1778948670666175500,12.089175537109375,-0.019405722618103027,-0.004122734069824219,0.04646333307027817
1778948670682503200,12.105503173828126,-0.04350113868713379,-0.008924484252929688,0.0510513000190258
1778948670698838300,12.12183837890625,-0.028278827667236328,-0.018398284912109375,0.027145881205797195
1778948670715185200,12.13818505859375,-0.017528772354125977,-0.042191505432128906,0.012957636266946793
1778948670731511800,12.15451171875,-0.02630019187927246,-0.03671550750732422,-0.0009557865560054779
1778948670747841800,12.170841796875,-0.007580876350402832,0.0009937286376953125,0.0337865874171257
1778948670764170200,12.187170166015624,-0.030809879302978516,0.015430450439453125,0.05812881141901016
1778948670780509000,12.203509033203124,0.023230910301208496,0.015587806701660156,0.053303979337215424
1778948670796819000,12.21981884765625,0.05361127853393555,0.0062046051025390625,0.024794213473796844
1778948670813179100,12.23617919921875,0.02652287483215332,-0.008037567138671875,-0.00008890032768249512
1778948670829492200,12.2524921875,0.0320284366607666,-0.012743949890136719,0.004384208470582962
1778948670845825500,12.268825439453124,0.009343862533569336,0.011324882507324219,0.0044897496700286865
1778948670862155000,12.285155029296876,0.04430699348449707,0.006703376770019531,0.009454909712076187
1778948670878468000,12.301468017578125,0.03132760524749756,-0.002712249755859375,0.009830594062805176
1778948670894802700,12.317802734375,0.01309669017791748,0.0069637298583984375,0.005385249853134155
1778948670911133000,12.3341328125,-0.01021885871887207,0.0219879150390625,0.0007913969457149506
1778948670927463700,12.350463623046876,0.0002646446228027344,0.012518882751464844,-0.0040123723447322845
1778948670943793700,12.366793701171876,-0.0078051090240478516,0.0025177001953125,-0.013486895710229874
1778948670960123000,12.383122802734375,-0.005708813667297363,-0.02542877197265625,-0.018488336354494095
1778948670976445400,12.399445556640625,-0.01955413818359375,-0.006758689880371094,0.010979533195495605
1778948670992785400,12.415785400390625,-0.023632287979125977,-0.006676673889160156,0.0498470775783062
1778948671009115600,12.43211572265625,-0.02297210693359375,0.012606620788574219,0.06508026272058487
1778948671025446100,12.448446044921875,0.006980180740356445,0.012743949890136719,0.060251351445913315
1778948671041778200,12.464778076171875,0.008733749389648438,-0.0014848709106445312,0.03139479458332062
1778948671058102800,12.481102783203125,0.004670262336730957,-0.010379791259765625,-0.007071923464536667
1778948671074435000,12.49743505859375,-0.0041158199310302734,-0.015078544616699219,-0.026977308094501495
1778948671090771000,12.51377099609375,-0.045793771743774414,-0.034132957458496094,-0.04587108641862869
1778948671107098400,12.530098388671876,-0.06881797313690186,-0.000530242919921875,-0.011926013976335526
1778948671123428900,12.546428955078126,-0.06321084499359131,-0.009943962097167969,0.03138335794210434
1778948671139752000,12.562751953125,-0.03734314441680908,-0.0007572174072265625,0.03132839500904083
1778948671156089900,12.57908984375,0.017682313919067383,-0.0004968643188476562,0.017196904867887497
1778948671172435500,12.595435546875,0.043970584869384766,-0.0002384185791015625,-0.0023184306919574738
1778948671188766500,12.611766357421875,0.017261624336242676,-0.009057044982910156,-0.026931699365377426
1778948671205095200,12.62809521484375,-0.02552032470703125,0.0000133514404296875,0.0065917931497097015
1778948671221412000,12.644412109375,-0.04370570182800293,-0.004668235778808594,0.020882070064544678
1778948671237756400,12.66075634765625,-0.05173683166503906,0.0008840560913085938,0.015958718955516815
1778948671254082600,12.67708251953125,-0.01607036590576172,-0.009049415588378906,0.006364922970533371
1778948671270422500,12.693422607421875,0.0001653432846069336,0.0007276535034179688,0.016049936413764954
1778948671286745600,12.70974560546875,0.015871167182922363,-0.003911018371582031,0.006477482616901398
1778948671303078000,12.726077880859375,0.01744365692138672,-0.008592605590820312,-0.027155354619026184
1778948671319408000,12.742408203125,-0.0010107755661010742,0.010626792907714844,-0.017531145364046097
1778948671335725000,12.75872509765625,-0.04370450973510742,0.0017576217651367188,-0.0031236298382282257
1778948671352070000,12.77506982421875,-0.03784584999084473,0.0018749237060546875,0.0014632046222686768
1778948671368392000,12.791391845703124,-0.02699410915374756,-0.0075588226318359375,0.001373741775751114
1778948671384725200,12.807725341796875,-0.03063666820526123,-0.021793365478515625,0.0011714287102222443
1778948671401056300,12.82405615234375,-0.04418134689331055,-0.00734710693359375,0.01075880229473114
1778948671417388000,12.840387939453125,-0.057742536067962646,-0.0072612762451171875,0.03469579294323921
1778948671433725400,12.856725341796874,-0.0278322696685791,-0.011919975280761719,0.04398583993315697
1778948671450052000,12.873052001953125,-0.017055869102478027,0.007350921630859375,0.03397073969244957
1778948671466365200,12.889365234375,-0.04004621505737305,0.0020656585693359375,0.02859218791127205
1778948671482700000,12.905699951171876,-0.03927028179168701,-0.016996383666992188,0.027930282056331635
1778948671499029800,12.92202978515625,-0.019028425216674805,0.016618728637695312,0.008253268897533417
1778948671515360500,12.938360595703125,-0.02268970012664795,0.021523475646972656,0.017395667731761932
1778948671531688700,12.954688720703125,-0.012355327606201172,0.012630462646484375,0.021609455347061157
1778948671548022300,12.971022216796875,0.02172720432281494,-0.01123809814453125,-0.0029836036264896393
1778948671564352000,12.98735205078125,-0.001545548439025879,-0.020803451538085938,-0.046255260705947876
1778948671580682500,13.0036826171875,-0.03565776348114014,0.007843017578125,-0.022297505289316177
1778948671597012200,13.02001220703125,-0.06509864330291748,0.01739978790283203,0.019971322268247604
1778948671613343700,13.03634375,0.002714395523071289,0.01688671112060547,0.03898296132683754
1778948671629674000,13.052674072265624,0.046970486640930176,-0.0069179534912109375,0.0005934573709964752
1778948671646000400,13.06900048828125,0.014366745948791504,-0.015860557556152344,-0.03396911546587944
1778948671662340600,13.085340576171875,-0.02434694766998291,0.0032339096069335938,-0.03409132361412048
1778948671678677200,13.10167724609375,-0.04374098777770996,-0.006363868713378906,-0.01507241278886795
1778948671695009500,13.118009521484375,-0.024767398834228516,0.008038520812988281,-0.0007379837334156036
1778948671711323100,13.1343232421875,-0.023945212364196777,0.0033407211303710938,0.013773903250694275
1778948671727665400,13.15066552734375,0.00026476383209228516,0.0123443603515625,0.01860252395272255
1778948671744004400,13.16700439453125,0.004948019981384277,0.012332916259765625,0.023125041276216507
1778948671760333000,13.1833330078125,0.00913846492767334,0.017053604125976562,0.027468927204608917
1778948671776659200,13.1996591796875,-0.020282983779907227,0.007405281066894531,0.0367712527513504
1778948671792989400,13.215989501953125,-0.021072983741760254,-0.011822700500488281,0.046065088361501694
1778948671809309200,13.23230908203125,-0.02169513702392578,-0.021463394165039062,0.016937822103500366
1778948671825653000,13.248653076171875,-0.01739180088043213,0.0030088424682617188,0.002477973699569702
1778948671841983700,13.264983642578125,-0.04232978820800781,-0.006670951843261719,0.007187016308307648
1778948671858312700,13.281312744140624,-0.0436244010925293,0.0027599334716796875,0.01647413894534111
1778948671874643700,13.297643798828124,-0.02548229694366455,-0.0021343231201171875,0.020860999822616577
1778948671890971000,13.313970947265625,-0.011431694030761719,-0.012337684631347656,0.03490569815039635
1778948671907309000,13.33030908203125,-0.0022031068801879883,-0.012375831604003906,0.03446043282747269
1778948671923614500,13.346614501953125,-0.002943873405456543,-0.011860847473144531,-0.004079081118106842
1778948671939970800,13.362970703125,-0.037747859954833984,0.0023565292358398438,0.0005820132791996002
1778948671956296400,13.37929638671875,-0.07726871967315674,0.011793136596679688,0.03813273087143898
1778948671972627000,13.395626953125,-0.04922604560852051,0.011716842651367188,0.05732855945825577
1778948671988940500,13.4119404296875,0.0025267601013183594,-0.008058547973632812,0.04196794331073761
1778948672005274400,13.4282744140625,0.01670694351196289,-0.0027637481689453125,0.012970522046089172
1778948672021605000,13.444605224609376,-0.0038832426071166992,-0.03642463684082031,0.016511548310518265
1778948672037935400,13.460935302734375,-0.02958381175994873,-0.007904052734375,0.006405241787433624
1778948672054266000,13.47726611328125,-0.050031423568725586,0.0015230178833007812,0.005985993891954422
1778948672070596000,13.49359619140625,-0.031211137771606445,0.011056900024414062,0.015119325369596481
1778948672086913500,13.50991357421875,-0.007497429847717285,0.0008592605590820312,0.019124072045087814
1778948672103242000,13.526241943359375,0.02051711082458496,0.005564689636230469,0.009265143424272537
1778948672119572700,13.54257275390625,0.038796067237854004,-0.03281974792480469,-0.010641966015100479
1778948672135922700,13.558922607421875,0.022945642471313477,-0.0036716461181640625,-0.025307927280664444
1778948672152235500,13.575235595703125,-0.041245222091674805,0.0248260498046875,0.0074971988797187805
1778948672168579800,13.591579833984374,-0.02842545509338379,0.009700775146484375,0.03590204194188118
1778948672184907000,13.607906982421875,0.009701728820800781,0.004894256591796875,0.0262591652572155
1778948672201243400,13.624243408203125,0.03823733329772949,-0.019059181213378906,-0.017486121505498886
1778948672217587700,13.640587646484375,0.027248144149780273,-0.01921558380126953,-0.03205180540680885
1778948672233898200,13.656898193359375,-0.02783524990081787,-0.009313583374023438,-0.008852466940879822
1778948672250214000,13.6732138671875,-0.0635232925415039,-0.00476837158203125,0.010189246386289597
1778948672266579700,13.689579833984375,-0.035755038261413574,-0.0006866455078125,0.033966612070798874
1778948672282906600,13.70590673828125,-0.012175202369689941,-0.005511283874511719,0.028945621103048325
1778948672299237000,13.722237060546876,0.020631909370422363,-0.005588531494140625,0.010109759867191315
1778948672315548200,13.738548095703125,0.03847002983093262,-0.029661178588867188,-0.013859398663043976
1778948672331884300,13.75488427734375,-0.006421089172363281,-0.010718345642089844,0.004991669207811356
1778948672348214300,13.77121435546875,-0.05063962936401367,0.008896827697753906,0.014775790274143219
1778948672364531200,13.78753125,-0.0360640287399292,0.017891883850097656,0.024123433977365494
1778948672380876300,13.803876220703126,-0.006651401519775391,-0.0005769729614257812,-0.009115263819694519
1778948672397206000,13.8202060546875,0.03620898723602295,-0.005387306213378906,-0.023640599101781845
1778948672413553400,13.836553466796875,0.03474712371826172,-0.006146430969238281,-0.009327519685029984
1778948672429878800,13.852878662109376,0.023336291313171387,0.008072853088378906,0.01928635686635971
1778948672446181400,13.869181396484375,0.02747178077697754,0.022355079650878906,0.028599794954061508
1778948672462527700,13.88552783203125,0.027339577674865723,-0.03509044647216797,0.02338555082678795
1778948672478858000,13.90185791015625,-0.011094808578491211,-0.02978992462158203,0.013063140213489532
1778948672495189000,13.91818896484375,-0.041150569915771484,-0.02036762237548828,0.00829942524433136
1778948672511519500,13.93451953125,-0.027865886688232422,0.0028438568115234375,0.02772676944732666
1778948672527849500,13.950849365234374,0.014445304870605469,0.03154182434082031,0.047629233449697495
1778948672544180000,13.967179931640626,0.04328429698944092,0.017197608947753906,0.03800152614712715
1778948672560506000,13.983506103515625,0.038630127906799316,-0.016353607177734375,0.009090881794691086
1778948672576844000,13.999843994140624,0.008480310440063477,-0.006943702697753906,-0.005395568907260895
1778948672593171700,14.016171630859375,-0.03611600399017334,-0.011300086975097656,-0.010559562593698502
1778948672609502000,14.032501953125,-0.0465165376663208,0.002964019775390625,0.018216297030448914
1778948672625832400,14.04883251953125,-0.013666629791259766,-0.007210731506347656,0.028317667543888092
1778948672642163500,14.06516357421875,0.01504671573638916,-0.021570205688476562,0.023395199328660965
1778948672658493200,14.0814931640625,0.029086589813232422,-0.02160358428955078,0.01876741647720337
1778948672674823200,14.0978232421875,0.004304170608520508,0.0022325515747070312,0.01917935535311699
1778948672691154700,14.11415478515625,-0.02499687671661377,0.006951332092285156,0.043219566345214844
1778948672707485200,14.130485107421874,-0.005816817283630371,-0.0074024200439453125,0.04763449728488922
1778948672723815200,14.146815185546876,0.004355669021606445,0.0022335052490234375,0.03281474858522415
1778948672740162600,14.16316259765625,0.019158124923706055,-0.0025053024291992188,0.013290636241436005
1778948672756488000,14.179488037109374,0.029392600059509277,0.0022869110107421875,-0.010742835700511932
1778948672772804400,14.195804443359375,0.023471951484680176,0.021370887756347656,0.00855732336640358
1778948672789151200,14.212151123046874,0.008791565895080566,0.026121139526367188,0.022979464381933212
1778948672805495000,14.2284951171875,0.018831253051757812,0.0022439956665039062,0.022769547998905182
1778948672821795600,14.244795654296874,0.01982247829437256,-0.007285118103027344,-0.0013463757932186127
1778948672838125600,14.26112548828125,0.019528865814208984,-0.0025320053100585938,-0.02999388426542282
1778948672854476300,14.277476318359374,0.0045146942138671875,0.0021820068359375,-0.024805068969726562
1778948672870800600,14.293800537109375,-0.02009713649749756,-0.007460594177246094,0.00877772644162178
1778948672887135200,14.31013525390625,-0.011269569396972656,0.021239280700683594,0.033646222203969955
1778948672903467000,14.326467041015626,0.022234678268432617,0.01645374298095703,0.033823393285274506
1778948672919791900,14.3427919921875,-0.0017970800399780273,0.0020875930786132812,0.014850672334432602
1778948672936120300,14.359120361328126,0.0026950836181640625,-0.03151130676269531,0.005442231893539429
1778948672952455700,14.37545556640625,-0.02706313133239746,-0.01667022705078125,0.005175270140171051
1778948672968764200,14.39176416015625,-0.05141937732696533,-0.007144927978515625,0.015181586146354675
1778948672985106000,14.40810595703125,-0.03664195537567139,0.012044906616210938,0.010557327419519424
1778948673001431800,14.424431884765625,-0.0024127960205078125,0.016315460205078125,0.001760832965373993
1778948673017763600,14.440763671875,0.0023517608642578125,0.0019598007202148438,0.002175692468881607
1778948673034094300,14.45709423828125,0.01130211353302002,-0.007678985595703125,0.012158624827861786
1778948673050424800,14.4734248046875,-0.008675456047058105,-0.0029840469360351562,-0.0017191320657730103
1778948673066754600,14.489754638671876,-0.014057517051696777,-0.012618064880371094,0.008643291890621185
1778948673083085600,14.50608544921875,-0.07183551788330078,-0.045554161071777344,0.02326565980911255
1778948673099413200,14.522413330078125,-0.08143305778503418,-0.03598308563232422,0.04788297787308693
1778948673115746300,14.538746337890625,-0.08572876453399658,-0.0024242401123046875,0.0386560820043087
1778948673132072700,14.55507275390625,-0.0182952880859375,0.006664276123046875,0.029770128428936005
1778948673148428300,14.57142822265625,0.016249775886535645,0.006779670715332031,0.02489500865340233
1778948673164735000,14.58773486328125,0.017339706420898438,-0.007519721984863281,-0.0036802776157855988
1778948673181082000,14.60408203125,0.008023262023925781,-0.012274742126464844,-0.0032399818301200867
1778948673197408300,14.620408203125,-0.02024853229522705,0.007517814636230469,-0.022266533225774765
1778948673213747200,14.636747314453125,-0.033686280250549316,0.007625579833984375,0.002446971833705902
1778948673230056400,14.653056396484375,-0.01813483238220215,-0.007190704345703125,0.012709993869066238
1778948673246390300,14.669390380859374,-0.007537841796875,-0.007076263427734375,0.02799198403954506
1778948673262719500,14.685719482421876,0.021806955337524414,-0.021360397338867188,-0.0051856376230716705
1778948673279051000,14.702051025390626,0.022246718406677246,0.002620697021484375,-0.02376396209001541
1778948673295378400,14.71837841796875,0.013002276420593262,0.0026607513427734375,-0.008549820631742477
1778948673311715300,14.73471533203125,-0.0005753040313720703,-0.0020341873168945312,0.01613883674144745
1778948673328044800,14.751044921875,0.023975729942321777,-0.0018968582153320312,0.02616240456700325
1778948673344369700,14.76736962890625,0.02032148838043213,0.022159576416015625,0.016907162964344025
1778948673360713500,14.78371337890625,0.02666306495666504,0.012696266174316406,0.017130233347415924
1778948673377054200,14.80005419921875,0.04189121723175049,0.008007049560546875,0.012635193765163422
1778948673393374000,14.8163740234375,0.02760791778564453,-0.0062732696533203125,0.04162417724728584
1778948673409705200,14.832705322265625,0.023315787315368652,0.008138656616210938,0.04171305522322655
1778948673426044000,14.8490439453125,0.018869876861572266,0.022533416748046875,0.013042159378528595
1778948673442370300,14.865370361328125,-0.008645415306091309,0.018413543701171875,-0.006014760583639145
1778948673458669800,14.881669921875,0.0016843080520629883,0.023284912109375,-0.020124945789575577
1778948673475016400,14.898016357421875,0.02636110782623291,0.009011268615722656,-0.010194633156061172
1778948673491347500,14.914347412109375,0.0364609956741333,-0.00588226318359375,0.004719540476799011
1778948673507677400,14.930677490234375,0.031914472579956055,-0.010638236999511719,0.005329988896846771
1778948673524008400,14.947008544921875,-0.001955270767211914,-0.010676383972167969,0.020391516387462616
1778948673540333800,14.963333740234376,-0.0452195405960083,0.009043693542480469,0.04420363903045654
1778948673556674000,14.979674072265626,-0.044358253479003906,0.013926506042480469,0.044429633766412735
1778948673572999200,14.995999267578124,0.009328126907348633,0.0039386749267578125,0.044971998780965805
1778948673589330200,15.012330078125,0.02587604522705078,-0.0096435546875,0.016204919666051865
1778948673605660700,15.02866064453125,0.04098784923553467,-0.009560585021972656,0.001860547810792923
1778948673621991000,15.044990966796876,-0.016294240951538086,0.004811286926269531,-0.0034154169261455536
1778948673638324000,15.061323974609374,-0.03996121883392334,-0.004729270935058594,-0.008023891597986221
1778948673654665500,15.07766552734375,-0.04346799850463867,-0.0046539306640625,-0.021951641887426376
1778948673670984700,15.093984619140626,-0.019248008728027344,0.0050182342529296875,-0.006926659494638443
1778948673687327200,15.1103271484375,-0.008693218231201172,0.004530906677246094,0.022401753813028336
1778948673703642000,15.12664208984375,0.034574031829833984,-0.0001659393310546875,0.037593115121126175
1778948673719987500,15.142987548828126,0.045032382011413574,0.009502410888671875,0.032865360379219055
1778948673736318200,15.159318115234376,0.0031256675720214844,-0.019150733947753906,0.022564597427845
1778948673752648200,15.175648193359375,-0.015772461891174316,-0.03766822814941406,-0.0017004311084747314
1778948673768973800,15.191973876953124,-0.03855466842651367,-0.032822608947753906,-0.020847685635089874
1778948673785313300,15.208313232421874,-0.046997904777526855,-0.008769989013671875,-0.05393819510936737
1778948673801639400,15.224639404296875,-0.02221834659576416,0.029677391052246094,-0.024561244994401932
1778948673817952500,15.240952392578125,0.008510947227478027,0.034087181091308594,0.009939059615135193
1778948673834286600,15.25728662109375,0.07239139080047607,0.02476024627685547,0.024180807173252106
1778948673850617300,15.273617431640625,0.08398354053497314,0.01055908203125,-0.0045678578317165375
1778948673866944800,15.28994482421875,0.04581177234649658,-0.0037841796875,-0.02827593684196472
1778948673883281400,15.306281494140626,-0.021984219551086426,0.0062999725341796875,-0.018715206533670425
1778948673899607300,15.322607177734374,-0.06029677391052246,0.0014495849609375,-0.018056809902191162
1778948673915956700,15.338956787109375,-0.06478613615036011,0.020626068115234375,-0.012590255588293076
1778948673932284700,15.35528466796875,-0.026082873344421387,0.011168479919433594,0.0025563426315784454
1778948673948603600,15.371603759765625,-0.005825161933898926,-0.012635231018066406,0.017454437911510468
1778948673964924000,15.387923828125,0.005030274391174316,-0.022131919860839844,-0.01558724045753479
1778948673981264100,15.40426416015625,0.0002732276916503906,-0.012554168701171875,-0.024586964398622513
1778948673997578000,15.420577880859375,-0.05730009078979492,-0.026926040649414062,-0.005550552159547806
1778948674013922000,15.436922119140625,-0.05695986747741699,-0.04603004455566406,-0.009803511202335358
1778948674030248000,15.453248046875,-0.06529504060745239,-0.0076084136962890625,0.0003083571791648865
1778948674046586400,15.46958642578125,-0.054733216762542725,0.011705398559570312,0.010858509689569473
1778948674062913300,15.485913330078125,-0.0002772808074951172,-0.00724029541015625,0.005963515490293503
1778948674079244000,15.502244140625,0.024903297424316406,-0.011889457702636719,-0.013122931122779846
1778948674095574500,15.518574462890625,-0.026630520820617676,-0.04054737091064453,-0.003208119422197342
1778948674111904800,15.53490478515625,-0.0646216869354248,-0.016587257385253906,0.011082712560892105
1778948674128238600,15.551238525390625,-0.049995243549346924,0.012220382690429688,0.0404743030667305
1778948674144583400,15.56758349609375,-0.01943075656890869,0.02199077606201172,0.05460875853896141
1778948674160908500,15.583908447265625,0.025736212730407715,0.02221393585205078,0.02593439444899559
1778948674177241000,15.600240966796875,0.041587233543395996,0.008013725280761719,-0.027221091091632843
1778948674193564200,15.616564208984375,0.0330808162689209,-0.0015077590942382812,-0.05223781242966652
1778948674209909200,15.6329091796875,-0.005665183067321777,-0.0063419342041015625,-0.05205947160720825
1778948674226232300,15.649232421875,-0.0439760684967041,-0.0015583038330078125,-0.018267009407281876
1778948674242560300,15.665560302734375,-0.015120744705200195,-0.0014781951904296875,0.020463120192289352
1778948674258892800,15.681892822265626,0.005484819412231445,-0.010890007019042969,0.016137361526489258
1778948674275223300,15.698223388671876,0.030297040939331055,0.013133049011230469,0.007588494569063187
1778948674291554600,15.714554443359376,0.006360173225402832,0.022703170776367188,0.026219114661216736
1778948674307884500,15.730884521484375,-0.01337122917175293,0.008282661437988281,0.025918275117874146
1778948674324214500,15.747214599609375,-0.03674745559692383,-0.030007362365722656,0.0016938894987106323
1778948674340543000,15.76354296875,-0.050468266010284424,-0.02994060516357422,-0.013285227119922638
1778948674356875800,15.779875732421875,-0.05874025821685791,-0.020229339599609375,-0.008379127830266953
1778948674373205500,15.79620556640625,-0.01960134506225586,-0.010502815246582031,0.0017757527530193329
1778948674389537000,15.812537109375,0.024600863456726074,-0.000812530517578125,0.011358443647623062
1778948674405849000,15.82884912109375,0.03492569923400879,0.008837699890136719,0.021306034177541733
1778948674422184000,15.845183837890625,0.030757665634155273,-0.015026092529296875,-0.013212978839874268
1778948674438514200,15.86151416015625,0.021936535835266113,0.023275375366210938,-0.0373537540435791
1778948674454844400,15.877844482421875,-0.00669550895690918,0.023284912109375,-0.04193825274705887
1778948674471175000,15.8941748046875,-0.001184225082397461,0.00421905517578125,-0.027341287583112717
1778948674487505700,15.910505615234374,0.041477322578430176,0.00902557373046875,-0.0024210475385189056
1778948674503836000,15.9268359375,0.008171916007995605,0.004261970520019531,0.00707799568772316
1778948674520161500,15.94316162109375,0.008007049560546875,0.009032249450683594,0.02175097167491913
1778948674536501000,15.9595009765625,0.007733345031738281,-0.014924049377441406,0.017308268696069717
1778948674552827400,15.975827392578125,-0.025470852851867676,-0.010169029235839844,0.003222353756427765
1778948674569148200,15.992148193359375,-0.026117563247680664,-0.0053882598876953125,0.017655298113822937
1778948674585488100,16.008488037109377,-0.011137962341308594,0.009033203125,0.01281030848622322
1778948674601817600,16.024817626953126,0.04234910011291504,-0.000446319580078125,-0.01110096275806427
1778948674618148900,16.04114892578125,0.03368651866912842,0.00437164306640625,-0.03468625247478485
1778948674634483500,16.0574833984375,-0.009860754013061523,-0.014819145202636719,-0.01483001746237278
1778948674650824400,16.073824462890624,-0.05315852165222168,0.004302024841308594,0.013993162661790848
1778948674667154000,16.09015380859375,-0.0341457724571228,-0.005217552185058594,0.024581899866461754
1778948674683485400,16.1064853515625,-0.01360619068145752,0.009286880493164062,0.039009880274534225
1778948674699798300,16.12279833984375,0.0017294883728027344,0.004604339599609375,0.043501995503902435
1778948674716145200,16.139145263671875,0.02623772621154785,-0.009692192077636719,0.019061556085944176
1778948674732448000,16.155447998046874,0.041100382804870605,0.014286994934082031,-0.019566837698221207
1778948674748817200,16.171817138671877,-0.0007611513137817383,0.009566307067871094,-0.04330035299062729
1778948674765134300,16.18813427734375,-0.04825329780578613,-0.004750251770019531,-0.05303949490189552
1778948674781470500,16.204470458984375,-0.04800426959991455,-0.009508132934570312,-0.047655969858169556
1778948674797777000,16.22077685546875,-0.02373039722442627,0.00010204315185546875,0.0063889119774103165
1778948674814132500,16.237132568359375,0.00506591796875,0.004960060119628906,0.05459181219339371
1778948674830458000,16.2534580078125,0.025186777114868164,0.009250640869140625,0.05471402034163475
1778948674846773800,16.269773681640626,-0.0028629302978515625,0.009917259216308594,0.030555997043848038
1778948674863115300,16.286115234375,-0.03571814298629761,-0.01879119873046875,-0.008685806766152382
1778948674879454500,16.302454345703126,-0.05989772081375122,-0.023603439331054688,-0.023186583071947098
1778948674895780400,16.3187802734375,-0.08778941631317139,-0.018793106079101562,-0.02763221226632595
1778948674912094500,16.335094482421876,-0.03942608833312988,0.010038375854492188,-0.012690849602222443
1778948674928424700,16.3514248046875,0.022933483123779297,0.019689559936523438,0.021986624225974083
1778948674944755200,16.367755126953124,0.02847874164581299,0.010197639465332031,0.046002551913261414
1778948674961092400,16.38409228515625,0.023451566696166992,-0.004185676574707031,0.055195245891809464
1778948674977419300,16.400419189453125,-0.044631004333496094,-0.013872146606445312,0.0206870436668396
1778948674993749800,16.416749755859374,-0.08308345079421997,-0.004382133483886719,-0.013059809803962708
1778948675010080000,16.433080078125,-0.09711050987243652,-0.018703460693359375,-0.022598937153816223
1778948675026410500,16.449410400390626,-0.05312228202819824,-0.04731941223144531,-0.017454275861382484
1778948675042741000,16.465740966796876,0.01410830020904541,-0.004160881042480469,0.01223640888929367
1778948675059071500,16.482071533203126,0.029082775115966797,0.014449119567871094,0.04579351842403412
1778948675075402200,16.49840234375,0.05817365646362305,0.02405834197998047,0.041346173733472824
1778948675091732200,16.514732177734373,0.033692359924316406,0.009642601013183594,0.04019686579704285
1778948675108061200,16.531061279296875,-0.02952677011489868,0.01970386505126953,0.029898475855588913
1778948675124395300,16.547395263671874,-0.03454107046127319,0.019613265991210938,-0.00910530798137188
1778948675140724000,16.563723876953127,-0.010892271995544434,0.00522613525390625,-0.028617436066269875
1778948675157054200,16.58005419921875,-0.0011484622955322266,-0.01868152618408203,-0.03808990865945816
1778948675173385000,16.596385009765626,-0.006207704544067383,-0.03306865692138672,-0.037741705775260925
1778948675189715500,16.612715576171876,-0.002186894416809082,-0.009217262268066406,-0.013060357421636581
1778948675206045400,16.62904541015625,0.001040339469909668,0.014612197875976562,0.021247537806630135
1778948675222389500,16.645389404296875,0.02472543716430664,0.028345108032226562,0.05020904541015625
1778948675238722600,16.66172265625,0.03398621082305908,0.033161163330078125,0.05534789711236954
1778948675255051800,16.6780517578125,0.05797231197357178,-0.009967803955078125,0.030702797695994377
1778948675271381000,16.694381103515624,-0.009821891784667969,-0.03823375701904297,-0.013876043260097504
1778948675287680300,16.71068017578125,-0.0582846999168396,-0.028791427612304688,-0.05796518176794052
1778948675304013800,16.727013916015625,-0.07272762060165405,-0.03836822509765625,-0.07639878988265991
1778948675320365000,16.743364990234376,-0.053577542304992676,-0.0000152587890625,-0.022389022633433342
1778948675336686000,16.75968603515625,0.003288865089416504,0.04312419891357422,0.0702187716960907
1778948675353019600,16.77601953125,0.07009148597717285,0.03778553009033203,0.10435069352388382
1778948675369348600,16.7923486328125,0.094093918800354,0.028154373168945312,0.07484014332294464
1778948675385681000,16.808680908203126,0.016667604446411133,0.02381134033203125,0.020513419061899185
1778948675402011600,16.82501171875,-0.05159962177276611,-0.019461631774902344,-0.029032036662101746
1778948675418338300,16.84133837890625,-0.09543120861053467,-0.06207752227783203,-0.05405723676085472
1778948675434671600,16.857671630859375,-0.08596682548522949,-0.07165908813476562,-0.06273854523897171
1778948675451003100,16.874003173828125,-0.03307688236236572,0.009189605712890625,-0.00872991792857647
1778948675467332900,16.890332763671875,0.01583731174468994,0.02372264862060547,0.020324554294347763
1778948675483663400,16.906663330078125,0.0881955623626709,0.03281974792480469,0.03996798396110535
1778948675499982600,16.922982666015624,0.10226714611053467,0.023215293884277344,0.029825422912836075
1778948675516323000,16.939322998046876,0.02502155303955078,-0.009822845458984375,-0.0050055403262376785
1778948675532654600,16.955654541015626,-0.013553619384765625,-0.009917259216308594,-0.03909270465373993
1778948675548985000,16.971985107421876,-0.02836310863494873,0.0139617919921875,-0.04391752928495407
1778948675565315600,16.988315673828126,-0.03304767608642578,-0.00038242340087890625,-0.0386836901307106
1778948675581646300,17.004646240234376,0.02895939350128174,0.02837371826171875,-0.019143499433994293
1778948675597976600,17.0209765625,0.028681635856628418,0.018774032592773438,0.0005057398229837418
1778948675614307300,17.037307373046875,0.037407875061035156,0.004328727722167969,0.0008767470717430115
1778948675630636000,17.053635986328125,0.021564722061157227,-0.014970779418945312,0.010683972388505936
1778948675646967800,17.0699677734375,-0.022398948669433594,-0.024700164794921875,0.001364404335618019
1778948675663285500,17.086285400390626,-0.08553975820541382,-0.010438919067382812,-0.008359825238585472
1778948675679646000,17.10264599609375,-0.09085291624069214,-0.0057086944580078125,0.006259359419345856
1778948675695949600,17.118949462890626,-0.05260622501373291,-0.029642105102539062,0.0065935272723436356
1778948675712293400,17.13529345703125,-0.014281272888183594,-0.015277862548828125,0.007667405530810356
1778948675728618800,17.15161865234375,-0.028892040252685547,-0.020089149475097656,0.012922579422593117
1778948675744950800,17.16795068359375,-0.03927499055862427,-0.00096893310546875,0.02261870913207531
1778948675761279700,17.18427978515625,-0.01084756851196289,0.022928237915039062,0.03674321994185448
1778948675777612000,17.200612060546874,-0.029990077018737793,0.0037841796875,0.017506500706076622
1778948675793942300,17.2169423828125,-0.0016072988510131836,-0.02017974853515625,0.0078305434435606
1778948675810289400,17.233289306640625,0.007820844650268555,-0.015470504760742188,-0.020694758743047714
1778948675826614300,17.2496142578125,-0.026606082916259766,0.022716522216796875,-0.02975938655436039
1778948675842947800,17.26594775390625,-0.03737199306488037,0.0035114288330078125,0.009153475984930992
1778948675859274500,17.2822744140625,-0.0047664642333984375,0.012988090515136719,0.03842020034790039
1778948675875594200,17.29859423828125,-0.005666375160217285,-0.00146484375,0.0482686422765255
1778948675891925200,17.31492529296875,-0.011241436004638672,-0.02069091796875,0.0196103285998106
1778948675908255500,17.33125537109375,-0.016845107078552246,-0.0064220428466796875,0.024332236498594284
1778948675924572700,17.34757275390625,-0.04618173837661743,-0.0017023086547851562,0.024382229894399643
1778948675940916200,17.363916259765624,-0.03153634071350098,-0.016092300415039062,0.005491368472576141
1778948675957246700,17.380246826171874,-0.04649794101715088,0.007771492004394531,0.015404431149363518
1778948675973577500,17.396577392578124,-0.013829946517944336,0.007747650146484375,0.02992742508649826
1778948675989908000,17.412907958984373,0.06227552890777588,0.0023136138916015625,0.011455854400992393
1778948676006251300,17.429251220703126,0.06623852252960205,0.017180442810058594,-0.007365424185991287
1778948676022571500,17.445571533203125,0.01307833194732666,0.0027055740356445312,-0.017139358446002007
1778948676038896600,17.461896728515626,-0.026870369911193848,0.0025272369384765625,-0.0024219397455453873
1778948676055229400,17.4782294921875,-0.05295044183731079,-0.007212638854980469,0.02633052133023739
1778948676071560200,17.494560302734374,-0.04393279552459717,-0.01684284210205078,0.05023389309644699
1778948676087890700,17.510890625,-0.005950570106506348,-0.012089729309082031,0.03096267394721508
1778948676104221000,17.527220947265626,0.0032407045364379883,-0.02170276641845703,0.00223623588681221
1778948676120548000,17.543548095703127,-0.0022957324981689453,0.021286964416503906,0.00255374051630497
1778948676136901600,17.559901611328126,-0.017453789710998535,0.0020589828491210938,0.012287290766835213
1778948676153226500,17.5762265625,0.020292282104492188,0.011570930480957031,0.003199305385351181
1778948676169539600,17.59253955078125,0.04866588115692139,0.02110576629638672,-0.006262931972742081
1778948676185873000,17.608872802734375,0.043348073959350586,-0.0028791427612304688,-0.01575908623635769
1778948676202202000,17.6252021484375,0.028663158416748047,-0.03169441223144531,-0.04426509141921997
1778948676218534100,17.6415341796875,-0.011792540550231934,0.01120758056640625,-0.020461445674300194
1778948676234864600,17.65786474609375,-0.03608846664428711,0.015888214111328125,-0.005622990429401398
1778948676251195100,17.674195068359374,0.034757137298583984,0.0008983612060546875,0.004689760506153107
1778948676267541800,17.690541748046876,0.04409158229827881,-0.018271446228027344,0.0001552533358335495
1778948676283869400,17.706869384765625,0.029471516609191895,-0.008193016052246094,-0.013897333294153214
1778948676300205600,17.72320556640625,-0.00608217716217041,0.0012187957763671875,-0.009281584993004799
1778948676316497400,17.739497314453125,-0.021419644355773926,-0.013243675231933594,0.005512138828635216
1778948676332845800,17.755845703125,-0.03578948974609375,-0.022879600524902344,0.0014123711735010147
1778948676349177600,17.772177490234377,-0.012637138366699219,0.0010290145874023438,0.016170719638466835
1778948676365495600,17.78849560546875,0.025222301483154297,0.015338897705078125,0.021657772362232208
1778948676381838300,17.80483837890625,0.04868924617767334,0.015289306640625,0.007175996899604797
1778948676398158300,17.821158447265624,0.028815746307373047,0.005637168884277344,0.0020930208265781403
1778948676414500000,17.8375,-0.009823203086853027,-0.023180007934570312,-0.022532520815730095
1778948676430830000,17.853830078125,-0.034536123275756836,-0.013693809509277344,-0.01757146045565605
1778948676447160300,17.870160400390624,-0.04474306106567383,-0.00412750244140625,0.011232458055019379
1778948676463478800,17.886478759765627,-0.01557016372680664,0.015064239501953125,0.011142117902636528
1778948676479821600,17.902821533203124,0.05687761306762695,-0.008790969848632812,-0.0028247684240341187
1778948676496169500,17.91916943359375,0.06692838668823242,-0.008803367614746094,-0.0551113560795784
1778948676512478700,17.935478759765626,0.04161965847015381,0.010190010070800781,-0.039999254047870636
1778948676528812300,17.951812255859377,-0.017403721809387207,0.005230903625488281,-0.011304421350359917
1778948676545143000,17.96814306640625,0.020282626152038574,-0.023550033569335938,-0.019977835938334465
1778948676561466600,17.984466552734375,-0.013040900230407715,-0.0043849945068359375,-0.024851225316524506
1778948676577804000,18.000803955078126,-0.022460103034973145,-0.0091552734375,-0.019523542374372482
1778948676594134800,18.017134765625,-0.008176803588867188,0.0004100799560546875,-0.004898512735962868
1778948676610481700,18.033481689453126,0.005568981170654297,-0.00916290283203125,0.00024293642491102219
1778948676626792400,18.04979248046875,-0.004216313362121582,-0.013970375061035156,0.010402165353298187
1778948676643139800,18.066139892578125,-0.028478384017944336,0.019492149353027344,0.034768640995025635
1778948676659474000,18.082473876953124,-0.01418757438659668,0.005126953125,0.05412902683019638
1778948676675799300,18.09879931640625,0.01456141471862793,0.009320259094238281,0.035636402666568756
1778948676692129300,18.11512939453125,0.00980675220489502,0.019494056701660156,0.006906156428158283
1778948676708460800,18.131460693359376,-0.009333968162536621,-0.00928497314453125,-0.00319463387131691
1778948676724779500,18.147779541015623,-0.043628811836242676,0.0049839019775390625,0.001783677376806736
1778948676741116000,18.164115966796874,-0.04388141632080078,-0.018972396850585938,-0.007646988146007061
1778948676757439200,18.180439208984374,-0.02011394500732422,-0.014204025268554688,-0.007462216541171074
1778948676773772500,18.1967724609375,-0.011171817779541016,0.000148773193359375,0.002158484421670437
1778948676790100000,18.213099853515626,-0.00669550895690918,0.00011539459228515625,0.00688419584184885
1778948676806430700,18.2294306640625,0.026512742042541504,0.0048675537109375,0.012089705094695091
1778948676822760700,18.2457607421875,0.016706466674804688,0.014412879943847656,0.021302273496985435
1778948676839089700,18.262089599609375,-0.031202077865600586,0.00962066650390625,0.006076987832784653
1778948676855439600,18.278439697265625,-0.0160369873046875,-0.004711151123046875,-0.003996287472546101
1778948676871766300,18.294766357421874,-0.010998129844665527,-0.019041061401367188,-0.00914826150983572
1778948676888079000,18.3110791015625,-0.020382404327392578,-0.009449958801269531,-0.014104645699262619
1778948676904402000,18.32740185546875,0.01763784885406494,0.014513969421386719,-0.004134830087423325
1778948676920739800,18.34373974609375,0.0322948694229126,0.014545440673828125,0.00518590584397316
1778948676937077500,18.360077392578123,0.042002320289611816,-0.004581451416015625,-0.004692653194069862
1778948676953404700,18.37640478515625,0.03203284740447998,0.00015926361083984375,-0.0144566111266613
1778948676969734000,18.39273388671875,0.01684439182281494,-0.004717826843261719,-0.005010157823562622
1778948676986082300,18.409082275390624,-0.011537790298461914,-0.014318466186523438,-0.020207667723298073
1778948677002392000,18.42539208984375,-0.0019173622131347656,0.00004291534423828125,-0.010922014713287354
1778948677018726400,18.441726318359375,-0.011090517044067383,0.004872322082519531,-0.025457289069890976
1778948677035056400,18.458056396484373,0.013551592826843262,-0.004620552062988281,-0.025130102410912514
1778948677051387600,18.4743876953125,0.03689396381378174,0.00495147705078125,-0.025347910821437836
1778948677067715300,18.49071533203125,0.022305965423583984,0.009710311889648438,-0.025513095781207085
1778948677084051000,18.507051025390624,0.01307213306427002,-0.019031524658203125,-0.030352532863616943
1778948677100389400,18.523389404296875,0.012115478515625,-0.0047130584716796875,-0.020645588636398315
1778948677116742000,18.539741943359374,-0.03133070468902588,-0.009540557861328125,-0.0021509137004613876
1778948677133036000,18.5560361328125,-0.00716853141784668,-0.009514808654785156,-0.012204308062791824
1778948677149370000,18.5723701171875,0.02207505702972412,-0.004672050476074219,-0.021452797576785088
1778948677165700000,18.5887001953125,-0.0015919208526611328,0.0049266815185546875,-0.017496615648269653
1778948677182030800,18.60503076171875,-0.011105775833129883,-0.004638671875,-0.013016486540436745
1778948677198361000,18.621361083984375,-0.011132597923278809,-0.009427070617675781,0.0008937232196331024
1778948677214678800,18.6376787109375,-0.006022453308105469,-0.009392738342285156,-0.00895092636346817
1778948677231037400,18.654037353515626,-0.015051126480102539,0.0050220489501953125,-0.004536870867013931
1778948677247367200,18.6703671875,0.0044738054275512695,0.0050640106201171875,0.009949322789907455
1778948677263696600,18.686696533203126,0.023821592330932617,0.009870529174804688,-0.0002715941518545151
1778948677280007200,18.703007080078127,0.019137144088745117,-0.01883220672607422,-0.010262710973620415
1778948677296355800,18.71935595703125,-0.00024175643920898438,-0.0045032501220703125,-0.006368802860379219
1778948677312673000,18.735673095703124,-0.005136609077453613,0.000270843505859375,-0.006646838039159775
1778948677329018600,18.7520185546875,-0.014438390731811523,0.0002994537353515625,0.007230622693896294
1778948677345332000,18.76833203125,-0.009225845336914062,0.009914398193359375,0.01151721365749836
1778948677361664300,18.784664306640625,0.01032710075378418,0.005173683166503906,0.021111922338604927
1778948677377983000,18.80098291015625,0.0058367252349853516,-0.009150505065917969,-0.018393294885754585
1778948677394326500,18.817326416015625,0.0064917802810668945,-0.009146690368652344,-0.03321215882897377
1778948677410657300,18.8336572265625,-0.031798720359802246,-0.013932228088378906,-0.02351837046444416
1778948677426987500,18.849987548828125,-0.032469987869262695,-0.004367828369140625,0.01490858569741249
1778948677443317800,18.86631787109375,-0.01771366596221924,-0.013896942138671875,0.04356807842850685
1778948677459648300,18.882648193359376,0.011505365371704102,0.005299568176269531,0.0246445145457983
1778948677475978800,18.898978759765626,-0.002645134925842285,0.019678115844726562,0.01948552019894123
1778948677492306200,18.91530615234375,0.002110004425048828,0.019675254821777344,0.01886776089668274
1778948677508639200,18.93163916015625,-0.01729738712310791,0.0005006790161132812,0.012619692832231522
1778948677524970200,18.94797021484375,-0.02225792407989502,-0.01866436004638672,0.007035030052065849
1778948677541300500,18.964300537109374,-0.04082512855529785,-0.02823925018310547,-0.0029493682086467743
1778948677557631200,18.98063134765625,-0.05996346473693848,-0.018667221069335938,0.006134558469057083
1778948677573961700,18.996961669921873,-0.04102456569671631,0.0005140304565429688,0.015031080693006516
1778948677590299400,19.01329931640625,0.021668434143066406,0.0005655288696289062,0.01007005199790001
1778948677606632700,19.0296328125,0.0273129940032959,0.010229110717773438,0.0046494025737047195
1778948677622966500,19.045966552734374,0.013100981712341309,0.010243415832519531,0.008779570460319519
1778948677639303400,19.062303466796877,-0.0016820430755615234,0.014979362487792969,0.0033144839107990265
1778948677655628000,19.0786279296875,-0.016296863555908203,-0.004192352294921875,-0.0215730182826519
1778948677671955000,19.094954833984374,-0.025083541870117188,0.005397796630859375,-0.026443742215633392
1778948677688290300,19.111290283203125,-0.011034131050109863,0.005429267883300781,-0.0168633870780468
1778948677704601900,19.127601806640627,0.027643918991088867,-0.004096031188964844,-0.006510872393846512
1778948677720945000,19.14394482421875,0.046776652336120605,0.015044212341308594,-0.0014539174735546112
1778948677737276400,19.1602763671875,0.012813329696655273,0.019781112670898438,0.0035205967724323273
1778948677753622000,19.1766220703125,-0.0022118091583251953,0.014921188354492188,0.017790991812944412
1778948677769938400,19.1929384765625,-0.02705228328704834,-0.013892173767089844,0.012223832309246063
1778948677786271000,19.20927099609375,-0.04161393642425537,-0.03312492370605469,-0.021325096487998962
1778948677802600000,19.225599853515625,-0.0514148473739624,-0.023575782775878906,-0.016222532838582993
1778948677818932700,19.2419326171875,-0.07511752843856812,-0.013978958129882812,-0.016162928193807602
1778948677835255600,19.258255615234376,-0.04657268524169922,0.009997367858886719,0.023023324087262154
1778948677851591400,19.27459130859375,0.011570215225219727,0.0005044937133789062,0.02355019561946392
1778948677867906300,19.29090625,0.031029820442199707,0.014894485473632812,-0.005275063216686249
1778948677884230400,19.30723046875,0.016463518142700195,0.019659042358398438,-0.014789342880249023
1778948677900567800,19.32356787109375,-0.008645296096801758,0.0051727294921875,-0.005786145105957985
1778948677916903700,19.339903564453124,-0.03795146942138672,-0.02367115020751953,-0.005669493228197098
1778948677933230300,19.356230224609376,-0.02979755401611328,-0.009404182434082031,0.02335836924612522
1778948677949562000,19.37256201171875,-0.03958868980407715,-0.004641532897949219,0.042829565703868866
1778948677965892400,19.388892333984376,0.013237595558166504,-0.00940704345703125,0.028868233785033226
1778948677982222800,19.405222900390626,0.036923766136169434,-0.0046482086181640625,0.009597597643733025
1778948677998553000,19.421552978515624,0.017087697982788086,-0.0005369186401367188,0.019155733287334442
1778948678014870800,19.437870849609375,-0.012244820594787598,0.009563446044921875,0.008848823606967926
1778948678031214000,19.454214111328124,-0.0074918270111083984,0.009558677673339844,-0.01980101875960827
1778948678047544800,19.470544921875,-0.007381319999694824,0.0143585205078125,-0.014655770733952522
1778948678063875600,19.48687548828125,0.01619243621826172,0.01432037353515625,0.01019342802464962
1778948678080204800,19.503204833984373,0.0251767635345459,-0.01445770263671875,-0.004174618050456047
1778948678096553200,19.51955322265625,0.048403263092041016,-0.01453399658203125,-0.032681792974472046
1778948678112879900,19.5358798828125,0.009549140930175781,-0.009809494018554688,-0.027324872091412544
1778948678129208600,19.55220849609375,-0.005350470542907715,0.009273529052734375,0.01613740436732769
1778948678145541600,19.568541748046876,-0.01480412483215332,-0.005069732666015625,0.025227140635252
1778948678161872000,19.584871826171874,0.019260764122009277,-0.005005836486816406,0.011508466675877571
1778948678178201600,19.60120166015625,0.014873862266540527,0.014179229736328125,-0.012277670204639435
1778948678194531300,19.61753125,0.01961517333984375,0.0141754150390625,-0.011932684108614922
1778948678210865400,19.633865478515624,0.0287783145904541,0.009346961975097656,-0.0018418710678815842
1778948678227194000,19.650194091796877,0.023619651794433594,-0.009835243225097656,-0.020254718139767647
1778948678243492600,19.66649267578125,0.013811469078063965,-0.0002880096435546875,-0.00962800532579422
1778948678259854000,19.68285400390625,-0.010546445846557617,0.01881122589111328,0.039150260388851166
1778948678276169000,19.6991689453125,-0.025228500366210938,0.00441741943359375,0.05801272764801979
1778948678292513800,19.715513671875,-0.001353621482849121,-0.014729499816894531,0.03458944335579872
1778948678308845800,19.731845703125,0.0032923221588134766,-0.024315834045410156,0.005283208563923836
1778948678325174300,19.74817431640625,-0.025025606155395508,-0.014766693115234375,-0.0184163898229599
1778948678341493800,19.76449365234375,-0.034534335136413574,-0.009974479675292969,-0.013355925679206848
1778948678357819600,19.780819580078123,-0.0059316158294677734,0.004436492919921875,-0.007746078073978424
1778948678374167800,19.797167724609373,0.023966312408447266,0.023711204528808594,-0.012148438021540642
1778948678390481700,19.813481689453123,0.03932082653045654,0.014249801635742188,-0.0022289492189884186
