time,seconds_elapsed,z,y,x
1778948658720403200,0.1434033203125,0.19257527589797974,-0.48838675022125244,0.31123584508895874
1778948658736736500,0.159736572265625,0.1944078654050827,-0.6163630485534668,0.1992947906255722
1778948658753084000,0.176083984375,0.2018909603357315,-0.6953173875808716,0.03329215571284294
1778948658769410600,0.19241064453125,0.19853121042251587,-0.6982190012931824,-0.08888089656829834
1778948658785741600,0.208741455078125,0.2816088795661926,-0.6901249885559082,0.04657847434282303
1778948658802070300,0.2250703125,0.3608686327934265,-0.5120577812194824,0.31383201479911804
1778948658818402000,0.241402099609375,0.3859141170978546,-0.3220787048339844,0.4834998548030853
1778948658834729500,0.2577294921875,0.45142942667007446,-0.19608774781227112,0.5595525503158569
1778948658851083800,0.274083740234375,0.3962988257408142,-0.6244570016860962,0.4063780903816223
1778948658867406800,0.29040673828125,0.5264131426811218,-0.49037206172943115,0.194713294506073
1778948658883727000,0.30672705078125,0.6316346526145935,-0.23686300218105316,0.00855211354792118
1778948658900054300,0.32305419921875,0.6516404747962952,-0.08796459436416626,-0.2002110779285431
1778948658916372500,0.33937255859375,0.6835582256317139,-0.037110064178705215,-0.3494149148464203
1778948658932715800,0.3557158203125,0.7160868048667908,-0.12980885803699493,-0.32070425152778625
1778948658949033200,0.372033203125,0.6792821288108826,-0.27382034063339233,-0.10873401165008545
1778948658965376800,0.388376708984375,0.5609270334243774,-0.4054618179798126,0.26145032048225403
1778948658981702400,0.404702392578125,0.4697553813457489,-0.4528038501739502,0.7298312783241272
1778948658998037800,0.421037841796875,0.3269656300544739,-0.18570303916931152,1.0514518022537231
1778948659014368800,0.43736865234375,0.05390885844826698,0.11133018881082535,1.0569496154785156
1778948659030699000,0.453698974609375,-0.12538009881973267,0.1592831164598465,0.846659243106842
1778948659047046100,0.470046142578125,-0.17898350954055786,-0.10155634582042694,0.5427537560462952
1778948659063373600,0.48637353515625,-0.17516560852527618,-0.3393356502056122,0.28496864438056946
1778948659079687200,0.502687255859375,-0.1293507218360901,-0.35246923565864563,0.17333301901817322
1778948659096006100,0.519006103515625,-0.0835358202457428,-0.0734565481543541,0.15393804013729095
1778948659112352000,0.53535205078125,-0.07971791177988052,0.11972958594560623,0.17989981174468994
1778948659128682200,0.55168212890625,-0.06505715101957321,0.050854530185461044,0.2681698501110077
1778948659145002200,0.568002197265625,-0.018936822190880775,-0.1385136991739273,0.41340306401252747
1778948659161346300,0.58434619140625,0.04535674303770065,-0.33276882767677307,0.5780312418937683
1778948659177691000,0.60069091796875,0.06123924255371094,-0.3579670190811157,0.6301075220108032
1778948659194009900,0.617009765625,-0.026419922709465027,-0.16829337179660797,0.4853324294090271
1778948659210345500,0.633345458984375,-0.12431107461452484,0.2064724564552307,0.20357084274291992
1778948659226652000,0.64965185546875,-0.1560760736465454,0.5044219493865967,-0.15393804013729095
1778948659242990000,0.665989990234375,-0.12049316614866257,0.5532912015914917,-0.49037206172943115
1778948659259312600,0.682312744140625,-0.056810468435287476,0.42699480056762695,-0.7011205554008484
1778948659275657000,0.698656982421875,-0.08735372871160507,0.3153591752052307,-0.6995934247970581
1778948659291974100,0.71497412109375,-0.16340644657611847,0.22815817594528198,-0.471129834651947
1778948659308317700,0.731317626953125,-0.19837848842144012,0.21074850857257843,-0.18020524084568024
1778948659324648700,0.747648681640625,-0.18341228365898132,0.1716531366109848,0.054367005825042725
1778948659340975000,0.76397509765625,-0.13041973114013672,0.10949759185314178,0.1693623960018158
1778948659357309200,0.78030908203125,-0.0757472887635231,0.10797043144702911,0.16951510310173035
1778948659373640200,0.79664013671875,-0.015271631069481373,0.054825156927108765,0.12492194026708603
1778948659389970000,0.812969970703125,0.04963280260562897,-0.028557950630784035,0.1267545372247696
1778948659406294500,0.82929443359375,0.05192354694008827,-0.08903361111879349,0.17150041460990906
1778948659422631400,0.84563134765625,-0.030085112899541855,-0.13866640627384186,0.2597704529762268
1778948659438960400,0.86196044921875,-0.12263119965791702,-0.19257527589797974,0.3767511546611786
1778948659455289300,0.878289306640625,-0.2154827117919922,-0.3202461004257202,0.46822822093963623
1778948659471626000,0.8946259765625,-0.2194533348083496,-0.49724429845809937,0.5803219676017761
1778948659487956700,0.910956787109375,-0.12599095702171326,-0.589790403842926,0.7139487266540527
1778948659504267800,0.927267822265625,0.01725694350898266,-0.49296826124191284,0.8263479471206665
1778948659520616700,0.94361669921875,0.21212296187877655,-0.3205515444278717,0.8822421431541443
1778948659536929000,0.959928955078125,0.4063780903816223,-0.47448956966400146,0.9318749308586121
1778948659553275400,0.976275390625,0.5201517343521118,-0.9353874325752258,0.9856310486793518
1778948659569592800,0.9925927734375,0.7240280508995056,-1.795332908630371,1.1287262439727783
1778948659585936100,1.00893603515625,0.669355571269989,-2.1934642791748047,1.2250902652740479
1778948659602259500,1.025259521484375,0.8472700715065002,-1.7230981588363647,1.0971139669418335
1778948659618602000,1.04160205078125,0.7313584089279175,-1.3530665636062622,0.3263547718524933
1778948659634945000,1.057945068359375,0.9674578309059143,-1.1711814403533936,-0.3995058834552765
1778948659651272200,1.074272216796875,1.718363881111145,-1.4106405973434448,-0.6597344875335693
1778948659667603200,1.090603271484375,1.9301815032958984,-2.2928826808929443,-0.6062837839126587
1778948659683939300,1.106939208984375,1.7870862483978271,-3.629761219024658,-0.3452915847301483
1778948659700260400,1.12326025390625,1.6760615110397339,-4.369519233703613,-0.06750060617923737
1778948659716580900,1.139580810546875,1.9188804626464844,-4.052785396575928,-0.050243668258190155
1778948659732910800,1.155910888671875,2.0231857299804688,-3.811035633087158,-0.361174076795578
1778948659749241300,1.172241455078125,2.23286509513855,-3.886477470397949,-0.5960517525672913
1778948659765569000,1.188569091796875,2.8710665702819824,-3.7369680404663086,-0.49877145886421204
1778948659781905400,1.204905517578125,3.565009593963623,-2.5503623485565186,-0.3410155177116394
1778948659798218800,1.22121875,3.7342193126678467,0.2565633952617645,-0.8087855577468872
1778948659814566000,1.23756591796875,3.5935676097869873,2.9136745929718018,-1.8985692262649536
1778948659830904600,1.253904541015625,3.2753067016601562,3.63693904876709,-2.883742094039917
1778948659847213600,1.270213623046875,2.5758659839630127,3.354871988296509,-2.9332222938537598
1778948659863569700,1.286569580078125,1.9675970077514648,2.4801127910614014,-2.176970958709717
1778948659879906600,1.302906494140625,1.6363552808761597,1.4833335876464844,-1.059393048286438
1778948659896222200,1.31922216796875,1.3657419681549072,0.7005097270011902,-0.3943135142326355
1778948659912543200,1.335543212890625,1.2568552494049072,0.30543261766433716,-0.07422012835741043
1778948659928874000,1.3518740234375,1.0109820365905762,0.3459024429321289,-0.1394299864768982
1778948659945194000,1.368194091796875,0.6858489513397217,0.588874101638794,-0.3300199508666992
1778948659961538800,1.384538818359375,0.3065016269683838,0.9940304756164551,-0.4940372705459595
1778948659977868500,1.40086865234375,-0.018325956538319588,1.2976305484771729,-0.5705481171607971
1778948659994199300,1.41719921875,-0.1595885455608368,1.264796495437622,-0.47998735308647156
1778948660010528500,1.433528564453125,-0.24373523890972137,0.8301658630371094,-0.230448916554451
1778948660026863900,1.44986376953125,-0.28588494658470154,0.26542094349861145,0.09575312584638596
1778948660043204900,1.466204833984375,-0.37308594584465027,-0.1316414624452591,0.2932153046131134
1778948660059505400,1.48250537109375,-0.38347065448760986,-0.08002334833145142,0.27259862422943115
1778948660075858200,1.498858154296875,-0.1820378452539444,0.23976461589336395,0.033139441162347794
1778948660092187600,1.515187744140625,-0.0910189226269722,0.7467827796936035,-0.2629774808883667
1778948660108522800,1.531522705078125,-0.26801711320877075,0.6053674817085266,-0.2681698501110077
1778948660124831000,1.5478310546875,-0.3729332387447357,0.5287038683891296,-0.2845104932785034
1778948660141172500,1.56417236328125,-0.5013676285743713,0.5975789427757263,-0.3507893681526184
1778948660157491500,1.580491455078125,-0.7866417169570923,0.7583891749382019,-0.3149010241031647
1778948660173834800,1.596834716796875,-0.9427177906036377,0.7658722996711731,-0.2952006161212921
1778948660190152200,1.613152099609375,-0.9329439401626587,0.697760820388794,-0.365755558013916
1778948660206496000,1.62949609375,-0.9825767278671265,0.8229882121086121,-0.3851505517959595
1778948660222826500,1.645826416015625,-1.003804326057434,0.9112582206726074,-0.3488040566444397
1778948660239156700,1.66215673828125,-1.0222829580307007,0.9408851861953735,-0.2814561724662781
1778948660255487700,1.67848779296875,-0.9752463698387146,0.8959866166114807,-0.22800545394420624
1778948660271816400,1.69481640625,-0.9053022861480713,0.7764097452163696,-0.15347988903522491
1778948660288145000,1.711144775390625,-0.8523097038269043,0.6039929986000061,-0.09285151958465576
1778948660304477400,1.7274775390625,-0.8017606139183044,0.46700647473335266,-0.016493361443281174
1778948660320810000,1.74381005859375,-0.7562511563301086,0.40714168548583984,0.020616702735424042
1778948660337140000,1.760139892578125,-0.6772968173027039,0.42439863085746765,0.03145955875515938
1778948660353470500,1.776470458984375,-0.5720753073692322,0.4521929919719696,0.044287730008363724
1778948660369793500,1.79279345703125,-0.4889976382255554,0.38698312640190125,0.07467827945947647
1778948660386141700,1.8091416015625,-0.4173736870288849,0.24373523890972137,0.0682641938328743
1778948660402463500,1.82546337890625,-0.3361285924911499,0.14553864300251007,0.05849034711718559
1778948660418787600,1.84178759765625,-0.30085113644599915,0.1137736514210701,0.07635815441608429
1778948660435122700,1.858122802734375,-0.29046642780303955,0.11163562536239624,0.09972374886274338
1778948660451453700,1.87445361328125,-0.2817615866661072,0.12538009881973267,0.06627888232469559
1778948660467771100,1.890771240234375,-0.2669481039047241,0.16569720208644867,-0.01237002108246088
1778948660484114000,1.907114013671875,-0.25595253705978394,0.18249599635601044,-0.07971791177988052
1778948660500431000,1.92343115234375,-0.2506074607372284,0.1849394589662552,-0.07681630551815033
1778948660516775000,1.93977490234375,-0.23121249675750732,0.1420261710882187,-0.02626720629632473
1778948660533128200,1.956128173828125,-0.17027868330478668,0.08552113175392151,0.03481931984424591
1778948660549462300,1.972462158203125,-0.12751811742782593,0.004581489134579897,0.06444628536701202
1778948660565786400,1.988786376953125,-0.13790282607078552,-0.07513642311096191,0.07910704612731934
1778948660582089500,2.00508935546875,-0.1359175145626068,-0.07284568250179291,0.05467243865132332
1778948660598428000,2.021427978515625,-0.11285735666751862,-0.008399397134780884,-0.009162978269159794
1778948660614758700,2.037758544921875,-0.07254024595022202,0.06994406878948212,-0.039095375686883926
1778948660631089200,2.054089111328125,-0.02779436856508255,0.07666359096765518,-0.03741549700498581
1778948660647419100,2.070419189453125,-0.011453723534941673,0.036193765699863434,-0.013591751456260681
1778948660663750700,2.086750732421875,-0.02275473065674305,0.0013744467869400978,0.01710422709584236
1778948660680084200,2.103084228515625,-0.028557950630784035,0.0025961773935705423,0.04092797264456749
1778948660696406800,2.11940673828125,-0.02535090781748295,0.006719517521560192,0.07147123664617538
1778948660712745000,2.135744873046875,-0.005955935921519995,-0.010079276748001575,0.09728029370307922
1778948660729075700,2.15207568359375,0.009773843921720982,-0.019547687843441963,0.08399397134780884
1778948660745399300,2.1683994140625,0.013133603148162365,-0.03191770985722542,0.044745877385139465
1778948660761733000,2.184733154296875,0.01725694350898266,-0.046731192618608475,0.015882495790719986
1778948660778050300,2.20105029296875,0.01771509274840355,-0.04841107130050659,-0.01160643994808197
1778948660794394400,2.217394287109375,0.0032070425804704428,-0.03756821155548096,-0.02886338345706463
1778948660810717200,2.23371728515625,-0.02076941914856434,-0.012217304669320583,0.00045814894838258624
1778948660827069200,2.250069091796875,-0.014966198243200779,0.004886921960860491,0.048258353024721146
1778948660843393800,2.266393798828125,0.018936822190880775,-0.006108652334660292,0.07849618047475815
1778948660859731000,2.28273095703125,0.048258353024721146,-0.04749477282166481,0.08475755155086517
1778948660876061000,2.29906103515625,0.06291911751031876,-0.08811730891466141,0.0705549344420433
1778948660892390700,2.315390625,0.046273041516542435,-0.08185594528913498,0.033597588539123535
1778948660908720400,2.331720458984375,0.004123340360820293,-0.03237585723400116,0.00931569468230009
1778948660925032000,2.348031982421875,-0.019394971430301666,0.007788531947880983,0.0009162978967651725
1778948660941369300,2.364369384765625,-0.01725694350898266,0.008246680721640587,0.01710422709584236
1778948660957699000,2.380698974609375,-0.004428773187100887,-0.02779436856508255,0.0507018156349659
1778948660974029800,2.39702978515625,0,-0.058948494493961334,0.057879481464624405
1778948660990360300,2.4133603515625,0.006719517521560192,-0.047800205647945404,0.02626720629632473
1778948661006688000,2.42968798828125,0.01710422709584236,-0.03726277872920036,-0.008704829961061478
1778948661023011000,2.446010986328125,0.001832595793530345,-0.02977968007326126,0.003054326167330146
1778948661039364600,2.462364501953125,-0.001527163083665073,-0.022449297830462456,0.025503624230623245
1778948661055681500,2.478681640625,0.013897184282541275,-0.029168816283345222,0.014049900695681572
1778948661072027100,2.495027099609375,0.015577063895761967,-0.03894266113638878,-0.00045814894838258624
1778948661088338700,2.511338623046875,0.020616702735424042,-0.07528914511203766,0.010231993161141872
1778948661104678100,2.52767822265625,0.029932396486401558,-0.10323622822761536,0.039248090237379074
1778948661121017900,2.544017822265625,0.04230241850018501,-0.08811730891466141,0.049785517156124115
1778948661137349000,2.56034912109375,0.04352414980530739,-0.02428189292550087,0.02367102913558483
1778948661153678800,2.576678955078125,0.027488935738801956,0.020616702735424042,-0.015271631069481373
1778948661170010400,2.59301025390625,0.0007635815418325365,0.025045474991202354,-0.03405573591589928
1778948661186323200,2.6093232421875,-0.013286318629980087,0.003817907767370343,-0.02428189292550087
1778948661202657000,2.625656982421875,0.007788531947880983,-0.01771509274840355,-0.00931569468230009
1778948661218987300,2.6419873046875,0.027183502912521362,-0.044745877385139465,0.0022907445672899485
1778948661235318000,2.658318115234375,0.031154127791523933,-0.05513058975338936,0.014202617108821869
1778948661251648500,2.6746484375,0.04657847434282303,-0.059864792972803116,0.017409659922122955
1778948661267979300,2.690979248046875,0.06398813426494598,-0.08460483700037003,0.016340645030140877
1778948661284295200,2.707295166015625,0.08170322328805923,-0.15454891324043274,0.03039054572582245
1778948661300631800,2.7236318359375,0.07590000331401825,-0.1774563491344452,0.059864792972803116
1778948661316967400,2.739967529296875,0.08048149943351746,-0.1508837193250656,0.06688974797725677
1778948661333304300,2.75630419921875,0.08536841720342636,-0.1362229436635971,0.059864792972803116
1778948661349631000,2.772630859375,0.09453139454126358,-0.15027284622192383,0.04902193695306778
1778948661365974000,2.78897412109375,0.09697485715150833,-0.14782938361167908,0.027183502912521362
1778948661382288400,2.805288330078125,0.07880161702632904,-0.15943582355976105,0.008857546374201775
1778948661398617900,2.821617919921875,0.06887505948543549,-0.1944078654050827,0.01160643994808197
1778948661414966300,2.83796630859375,0.07208210229873657,-0.20036379992961884,0.01114829070866108
1778948661431278600,2.854278564453125,0.05513058975338936,-0.15347988903522491,-0.008246680721640587
1778948661447614700,2.87061474609375,0.021380282938480377,-0.07024950534105301,-0.04199698567390442
1778948661463937500,2.8869375,-0.019394971430301666,-0.0029016099870204926,-0.0708603709936142
1778948661480274000,2.90327392578125,-0.029474247246980667,0.027488935738801956,-0.08231408894062042
1778948661496606200,2.919606201171875,-0.01863138936460018,0.04138612002134323,-0.08200865983963013
1778948661512936700,2.935936767578125,-0.008857546374201775,0.04459316283464432,-0.06719517707824707
1778948661529270800,2.952270751953125,-0.008399397134780884,0.05696318298578262,-0.043676864355802536
1778948661545593600,2.968593505859375,-0.01618792861700058,0.07254024595022202,-0.01725694350898266
1778948661561942800,2.98494287109375,-0.032528575509786606,0.0731511116027832,-0.00045814894838258624
1778948661578272300,3.001272216796875,-0.04612032696604729,0.047800205647945404,0.01160643994808197
1778948661594599400,3.017599365234375,-0.046731192618608475,0.013133603148162365,0.012217304669320583
1778948661610920200,3.033920166015625,-0.028405234217643738,0.0006108652451075613,0.004123340360820293
1778948661627264300,3.05026416015625,-0.013897184282541275,-0.01817324012517929,0.019089538604021072
1778948661643572500,3.066572509765625,-0.007635815534740686,-0.02168571576476097,0.04856378585100174
1778948661659927800,3.082927734375,-0.018325956538319588,-0.001527163083665073,0.04153883829712868
1778948661676240400,3.099240478515625,-0.023518312722444534,0.02779436856508255,0.005955935921519995
1778948661692569300,3.1155693359375,-0.03726277872920036,0.02382374368607998,-0.021532999351620674
1778948661708893000,3.131892822265625,-0.0455094613134861,-0.007024950347840786,-0.008704829961061478
1778948661725233200,3.148233154296875,-0.03588833287358284,-0.021074850112199783,0.02122756652534008
1778948661741560600,3.164560546875,-0.012217304669320583,0.0074830991216003895,0.021991148591041565
1778948661757894000,3.180893798828125,0.002138028386980295,0.03878994286060333,0.019547687843441963
1778948661774211600,3.197211669921875,-0.00733038317412138,0.02229658141732216,0.013439035043120384
1778948661790573000,3.213572998046875,-0.02886338345706463,0.0010690141934901476,-0.006108652334660292
1778948661806893800,3.229893798828125,-0.03527746722102165,0.00733038317412138,-0.03894266113638878
1778948661823217000,3.246216796875,-0.040622539818286896,0.027641652151942253,-0.050854530185461044
1778948661839547000,3.262546875,-0.038179077208042145,0.02474004216492176,-0.017409659922122955
1778948661855877600,3.278877685546875,-0.026114489883184433,0.012064588256180286,0.02535090781748295
1778948661872205800,3.295205810546875,-0.009621127508580685,-0.006108652334660292,0.03588833287358284
1778948661888537900,3.311537841796875,0.00045814894838258624,-0.02122756652534008,0.024892758578062057
1778948661904854300,3.327854248046875,0.003817907767370343,-0.00045814894838258624,-0.0022907445672899485
1778948661921183500,3.34418359375,0.0029016099870204926,0.016340645030140877,-0.01542434748262167
1778948661937518000,3.36051806640625,-0.013439035043120384,0.011453723534941673,-0.004734205547720194
1778948661953862700,3.376862548828125,-0.013133603148162365,0.00931569468230009,0.017409659922122955
1778948661970188800,3.393188720703125,0.001679879380390048,0.014966198243200779,0.03573561832308769
1778948661986521000,3.40952099609375,0.010079276748001575,0.005650503560900688,0.03741549700498581
1778948662002850000,3.42585009765625,0.015882495790719986,-0.011453723534941673,0.028557950630784035
1778948662019182600,3.4421826171875,0.018325956538319588,-0.027641652151942253,0.03130684420466423
1778948662035530500,3.458530517578125,0.02535090781748295,-0.02825251780450344,0.019853120669722557
1778948662051856600,3.474856689453125,0.03344487398862839,-0.00427605677396059,0.007788531947880983
1778948662068206600,3.49120654296875,0.028099801391363144,-0.001679879380390048,0.018325956538319588
1778948662084503000,3.5075029296875,0.010995574295520782,-0.03344487398862839,0.03191770985722542
1778948662100843500,3.523843505859375,0.007635815534740686,-0.06123924255371094,0.023060163483023643
1778948662117166000,3.540166015625,0.0029016099870204926,-0.0656680166721344,-0.0019853119738399982
1778948662133495800,3.556495849609375,0.005803219974040985,-0.047800205647945404,-0.012980886735022068
1778948662149826300,3.572826416015625,0.026572637259960175,-0.042760565876960754,-0.01114829070866108
1778948662166156500,3.589156494140625,0.0529925599694252,-0.057879481464624405,0.013286318629980087
1778948662182487800,3.60548779296875,0.08048149943351746,-0.11453723162412643,0.04459316283464432
1778948662198817500,3.621817626953125,0.08552113175392151,-0.21013765037059784,0.06230825558304787
1778948662215148000,3.63814794921875,0.05513058975338936,-0.30802878737449646,0.05742133408784866
1778948662231478800,3.654478759765625,0.03039054572582245,-0.4115704596042633,0.0529925599694252
1778948662247793200,3.670793212890625,0.02886338345706463,-0.6215553879737854,0.0832303911447525
1778948662264136200,3.68713623046875,0.06459899991750717,-0.9732610583305359,0.17440202832221985
1778948662280484600,3.703484619140625,0.17150041460990906,-1.538158655166626,0.32528573274612427
1778948662296823000,3.719822998046875,0.3914119005203247,-2.33671236038208,0.5609270334243774
1778948662313143300,3.736143310546875,0.7093672752380371,-3.2948544025421143,0.8463537693023682
1778948662329475300,3.752475341796875,1.0894781351089478,-4.317901134490967,1.1606439352035522
1778948662345806300,3.768806396484375,1.5297592878341675,-4.621959209442139,1.4439327716827393
1778948662362136300,3.78513623046875,1.814269781112671,-5.086522102355957,1.7692184448242188
1778948662378466800,3.801466796875,2.0561723709106445,-5.349499702453613,2.1704041957855225
1778948662394798000,3.817798095703125,2.3545801639556885,-5.374850749969482,2.380847215652466
1778948662411127600,3.83412744140625,2.6371052265167236,-5.360342502593994,2.4161248207092285
1778948662427458800,3.850458740234375,2.772411823272705,-5.105459213256836,2.367713689804077
1778948662443773400,3.8667734375,2.6053402423858643,-4.729776859283447,2.472782611846924
1778948662460105700,3.883105712890625,2.236224889755249,-4.26017427444458,2.6610817909240723
1778948662476436200,3.899436279296875,1.9743164777755737,-3.6528215408325195,2.792112350463867
1778948662492766700,3.9157666015625,1.9743164777755737,-2.9709432125091553,2.777451515197754
1778948662509096000,3.932095947265625,2.116342544555664,-2.1279489994049072,2.5645649433135986
1778948662525428000,3.948427978515625,2.2116377353668213,-1.3025174140930176,2.1841487884521484
1778948662541758000,3.964758056640625,2.1363484859466553,-0.5346598029136658,1.679115891456604
1778948662558088400,3.98108837890625,1.7676912546157837,0.13836097717285156,1.2252429723739624
1778948662574445300,3.9974453125,1.29381263256073,0.5650503635406494,1.0302242040634155
1778948662590763500,4.013763427734375,0.9240863919258118,0.5861251950263977,1.0491610765457153
1778948662607076900,4.030076904296875,0.6145304441452026,-0.40882155299186707,1.1212431192398071
1778948662623411000,4.046410888671875,0.46929723024368286,-1.3949108123779297,1.226922869682312
1778948662639740000,4.062739990234375,0.4671591818332672,-0.770606517791748,1.1255191564559937
1778948662656071200,4.0790712890625,0.4836525619029999,0.470060795545578,0.6937901973724365
1778948662672402000,4.09540185546875,0.4356996417045593,0.5542075037956238,0.31123584508895874
1778948662688733000,4.11173291015625,0.46273043751716614,-0.11530081182718277,0.2955060601234436
1778948662705063400,4.1280634765625,0.5442809462547302,0.12064588814973831,0.32620203495025635
1778948662721393200,4.14439306640625,0.6088799238204956,0.7919867634773254,0.43967026472091675
1778948662737724000,4.160723876953125,0.513126790523529,1.1939361095428467,0.722959041595459
1778948662754054700,4.1770546875,0.460897833108902,1.3063353300094604,1.0118982791900635
1778948662770387700,4.1933876953125,0.579405665397644,1.3634512424468994,0.813825249671936
1778948662786730800,4.209730712890625,0.8301658630371094,0.4356996417045593,0.44287729263305664
1778948662803047200,4.226047119140625,1.2316570281982422,0.5028948187828064,0.11209376901388168
1778948662819390200,4.24239013671875,1.487609624862671,0.25335636734962463,0.08857546001672745
1778948662835707000,4.258706787109375,1.5057828426361084,-0.04459316283464432,0.26481008529663086
1778948662852035000,4.27503515625,1.3254249095916748,-0.12431107461452484,0.2719877362251282
1778948662868379100,4.291379150390625,1.0193814039230347,0.011453723534941673,-0.20693060755729675
1778948662884699000,4.307698974609375,0.9228646755218506,0.3634648323059082,-0.7189884185791016
1778948662901023700,4.324023681640625,0.8758280277252197,0.6097962260246277,-0.9434813857078552
1778948662917377000,4.340376953125,1.0140362977981567,0.2301434874534607,-1.0317513942718506
1778948662933704400,4.356704345703125,1.6076445579528809,-0.7802276611328125,-1.096961259841919
1778948662950028500,4.373028564453125,2.685516357421875,-2.253329277038574,-1.3179417848587036
1778948662966364400,4.389364501953125,3.0352365970611572,-3.0534098148345947,-0.9089674949645996
1778948662982711800,4.4057119140625,2.9156599044799805,-3.545156478881836,0.3197879493236542
1778948662999020300,4.422020263671875,2.3038783073425293,-3.540116786956787,1.0482447147369385
1778948663015346700,4.4383466796875,2.0751092433929443,-2.286774158477783,0.46670106053352356
1778948663031684400,4.454684326171875,1.703092336654663,-0.4375322461128235,-0.5010622143745422
1778948663048021500,4.471021484375,1.0031934976577759,0.3825543522834778,-0.8420777320861816
1778948663064317700,4.487317626953125,0.502436637878418,0.2922990322113037,-0.8355109095573425
1778948663080663600,4.50366357421875,0.37659841775894165,0.32940909266471863,-0.6751587986946106
1778948663096982300,4.519982177734375,0.44684791564941406,-0.11804971098899841,-0.5054910182952881
1778948663113325300,4.5363251953125,0.5966626405715942,-1.017396092414856,-0.18219055235385895
1778948663129656000,4.552656005859375,0.7379252314567566,-1.771051049232483,0.09178250283002853
1778948663145986300,4.568986328125,1.217454433441162,-1.6369661092758179,0.42210787534713745
1778948663162314500,4.585314453125,0.7930558323860168,-1.0118982791900635,0.14752395451068878
1778948663178649000,4.601649169921875,1.136362075805664,-0.20311269164085388,-0.2116648107767105
1778948663194978600,4.617978515625,1.3808609247207642,0.05253441259264946,-0.4205807149410248
1778948663211307300,4.634307373046875,1.3539828062057495,-0.0039706239476799965,-0.38988474011421204
1778948663227637500,4.650637451171875,1.332755208015442,-0.14355333149433136,-0.23365595936775208
1778948663243951000,4.666951171875,1.2739595174789429,-0.4024074673652649,-0.03145955875515938
1778948663260301600,4.683301513671875,1.3765848875045776,-0.45494189858436584,0.12767083942890167
1778948663276619000,4.699618896484375,1.4917329549789429,-0.2817615866661072,0.14569136500358582
1778948663292948500,4.715948486328125,1.5256359577178955,-0.07177666574716568,0.1437060534954071
1778948663309291500,4.73229150390625,1.344056248664856,-0.04230241850018501,0.05513058975338936
1778948663325622300,4.748622314453125,0.9744827747344971,-0.07009678333997726,-0.1290452778339386
1778948663341941000,4.76494091796875,0.6733261942863464,0.4248567819595337,-0.5308418869972229
1778948663358283800,4.78128369140625,0.479834645986557,0.8747590184211731,-0.9917397499084473
1778948663374614000,4.797614013671875,0.38667771220207214,1.2040153741836548,-1.0170906782150269
1778948663390944000,4.813944091796875,0.6534730792045593,1.0520626306533813,-0.6001750826835632
1778948663407275000,4.83027490234375,0.9474520087242126,0.327729195356369,-0.05146539583802223
1778948663423605500,4.84660546875,1.0729848146438599,-0.09224065393209457,0.2811507284641266
1778948663439935200,4.862935302734375,0.7631233930587769,0.49785518646240234,0.256868839263916
1778948663456269300,4.879269287109375,0.4069889783859253,1.0977247953414917,0.18631389737129211
1778948663472601000,4.89560107421875,0.1518000066280365,1.2814425230026245,0.20723603665828705
1778948663488934000,4.911933837890625,0.017409659922122955,0.9364564418792725,0.2545780837535858
1778948663505276400,4.9282763671875,0.08109235763549805,0.2866485118865967,0.29306259751319885
1778948663521592000,4.944592041015625,0.16890424489974976,-0.29993483424186707,0.22128593921661377
1778948663537927000,4.960927001953125,0.655458390712738,-0.4810563921928406,0.06062837690114975
1778948663554242000,4.977241943359375,0.9677632451057434,-0.6491970419883728,-0.007788531947880983
1778948663570593500,4.993593505859375,1.0850493907928467,-0.3500257730484009,-0.13744467496871948
1778948663586907000,5.009906982421875,1.0809260606765747,0.12370020896196365,-0.24190263450145721
1778948663603252000,5.026251953125,1.147357702255249,0.34865134954452515,-0.35674530267715454
1778948663619573200,5.0425732421875,1.1943942308425903,0.6369797587394714,-0.37980547547340393
1778948663635898400,5.0588984375,1.0103710889816284,0.9915869832038879,-0.3355177342891693
1778948663652216000,5.075216064453125,0.7281513810157776,1.0338894128799438,-0.39645153284072876
1778948663668562400,5.0915625,0.25992316007614136,0.6099489331245422,-0.5419901609420776
1778948663684893700,5.107893798828125,-0.33505958318710327,0.1319468915462494,-0.5916230082511902
1778948663701223200,5.12422314453125,-0.6136141419410706,-0.3442225754261017,-0.7357872128486633
1778948663717554200,5.14055419921875,-0.7255551815032959,-0.5818491578102112,-0.6058256030082703
1778948663733885200,5.15688525390625,-0.6348416805267334,-1.0502300262451172,-0.1973094791173935
1778948663750215400,5.17321533203125,-0.23396138846874237,-1.2568552494049072,0.19456058740615845
1778948663766548200,5.18954833984375,0.022143865004181862,-0.9999864101409912,0.37110063433647156
1778948663782888000,5.205887939453125,0.05849034711718559,-0.4973970353603363,0.3627012372016907
1778948663799207000,5.22220703125,0.15790866315364838,-0.24373523890972137,0.22770002484321594
1778948663815547400,5.23854736328125,0.15485434234142303,-0.18814650177955627,0.16691893339157104
1778948663831900700,5.254900634765625,0.17837265133857727,-0.47907108068466187,0.10613783448934555
1778948663848191500,5.27119140625,0.58062744140625,-0.9124799370765686,0.0910189226269722
1778948663864522500,5.2875224609375,1.5557210445404053,-1.9633208513259888,-0.4115704596042633
1778948663880859100,5.303859130859375,0.39095374941825867,-2.250732898712158,0.40775254368782043
1778948663897177900,5.320177734375,0.23747386038303375,-1.6007723808288574,0.5064072608947754
1778948663913520600,5.336520751953125,-0.19578230381011963,-1.3362677097320557,0.389426589012146
1778948663929837600,5.352837646484375,-0.5453499555587769,-1.201724648475647,0.31871894001960754
1778948663946181600,5.369181640625,-1.00197172164917,-1.3237450122833252,0.20066922903060913
1778948663962511400,5.385511474609375,-1.6884315013885498,-1.2353222370147705,-0.07559457421302795
1778948663978840800,5.4018408203125,-2.104736089706421,-0.09117163717746735,-0.3446807265281677
1778948663995173400,5.41817333984375,-2.074193000793457,0.43799036741256714,-0.38469240069389343
1778948664011503600,5.434503662109375,-1.3081679344177246,0.1007927656173706,-0.37888917326927185
1778948664027833900,5.450833740234375,-0.44745880365371704,0.28756481409072876,-0.48976120352745056
1778948664044164600,5.46716455078125,-0.17837265133857727,1.0768027305603027,-0.5062545537948608
1778948664060491800,5.48349169921875,-0.470671683549881,1.6184874773025513,-0.49556443095207214
1778948664076809500,5.4998095703125,-0.7924449443817139,1.7818939685821533,-0.5490151643753052
1778948664093163300,5.516163330078125,-1.0147998332977295,1.6578882932662964,-0.4268420934677124
1778948664109489400,5.532489501953125,-1.0273226499557495,1.3266465663909912,-0.24419337511062622
1778948664125813800,5.548813720703125,-0.6204863786697388,1.104138970375061,-0.08384125679731369
1778948664142147600,5.565147705078125,-0.22632557153701782,-0.570853590965271,0.5929974317550659
1778948664158477300,5.581477294921875,-0.22342395782470703,-0.8358163833618164,1.0144944190979004
1778948664174802000,5.597802001953125,-0.3121521472930908,-0.5285511612892151,0.8524624705314636
1778948664191138600,5.614138671875,-0.18616119027137756,-0.2796235680580139,0.46700647473335266
1778948664207469000,5.630468994140625,0.1010981947183609,-0.7298312783241272,0.3663664162158966
1778948664223799600,5.646799560546875,0.4990769028663635,-0.7582364678382874,0.4787656366825104
1778948664240135200,5.66313525390625,0.903164267539978,-0.4917465150356293,0.4612032473087311
1778948664256460500,5.67946044921875,1.0636690855026245,-0.36071592569351196,0.3197879493236542
1778948664272791800,5.695791748046875,0.9152288436889648,-0.4567744731903076,0.2678644061088562
1778948664289121500,5.71212158203125,0.6931793093681335,-0.5351179838180542,0.31612277030944824
1778948664305452300,5.728452392578125,0.7409795522689819,-0.6325509548187256,0.3816380500793457
1778948664321782500,5.744782470703125,1.2651019096374512,-0.5299255847930908,0.3793473243713379
1778948664338128400,5.76112841796875,2.225229263305664,-0.30283644795417786,0.3017674386501312
1778948664354440400,5.7774404296875,3.14626145362854,0.128434419631958,-0.048716504126787186
1778948664370774300,5.793774169921875,2.3240368366241455,-0.6168211698532104,-1.1062769889831543
1778948664387104800,5.810104736328125,0.7373143434524536,-0.6003278493881226,-0.8078693151473999
1778948664403439400,5.826439453125,-0.0019853119738399982,-1.2041680812835693,-0.022907447069883347
1778948664419761700,5.84276171875,0.016340645030140877,-1.0626001358032227,0.15317445993423462
1778948664436096500,5.859096435546875,-0.08552113175392151,-0.01771509274840355,0.11209376901388168
1778948664452427500,5.875427490234375,0.15714508295059204,-0.14828753471374512,0.4873177409172058
1778948664468764000,5.891763916015625,0.8301658630371094,-0.41493022441864014,0.5071708559989929
1778948664485076700,5.90807666015625,1.1027644872665405,-0.00809396430850029,0.4190535545349121
1778948664501433300,5.924433349609375,0.9178250432014465,0.2542726695537567,0.2070833146572113
1778948664517761800,5.94076171875,0.746019184589386,0.03940080851316452,0.12599095702171326
1778948664534093800,5.95709375,0.8107708692550659,-0.2643519341945648,-0.12568552792072296
1778948664550423300,5.97342333984375,0.3744603991508484,-0.2883284091949463,-0.03680463135242462
1778948664566735400,5.9897353515625,0.24862214922904968,-0.39385536313056946,0.7389942407608032
1778948664583070500,6.006070556640625,0.6313292384147644,0.11331550031900406,0.5296201705932617
1778948664599401500,6.0224013671875,0.5540547966957092,-0.25732699036598206,-0.006872233934700489
1778948664615731200,6.038731201171875,0.5720753073692322,-0.7263187766075134,0.290313720703125
1778948664632062200,6.055062255859375,1.7600555419921875,-1.0403034687042236,0.9625709056854248
1778948664648393000,6.07139306640625,2.0450241565704346,-1.674992561340332,0.35903605818748474
1778948664664723200,6.08772314453125,0.9460775256156921,-1.7001906633377075,0.7180721163749695
1778948664681049000,6.104049072265625,-0.010537425056099892,-1.28128981590271,1.0868819952011108
1778948664701591000,6.124591064453125,-0.3956879675388336,-0.20036379992961884,0.28038713335990906
1778948664717789700,6.140789794921875,-0.03573561832308769,0.2119702398777008,-0.42210787534713745
1778948664734133200,6.15713330078125,0.1472185254096985,0.6105598211288452,-0.8249735236167908
1778948664750446800,6.17344677734375,0.11789698898792267,0.6081163287162781,-0.7707592248916626
1778948664766789400,6.189789306640625,0.11911872029304504,0.2301434874534607,-0.5557346343994141
1778948664783120000,6.206119873046875,0.09560041129589081,-0.08231408894062042,-0.34926220774650574
1778948664799452000,6.222451904296875,0.04214970022439957,-0.16890424489974976,-0.12171489745378494
1778948664815781000,6.238781005859375,-0.0029016099870204926,-0.1365283876657486,0.07925976812839508
1778948664832111400,6.255111328125,-0.025656340643763542,-0.14767667651176453,0.18875735998153687
1778948664848441900,6.27144189453125,-0.026419922709465027,-0.18784105777740479,0.2535090744495392
1778948664864777200,6.287777099609375,-0.020616702735424042,-0.20830504596233368,0.25014930963516235
1778948664881106700,6.304106689453125,-0.013897184282541275,-0.17211128771305084,0.1693623960018158
1778948664897455600,6.32045556640625,-0.010995574295520782,-0.05757404863834381,0.07864890247583389
1778948664913773800,6.33677392578125,-0.02076941914856434,0.08918632566928864,0.02779436856508255
1778948664930113300,6.35311328125,-0.04230241850018501,0.2047925740480423,0.00855211354792118
1778948664946418200,6.369418212890625,-0.06154467165470123,0.27840182185173035,-0.006719517521560192
1778948664962758700,6.385758544921875,-0.06230825558304787,0.2496911734342575,-0.001679879380390048
1778948664979083500,6.40208349609375,-0.05360342562198639,0.19013181328773499,0.013897184282541275
1778948664995419600,6.418419677734375,-0.04214970022439957,0.13011430203914642,0.04734205827116966
1778948665011747000,6.4347470703125,-0.03894266113638878,0.08781187981367111,0.08048149943351746
1778948665028060400,6.451060302734375,-0.0403171069920063,0.09605856239795685,0.09422596544027328
1778948665044423700,6.467423583984375,-0.043676864355802536,0.15882496535778046,0.08475755155086517
1778948665060760300,6.48376025390625,-0.04657847434282303,0.2255619913339615,0.06994406878948212
1778948665077077000,6.500076904296875,-0.0429132841527462,0.2525927722454071,0.06704246252775192
1778948665093413000,6.5164130859375,-0.036041051149368286,0.2451096773147583,0.06918048858642578
1778948665109713700,6.532713623046875,-0.030237829312682152,0.21762074530124664,0.06276640295982361
1778948665126060800,6.549060791015625,-0.026419922709465027,0.18784105777740479,0.052381694316864014
1778948665142391600,6.5653916015625,-0.026114489883184433,0.16814066469669342,0.04734205827116966
1778948665158721300,6.58172119140625,-0.028099801391363144,0.16523905098438263,0.040164388716220856
1778948665175051800,6.5980517578125,-0.03436116874217987,0.2047925740480423,0.01618792861700058
1778948665191383300,6.61438330078125,-0.039248090237379074,0.28130343556404114,-0.021991148591041565
1778948665207713800,6.6307138671875,-0.044745877385139465,0.35903605818748474,-0.05864306539297104
1778948665224038400,6.647038330078125,-0.055741455405950546,0.41431936621665955,-0.08384125679731369
1778948665240378400,6.66337841796875,-0.059864792972803116,0.40714168548583984,-0.08720101416110992
1778948665256703000,6.679702880859375,-0.06261368840932846,0.3723223805427551,-0.06765332818031311
1778948665273037600,6.69603759765625,-0.057879481464624405,0.3358231782913208,-0.04352414980530739
1778948665289362000,6.71236181640625,-0.04856378585100174,0.28725937008857727,-0.02580905705690384
1778948665305686800,6.728686767578125,-0.04001167416572571,0.2525927722454071,-0.019089538604021072
1778948665322025700,6.745025634765625,-0.03588833287358284,0.24388794600963593,-0.019394971430301666
1778948665338335000,6.7613349609375,-0.03084869496524334,0.25671613216400146,-0.03145955875515938
1778948665354687000,6.77768701171875,-0.019547687843441963,0.2565633952617645,-0.05665775015950203
1778948665371004400,6.79400439453125,-0.010079276748001575,0.24724771082401276,-0.0907134860754013
1778948665387349200,6.810349365234375,-0.007635815534740686,0.23411411046981812,-0.12293662875890732
1778948665403694000,6.826694091796875,-0.0025961773935705423,0.1996002197265625,-0.13011430203914642
1778948665420021800,6.843021728515625,0.0010690141934901476,0.1511891484260559,-0.11652254313230515
1778948665436349400,6.859349365234375,-0.0007635815418325365,0.10506882518529892,-0.11071932315826416
1778948665452683500,6.87568359375,-0.00015271631127689034,0.08307767659425735,-0.10231992602348328
1778948665469000400,6.89200048828125,-0.0064140851609408855,0.0630718395113945,-0.09346238523721695
1778948665485331500,6.90833154296875,-0.013897184282541275,0.044745877385139465,-0.0858265683054924
1778948665501661400,6.924661376953125,-0.009773843921720982,0.02871066704392433,-0.08491026610136032
1778948665517992400,6.940992431640625,0.00809396430850029,0.0064140851609408855,-0.07864890247583389
1778948665534323000,6.957322998046875,0.020005837082862854,0.00809396430850029,-0.07681630551815033
1778948665550653200,6.973653076171875,0.027030786499381065,-0.0019853119738399982,-0.08139779418706894
1778948665566998800,6.989998779296875,0.03894266113638878,-0.014813481830060482,-0.06887505948543549
1778948665583321900,7.00632177734375,0.0503963828086853,-0.04963280260562897,-0.034666601568460464
1778948665599661000,7.0226611328125,0.018325956538319588,-0.053297992795705795,0.005955935921519995
1778948665615976000,7.038975830078125,-0.04596760869026184,0.08964447677135468,0.05772676691412926
1778948665632305700,7.0553056640625,-0.048716504126787186,0.21930062770843506,0.17699819803237915
1778948665648630800,7.071630859375,-0.01725694350898266,0.3634648323059082,0.289702832698822
1778948665664966700,7.087966552734375,0.07727445662021637,0.44974952936172485,0.29184088110923767
1778948665681283800,7.104283935546875,0.126143679022789,0.3862195611000061,0.1459967941045761
1778948665697627400,7.12062744140625,0.10231992602348328,0.15577064454555511,-0.06979135423898697
1778948665713942800,7.13694287109375,0.08292495459318161,-0.16111570596694946,-0.24419337511062622
1778948665730289000,7.153288818359375,0.06933320313692093,-0.2672535479068756,-0.346818745136261
1778948665746622000,7.1696220703125,0.0039706239476799965,-0.17592918872833252,-0.3199406862258911
1778948665762949600,7.18594970703125,-0.05161811411380768,-0.05849034711718559,-0.2093740701675415
1778948665779281000,7.202281005859375,-0.06017022579908371,0.09453139454126358,-0.05726861581206322
1778948665795610400,7.2186103515625,-0.039248090237379074,0.21563543379306793,0.07498370856046677
1778948665811940900,7.23494091796875,-0.023976460099220276,0.18875735998153687,0.1589776873588562
1778948665828271600,7.251271728515625,-0.016340645030140877,0.05345070734620094,0.18784105777740479
1778948665844589800,7.26758984375,-0.010842857882380486,-0.04444044828414917,0.16065755486488342
1778948665860918300,7.283918212890625,-0.00045814894838258624,-0.05161811411380768,0.0887281745672226
1778948665877264100,7.30026416015625,0.01710422709584236,-0.029168816283345222,0.005192354787141085
1778948665893595400,7.316595458984375,0.03191770985722542,-0.04734205827116966,-0.04703662544488907
1778948665909921500,7.332921630859375,0.041691552847623825,-0.03726277872920036,-0.07483099400997162
1778948665926257700,7.349257568359375,0.04092797264456749,-0.04382958263158798,-0.06536258012056351
1778948665942584800,7.365584716796875,0.03329215571284294,-0.08200865983963013,-0.029474247246980667
1778948665958902500,7.381902587890625,0.021074850112199783,-0.06994406878948212,0.010995574295520782
1778948665975247000,7.3982470703125,0.008246680721640587,-0.025503624230623245,0.041691552847623825
1778948665991564800,7.414564697265625,0.0010690141934901476,-0.011453723534941673,0.04459316283464432
1778948666007906800,7.43090673828125,0.0006108652451075613,-0.009162978269159794,0.02886338345706463
1778948666024231200,7.447231201171875,-0.0010690141934901476,0.013133603148162365,0.009621127508580685
1778948666040565800,7.463565673828125,-0.005803219974040985,0.012828170321881771,0.0065668015740811825
1778948666056901400,7.4799013671875,-0.005803219974040985,0.019394971430301666,0.01572977937757969
1778948666073246000,7.496245849609375,-0.0007635815418325365,0.030085112899541855,0.03420845419168472
1778948666089567000,7.51256689453125,0.009773843921720982,0.019394971430301666,0.04214970022439957
1778948666105902000,7.528902099609375,0.020922135561704636,-0.0065668015740811825,0.02535090781748295
1778948666122223400,7.545223388671875,0.02733621932566166,-0.029168816283345222,0.005345070734620094
1778948666138550800,7.56155078125,0.02687807008624077,-0.03390302136540413,-0.004734205547720194
1778948666154880500,7.577880615234375,0.018325956538319588,-0.025503624230623245,-0.0019853119738399982
1778948666171213000,7.594213134765625,0.006261368747800589,-0.0009162978967651725,0.0039706239476799965
1778948666187543800,7.610543701171875,0.0006108652451075613,0.003512475173920393,0.023518312722444534
1778948666203873000,7.626873046875,0.0024434609804302454,-0.008857546374201775,0.028099801391363144
1778948666220195300,7.6431953125,0.005345070734620094,-0.03527746722102165,0.016340645030140877
1778948666236542200,7.659542236328125,0.003359758760780096,-0.05451972410082817,0.0010690141934901476
1778948666252880600,7.675880615234375,-0.002138028386980295,-0.041233405470848083,-0.0065668015740811825
1778948666269223000,7.692222900390625,-0.004123340360820293,-0.013133603148162365,-0.003054326167330146
1778948666285528800,7.70852880859375,-0.002138028386980295,0.015118914656341076,0.009468411095440388
1778948666301844700,7.7248447265625,0.0039706239476799965,0.024434609338641167,0.01863138936460018
1778948666318186000,7.74118603515625,0.006108652334660292,0.001527163083665073,0.01771509274840355
1778948666334519300,7.757519287109375,0.009010262787342072,-0.02076941914856434,0.004886921960860491
1778948666350844200,7.77384423828125,0.010537425056099892,-0.025503624230623245,-0.005345070734620094
1778948666367192800,7.79019287109375,0.008399397134780884,-0.010690141469240189,-0.010079276748001575
1778948666383525600,7.806525634765625,0.005039638374000788,0.0025961773935705423,0.001832595793530345
1778948666399853000,7.82285302734375,0.0013744467869400978,0.010690141469240189,0.016493361443281174
1778948666416181000,7.839180908203125,-0.0022907445672899485,0.0022907445672899485,0.01924225501716137
1778948666432498000,7.855497802734375,-0.003054326167330146,-0.014508049935102463,0.007635815534740686
1778948666448830000,7.871829833984375,-0.0007635815418325365,-0.02779436856508255,-0.001527163083665073
1778948666465162800,7.888162841796875,0.004123340360820293,-0.027641652151942253,-0.007024950347840786
1778948666481495300,7.904495361328125,0.0025961773935705423,-0.02076941914856434,-0.005039638374000788
1778948666497823500,7.920823486328125,-0.003817907767370343,-0.013439035043120384,-0.007635815534740686
1778948666514151700,7.937151611328125,-0.005192354787141085,0.0006108652451075613,-0.003817907767370343
1778948666530483200,7.953483154296875,-0.00015271631127689034,0.01038470957428217,0.0064140851609408855
1778948666546814700,7.969814697265625,0.004886921960860491,-0.00931569468230009,0.01191187184303999
1778948666563162000,7.986162109375,0.005955935921519995,-0.03344487398862839,-0.0022907445672899485
1778948666579487200,8.0024873046875,0.005039638374000788,-0.022143865004181862,-0.01237002108246088
1778948666595801300,8.01880126953125,0.003512475173920393,-0.003817907767370343,-0.01237002108246088
1778948666612135000,8.035135009765625,0.0019853119738399982,-0.008857546374201775,-0.00366519158706069
1778948666628467500,8.051467529296875,0.00045814894838258624,-0.015271631069481373,-0.0003054326225537807
1778948666644796000,8.0677958984375,-0.0025961773935705423,-0.010537425056099892,-0.00855211354792118
1778948666661127200,8.084127197265625,-0.004886921960860491,0.0019853119738399982,-0.01817324012517929
1778948666677456600,8.10045654296875,-0.006872233934700489,0.00855211354792118,-0.021991148591041565
1778948666693789400,8.11678955078125,-0.003512475173920393,0,-0.014202617108821869
1778948666710117600,8.13311767578125,0.0019853119738399982,-0.00931569468230009,-0.0029016099870204926
1778948666726466000,8.149466064453126,0.006261368747800589,-0.020616702735424042,-0.003054326167330146
1778948666742791700,8.165791748046875,0.005192354787141085,-0.016951510682702065,-0.013591751456260681
1778948666759108600,8.182108642578125,0.0024434609804302454,-0.008704829961061478,-0.021380282938480377
1778948666775437000,8.19843701171875,-0.0012217304902151227,-0.001679879380390048,-0.021991148591041565
1778948666791774000,8.21477392578125,-0.003359758760780096,0.0027488935738801956,-0.016493361443281174
1778948666808097300,8.23109716796875,-0.0013744467869400978,0.005345070734620094,-0.01038470957428217
1778948666824423200,8.247423095703125,0.00045814894838258624,-0.00015271631127689034,-0.001679879380390048
1778948666840764700,8.2637646484375,0.0029016099870204926,-0.011301007121801376,-0.0010690141934901476
1778948666857089800,8.28008984375,0.00045814894838258624,-0.016493361443281174,-0.018020525574684143
1778948666873436400,8.2964365234375,-0.00015271631127689034,-0.008246680721640587,-0.03084869496524334
1778948666889789200,8.3127890625,-0.0006108652451075613,0.003054326167330146,-0.029626963660120964
1778948666906097700,8.32909765625,0.0003054326225537807,-0.0022907445672899485,-0.021532999351620674
1778948666922426000,8.345426025390625,-0.0003054326225537807,-0.012217304669320583,-0.015577063895761967
1778948666938759700,8.361759765625,0.0010690141934901476,-0.008857546374201775,-0.012980886735022068
1778948666955090700,8.378090576171875,0.0029016099870204926,-0.0039706239476799965,-0.011301007121801376
1778948666971419100,8.394419189453124,0.003817907767370343,-0.006872233934700489,-0.014202617108821869
1778948666987750100,8.410750244140624,0.0025961773935705423,-0.009773843921720982,-0.023365596309304237
1778948667004080000,8.427080078125,0.0019853119738399982,-0.0025961773935705423,-0.028099801391363144
1778948667020390400,8.443390380859375,0.0032070425804704428,-0.0024434609804302454,-0.020616702735424042
1778948667036732200,8.459732177734375,0.004734205547720194,-0.00809396430850029,-0.014202617108821869
1778948667053057500,8.4760576171875,0.0022907445672899485,-0.01114829070866108,-0.017409659922122955
1778948667069385500,8.492385498046875,-0.0009162978967651725,-0.002138028386980295,-0.017409659922122955
1778948667085720800,8.508720947265624,0.00045814894838258624,0.0009162978967651725,-0.015271631069481373
1778948667102049000,8.525049072265626,0.002138028386980295,-0.005955935921519995,-0.011301007121801376
1778948667118380300,8.54138037109375,0.003054326167330146,-0.021074850112199783,-0.010079276748001575
1778948667134710500,8.55771044921875,0.001527163083665073,-0.018936822190880775,-0.01618792861700058
1778948667151042800,8.574042724609376,0.00015271631127689034,-0.006261368747800589,-0.018020525574684143
1778948667167371000,8.59037109375,-0.0013744467869400978,-0.003054326167330146,-0.014966198243200779
1778948667183706000,8.6067060546875,-0.003359758760780096,-0.008399397134780884,-0.01710422709584236
1778948667200032500,8.623032470703125,-0.0006108652451075613,-0.009010262787342072,-0.016798794269561768
1778948667216380400,8.63938037109375,0.0019853119738399982,-0.004428773187100887,-0.013286318629980087
1778948667232706300,8.655706298828125,0.0039706239476799965,-0.004123340360820293,-0.014355333521962166
1778948667249014000,8.672013916015626,0.003359758760780096,-0.0074830991216003895,-0.017562376335263252
1778948667265368300,8.688368408203125,0.004581489134579897,-0.00427605677396059,-0.01572977937757969
1778948667281695200,8.7046953125,0.0065668015740811825,-0.0027488935738801956,-0.008246680721640587
1778948667298055200,8.72105517578125,0.006872233934700489,-0.0065668015740811825,-0.0027488935738801956
1778948667314360300,8.7373603515625,0.005955935921519995,-0.010231993161141872,-0.0032070425804704428
1778948667330673200,8.753673095703125,0.004123340360820293,-0.0027488935738801956,-0.007941247895359993
1778948667347005000,8.7700048828125,0.0025961773935705423,0.005192354787141085,-0.011453723534941673
1778948667363336700,8.786336669921875,0.002138028386980295,0.005803219974040985,-0.010231993161141872
1778948667379668500,8.80266845703125,0.003359758760780096,0.0032070425804704428,-0.007024950347840786
1778948667395995000,8.818994873046876,0.005497787147760391,-0.00733038317412138,-0.0019853119738399982
1778948667412333600,8.83533349609375,0.005955935921519995,-0.00855211354792118,-0.004428773187100887
1778948667428659000,8.851658935546874,0.003817907767370343,-0.0007635815418325365,-0.0025961773935705423
1778948667445003300,8.868003173828125,0.0012217304902151227,0.0019853119738399982,-0.005192354787141085
1778948667461332500,8.88433251953125,0.0006108652451075613,0.003359758760780096,-0.0039706239476799965
1778948667477670100,8.900670166015624,0.0006108652451075613,0.006108652334660292,-0.0007635815418325365
1778948667493990700,8.91699072265625,0.0022907445672899485,-0.0013744467869400978,0.0007635815418325365
1778948667510313000,8.93331298828125,0.0019853119738399982,-0.009162978269159794,-0.0022907445672899485
1778948667526624000,8.9496240234375,0.0029016099870204926,-0.004581489134579897,-0.005039638374000788
1778948667542974500,8.965974365234375,0.00427605677396059,-0.0024434609804302454,-0.003359758760780096
1778948667559300600,8.982300537109374,0.00366519158706069,-0.0009162978967651725,0.001679879380390048
1778948667575635500,8.998635498046875,0.00366519158706069,0.0013744467869400978,0.003512475173920393
1778948667591963600,9.014963623046874,0.004123340360820293,-0.00015271631127689034,0.0064140851609408855
1778948667608296400,9.03129638671875,0.005192354787141085,-0.0007635815418325365,0.006719517521560192
1778948667624611300,9.047611328125,0.00427605677396059,-0.0032070425804704428,0.00366519158706069
1778948667640956700,9.063956787109374,0.00366519158706069,-0.001527163083665073,-0.0006108652451075613
1778948667657286000,9.080285888671876,0.004734205547720194,-0.0006108652451075613,0.0009162978967651725
1778948667673618200,9.0966181640625,0.004428773187100887,-0.006108652334660292,0.003817907767370343
1778948667689945300,9.1129453125,0.003359758760780096,-0.008399397134780884,0.001679879380390048
1778948667706278100,9.129278076171875,0.002138028386980295,-0.0029016099870204926,0.0006108652451075613
1778948667722620400,9.145620361328126,0.0027488935738801956,-0.0019853119738399982,-0.0006108652451075613
1778948667738968300,9.16196826171875,0.0027488935738801956,-0.004428773187100887,0.0009162978967651725
1778948667755282000,9.178281982421876,0.004123340360820293,-0.012980886735022068,0.008399397134780884
1778948667771614200,9.1946142578125,0.0032070425804704428,-0.016493361443281174,0.01191187184303999
1778948667787943700,9.210943603515625,0.0009162978967651725,-0.014966198243200779,0.010690141469240189
1778948667804248300,9.227248291015625,0.0006108652451075613,-0.012675453908741474,0.005650503560900688
1778948667820598300,9.243598388671876,0.001679879380390048,-0.009926560334861279,-0.0007635815418325365
1778948667836940000,9.25993994140625,0.003512475173920393,-0.011301007121801376,-0.0022907445672899485
1778948667853265400,9.276265380859375,0.0024434609804302454,-0.010995574295520782,-0.007941247895359993
1778948667869597400,9.292597412109375,-0.0003054326225537807,-0.007941247895359993,-0.00855211354792118
1778948667885924900,9.3089248046875,-0.0027488935738801956,0.00015271631127689034,-0.0007635815418325365
1778948667902257700,9.325257568359374,-0.002138028386980295,0.0032070425804704428,0.004886921960860491
1778948667918588200,9.341588134765624,-0.001679879380390048,-0.00366519158706069,0.005955935921519995
1778948667934902500,9.357902587890624,0.0024434609804302454,-0.010842857882380486,0.0024434609804302454
1778948667951233000,9.37423291015625,0.0064140851609408855,-0.012980886735022068,0.0012217304902151227
1778948667967566000,9.390566162109375,0.006108652334660292,-0.018020525574684143,-0.0025961773935705423
1778948667983895300,9.406895263671874,0.00045814894838258624,-0.020005837082862854,-0.004428773187100887
1778948668000225300,9.423225341796876,-0.006261368747800589,-0.003512475173920393,-0.006719517521560192
1778948668016558800,9.439558837890624,-0.00809396430850029,0.01191187184303999,-0.0039706239476799965
1778948668032905000,9.455905029296876,-0.006108652334660292,0.009468411095440388,0.001679879380390048
1778948668049218800,9.47221875,-0.003054326167330146,-0.0013744467869400978,-0.001832595793530345
1778948668065546200,9.488546142578125,-0.0025961773935705423,-0.012980886735022068,-0.006261368747800589
1778948668081877000,9.504876953125,-0.0027488935738801956,-0.00733038317412138,-0.010537425056099892
1778948668098196500,9.521196533203126,-0.0024434609804302454,0.001679879380390048,-0.009468411095440388
1778948668114539000,9.5375390625,-0.001832595793530345,0.0024434609804302454,-0.0065668015740811825
1778948668130872000,9.5538720703125,-0.0024434609804302454,-0.0009162978967651725,-0.005803219974040985
1778948668147200300,9.5702001953125,-0.0019853119738399982,0,-0.005955935921519995
1778948668163531500,9.586531494140624,-0.0007635815418325365,0.0032070425804704428,-0.0027488935738801956
1778948668179861200,9.602861328125,-0.0003054326225537807,0.00015271631127689034,0
1778948668196193300,9.619193359375,-0.003054326167330146,-0.005803219974040985,-0.006108652334660292
1778948668212540000,9.635539794921876,-0.005803219974040985,-0.001527163083665073,-0.012675453908741474
1778948668228891000,9.651890869140624,-0.0074830991216003895,0.008399397134780884,-0.014813481830060482
1778948668245186800,9.668186767578124,-0.004581489134579897,0.007941247895359993,-0.010231993161141872
1778948668261525500,9.684525390625,-0.0032070425804704428,-0.0029016099870204926,-0.00427605677396059
1778948668277844200,9.70084423828125,-0.0010690141934901476,-0.008704829961061478,-0.003817907767370343
1778948668294172200,9.717172119140624,-0.0013744467869400978,-0.0003054326225537807,-0.005192354787141085
1778948668310508300,9.73350830078125,0.0013744467869400978,0.009773843921720982,-0.001679879380390048
1778948668326824200,9.74982421875,0.0027488935738801956,0.003512475173920393,0.00045814894838258624
1778948668343166200,9.766166259765624,0.00366519158706069,-0.007788531947880983,0.002138028386980295
1778948668359497500,9.78249755859375,0.0013744467869400978,-0.001679879380390048,0.001527163083665073
1778948668375844000,9.798843994140626,-0.003359758760780096,0.004734205547720194,0.00015271631127689034
1778948668392156400,9.815156494140625,-0.005955935921519995,0.012217304669320583,-0.0024434609804302454
1778948668408491300,9.8314912109375,-0.003512475173920393,0.012828170321881771,0.0024434609804302454
1778948668424821000,9.847821044921876,-0.0010690141934901476,0.0039706239476799965,0.007635815534740686
1778948668441182700,9.8641826171875,0.00045814894838258624,-0.01191187184303999,0.00809396430850029
1778948668457491500,9.880491455078126,0.0007635815418325365,-0.016951510682702065,-0.0006108652451075613
1778948668473827600,9.89682763671875,-0.0003054326225537807,-0.017562376335263252,-0.008399397134780884
1778948668490155300,9.9131552734375,-0.00366519158706069,-0.006872233934700489,-0.007635815534740686
1778948668506484200,9.929484130859375,-0.006261368747800589,0.0010690141934901476,0.0007635815418325365
1778948668522795500,9.94579541015625,-0.005497787147760391,0.0024434609804302454,0.007941247895359993
1778948668539135200,9.96213525390625,-0.004123340360820293,0,0.012828170321881771
1778948668555463200,9.978463134765626,-0.0006108652451075613,-0.00855211354792118,0.010690141469240189
1778948668571793000,9.99479296875,0.0007635815418325365,-0.015577063895761967,0.002138028386980295
1778948668588125000,10.011125,-0.0003054326225537807,-0.017562376335263252,-0.0007635815418325365
1778948668604456200,10.027456298828126,-0.0009162978967651725,-0.014202617108821869,-0.00045814894838258624
1778948668620781800,10.04378173828125,-0.0009162978967651725,-0.012217304669320583,0.0025961773935705423
1778948668637118000,10.060117919921876,0.0003054326225537807,-0.013133603148162365,0.00809396430850029
1778948668653446000,10.07644580078125,-0.0010690141934901476,-0.019547687843441963,0.005955935921519995
1778948668669762800,10.0927626953125,-0.005039638374000788,-0.02015855349600315,-0.0010690141934901476
1778948668686107100,10.109107177734375,-0.00855211354792118,-0.007788531947880983,-0.004428773187100887
1778948668702436600,10.1254365234375,-0.008246680721640587,0.0003054326225537807,-0.0007635815418325365
1778948668718767400,10.141767333984374,-0.004886921960860491,-0.007635815534740686,0.007024950347840786
1778948668735098000,10.15809814453125,-0.001527163083665073,-0.013286318629980087,0.00855211354792118
1778948668751426000,10.174426025390625,-0.00015271631127689034,-0.016035212203860283,0.006719517521560192
1778948668767761400,10.190761474609374,-0.0003054326225537807,-0.012980886735022068,0.00045814894838258624
1778948668784106000,10.20710595703125,-0.0024434609804302454,-0.0024434609804302454,-0.004123340360820293
1778948668800427300,10.22342724609375,-0.005192354787141085,0.0024434609804302454,-0.0024434609804302454
1778948668816770600,10.2397705078125,-0.005497787147760391,0.0006108652451075613,0.001832595793530345
1778948668833094100,10.25609423828125,-0.003359758760780096,-0.0022907445672899485,0.005803219974040985
1778948668849427000,10.272427001953124,0,-0.004428773187100887,0.005192354787141085
1778948668865755600,10.288755615234376,0.0025961773935705423,-0.003512475173920393,-0.0013744467869400978
1778948668882086400,10.30508642578125,0.002138028386980295,0.0022907445672899485,-0.005497787147760391
1778948668898403800,10.32140380859375,0,0.0029016099870204926,-0.005650503560900688
1778948668914722000,10.33772216796875,-0.0022907445672899485,0.0064140851609408855,-0.002138028386980295
1778948668931066600,10.354066650390624,-0.0032070425804704428,0.009773843921720982,0.0025961773935705423
1778948668947395000,10.37039501953125,-0.0029016099870204926,0.007177666760981083,0.0032070425804704428
1778948668963724300,10.386724365234375,-0.0006108652451075613,0.007788531947880983,0.0003054326225537807
1778948668980056800,10.403056884765626,0.0006108652451075613,0.006261368747800589,-0.0024434609804302454
1778948668996385000,10.419385009765625,-0.0019853119738399982,0.004123340360820293,-0.00855211354792118
1778948669012716500,10.435716552734375,-0.00366519158706069,0.006261368747800589,-0.009468411095440388
1778948669029052200,10.45205224609375,-0.004734205547720194,0.016035212203860283,-0.006872233934700489
1778948669045369600,10.46836962890625,-0.005039638374000788,0.018020525574684143,-0.0007635815418325365
1778948669061707500,10.48470751953125,-0.003054326167330146,0.00733038317412138,-0.001832595793530345
1778948669078038800,10.501038818359374,-0.0019853119738399982,0.004886921960860491,-0.005803219974040985
1778948669094380800,10.517380859375,-0.0022907445672899485,0.01237002108246088,-0.007024950347840786
1778948669110700800,10.53370068359375,-0.0025961773935705423,0.014202617108821869,-0.005650503560900688
1778948669127029000,10.550029052734375,-0.004734205547720194,0.005039638374000788,-0.005803219974040985
1778948669143360500,10.566360595703125,-0.00733038317412138,0.0064140851609408855,-0.007941247895359993
1778948669159688200,10.582688232421875,-0.00809396430850029,0.012828170321881771,-0.0065668015740811825
1778948669176028000,10.59902783203125,-0.006108652334660292,0.009926560334861279,-0.00366519158706069
1778948669192338000,10.615337890625,-0.00427605677396059,0.0032070425804704428,-0.004123340360820293
1778948669208698000,10.631697998046874,-0.005955935921519995,-0.005192354787141085,-0.009468411095440388
1778948669225022200,10.648022216796875,-0.010537425056099892,-0.005192354787141085,-0.020463986322283745
1778948669241383200,10.664383056640625,-0.010690141469240189,0.015577063895761967,-0.021532999351620674
1778948669257673700,10.680673828125,-0.008246680721640587,0.01878410577774048,-0.012675453908741474
1778948669274014000,10.697013916015624,-0.005803219974040985,0.0064140851609408855,-0.00427605677396059
1778948669290349600,10.713349609375,-0.0025961773935705423,-0.0027488935738801956,-0.004886921960860491
1778948669306681000,10.72968115234375,-0.0003054326225537807,-0.003817907767370343,-0.0064140851609408855
1778948669323008800,10.7460087890625,0.0007635815418325365,0.0012217304902151227,-0.006108652334660292
1778948669339335000,10.7623349609375,-0.0024434609804302454,0.0024434609804302454,-0.007941247895359993
1778948669355665400,10.77866552734375,-0.002138028386980295,0.003359758760780096,-0.0027488935738801956
1778948669372007400,10.79500732421875,-0.0012217304902151227,0.0025961773935705423,0.00045814894838258624
1778948669388330800,10.811330810546876,-0.0012217304902151227,-0.00366519158706069,-0.00015271631127689034
1778948669404650200,10.827650146484375,-0.0025961773935705423,-0.005650503560900688,-0.005650503560900688
1778948669420989700,10.84398974609375,-0.004581489134579897,0.003512475173920393,-0.011301007121801376
1778948669437307000,10.860306884765626,-0.007024950347840786,0.004123340360820293,-0.013439035043120384
1778948669453638700,10.876638671875,-0.00427605677396059,-0.00015271631127689034,-0.008246680721640587
1778948669469970200,10.89297021484375,-0.0007635815418325365,-0.0027488935738801956,-0.002138028386980295
1778948669486300000,10.9092998046875,0.0007635815418325365,-0.00809396430850029,-0.003817907767370343
1778948669502632200,10.925632080078126,-0.0009162978967651725,-0.012217304669320583,-0.007941247895359993
1778948669518960600,10.941960693359375,-0.004886921960860491,-0.00366519158706069,-0.009926560334861279
1778948669535292000,10.9582919921875,-0.005192354787141085,0.004734205547720194,-0.005650503560900688
1778948669551620400,10.974620361328125,-0.004886921960860491,-0.003359758760780096,0.0003054326225537807
1778948669567951400,10.990951416015625,-0.001832595793530345,-0.009468411095440388,-0.0007635815418325365
1778948669584272600,11.007272705078124,-0.0012217304902151227,-0.013897184282541275,-0.005650503560900688
1778948669600614000,11.02361376953125,-0.0022907445672899485,-0.013591751456260681,-0.007941247895359993
1778948669616940300,11.039940185546875,-0.0032070425804704428,-0.010995574295520782,-0.00855211354792118
1778948669633279200,11.056279296875,-0.0019853119738399982,-0.0074830991216003895,-0.00855211354792118
1778948669649604400,11.072604248046876,-0.003054326167330146,-0.008246680721640587,-0.003359758760780096
1778948669665936100,11.08893603515625,-0.0019853119738399982,-0.010842857882380486,0.0010690141934901476
1778948669682264000,11.10526416015625,-0.0009162978967651725,-0.00809396430850029,0.003512475173920393
1778948669698602000,11.12160205078125,0.0003054326225537807,-0.011301007121801376,0.004581489134579897
1778948669714926300,11.13792626953125,-0.00045814894838258624,-0.01191187184303999,0.0012217304902151227
1778948669731257900,11.1542578125,-0.001527163083665073,-0.012828170321881771,-0.001679879380390048
1778948669747591700,11.170591796875,-0.001679879380390048,-0.007941247895359993,-0.003054326167330146
1778948669763920000,11.186919921875,-0.0027488935738801956,-0.0039706239476799965,-0.0032070425804704428
1778948669780249900,11.203249755859375,-0.0027488935738801956,-0.009621127508580685,-0.0009162978967651725
1778948669796594700,11.2195947265625,-0.0027488935738801956,-0.01038470957428217,0.0032070425804704428
1778948669812923100,11.235923095703125,-0.0029016099870204926,-0.005955935921519995,0.002138028386980295
1778948669829255200,11.252255126953125,-0.002138028386980295,-0.001527163083665073,0.0006108652451075613
1778948669845566700,11.268566650390625,-0.001832595793530345,-0.004581489134579897,-0.001527163083665073
1778948669861915400,11.284915283203125,0.0013744467869400978,-0.007177666760981083,0.0013744467869400978
1778948669878243000,11.3012431640625,0.003054326167330146,-0.010690141469240189,0.0065668015740811825
1778948669894577000,11.317576904296875,0.002138028386980295,-0.010842857882380486,0.007635815534740686
1778948669910883000,11.333883056640625,-0.0010690141934901476,-0.006261368747800589,0.00733038317412138
1778948669927226400,11.350226318359375,-0.0027488935738801956,0.005497787147760391,0.005955935921519995
1778948669943549200,11.366549072265625,-0.00366519158706069,0.00931569468230009,0.010842857882380486
1778948669959885600,11.382885498046875,-0.001832595793530345,-0.001832595793530345,0.01114829070866108
1778948669976214000,11.399214111328124,0.0006108652451075613,-0.006872233934700489,0.008857546374201775
1778948669992545300,11.415545166015624,0.003054326167330146,-0.0024434609804302454,0.009621127508580685
1778948670008875000,11.431875,0.0013744467869400978,-0.0019853119738399982,0.0065668015740811825
1778948670025207600,11.44820751953125,-0.0003054326225537807,0.001832595793530345,0.004886921960860491
1778948670041535700,11.46453564453125,-0.0013744467869400978,0.004734205547720194,0.00427605677396059
1778948670057867000,11.480866943359375,0.00045814894838258624,0.0027488935738801956,0.008704829961061478
1778948670074193700,11.497193603515624,0.00366519158706069,0.0027488935738801956,0.011453723534941673
1778948670090532600,11.51353271484375,0.005497787147760391,0.00045814894838258624,0.00931569468230009
1778948670106857700,11.529857666015625,0.00366519158706069,0.0064140851609408855,0.00427605677396059
1778948670123188000,11.54618798828125,0.0027488935738801956,0.008857546374201775,0.002138028386980295
1778948670139515600,11.562515625,0.0029016099870204926,0.00427605677396059,0.005345070734620094
1778948670155841800,11.578841796875,0.003359758760780096,0.001527163083665073,0.008246680721640587
1778948670172166700,11.595166748046875,0.003359758760780096,-0.0019853119738399982,0.00855211354792118
1778948670188528000,11.611528076171876,0.003054326167330146,-0.0029016099870204926,0.00931569468230009
1778948670204836900,11.6278369140625,0.0029016099870204926,0.005192354787141085,0.01038470957428217
1778948670221190700,11.644190673828126,0.00427605677396059,0.0065668015740811825,0.01237002108246088
1778948670237515500,11.660515625,0.004581489134579897,0.002138028386980295,0.01160643994808197
1778948670253841200,11.676841064453125,0.005345070734620094,-0.0039706239476799965,0.01038470957428217
1778948670270162000,11.693161865234375,0.003359758760780096,-0.0007635815418325365,0.005803219974040985
1778948670286490000,11.709489990234376,0.002138028386980295,0.010537425056099892,0.004581489134579897
1778948670302823400,11.725823486328125,0.0009162978967651725,0.014508049935102463,0.004734205547720194
1778948670319156700,11.74215673828125,-0.00045814894838258624,0.006261368747800589,0.001832595793530345
1778948670335484700,11.758484619140624,-0.00015271631127689034,0.00015271631127689034,0.003817907767370343
1778948670351817000,11.77481689453125,0.001832595793530345,-0.003054326167330146,0.00809396430850029
1778948670368143400,11.791143310546875,0.003817907767370343,-0.009010262787342072,0.00931569468230009
1778948670384471300,11.80747119140625,0.004886921960860491,-0.01664607785642147,0.0025961773935705423
1778948670400806400,11.823806396484375,0.0022907445672899485,-0.009926560334861279,-0.005650503560900688
1778948670417138700,11.840138671875,0.0013744467869400978,0.0027488935738801956,-0.0065668015740811825
1778948670433467400,11.85646728515625,0.0003054326225537807,0.00733038317412138,0.005039638374000788
1778948670449803800,11.8728037109375,-0.0009162978967651725,0.004886921960860491,0.01542434748262167
1778948670466142700,11.889142822265624,-0.00015271631127689034,-0.0003054326225537807,0.014355333521962166
1778948670482474800,11.905474853515624,0.0029016099870204926,-0.003054326167330146,0.003359758760780096
1778948670498815200,11.921815185546874,0.005650503560900688,-0.00366519158706069,-0.008704829961061478
1778948670515119600,11.93811962890625,0.006261368747800589,-0.00855211354792118,-0.010842857882380486
1778948670531448300,11.9544482421875,0.004581489134579897,-0.009773843921720982,-0.005345070734620094
1778948670547782700,11.97078271484375,0.0029016099870204926,0.001527163083665073,0.00931569468230009
1778948670564111000,11.987111083984376,-0.00015271631127689034,0.006719517521560192,0.015271631069481373
1778948670580439000,12.00343896484375,-0.0025961773935705423,0.0039706239476799965,0.005650503560900688
1778948670596775700,12.019775634765624,-0.001679879380390048,0.0024434609804302454,-0.005039638374000788
1778948670613104600,12.036104736328125,0.0009162978967651725,0.0027488935738801956,-0.009773843921720982
1778948670629433000,12.05243310546875,0.0032070425804704428,-0.0012217304902151227,-0.007024950347840786
1778948670645764600,12.0687646484375,0.005039638374000788,-0.004886921960860491,0.0009162978967651725
1778948670662093800,12.08509375,0.004886921960860491,-0.001832595793530345,0.0065668015740811825
1778948670678426600,12.101426513671875,0.003054326167330146,0.0029016099870204926,0.0019853119738399982
1778948670694754600,12.117754638671874,0.00015271631127689034,0.005803219974040985,-0.00427605677396059
1778948670711104500,12.1341044921875,0.0006108652451075613,0.006719517521560192,-0.006719517521560192
1778948670727430100,12.15043017578125,0.0024434609804302454,0.00045814894838258624,-0.004428773187100887
1778948670743762000,12.166761962890625,0.004734205547720194,-0.003512475173920393,-0.00045814894838258624
1778948670760088000,12.183088134765624,0.004428773187100887,-0.003817907767370343,-0.003817907767370343
1778948670776391200,12.19939111328125,0.0012217304902151227,0.00015271631127689034,-0.009621127508580685
1778948670792728600,12.215728515625,-0.0025961773935705423,0.012217304669320583,-0.01191187184303999
1778948670809091800,12.232091796875,-0.00366519158706069,0.010690141469240189,-0.007024950347840786
1778948670825409000,12.248408935546875,-0.0010690141934901476,-0.0027488935738801956,-0.005192354787141085
1778948670841727700,12.264727783203124,0.001832595793530345,-0.010231993161141872,-0.008704829961061478
1778948670858073600,12.281073486328125,0.002138028386980295,-0.0039706239476799965,-0.01038470957428217
1778948670874388700,12.297388671875,0.0013744467869400978,0.0064140851609408855,-0.009773843921720982
1778948670890719500,12.313719482421876,0.0012217304902151227,0.00733038317412138,-0.005955935921519995
1778948670907052000,12.330052001953124,0.0009162978967651725,0.001679879380390048,-0.00427605677396059
1778948670923381500,12.346381591796876,0,-0.0007635815418325365,-0.005039638374000788
1778948670939697700,12.36269775390625,-0.00015271631127689034,0.0029016099870204926,-0.00931569468230009
1778948670956042200,12.379042236328125,0.0009162978967651725,0.00427605677396059,-0.009162978269159794
1778948670972372000,12.3953720703125,0.005039638374000788,-0.00045814894838258624,-0.006261368747800589
1778948670988707600,12.41170751953125,0.005345070734620094,-0.0064140851609408855,-0.0039706239476799965
1778948671005035800,12.428035888671875,0.004581489134579897,-0.009621127508580685,-0.008246680721640587
1778948671021363200,12.44436328125,0.001679879380390048,-0.0032070425804704428,-0.006872233934700489
1778948671037695700,12.46069580078125,-0.0003054326225537807,0.005192354787141085,-0.006872233934700489
1778948671054025000,12.47702490234375,-0.001527163083665073,0.005803219974040985,-0.004123340360820293
1778948671070358500,12.493358642578125,-0.001679879380390048,-0.0024434609804302454,-0.004734205547720194
1778948671086686200,12.509686279296876,0.0006108652451075613,-0.004428773187100887,-0.003817907767370343
1778948671103017700,12.526017822265626,0.003054326167330146,-0.004886921960860491,-0.003817907767370343
1778948671119347500,12.542347412109375,0.003359758760780096,-0.008246680721640587,-0.006872233934700489
1778948671135678000,12.558677978515625,0.00045814894838258624,-0.005192354787141085,-0.01160643994808197
1778948671152009000,12.575009033203125,-0.0019853119738399982,0.0003054326225537807,-0.015118914656341076
1778948671168382700,12.5913828125,-0.0027488935738801956,0.005955935921519995,-0.016493361443281174
1778948671184666400,12.607666259765624,-0.001679879380390048,0.00733038317412138,-0.009162978269159794
1778948671201015800,12.624015869140624,0.0003054326225537807,-0.0013744467869400978,-0.005345070734620094
1778948671217339000,12.6403388671875,0.0007635815418325365,-0.007788531947880983,-0.00427605677396059
1778948671233678800,12.656678955078124,0.00015271631127689034,-0.005955935921519995,-0.00733038317412138
1778948671250004500,12.67300439453125,0.0009162978967651725,-0.005345070734620094,-0.012675453908741474
1778948671266338000,12.689338134765626,0.0009162978967651725,-0.001832595793530345,-0.011453723534941673
1778948671282648800,12.70564892578125,0.0009162978967651725,-0.003512475173920393,-0.008857546374201775
1778948671298997200,12.721997314453125,-0.0010690141934901476,-0.003512475173920393,-0.0065668015740811825
1778948671315326700,12.73832666015625,-0.0006108652451075613,0.0032070425804704428,-0.004428773187100887
1778948671331656000,12.754656005859376,-0.0003054326225537807,0.004581489134579897,-0.005803219974040985
1778948671347989200,12.7709892578125,-0.0013744467869400978,-0.0024434609804302454,-0.005345070734620094
1778948671364306700,12.787306640625,-0.0013744467869400978,0.0027488935738801956,-0.0074830991216003895
1778948671380644400,12.803644287109375,-0.0022907445672899485,0.006108652334660292,-0.006719517521560192
1778948671396985000,12.819985107421875,0.00015271631127689034,0.002138028386980295,-0.0039706239476799965
1778948671413310000,12.83631005859375,0.0009162978967651725,-0.003512475173920393,-0.004123340360820293
1778948671429641000,12.852640869140625,0.00015271631127689034,-0.00427605677396059,-0.007177666760981083
1778948671445971200,12.86897119140625,-0.0022907445672899485,0.0010690141934901476,-0.0074830991216003895
1778948671462285800,12.885285888671875,-0.003512475173920393,0.004734205547720194,-0.005955935921519995
1778948671478617300,12.901617431640625,-0.0029016099870204926,-0.0003054326225537807,-0.003512475173920393
1778948671494949000,12.91794921875,-0.0027488935738801956,-0.005803219974040985,-0.006108652334660292
1778948671511278600,12.934278564453125,-0.001832595793530345,-0.004581489134579897,-0.006719517521560192
1778948671527611000,12.95061083984375,-0.0024434609804302454,-0.007941247895359993,-0.00427605677396059
1778948671543940000,12.966940185546875,-0.0032070425804704428,-0.00809396430850029,-0.00427605677396059
1778948671560271000,12.98327099609375,-0.001832595793530345,-0.004428773187100887,-0.0007635815418325365
1778948671576600600,12.9996005859375,-0.00015271631127689034,-0.005345070734620094,0.004428773187100887
1778948671592932900,13.015932861328125,0,-0.006719517521560192,0.0024434609804302454
1778948671609240800,13.03224072265625,-0.003359758760780096,-0.008857546374201775,-0.00427605677396059
1778948671625593000,13.048593017578124,-0.005039638374000788,0.007024950347840786,-0.008704829961061478
1778948671641922600,13.064922607421876,-0.004581489134579897,0.01237002108246088,-0.0019853119738399982
1778948671658254600,13.081254638671876,-0.0019853119738399982,0.004428773187100887,0.0025961773935705423
1778948671674584000,13.097583984375,-0.0012217304902151227,-0.005345070734620094,0.0022907445672899485
1778948671690928600,13.1139287109375,0.0003054326225537807,-0.005345070734620094,-0.0022907445672899485
1778948671707237400,13.1302373046875,0.00015271631127689034,0.005345070734620094,-0.003817907767370343
1778948671723592400,13.146592529296875,-0.00015271631127689034,0.008399397134780884,-0.001679879380390048
1778948671739919000,13.162919189453126,-0.0013744467869400978,0.0022907445672899485,0
1778948671756250000,13.17925,-0.0024434609804302454,0.0003054326225537807,0.003817907767370343
1778948671772563500,13.1955634765625,-0.001679879380390048,0.004123340360820293,0.004581489134579897
1778948671788910600,13.21191064453125,-0.00045814894838258624,-0.00015271631127689034,0.004886921960860491
1778948671805238000,13.228238037109374,-0.0027488935738801956,0.0019853119738399982,0.004734205547720194
1778948671821575400,13.244575439453126,-0.0013744467869400978,0.0074830991216003895,0.003359758760780096
1778948671837901800,13.26090185546875,-0.00045814894838258624,0.0012217304902151227,0.00733038317412138
1778948671854251500,13.27725146484375,-0.00045814894838258624,-0.0064140851609408855,0.00931569468230009
1778948671870563000,13.29356298828125,-0.001679879380390048,-0.005039638374000788,0.006719517521560192
1778948671886894000,13.30989404296875,-0.001679879380390048,0.003359758760780096,0.0024434609804302454
1778948671903223800,13.326223876953126,-0.0027488935738801956,0.008704829961061478,0.0032070425804704428
1778948671919550500,13.342550537109375,-0.0019853119738399982,0.004886921960860491,0.004581489134579897
1778948671935872300,13.358872314453125,-0.0006108652451075613,-0.0006108652451075613,0.008704829961061478
1778948671952201200,13.375201171875,0.0006108652451075613,-0.003054326167330146,0.009773843921720982
1778948671968545500,13.391545654296875,-0.0012217304902151227,-0.007024950347840786,0.005497787147760391
1778948671984848100,13.40784814453125,-0.004734205547720194,-0.0039706239476799965,0.001832595793530345
1778948672001193000,13.42419287109375,-0.005345070734620094,0.0022907445672899485,0.004581489134579897
1778948672017524500,13.4405244140625,-0.004123340360820293,0.0007635815418325365,0.009162978269159794
1778948672033853700,13.456853759765625,-0.0025961773935705423,-0.005192354787141085,0.011759156361222267
1778948672050186000,13.47318603515625,-0.001679879380390048,-0.0074830991216003895,0.009926560334861279
1778948672066515000,13.489514892578125,-0.001679879380390048,-0.00427605677396059,0.003054326167330146
1778948672082843000,13.5058427734375,-0.004734205547720194,-0.0009162978967651725,0.001679879380390048
1778948672099176000,13.522176025390625,-0.005192354787141085,-0.0025961773935705423,0.003512475173920393
1778948672115497000,13.5384970703125,-0.004428773187100887,-0.0039706239476799965,0.005192354787141085
1778948672131839700,13.55483984375,-0.0022907445672899485,-0.0009162978967651725,0.00809396430850029
1778948672148165000,13.5711650390625,-0.0006108652451075613,-0.002138028386980295,0.013133603148162365
1778948672164512500,13.587512451171875,-0.0003054326225537807,-0.0074830991216003895,0.01038470957428217
1778948672180830000,13.603829833984374,-0.0032070425804704428,-0.007941247895359993,0.0019853119738399982
1778948672197158400,13.620158447265625,-0.0039706239476799965,-0.0009162978967651725,0.00045814894838258624
1778948672213507000,13.636507080078125,-0.002138028386980295,0.005345070734620094,0.00733038317412138
1778948672229829000,13.6528291015625,-0.0010690141934901476,0.0003054326225537807,0.015271631069481373
1778948672246161700,13.66916162109375,-0.0003054326225537807,-0.004581489134579897,0.015118914656341076
1778948672262500900,13.6855009765625,-0.00045814894838258624,0.0006108652451075613,0.007177666760981083
1778948672278825700,13.70182568359375,-0.0006108652451075613,0.004581489134579897,0.001832595793530345
1778948672295139300,13.718139404296876,-0.0025961773935705423,0.005803219974040985,0.004123340360820293
1778948672311470800,13.734470947265624,-0.001527163083665073,0.003054326167330146,0.006872233934700489
1778948672327802400,13.75080224609375,0.001679879380390048,0.004428773187100887,0.010995574295520782
1778948672344133600,13.767133544921874,0.0019853119738399982,0,0.008246680721640587
1778948672360458800,13.783458740234375,0,-0.005650503560900688,0.00045814894838258624
1778948672376799000,13.799799072265625,-0.0022907445672899485,-0.0010690141934901476,-0.004581489134579897
1778948672393124000,13.8161240234375,-0.001832595793530345,0.00366519158706069,0.0007635815418325365
1778948672409472500,13.832472412109375,-0.001679879380390048,0.0065668015740811825,0.008246680721640587
1778948672425798100,13.848798095703126,-0.0006108652451075613,0.00366519158706069,0.00733038317412138
1778948672442108200,13.865108154296875,-0.001527163083665073,0.0032070425804704428,0.003054326167330146
1778948672458449200,13.88144921875,-0.0027488935738801956,0.00855211354792118,-0.00015271631127689034
1778948672474777600,13.897777587890625,-0.0019853119738399982,0.012064588256180286,0.005345070734620094
1778948672491105500,13.91410546875,-0.0006108652451075613,0.005345070734620094,0.009468411095440388
1778948672507439600,13.930439697265625,0.0029016099870204926,-0.0027488935738801956,0.007788531947880983
1778948672523767800,13.946767822265626,0.002138028386980295,-0.0029016099870204926,0.0007635815418325365
1778948672540099600,13.963099609375,0.00015271631127689034,0.0022907445672899485,-0.0007635815418325365
1778948672556428300,13.97942822265625,-0.001679879380390048,0.007635815534740686,0.0012217304902151227
1778948672572759800,13.995759765625,-0.0010690141934901476,0.006108652334660292,0.00855211354792118
1778948672589092400,14.01209228515625,0.00045814894838258624,0.0024434609804302454,0.01038470957428217
1778948672605421300,14.02842138671875,0.0007635815418325365,-0.0009162978967651725,0.006719517521560192
1778948672621749200,14.044749267578124,-0.0003054326225537807,-0.00045814894838258624,0.0007635815418325365
1778948672638083000,14.0610830078125,-0.0010690141934901476,0.003359758760780096,-0.00015271631127689034
1778948672654411500,14.07741162109375,0.00045814894838258624,0.005955935921519995,0.0007635815418325365
1778948672670743000,14.093742919921874,0.003054326167330146,0.0039706239476799965,0.005345070734620094
1778948672687072500,14.110072509765626,0.0013744467869400978,-0.00366519158706069,0.00427605677396059
1778948672703405000,14.126405029296874,-0.0003054326225537807,-0.004734205547720194,0.00015271631127689034
1778948672719733200,14.142733154296875,-0.001832595793530345,0.0010690141934901476,-0.0039706239476799965
1778948672736054300,14.15905419921875,-0.0027488935738801956,0.00427605677396059,-0.003054326167330146
1778948672752405000,14.175405029296876,-0.0009162978967651725,0.003359758760780096,-0.0012217304902151227
1778948672768735700,14.19173583984375,0.0013744467869400978,-0.00045814894838258624,0.0024434609804302454
1778948672785048600,14.208048583984375,0.0010690141934901476,-0.0019853119738399982,0.001527163083665073
1778948672801387500,14.224387451171875,-0.0003054326225537807,-0.0025961773935705423,-0.003054326167330146
1778948672817720600,14.240720458984375,-0.0012217304902151227,0.0003054326225537807,-0.00366519158706069
1778948672834062600,14.2570625,0.0003054326225537807,0.00015271631127689034,0.0009162978967651725
1778948672850396200,14.273396240234375,0.001832595793530345,-0.0007635815418325365,0.00427605677396059
1778948672866722300,14.289722412109375,0.005039638374000788,-0.0039706239476799965,0.004734205547720194
1778948672883049500,14.306049560546874,0.003359758760780096,-0.005345070734620094,0.001679879380390048
1778948672899380000,14.3223798828125,0.002138028386980295,-0.0013744467869400978,-0.0003054326225537807
1778948672915712800,14.338712646484375,0.0009162978967651725,0.004428773187100887,0.00045814894838258624
1778948672932043300,14.355043212890624,0.0006108652451075613,0.0022907445672899485,0.005345070734620094
1778948672948375000,14.371375,0.0022907445672899485,-0.004123340360820293,0.006872233934700489
1778948672964689000,14.38768896484375,0.00427605677396059,-0.006719517521560192,0.004123340360820293
1778948672981021400,14.404021484375,0.0019853119738399982,-0.007024950347840786,-0.001679879380390048
1778948672997352000,14.42035205078125,0.0013744467869400978,0.003512475173920393,-0.004581489134579897
1778948673013682400,14.436682373046875,0.001832595793530345,0.009162978269159794,0
1778948673030014500,14.453014404296875,0.003054326167330146,-0.0012217304902151227,0.003512475173920393
1778948673046343200,14.46934326171875,0.00427605677396059,-0.010690141469240189,0.005039638374000788
1778948673062674400,14.48567431640625,0.005650503560900688,-0.005955935921519995,0.004734205547720194
1778948673079003600,14.502003662109376,0.005650503560900688,0.0007635815418325365,0.004123340360820293
1778948673095335400,14.51833544921875,0.004886921960860491,0.00015271631127689034,0.0024434609804302454
1778948673111665700,14.534665771484375,0.003817907767370343,-0.005192354787141085,-0.0009162978967651725
1778948673127996000,14.550995849609375,0.002138028386980295,-0.007788531947880983,-0.005039638374000788
1778948673144331300,14.567331298828124,0.00015271631127689034,0.0007635815418325365,-0.007177666760981083
1778948673160667600,14.583667724609375,0.00045814894838258624,0.00366519158706069,-0.00366519158706069
1778948673177004300,14.60000439453125,0.0025961773935705423,0.001832595793530345,-0.0024434609804302454
1778948673193332000,14.61633203125,0.004428773187100887,-0.0024434609804302454,-0.0025961773935705423
1778948673209661700,14.63266162109375,0.005650503560900688,-0.006719517521560192,-0.004886921960860491
1778948673225966600,14.648966552734375,0.005497787147760391,-0.005803219974040985,-0.007177666760981083
1778948673242308600,14.66530859375,0.0027488935738801956,-0.0010690141934901476,-0.007177666760981083
1778948673258639000,14.68163916015625,0.0013744467869400978,0.0024434609804302454,-0.003512475173920393
1778948673274969600,14.697969482421875,0.0025961773935705423,0.003512475173920393,-0.0022907445672899485
1778948673291302000,14.714302001953126,0.004428773187100887,0.0029016099870204926,-0.0025961773935705423
1778948673307630600,14.730630615234375,0.004886921960860491,-0.0024434609804302454,-0.004428773187100887
1778948673323973400,14.746973388671876,0.003817907767370343,-0.0012217304902151227,-0.008246680721640587
1778948673340291600,14.76329150390625,0.0013744467869400978,0.007024950347840786,-0.00733038317412138
1778948673356641500,14.7796416015625,0.001527163083665073,0.009162978269159794,-0.005803219974040985
1778948673372958500,14.79595849609375,0.0027488935738801956,0.0022907445672899485,-0.005345070734620094
1778948673389295600,14.812295654296875,0.0029016099870204926,-0.001679879380390048,-0.004428773187100887
1778948673405628000,14.8286279296875,0.0013744467869400978,0.0013744467869400978,-0.004428773187100887
1778948673421959400,14.84495947265625,-0.00015271631127689034,0.009621127508580685,-0.0019853119738399982
1778948673438287400,14.861287353515625,-0.0007635815418325365,0.013591751456260681,-0.0032070425804704428
1778948673454585600,14.877585693359375,-0.0003054326225537807,0.008246680721640587,-0.004886921960860491
1778948673470931200,14.89393115234375,0.0022907445672899485,-0.00045814894838258624,-0.005039638374000788
1778948673487267800,14.910267822265626,0.00427605677396059,-0.0029016099870204926,-0.00427605677396059
1778948673503583000,14.9265830078125,0.004428773187100887,-0.0019853119738399982,-0.0027488935738801956
1778948673519926000,14.942926025390625,0.004428773187100887,0.0022907445672899485,0.0032070425804704428
1778948673536243700,14.95924365234375,0.003512475173920393,0.003817907767370343,0.0024434609804302454
1778948673552589000,14.975589111328125,0.0022907445672899485,0.00045814894838258624,-0.004886921960860491
1778948673568917800,14.991917724609374,0.0003054326225537807,0,-0.009621127508580685
1778948673585249300,15.008249267578124,0,0.0024434609804302454,-0.010995574295520782
1778948673601578500,15.02457861328125,-0.0003054326225537807,0.0010690141934901476,-0.005803219974040985
1778948673617911000,15.0409111328125,0.00015271631127689034,0.0003054326225537807,-0.001527163083665073
1778948673634239500,15.057239501953125,0.0012217304902151227,-0.004886921960860491,-0.001527163083665073
1778948673650588200,15.073588134765625,0.0029016099870204926,-0.006872233934700489,-0.003512475173920393
1778948673666912300,15.089912353515626,0.00427605677396059,-0.004123340360820293,-0.004886921960860491
1778948673683224000,15.10622412109375,0.004886921960860491,-0.0065668015740811825,-0.006261368747800589
1778948673699554800,15.122554931640625,0.003359758760780096,-0.011759156361222267,-0.005039638374000788
1778948673715908900,15.138908935546874,0.0022907445672899485,-0.007635815534740686,-0.00733038317412138
1778948673732222200,15.15522216796875,-0.00015271631127689034,-0.0012217304902151227,-0.004123340360820293
1778948673748568600,15.171568603515626,-0.001527163083665073,-0.003054326167330146,-0.0013744467869400978
1778948673764897500,15.1878974609375,-0.00045814894838258624,-0.0025961773935705423,-0.0022907445672899485
1778948673781228800,15.204228759765625,0.001527163083665073,-0.003359758760780096,-0.005803219974040985
1778948673797565000,15.22056494140625,0.00366519158706069,-0.005955935921519995,-0.008246680721640587
1778948673813873400,15.236873291015625,0.003817907767370343,-0.009621127508580685,-0.013591751456260681
1778948673830205200,15.253205078125,0.0012217304902151227,-0.010537425056099892,-0.01466076634824276
1778948673846537000,15.269536865234375,-0.00015271631127689034,-0.001527163083665073,-0.01114829070866108
1778948673862866200,15.2858662109375,0.0003054326225537807,0.005803219974040985,-0.0019853119738399982
1778948673879198500,15.302198486328125,0.0027488935738801956,0.0032070425804704428,0.005345070734620094
1778948673895526700,15.318526611328124,0.004428773187100887,-0.0065668015740811825,0.005192354787141085
1778948673911876000,15.3348759765625,0.004428773187100887,-0.007635815534740686,-0.0009162978967651725
1778948673928187100,15.351187255859376,0.005497787147760391,-0.0013744467869400978,-0.005497787147760391
1778948673944510000,15.367510009765626,0.003512475173920393,0.0027488935738801956,-0.0074830991216003895
1778948673960846600,15.3838466796875,0.003054326167330146,-0.001832595793530345,-0.004581489134579897
1778948673977180200,15.40018017578125,0.003359758760780096,-0.004581489134579897,-0.0006108652451075613
1778948673993506600,15.416506591796875,0.003359758760780096,-0.003054326167330146,0.0022907445672899485
1778948674009845800,15.432845703125,0.0032070425804704428,-0.00045814894838258624,-0.0003054326225537807
1778948674026171000,15.4491708984375,0.003359758760780096,0.001527163083665073,-0.005650503560900688
1778948674042502700,15.465502685546875,0.003054326167330146,0.001832595793530345,-0.00855211354792118
1778948674058829800,15.481829833984374,-0.0003054326225537807,-0.001679879380390048,-0.011301007121801376
1778948674075164400,15.498164306640625,-0.00045814894838258624,0.0029016099870204926,-0.008857546374201775
1778948674091491300,15.5144912109375,0.001679879380390048,0.003054326167330146,-0.0032070425804704428
1778948674107824400,15.530824462890624,0.00427605677396059,-0.008399397134780884,-0.0007635815418325365
1778948674124153600,15.547153564453126,0.0025961773935705423,-0.01038470957428217,-0.004123340360820293
1778948674140504000,15.563504150390624,0.00015271631127689034,-0.0022907445672899485,-0.010537425056099892
1778948674156826600,15.57982666015625,-0.003359758760780096,0.00855211354792118,-0.013591751456260681
1778948674173160000,15.596159912109375,-0.00427605677396059,0.004734205547720194,-0.011301007121801376
1778948674189489000,15.612489013671874,-0.0039706239476799965,-0.003359758760780096,-0.003512475173920393
1778948674205821400,15.628821533203125,0.00015271631127689034,-0.005650503560900688,0.0029016099870204926
1778948674222147800,15.64514794921875,0.0019853119738399982,-0.006872233934700489,0.001527163083665073
1778948674238482000,15.66148193359375,0.0039706239476799965,-0.00427605677396059,-0.003359758760780096
1778948674254810400,15.677810302734375,0.003054326167330146,0.0024434609804302454,-0.009621127508580685
1778948674271140600,15.694140625,0.0022907445672899485,0.0022907445672899485,-0.005803219974040985
1778948674287470000,15.710469970703125,0.0012217304902151227,-0.001527163083665073,0
1778948674303803100,15.72680322265625,-0.0010690141934901476,-0.0012217304902151227,0.003512475173920393
1778948674320132900,15.7431328125,-0.0009162978967651725,0.00015271631127689034,0.0013744467869400978
1778948674336448300,15.7594482421875,-0.0006108652451075613,0.00045814894838258624,-0.003054326167330146
1778948674352791300,15.775791259765626,0.0009162978967651725,-0.003054326167330146,-0.00733038317412138
1778948674369108700,15.792108642578125,0.0007635815418325365,-0.00931569468230009,-0.008857546374201775
1778948674385422300,15.80842236328125,0.0010690141934901476,-0.009773843921720982,-0.007024950347840786
1778948674401769700,15.824769775390624,-0.0003054326225537807,-0.0029016099870204926,-0.005955935921519995
1778948674418101800,15.841101806640625,-0.0025961773935705423,0.0027488935738801956,-0.004886921960860491
1778948674434433300,15.857433349609375,-0.0029016099870204926,0.006719517521560192,-0.0024434609804302454
1778948674450762800,15.8737626953125,-0.0007635815418325365,0.0065668015740811825,-0.0013744467869400978
1778948674467095300,15.89009521484375,0.0007635815418325365,-0.0025961773935705423,-0.004428773187100887
1778948674483422500,15.90642236328125,0.0019853119738399982,-0.0012217304902151227,-0.0022907445672899485
1778948674499755000,15.922755126953126,0.0032070425804704428,0.0022907445672899485,-0.0024434609804302454
1778948674516084500,15.93908447265625,0.0024434609804302454,-0.001832595793530345,0.00015271631127689034
1778948674532407600,15.955407470703125,0.002138028386980295,-0.0003054326225537807,0.001832595793530345
1778948674548745500,15.971745361328125,0.0013744467869400978,0,0.001832595793530345
1778948674565075000,15.988074951171875,0.00015271631127689034,0.00015271631127689034,0.0012217304902151227
1778948674581408800,16.00440869140625,-0.0003054326225537807,0.0007635815418325365,-0.003359758760780096
1778948674597750300,16.020750244140626,-0.0009162978967651725,0.005192354787141085,-0.005345070734620094
1778948674614067500,16.0370673828125,0.0006108652451075613,0.01038470957428217,-0.003359758760780096
1778948674630412500,16.05341259765625,0.0029016099870204926,0.00855211354792118,0.003359758760780096
1778948674646745300,16.069745361328124,0.005192354787141085,-0.003817907767370343,0.0027488935738801956
1778948674663055400,16.086055419921873,0.004581489134579897,-0.00809396430850029,-0.0009162978967651725
1778948674679402500,16.102402587890627,0.001527163083665073,0.00045814894838258624,-0.008857546374201775
1778948674695757000,16.118757080078126,-0.0010690141934901476,0.006719517521560192,-0.005955935921519995
1778948674712067800,16.13506787109375,-0.0027488935738801956,0.0013744467869400978,-0.00366519158706069
1778948674728390000,16.151389892578123,-0.002138028386980295,-0.00015271631127689034,-0.0039706239476799965
1778948674744718300,16.16771826171875,-0.0007635815418325365,0.006261368747800589,-0.004734205547720194
1778948674761053700,16.1840537109375,0.0007635815418325365,0.004886921960860491,-0.001527163083665073
1778948674777385500,16.200385498046874,0.0027488935738801956,-0.0003054326225537807,0
1778948674793714000,16.2167138671875,0.005192354787141085,-0.0022907445672899485,-0.0013744467869400978
1778948674810051300,16.23305126953125,0.003359758760780096,-0.0003054326225537807,-0.00366519158706069
1778948674826378200,16.249378173828124,0.001527163083665073,0.004581489134579897,-0.005955935921519995
1778948674842703400,16.265703369140624,-0.0012217304902151227,0.006872233934700489,-0.004734205547720194
1778948674859041800,16.282041748046876,-0.0022907445672899485,0.005803219974040985,-0.0007635815418325365
1778948674875393800,16.298393798828126,-0.001832595793530345,0.005497787147760391,0.0029016099870204926
1778948674891699700,16.31469970703125,0.0012217304902151227,0.0019853119738399982,0.0003054326225537807
1778948674908025300,16.331025390625,0.003359758760780096,-0.00931569468230009,-0.005803219974040985
1778948674924349000,16.347348876953124,0.004428773187100887,-0.005497787147760391,-0.005803219974040985
1778948674940676600,16.363676513671876,0.0013744467869400978,0.00366519158706069,-0.004886921960860491
1778948674957008100,16.380008056640627,-0.001527163083665073,0.00809396430850029,0.0009162978967651725
1778948674973337300,16.39633740234375,-0.0029016099870204926,0.00931569468230009,0.006872233934700489
1778948674989668600,16.412668701171874,-0.0025961773935705423,0.0065668015740811825,0.0065668015740811825
1778948675005998600,16.42899853515625,-0.0006108652451075613,0.0010690141934901476,-0.0006108652451075613
1778948675022330400,16.445330322265626,0.001832595793530345,-0.005192354787141085,-0.004581489134579897
1778948675038660400,16.461660400390624,0.0032070425804704428,-0.007024950347840786,-0.005803219974040985
1778948675054992100,16.4779921875,0.002138028386980295,-0.00809396430850029,-0.005039638374000788
1778948675071320300,16.4943203125,0,-0.005497787147760391,-0.003512475173920393
1778948675087651600,16.510651611328125,-0.0025961773935705423,0.003512475173920393,0.001679879380390048
1778948675103981300,16.526981201171875,-0.00427605677396059,0.0064140851609408855,0.0064140851609408855
1778948675120312300,16.543312255859377,-0.005192354787141085,0.001832595793530345,0.0065668015740811825
1778948675136642300,16.559642333984375,-0.0032070425804704428,0.001527163083665073,0.0029016099870204926
1778948675152973600,16.5759736328125,-0.0007635815418325365,0.0025961773935705423,-0.0013744467869400978
1778948675169303000,16.592302978515626,0.0025961773935705423,-0.010842857882380486,0.001527163083665073
1778948675185624600,16.60862451171875,0.0064140851609408855,-0.016035212203860283,0.004734205547720194
1778948675201964000,16.624964111328126,0.006872233934700489,-0.011759156361222267,0.005650503560900688
1778948675218312700,16.641312744140624,0.003054326167330146,-0.006261368747800589,0.001832595793530345
1778948675234638000,16.65763818359375,-0.00015271631127689034,0.001679879380390048,-0.0027488935738801956
1778948675250972000,16.673971923828127,-0.004581489134579897,0.0039706239476799965,0.001527163083665073
1778948675267270700,16.690270751953125,-0.0064140851609408855,0.009162978269159794,0.009010262787342072
1778948675283647200,16.706647216796874,-0.0039706239476799965,0.004581489134579897,0.008246680721640587
1778948675299933700,16.72293359375,0.003054326167330146,-0.005039638374000788,0.0029016099870204926
1778948675316282600,16.73928271484375,0.00809396430850029,-0.010842857882380486,-0.0019853119738399982
1778948675332607500,16.755607421875,0.010231993161141872,-0.01725694350898266,-0.0039706239476799965
1778948675348939000,16.77193896484375,0.004123340360820293,-0.012675453908741474,-0.004581489134579897
1778948675365256400,16.78825634765625,-0.003054326167330146,0.0013744467869400978,0.0003054326225537807
1778948675381601500,16.8046015625,-0.007177666760981083,0.010995574295520782,0.00809396430850029
1778948675397928700,16.8209287109375,-0.007941247895359993,0.005345070734620094,0.012064588256180286
1778948675414269400,16.83726953125,-0.004428773187100887,-0.0010690141934901476,0.010995574295520782
1778948675430590200,16.853590087890623,0.0007635815418325365,-0.00733038317412138,0.003359758760780096
1778948675446918700,16.869918701171876,0.005803219974040985,-0.011301007121801376,-0.003054326167330146
1778948675463257900,16.8862578125,0.003817907767370343,-0.010995574295520782,-0.010842857882380486
1778948675479582700,16.902582763671877,0.0007635815418325365,-0.007941247895359993,-0.009468411095440388
1778948675495909000,16.9189091796875,-0.0025961773935705423,0.003359758760780096,-0.0007635815418325365
1778948675512261600,16.93526171875,-0.005192354787141085,0.008246680721640587,0.0065668015740811825
1778948675528560600,16.951560546875,-0.004581489134579897,0.0032070425804704428,0.005192354787141085
1778948675544891600,16.9678916015625,-0.001527163083665073,0.0032070425804704428,0.003512475173920393
1778948675561232600,16.984232666015625,0.001679879380390048,0.002138028386980295,0.00045814894838258624
1778948675577566700,17.000566650390624,0.001832595793530345,0.0022907445672899485,-0.003512475173920393
1778948675593895000,17.01689501953125,0.0027488935738801956,0.005803219974040985,0.00015271631127689034
1778948675610213400,17.03321337890625,0.0022907445672899485,0.0003054326225537807,0.004123340360820293
1778948675626542600,17.04954248046875,0.0019853119738399982,-0.00045814894838258624,0.00931569468230009
1778948675642888700,17.065888671875,0.0007635815418325365,0.006872233934700489,0.009621127508580685
1778948675659213600,17.082213623046876,0.0019853119738399982,0.009162978269159794,0.0074830991216003895
1778948675675595500,17.098595458984374,0.001527163083665073,0.004123340360820293,0.005345070734620094
1778948675691885800,17.1148857421875,0.0010690141934901476,0.00427605677396059,0.001832595793530345
1778948675708210700,17.131210693359375,0.002138028386980295,0.010995574295520782,0.00045814894838258624
1778948675724530000,17.147530029296874,0.0027488935738801956,0.008857546374201775,0.0025961773935705423
1778948675740870400,17.163870361328126,0.001679879380390048,-0.0013744467869400978,0.002138028386980295
1778948675757199000,17.18019921875,-0.0003054326225537807,0.001527163083665073,0.0019853119738399982
1778948675773532400,17.196532470703126,-0.00045814894838258624,0.00427605677396059,0
1778948675789860400,17.2128603515625,-0.0012217304902151227,0.003512475173920393,0.002138028386980295
1778948675806209300,17.229209228515625,0.0003054326225537807,0.006872233934700489,0.004428773187100887
1778948675822532900,17.245532958984374,0.001832595793530345,0.004581489134579897,0.005345070734620094
1778948675838868200,17.2618681640625,0.00427605677396059,-0.001832595793530345,0.00427605677396059
1778948675855196200,17.278196044921874,0.004123340360820293,0.0024434609804302454,0.0064140851609408855
1778948675871510300,17.29451025390625,0.0024434609804302454,0.005497787147760391,0.005955935921519995
1778948675887843300,17.31084326171875,0.0007635815418325365,0.001527163083665073,0.005803219974040985
1778948675904175900,17.32717578125,-0.0003054326225537807,0.004734205547720194,0.005039638374000788
1778948675920500700,17.343500732421877,0.0006108652451075613,0.0032070425804704428,0.005039638374000788
1778948675936838700,17.359838623046876,0.001679879380390048,-0.0025961773935705423,0.0024434609804302454
1778948675953163800,17.376163818359377,0.002138028386980295,-0.003054326167330146,0.004581489134579897
1778948675969497300,17.392497314453124,0.0024434609804302454,-0.005955935921519995,0.002138028386980295
1778948675985826000,17.408825927734377,0.0009162978967651725,-0.0013744467869400978,0.002138028386980295
1778948676002174200,17.42517431640625,0.0012217304902151227,0.005345070734620094,0.003054326167330146
1778948676018483500,17.4414833984375,0.001832595793530345,0.004123340360820293,0.005497787147760391
1778948676034819300,17.4578193359375,0.0022907445672899485,-0.00427605677396059,0.01038470957428217
1778948676051147800,17.474147705078124,0.0024434609804302454,-0.009621127508580685,0.010231993161141872
1778948676067479600,17.4904794921875,0.0013744467869400978,-0.00855211354792118,0.00427605677396059
1778948676083793200,17.506793212890624,0,-0.0010690141934901476,0.001679879380390048
1778948676100137500,17.523137451171873,0.00015271631127689034,0.0022907445672899485,0.002138028386980295
1778948676116469800,17.5394697265625,0.0019853119738399982,-0.003054326167330146,0.005039638374000788
1778948676132818000,17.55581787109375,0.0024434609804302454,-0.014966198243200779,0.005039638374000788
1778948676149144800,17.572144775390626,0.001679879380390048,-0.01618792861700058,0.0032070425804704428
1778948676165459500,17.58845947265625,0.0012217304902151227,-0.00427605677396059,0
1778948676181791200,17.604791259765626,0.0006108652451075613,-0.0009162978967651725,0.002138028386980295
1778948676198122500,17.62112255859375,0.0013744467869400978,-0.005955935921519995,0.005039638374000788
1778948676214452700,17.63745263671875,0.003359758760780096,-0.010231993161141872,0.010079276748001575
1778948676230784800,17.65378466796875,0.004428773187100887,-0.010842857882380486,0.007635815534740686
1778948676247113000,17.670113037109374,0.002138028386980295,-0.007024950347840786,0.0022907445672899485
1778948676263445000,17.686445068359376,0.001832595793530345,0.0024434609804302454,0.00015271631127689034
1778948676279788300,17.702788330078125,0.0025961773935705423,-0.003054326167330146,0.005497787147760391
1778948676296120000,17.7191201171875,0.0039706239476799965,-0.010995574295520782,0.00855211354792118
1778948676312428800,17.7354287109375,0.00427605677396059,-0.010690141469240189,0.006261368747800589
1778948676328767200,17.751767333984375,0.004428773187100887,-0.003512475173920393,0.005039638374000788
1778948676345101600,17.7681015625,0.003817907767370343,-0.0027488935738801956,0.0019853119738399982
1778948676361425200,17.784425048828126,0.001527163083665073,-0.004734205547720194,0.002138028386980295
1778948676377759700,17.800759765625,-0.0003054326225537807,-0.00427605677396059,0.002138028386980295
1778948676394086000,17.8170859375,-0.001527163083665073,-0.0013744467869400978,0.003817907767370343
1778948676410420500,17.83342041015625,-0.0009162978967651725,0,0.006261368747800589
1778948676426753000,17.8497529296875,0.001679879380390048,-0.004123340360820293,0.005955935921519995
1778948676443078400,17.866078369140624,0.001832595793530345,-0.008857546374201775,0.001527163083665073
1778948676459405800,17.88240576171875,0.0010690141934901476,-0.009773843921720982,-0.0029016099870204926
1778948676475742700,17.89874267578125,-0.00015271631127689034,-0.007177666760981083,-0.005345070734620094
1778948676492089000,17.915089111328125,0.0013744467869400978,0.0003054326225537807,-0.001527163083665073
1778948676508385000,17.931385009765624,0.0032070425804704428,0.00366519158706069,0.00733038317412138
1778948676524732200,17.947732177734373,0.0032070425804704428,0.00015271631127689034,0.01038470957428217
1778948676541061400,17.964061279296875,0.0010690141934901476,0.0009162978967651725,0.003512475173920393
1778948676557392100,17.98039208984375,0.0007635815418325365,0.013744467869400978,-0.0009162978967651725
1778948676573724200,17.99672412109375,0.0012217304902151227,0.009162978269159794,-0.00015271631127689034
1778948676590052400,18.01305224609375,0.001527163083665073,0.003359758760780096,0.0009162978967651725
1778948676606400800,18.02940087890625,0.0019853119738399982,0.0019853119738399982,-0.00015271631127689034
1778948676622725600,18.0457255859375,0.0032070425804704428,0.005955935921519995,0.0010690141934901476
1778948676639061000,18.06206103515625,0.0032070425804704428,0.00427605677396059,0.0025961773935705423
1778948676655387600,18.0783876953125,0.0024434609804302454,0.0027488935738801956,0.0007635815418325365
1778948676671719000,18.094718994140624,0.00045814894838258624,0.008246680721640587,-0.0006108652451075613
1778948676688051000,18.111051025390626,-0.0010690141934901476,0.008857546374201775,-0.0010690141934901476
1778948676704363000,18.127363037109376,0.00015271631127689034,0.005497787147760391,0.0039706239476799965
1778948676720706600,18.14370654296875,0.0009162978967651725,-0.0012217304902151227,0.006719517521560192
1778948676737043500,18.16004345703125,0.001527163083665073,-0.0065668015740811825,0.0025961773935705423
1778948676753355800,18.176355712890626,0.0009162978967651725,-0.00366519158706069,0.001527163083665073
1778948676769687800,18.192687744140624,0.00015271631127689034,0.001832595793530345,0.00015271631127689034
1778948676786010600,18.2090107421875,-0.00015271631127689034,0.0009162978967651725,0.001679879380390048
1778948676802348500,18.2253486328125,-0.0007635815418325365,-0.00015271631127689034,0.001832595793530345
1778948676818680800,18.241680908203126,-0.001832595793530345,0.003512475173920393,0.001832595793530345
1778948676835009300,18.25800927734375,-0.0013744467869400978,0.001832595793530345,0.0003054326225537807
1778948676851358500,18.2743583984375,-0.0025961773935705423,-0.005345070734620094,-0.0007635815418325365
1778948676867683800,18.290683837890626,-0.001679879380390048,-0.007177666760981083,-0.0019853119738399982
1778948676883999500,18.30699951171875,-0.00045814894838258624,-0.009010262787342072,-0.0009162978967651725
1778948676900328400,18.323328369140626,-0.00045814894838258624,-0.009010262787342072,-0.001679879380390048
1778948676916665600,18.33966552734375,-0.0007635815418325365,-0.003512475173920393,-0.0025961773935705423
1778948676932992300,18.3559921875,-0.001679879380390048,-0.0025961773935705423,-0.002138028386980295
1778948676949324800,18.37232470703125,-0.0013744467869400978,-0.0009162978967651725,0.001527163083665073
1778948676965653000,18.388653076171874,-0.00045814894838258624,-0.0029016099870204926,0.004581489134579897
1778948676982001700,18.405001708984376,-0.001679879380390048,-0.004734205547720194,0.0019853119738399982
1778948676998301000,18.421301025390626,-0.001832595793530345,-0.0027488935738801956,0.00015271631127689034
1778948677014653400,18.4376533203125,-0.0013744467869400978,-0.001527163083665073,-0.001832595793530345
1778948677030975000,18.45397509765625,-0.001679879380390048,-0.005345070734620094,-0.004734205547720194
1778948677047306800,18.470306640625,-0.001679879380390048,-0.005345070734620094,-0.0013744467869400978
1778948677063635700,18.4866357421875,-0.0009162978967651725,-0.001832595793530345,0.001527163083665073
1778948677079968300,18.50296826171875,-0.0003054326225537807,-0.0022907445672899485,0.0009162978967651725
1778948677096299500,18.519299560546877,0.0003054326225537807,0.0006108652451075613,0.0024434609804302454
1778948677112646000,18.53564599609375,-0.00015271631127689034,0,0.0029016099870204926
1778948677128950500,18.551950439453126,-0.0027488935738801956,-0.0029016099870204926,-0.0010690141934901476
1778948677145290500,18.56829052734375,-0.0027488935738801956,0.00366519158706069,-0.004123340360820293
1778948677161617200,18.5846171875,-0.003054326167330146,0.006261368747800589,-0.001832595793530345
1778948677177956400,18.600956298828127,-0.0025961773935705423,0.0003054326225537807,0.00015271631127689034
1778948677194279400,18.617279541015623,-0.001832595793530345,-0.005803219974040985,0.00045814894838258624
1778948677210609000,18.63360888671875,-0.0024434609804302454,0.001679879380390048,-0.001527163083665073
1778948677226960100,18.649960205078123,-0.0029016099870204926,0.004428773187100887,-0.003054326167330146
1778948677243269000,18.66626904296875,-0.0029016099870204926,0.0010690141934901476,-0.0025961773935705423
1778948677259598600,18.6825986328125,-0.0039706239476799965,-0.0022907445672899485,-0.001527163083665073
1778948677275925000,18.698925048828126,-0.0025961773935705423,0.00366519158706069,-0.0009162978967651725
1778948677292279000,18.715279052734374,-0.002138028386980295,0.004886921960860491,0.0019853119738399982
1778948677308607500,18.731607421875,-0.001832595793530345,0.0009162978967651725,0.0003054326225537807
1778948677324941000,18.747941162109374,-0.0027488935738801956,-0.001527163083665073,-0.0013744467869400978
1778948677341252000,18.764252197265623,-0.00366519158706069,0.001832595793530345,-0.003054326167330146
1778948677357583600,18.78058349609375,-0.003054326167330146,0.005192354787141085,-0.0025961773935705423
1778948677373912600,18.79691259765625,-0.005192354787141085,0.0065668015740811825,-0.0024434609804302454
1778948677390248200,18.813248291015626,-0.004428773187100887,0.004428773187100887,-0.00015271631127689034
1778948677406577700,18.82957763671875,0.00015271631127689034,0.0007635815418325365,0.0007635815418325365
1778948677422916000,18.845916015625,0.001679879380390048,-0.003054326167330146,0.002138028386980295
1778948677439227000,18.862226806640624,0.0003054326225537807,-0.0029016099870204926,-0.0025961773935705423
1778948677455566800,18.87856689453125,-0.0025961773935705423,0.004734205547720194,-0.003512475173920393
1778948677471912200,18.894912109375,-0.0029016099870204926,0.009926560334861279,-0.0010690141934901476
1778948677488240400,18.911240478515627,-0.0039706239476799965,0.004581489134579897,0
1778948677504546000,18.927546142578127,-0.005192354787141085,-0.00045814894838258624,0.001832595793530345
1778948677520888600,18.943888671875,-0.005039638374000788,-0.001527163083665073,0.0013744467869400978
1778948677537220900,18.960220947265626,-0.0022907445672899485,0.0032070425804704428,0.001527163083665073
1778948677553549600,18.976549560546875,-0.0029016099870204926,-0.0007635815418325365,0.001679879380390048
1778948677569880800,18.992880859375,-0.0029016099870204926,-0.010537425056099892,-0.001527163083665073
1778948677586210600,19.00921044921875,-0.004734205547720194,-0.005192354787141085,-0.0032070425804704428
1778948677602560500,19.025560546875,-0.004734205547720194,0.00427605677396059,-0.006261368747800589
1778948677618884900,19.041884765625,-0.004428773187100887,0.003359758760780096,-0.001527163083665073
1778948677635218700,19.05821875,-0.004123340360820293,-0.00045814894838258624,0.0029016099870204926
1778948677651544600,19.074544677734377,-0.0024434609804302454,-0.0003054326225537807,0.001527163083665073
1778948677667878400,19.09087841796875,-0.001679879380390048,0.0029016099870204926,-0.0007635815418325365
1778948677684174000,19.107174072265625,-0.0007635815418325365,0.0012217304902151227,-0.0013744467869400978
1778948677700534500,19.123534423828126,0.001527163083665073,-0.00366519158706069,-0.003512475173920393
1778948677716871700,19.13987158203125,0.0012217304902151227,-0.0009162978967651725,-0.001527163083665073
1778948677733200100,19.1562001953125,0.0003054326225537807,0.004581489134579897,0.0013744467869400978
1778948677749529000,19.172529052734376,-0.00045814894838258624,0.005803219974040985,0.004428773187100887
1778948677765859800,19.18885986328125,-0.001527163083665073,0.005955935921519995,0.005650503560900688
1778948677782189300,19.205189208984375,-0.0013744467869400978,0.007024950347840786,0.005803219974040985
1778948677798521600,19.221521484375,0.0006108652451075613,0.004581489134579897,0.0027488935738801956
1778948677814842000,19.237842041015625,0.003817907767370343,0.005039638374000788,-0.0003054326225537807
1778948677831179500,19.254179443359376,0.002138028386980295,-0.0012217304902151227,-0.0013744467869400978
1778948677847513600,19.270513671875,0,-0.0019853119738399982,-0.004886921960860491
1778948677863826700,19.28682666015625,-0.0007635815418325365,0.005497787147760391,-0.003054326167330146
1778948677880155600,19.30315576171875,-0.0012217304902151227,0.010537425056099892,0.0003054326225537807
1778948677896492300,19.3194921875,-0.0012217304902151227,0.009621127508580685,0.007024950347840786
1778948677912819200,19.335819091796875,0.0003054326225537807,0.005345070734620094,0.007635815534740686
1778948677929150500,19.352150390625,0.0025961773935705423,-0.00045814894838258624,0.005803219974040985
1778948677945480700,19.368480712890626,0.0039706239476799965,-0.005955935921519995,0.0029016099870204926
1778948677961811700,19.384811767578125,0,-0.008246680721640587,-0.0009162978967651725
1778948677978141000,19.401140869140626,-0.00045814894838258624,-0.001679879380390048,0.00045814894838258624
1778948677994473500,19.417473388671876,-0.0012217304902151227,0.010079276748001575,0.003359758760780096
1778948678010789000,19.4337890625,-0.001527163083665073,0.004123340360820293,0.0039706239476799965
1778948678027136800,19.45013671875,0.0006108652451075613,-0.0032070425804704428,0.0006108652451075613
1778948678043463000,19.466462890625,0.0019853119738399982,-0.0006108652451075613,-0.0006108652451075613
1778948678059794000,19.4827939453125,0.0027488935738801956,-0.002138028386980295,0.0025961773935705423
1778948678076123600,19.49912353515625,0.00015271631127689034,-0.00045814894838258624,0.003359758760780096
1778948678092472000,19.51547216796875,0.00045814894838258624,0.0022907445672899485,0.003359758760780096
1778948678108799500,19.531799560546876,0.0019853119738399982,0.004886921960860491,0.0024434609804302454
1778948678125129500,19.54812939453125,0.0022907445672899485,0.0032070425804704428,0.0027488935738801956
1778948678141447200,19.564447265625,0.0012217304902151227,-0.0009162978967651725,-0.00045814894838258624
