time,seconds_elapsed,z,y,x
1780001801692029700,0.10502978515625,-1.1682462692260742,-1.7729408740997314,1.2008038759231567
1780001801708361000,0.12136083984375,-3.2415084838867188,-2.8648247718811035,1.6347341537475586
1780001801724694300,0.1376943359375,-3.860884666442871,-3.182466506958008,1.3207719326019287
1780001801741025800,0.15402587890625,-2.7967967987060547,-2.709761619567871,2.180457592010498
1780001801757359600,0.170359619140625,-4.531276702880859,-1.8620595932006836,1.0584008693695068
1780001801773690000,0.186690185546875,-5.567293167114258,-0.46913957595825195,-1.799160361289978
1780001801790039600,0.20303955078125,-6.593116760253906,-3.7491443157196045,-4.863126277923584
1780001801806370300,0.219370361328125,-5.460659980773926,-5.137104034423828,-3.2564892768859863
1780001801822703400,0.235703369140625,-6.984555244445801,-6.627687454223633,-1.6024048328399658
1780001801839021800,0.252021728515625,-5.4885663986206055,-6.251814842224121,-1.024982213973999
1780001801855368000,0.268367919921875,-7.1652302742004395,-7.956276893615723,-0.6494572162628174
1780001801871682800,0.284682861328125,-6.947803020477295,-9.137418746948242,-1.0203561782836914
1780001801888054000,0.301053955078125,-5.99859619140625,-10.299043655395508,-1.2218432426452637
1780001801904379000,0.31737890625,-2.9138083457946777,-11.495650291442871,0.15766000747680664
1780001801920711400,0.33371142578125,0.9364972114562988,-12.64970874786377,2.2397804260253906
1780001801937039600,0.35003955078125,3.9956231117248535,-11.620436668395996,3.8019165992736816
1780001801953381000,0.366381103515625,4.625155448913574,-8.4287691116333,4.889464378356934
1780001801969708800,0.382708740234375,4.059871673583984,-6.394309043884277,7.419085502624512
1780001801986042400,0.39904248046875,7.013482093811035,-4.9645466804504395,9.752104759216309
1780001802002369500,0.41536962890625,8.648069381713867,-3.6953072547912598,11.659786224365234
1780001802018710800,0.431710693359375,10.008047103881836,-2.485398292541504,13.586950302124023
1780001802035035000,0.448034912109375,10.119487762451172,0.035668134689331055,14.39399242401123
1780001802051376600,0.464376708984375,8.214905738830566,4.538026809692383,13.598323822021484
1780001802067699200,0.48069921875,7.3173394203186035,7.100278854370117,12.471403121948242
1780001802084042500,0.49704248046875,6.438731670379639,8.084197044372559,11.365579605102539
1780001802100347100,0.51334716796875,7.026055812835693,7.67057991027832,10.310930252075195
1780001802116694500,0.529694580078125,6.2160515785217285,8.642007827758789,8.85576057434082
1780001802133020700,0.546020751953125,2.476731300354004,7.95002555847168,7.408185958862305
1780001802149370400,0.562370361328125,-1.1899328231811523,8.54401969909668,6.73034143447876
1780001802165685800,0.578685791015625,-6.768213272094727,9.065340042114258,6.521588325500488
1780001802181998300,0.594998291015625,0.13837575912475586,5.5983405113220215,4.994349956512451
1780001802198338000,0.611338134765625,0.9465804100036621,4.014456748962402,3.2919845581054688
1780001802214685400,0.627685546875,-1.9564712047576904,4.397727966308594,0.04401826858520508
1780001802231016200,0.64401611328125,-3.1650094985961914,6.003227710723877,-2.875309705734253
1780001802247350300,0.660350341796875,-5.1841044425964355,4.133632659912109,-3.229825019836426
1780001802263682000,0.67668212890625,-4.350265979766846,0.018767356872558594,-1.3627700805664062
1780001802280015400,0.693015380859375,-1.74489164352417,-0.49577999114990234,0.3039231300354004
1780001802296363500,0.709363525390625,-0.9354903697967529,1.0835862159729004,-0.7782196998596191
1780001802312694500,0.725694580078125,0.9653382301330566,2.4800004959106445,-2.779186964035034
1780001802329025800,0.74202587890625,0.11681127548217773,0.4858112335205078,-2.2990636825561523
1780001802345355800,0.758355712890625,-0.8138597011566162,-1.3174920082092285,-0.9966940879821777
1780001802361681200,0.77468115234375,-3.4207117557525635,0.29020214080810547,-1.883575201034546
1780001802378018800,0.791018798828125,-1.4336475133895874,1.893418788909912,-3.3137242794036865
1780001802394360300,0.8073603515625,-1.7651336193084717,-0.39401674270629883,-2.1452832221984863
1780001802410686700,0.823686767578125,-2.439276933670044,-3.9240503311157227,-0.31128740310668945
1780001802427042000,0.8400419921875,-3.453676462173462,-5.37803840637207,0.45564985275268555
1780001802443353600,0.856353515625,-3.4565582275390625,-3.1619858741760254,0.7709941864013672
1780001802459667200,0.872667236328125,0.20560669898986816,0.25034570693969727,-0.11472606658935547
1780001802476020700,0.889020751953125,0.9397023916244507,0.3035564422607422,0.9061598777770996
1780001802492323000,0.905322998046875,-0.3364184498786926,-0.48400211334228516,1.9059791564941406
1780001802508683500,0.92168359375,-2.0795798301696777,-0.24253606796264648,1.6805295944213867
1780001802524992300,0.9379921875,-2.54410457611084,-0.2783241271972656,1.120851993560791
1780001802541318400,0.954318359375,-2.427532434463501,0.6534695625305176,1.495405673980713
1780001802557680600,0.9706806640625,-0.0912676751613617,1.4498023986816406,1.2858796119689941
1780001802574015200,0.98701513671875,-0.8148215413093567,2.2314047813415527,1.8545255661010742
1780001802590345000,1.003344970703125,-0.0017468929290771484,2.232123851776123,2.3220982551574707
1780001802606667500,1.01966748046875,1.9233595132827759,1.4071869850158691,1.3807621002197266
1780001802622998500,1.03599853515625,0.1794193983078003,0.9077768325805664,0.8910455703735352
1780001802639318000,1.052318115234375,-1.4389642477035522,0.02713489532470703,0.8906326293945312
1780001802655663600,1.06866357421875,-3.4804024696350098,-0.36655521392822266,1.0325660705566406
1780001802671998200,1.084998291015625,-2.1700921058654785,1.3532943725585938,0.4363212585449219
1780001802688327700,1.10132763671875,-0.011294126510620117,1.1199383735656738,1.8823041915893555
1780001802704664000,1.1176640625,3.3819000720977783,-1.2908635139465332,0.9227628707885742
1780001802720996900,1.133996826171875,2.136209011077881,1.1942925453186035,-1.5339727401733398
1780001802737323000,1.150322998046875,1.506471872329712,2.132225751876831,-1.3486032485961914
1780001802753659100,1.1666591796875,-0.48830103874206543,-2.3746142387390137,-0.22446155548095703
1780001802769992700,1.18299267578125,5.466033458709717,4.385467529296875,4.400759696960449
1780001802786342000,1.199341796875,2.5435657501220703,3.770488739013672,3.052119255065918
1780001802802655700,1.21565576171875,-0.44783878326416016,0.9772305488586426,2.646851062774658
1780001802819003600,1.232003662109375,1.4433801174163818,1.8517165184020996,3.150789260864258
1780001802835320800,1.24832080078125,4.01224946975708,1.8401288986206055,4.789037704467773
1780001802851669000,1.2646689453125,3.5360796451568604,2.444385290145874,7.1061110496521
1780001802868002800,1.2810029296875,2.095863103866577,1.0194010734558105,7.0259809494018555
1780001802884334000,1.297333984375,2.1523637771606445,-0.10458755493164062,4.896580219268799
1780001802900665600,1.31366552734375,0.8848583698272705,-1.199632167816162,2.957563877105713
1780001802916998700,1.32999853515625,-0.17212629318237305,-2.654087543487549,1.5331835746765137
1780001802933334300,1.346334228515625,-1.762690544128418,-1.3759799003601074,0.46470022201538086
1780001802949664000,1.3626640625,-4.539874076843262,0.12928342819213867,-0.49515867233276367
1780001802966000400,1.37900048828125,-6.076058387756348,-0.17003536224365234,-2.09751558303833
1780001802982302500,1.395302490234375,-6.320366859436035,-2.207871437072754,-2.600724697113037
1780001802998655700,1.41165576171875,-6.287660121917725,-2.1130852699279785,-3.010037899017334
1780001803015001900,1.428001953125,-4.609452724456787,-1.2399711608886719,-3.8259098529815674
1780001803031335000,1.4443349609375,-2.0968658924102783,-0.39478015899658203,-2.562366008758545
1780001803047647700,1.460647705078125,-0.6479315757751465,4.270585060119629,-1.2297286987304688
1780001803063996700,1.47699658203125,0.28781944513320923,-0.18754339218139648,0.08307075500488281
1780001803080292000,1.4932919921875,2.931703567504883,-4.739020824432373,1.8956851959228516
1780001803096641500,1.5096416015625,1.402602195739746,-1.7789058685302734,1.38848876953125
1780001803112976400,1.525976318359375,2.2957534790039062,0.5564861297607422,-0.4091334342956543
1780001803129310500,1.542310546875,0.20026272535324097,0.8641438484191895,-2.82365083694458
1780001803145628000,1.5586279296875,-0.20185396075248718,1.571732521057129,-4.538372039794922
1780001803161975800,1.574975830078125,-1.3421623706817627,1.194974422454834,-6.342296123504639
1780001803178307000,1.59130712890625,-1.4664798974990845,0.05559539794921875,-5.615250587463379
1780001803194640600,1.607640625,-1.5784308910369873,-0.4581899642944336,-4.443269729614258
1780001803210972000,1.623971923828125,-0.494657039642334,-0.32471418380737305,-3.182122230529785
1780001803227305200,1.64030517578125,-0.09732280671596527,-1.3617987632751465,-3.4382128715515137
1780001803243637200,1.65663720703125,-0.7096515893936157,-2.3972573280334473,-4.31592321395874
1780001803259971000,1.67297119140625,-2.030402660369873,-2.0524678230285645,-6.455676078796387
1780001803276318700,1.689318603515625,-0.6364667415618896,-3.229555606842041,-5.124985694885254
1780001803292638700,1.705638671875,-0.7458156943321228,-5.305168628692627,-0.8100214004516602
1780001803308988200,1.72198828125,0.13045424222946167,-3.5636134147644043,-0.08816051483154297
1780001803325292000,1.7382919921875,-0.22729051113128662,-0.8212628364562988,1.5803604125976562
1780001803341659000,1.754658935546875,-1.8420162200927734,-0.20941972732543945,4.417977333068848
1780001803357981200,1.770981201171875,-0.44470393657684326,0.7866377830505371,4.193795204162598
1780001803374304000,1.787303955078125,-1.8211510181427002,3.709735631942749,4.522078037261963
1780001803390670300,1.80367041015625,-1.6530507802963257,3.89803147315979,6.729029655456543
1780001803406968300,1.81996826171875,-1.1614445447921753,5.1423187255859375,6.148650169372559
1780001803423308800,1.836308837890625,-3.416708469390869,4.3376288414001465,2.9685511589050293
1780001803439641600,1.8526416015625,-4.435576438903809,2.6953787803649902,-0.09439468383789062
1780001803455942400,1.8689423828125,-4.417102813720703,-0.8022232055664062,1.2469778060913086
1780001803472305000,1.885304931640625,-3.0111613273620605,0.0694742202758789,1.3231720924377441
1780001803488641000,1.90164111328125,2.052150249481201,1.5411102771759033,-1.1060805320739746
1780001803504972000,1.917971923828125,2.2289857864379883,3.2110376358032227,-0.099029541015625
1780001803521274600,1.934274658203125,1.8131000995635986,0.9552736282348633,0.6257400512695312
1780001803537635800,1.9506357421875,3.0643248558044434,0.2893095016479492,2.7244272232055664
1780001803553970700,1.966970703125,2.9982781410217285,0.9463393688201904,2.4592504501342773
1780001803570303700,1.9833037109375,4.078475475311279,1.0709757804870605,3.156261920928955
1780001803586619400,1.999619384765625,3.426560878753662,-1.008944034576416,5.098576545715332
1780001803602954200,2.015954345703125,1.8995656967163086,-0.10890054702758789,4.629082202911377
1780001803619284500,2.032284423828125,0.616145133972168,1.9157278537750244,4.608176231384277
1780001803635622400,2.048622314453125,2.070775032043457,1.168747901916504,5.673270225524902
1780001803651947300,2.064947265625,4.236336708068848,0.35677242279052734,6.223573207855225
1780001803668289800,2.081289794921875,2.4096877574920654,-0.3051280975341797,4.472723007202148
1780001803684618000,2.097617919921875,2.576817512512207,-6.4892120361328125,2.4656801223754883
1780001803700936400,2.1139365234375,-1.3966288566589355,-7.325130939483643,4.171156883239746
1780001803717280000,2.130280029296875,-3.922238826751709,-3.2637710571289062,3.5772790908813477
1780001803733613600,2.146613525390625,-4.1621551513671875,3.683931350708008,1.3073811531066895
1780001803749948000,2.162947998046875,-3.7620787620544434,6.345818042755127,0.5703384876251221
1780001803766280400,2.179280517578125,-9.455177307128906,5.820677757263184,-2.0988426208496094
1780001803782607000,2.195607177734375,-6.9851393699646,7.3092241287231445,-6.50876522064209
1780001803798963000,2.211962890625,-2.3914988040924072,5.399564743041992,-7.399829864501953
1780001803815292400,2.22829248046875,0.12712371349334717,1.7210302352905273,-3.5894994735717773
1780001803831624200,2.244624267578125,-1.0364658832550049,0.36728954315185547,0.8031771779060364
1780001803847957800,2.260957763671875,-2.3207712173461914,0.45454883575439453,2.6578359603881836
1780001803864287700,2.277287841796875,-1.408998727798462,2.5157032012939453,2.0761969089508057
1780001803880622600,2.29362255859375,-3.843985080718994,3.9126882553100586,-0.34838682413101196
1780001803896950000,2.309949951171875,-2.6429147720336914,4.53854513168335,-1.3942102193832397
1780001803913272300,2.326272216796875,-0.22202175855636597,3.8527259826660156,0.948304295539856
1780001803929623000,2.342623046875,0.7149547338485718,-0.05861854553222656,3.058742046356201
1780001803945956600,2.35895654296875,-0.4313744306564331,-7.6245012283325195,1.4353699684143066
1780001803962278700,2.375278564453125,4.060651779174805,-7.742249488830566,-1.1275689601898193
1780001803978621000,2.391620849609375,3.7836108207702637,-2.4780073165893555,-3.4872424602508545
1780001803994946800,2.40794677734375,0.08237206935882568,-4.936095237731934,-3.1811599731445312
1780001804011275000,2.42427490234375,-0.16690421104431152,-8.395194053649902,-2.5039467811584473
1780001804027613700,2.44061376953125,1.4384654760360718,-12.25494384765625,-1.0946122407913208
1780001804043938800,2.456938720703125,3.48561954498291,-2.7941932678222656,1.3405694961547852
1780001804060277800,2.47327783203125,12.941276550292969,6.776943683624268,5.864824295043945
1780001804076586200,2.489586181640625,3.079719066619873,10.476078033447266,11.388405799865723
1780001804092931600,2.505931640625,-6.441102504730225,6.522396087646484,4.425420761108398
1780001804109252400,2.52225244140625,-11.635599136352539,6.095712184906006,2.6555871963500977
1780001804125596700,2.5385966796875,-5.54438591003418,3.180614948272705,7.382934093475342
1780001804141930500,2.554930419921875,-6.195662975311279,0.9808816909790039,6.8455491065979
1780001804158262500,2.571262451171875,0.9102041125297546,-0.01700305938720703,5.897650241851807
1780001804174595600,2.587595703125,1.2816994190216064,-2.4667739868164062,5.394225120544434
1780001804190927000,2.603927001953125,1.7385802268981934,-0.9184913635253906,3.6570351123809814
1780001804207260700,2.6202607421875,0.06803953647613525,-1.460662841796875,0.18297350406646729
1780001804223592700,2.6365927734375,0.9706303477287292,-0.8141078948974609,-2.4969687461853027
1780001804239924500,2.652924560546875,3.817490577697754,-1.7450447082519531,-4.448344707489014
1780001804256260600,2.669260498046875,2.5917415618896484,-3.3016891479492188,-7.219616889953613
1780001804272586500,2.68558642578125,0.5319277048110962,-4.112679481506348,-9.468574523925781
1780001804288941000,2.701941162109375,-1.1006568670272827,-2.132841110229492,-9.107211112976074
1780001804305265000,2.718264892578125,-0.24088191986083984,-1.1107978820800781,-6.494703769683838
1780001804321589000,2.734589111328125,0.9426465034484863,-1.7846698760986328,-3.29205322265625
1780001804337935600,2.750935546875,1.9673950672149658,0.22597026824951172,-1.9500818252563477
1780001804354247400,2.767247314453125,0.6658198833465576,-2.0483407974243164,-0.6547050476074219
1780001804370580700,2.783580810546875,-1.337395191192627,-7.4772138595581055,0.7663476467132568
1780001804386915300,2.799915283203125,1.8588192462921143,-7.487392425537109,1.0059325695037842
1780001804403249400,2.81624951171875,1.9482054710388184,-2.708984375,1.5206146240234375
1780001804419584500,2.83258447265625,3.0661368370056152,4.951581001281738,5.546235084533691
1780001804435928800,2.8489287109375,1.8253093957901,4.6404829025268555,4.073894023895264
1780001804452262100,2.86526220703125,-2.022609233856201,3.425872802734375,2.5527796745300293
1780001804468596200,2.88159619140625,-1.6731683015823364,3.177738666534424,5.114675045013428
1780001804484927500,2.897927490234375,-1.138323187828064,2.2764692306518555,6.7288665771484375
1780001804501242400,2.914242431640625,-0.7922607660293579,2.5508527755737305,5.830827713012695
1780001804517592300,2.93059228515625,-1.7987921237945557,1.9955739974975586,2.1901984214782715
1780001804533926100,2.946926025390625,-2.0797717571258545,1.9463906288146973,0.1458917260169983
1780001804550257700,2.963257568359375,-1.683417797088623,2.7862977981567383,-0.02976328134536743
1780001804566575000,2.9795751953125,-0.5813762545585632,2.4111995697021484,0.08974742889404297
1780001804582910000,2.995909912109375,1.216422438621521,1.3927326202392578,0.6714578866958618
1780001804599241200,3.0122412109375,4.238579750061035,-7.438063621520996,0.4815981388092041
1780001804615574000,3.028573974609375,1.6770153045654297,-6.327523231506348,0.21195101737976074
1780001804631894000,3.04489404296875,1.0535705089569092,-1.82672119140625,-0.1277216672897339
1780001804648226000,3.06122607421875,1.205712914466858,-1.1004199981689453,-0.7016788721084595
1780001804664561000,3.077560791015625,0.8329261541366577,-2.4792251586914062,-1.3266810178756714
1780001804680893200,3.09389306640625,-1.795445203781128,-3.606520652770996,-1.3271639347076416
1780001804697229600,3.1102294921875,-1.0416967868804932,-3.279214859008789,-1.4396576881408691
1780001804713560800,3.126560791015625,-0.23030996322631836,-2.400453567504883,-1.312398910522461
1780001804729889500,3.1428896484375,0.45825308561325073,-0.4865446090698242,-2.329291582107544
1780001804746234600,3.159234619140625,-0.3819512128829956,-0.35678672790527344,-3.231837034225464
1780001804762569200,3.1755693359375,-0.384488582611084,-1.4561376571655273,-3.4739537239074707
1780001804778900000,3.19189990234375,-0.6415123343467712,0.4617338180541992,-2.277682065963745
1780001804795233800,3.20823388671875,1.7496616840362549,3.880621910095215,-0.06635719537734985
1780001804811565000,3.22456494140625,3.1415510177612305,6.825766563415527,2.201270818710327
1780001804827916300,3.240916259765625,1.5588653087615967,2.859640598297119,3.118077039718628
1780001804844240000,3.257239990234375,-0.6880531311035156,1.2755823135375977,2.7183804512023926
1780001804860582100,3.27358203125,-3.7495367527008057,-0.5819196701049805,2.048952102661133
1780001804876909000,3.289908935546875,-1.9692384004592896,-0.07719898223876953,1.6516036987304688
1780001804893243600,3.30624365234375,0.5272929668426514,-1.479391098022461,0.6314764022827148
1780001804909554000,3.322553955078125,0.8815299868583679,-1.1405811309814453,-0.15745636820793152
1780001804925892000,3.33889208984375,0.6146277189254761,0.21859073638916016,-0.9439112544059753
1780001804942222800,3.355222900390625,-2.8822147846221924,0.9270772933959961,0.01905357837677002
1780001804958554600,3.3715546875,1.291205644607544,0.49745845794677734,-0.9931778907775879
1780001804974894000,3.38789404296875,0.5498638153076172,2.0365333557128906,2.8754968643188477
1780001804991224600,3.404224609375,-4.256153106689453,-1.2995061874389648,-0.9159730672836304
1780001805007556600,3.420556640625,-2.195767879486084,-2.476588249206543,-3.0065417289733887
1780001805023890200,3.43689013671875,0.0364605188369751,0.023973464965820312,0.6209205389022827
1780001805040221200,3.45322119140625,1.8828015327453613,1.3606977462768555,2.134519100189209
1780001805056555000,3.469554931640625,2.3717010021209717,0.5343780517578125,1.4754122495651245
1780001805072886500,3.485886474609375,2.3044962882995605,2.148797035217285,1.4785056114196777
1780001805089220000,3.50222021484375,1.3169103860855103,0.5597028732299805,2.0114364624023438
1780001805105551000,3.518551025390625,3.1769042015075684,0.3391695022583008,0.15216374397277832
1780001805121885200,3.53488525390625,1.2937777042388916,2.6100120544433594,-0.3525250554084778
1780001805138215000,3.55121484375,-0.29276764392852783,1.458791732788086,0.9604640007019043
1780001805154550800,3.56755078125,-3.150141954421997,-0.37764930725097656,1.63899827003479
1780001805170871800,3.583871826171875,-3.9660568237304688,0.1883373260498047,0.47516417503356934
1780001805187215400,3.60021533203125,-1.4703480005264282,4.403922080993652,-0.19298577308654785
1780001805203531000,3.616531005859375,1.7926459312438965,3.566695213317871,-1.7099835872650146
1780001805219870700,3.63287060546875,2.795610189437866,0.7907247543334961,-2.5301060676574707
1780001805236211500,3.64921142578125,1.9427647590637207,-1.4121789932250977,-1.0052249431610107
1780001805252543000,3.66554296875,1.3975794315338135,-1.2894287109375,-0.7819116115570068
1780001805268862500,3.681862548828125,-0.7637453079223633,1.172978401184082,-0.5764129161834717
1780001805285198300,3.6981982421875,-0.7274001240730286,3.0116705894470215,0.36969494819641113
1780001805301529600,3.714529541015625,-1.4055306911468506,4.284161567687988,1.1105537414550781
1780001805317863000,3.73086279296875,-2.293519973754883,6.153737545013428,0.39580440521240234
1780001805334197200,3.747197265625,-2.0702154636383057,6.048235893249512,-0.18294668197631836
1780001805350528800,3.76352880859375,-2.399970531463623,4.4169840812683105,0.49344921112060547
1780001805366859000,3.77985888671875,-2.854304313659668,2.813730239868164,1.3994898796081543
1780001805383193900,3.79619384765625,0.7666733264923096,1.9734578132629395,1.44907808303833
1780001805399522300,3.812522216796875,5.088023662567139,2.4880313873291016,-0.21036195755004883
1780001805415860000,3.82885986328125,6.05159854888916,3.4134864807128906,-2.3797953128814697
1780001805432191700,3.845191650390625,6.806046485900879,5.1109771728515625,-3.5871124267578125
1780001805448524300,3.861524169921875,4.7524189949035645,-2.7123851776123047,-1.3282206058502197
1780001805464855300,3.877855224609375,2.9434874057769775,-13.825555801391602,1.4821674823760986
1780001805481190000,3.89418994140625,-0.45238107442855835,-23.14000701904297,3.371800422668457
1780001805497520600,3.910520751953125,1.8070714473724365,-19.431251525878906,3.661710023880005
1780001805513855700,3.926855712890625,2.0426406860351562,-10.082686424255371,0.9327340126037598
1780001805530185200,3.943185302734375,0.4146726727485657,-2.5921058654785156,-1.2750053405761719
1780001805546537200,3.959537109375,-1.4654830694198608,1.818565845489502,-2.2158162593841553
1780001805562877200,3.975877197265625,-2.7927353382110596,4.601306915283203,-2.3121590614318848
1780001805579196200,3.992196044921875,-2.3633365631103516,6.033703804016113,-1.724775791168213
1780001805595528400,4.008528564453125,0.6289888620376587,4.730179786682129,0.6587619781494141
1780001805611862800,4.02486279296875,-1.8414793014526367,2.400606632232666,2.524827480316162
1780001805628194000,4.041194091796875,-1.6654609441757202,0.890434741973877,2.8826804161071777
1780001805644526800,4.05752685546875,-0.6083999872207642,0.19270610809326172,2.370692729949951
1780001805660849400,4.073849365234375,0.6455146670341492,0.08818721771240234,1.544736385345459
1780001805677194000,4.090194091796875,1.2931787967681885,-0.5458831787109375,1.0481791496276855
1780001805693520000,4.106519775390625,-0.09588414430618286,-1.344985008239746,0.7958874702453613
1780001805709859000,4.122859130859375,-1.52451753616333,-1.2190628051757812,-0.7063133716583252
1780001805726206200,4.139206298828125,-2.290374994277954,-0.7542285919189453,-2.036987066268921
1780001805742537200,4.155537109375,-1.587514877319336,-0.6716747283935547,-1.85994291305542
1780001805758864100,4.171864013671875,0.026880204677581787,-0.6548595428466797,-1.032336711883545
1780001805775202300,4.188202392578125,0.27225011587142944,-0.4368410110473633,-0.5057797431945801
1780001805791536600,4.20453662109375,-0.2506482005119324,0.19763851165771484,-0.1922779083251953
1780001805807867000,4.220866943359375,-0.8376561999320984,1.8043322563171387,-0.838538646697998
1780001805824195000,4.237195068359375,-0.8201408386230469,1.0805587768554688,-0.5859251022338867
1780001805840533000,4.253532958984375,-2.0841171741485596,-0.48076820373535156,1.6839890480041504
1780001805856866800,4.26986669921875,-1.608659029006958,-0.8623418807983398,0.3341212272644043
1780001805873195000,4.286195068359375,0.36362236738204956,-0.9451627731323242,-0.977954626083374
1780001805889528300,4.3025283203125,10.09415054321289,-0.37541961669921875,-1.9414348602294922
1780001805905860600,4.318860595703125,4.398487091064453,-0.4469575881958008,-0.22549057006835938
1780001805922194400,4.3351943359375,-1.3027188777923584,-0.15022659301757812,2.134976387023926
1780001805938527500,4.351527587890625,-2.8408310413360596,1.468501091003418,2.723931312561035
1780001805954859000,4.36785888671875,-3.1803219318389893,0.8303112983703613,2.4462532997131348
1780001805971190000,4.38418994140625,-1.1811202764511108,-0.8004951477050781,2.25628662109375
1780001805987524900,4.40052490234375,-0.20830416679382324,-2.2424373626708984,2.7620491981506348
1780001806003858000,4.41685791015625,-0.41989943385124207,-1.9264717102050781,3.271986484527588
1780001806020168000,4.43316796875,-1.250556468963623,-1.3476905822753906,3.422189712524414
1780001806036520400,4.4495205078125,-0.8269529938697815,-0.823267936706543,3.0089902877807617
1780001806052837400,4.46583740234375,0.9340993165969849,-0.7090587615966797,2.910676956176758
1780001806069174500,4.482174560546875,2.285817861557007,0.20120906829833984,1.1538748741149902
1780001806085505500,4.498505615234375,-0.5901695489883423,2.176840305328369,-0.617469310760498
1780001806101838300,4.51483837890625,-0.6832878589630127,1.9041075706481934,0.6248124837875366
1780001806118171100,4.531171142578125,-1.0438867807388306,1.1052799224853516,1.194286823272705
1780001806134504400,4.54750439453125,-1.9182312488555908,2.2415051460266113,-0.38932132720947266
1780001806150836000,4.5638359375,-2.159349203109741,2.797757625579834,-1.8205589056015015
1780001806167169500,4.58016943359375,-2.0528056621551514,2.862093448638916,-2.6271698474884033
1780001806183501600,4.59650146484375,-1.0773735046386719,3.4856619834899902,-3.0761702060699463
1780001806199831300,4.612831298828125,2.2872378826141357,3.883566379547119,-3.0135960578918457
1780001806216185600,4.629185546875,6.612765312194824,2.739466667175293,-2.8778445720672607
1780001806232498700,4.645498779296875,9.852974891662598,0.9710264205932617,-2.821389675140381
1780001806248845600,4.661845458984375,6.897674560546875,0.0702066421508789,-2.030073642730713
1780001806265178600,4.6781787109375,2.565274477005005,0.6294546127319336,-1.6761795282363892
1780001806281492700,4.69449267578125,0.07508194446563721,-0.7135896682739258,0.9005743861198425
1780001806297845200,4.71084521484375,-1.0492019653320312,-0.4900217056274414,0.8600660562515259
1780001806314175500,4.727175537109375,-5.934729099273682,-0.5028877258300781,-0.29172247648239136
1780001806330505000,4.7435048828125,-3.1451287269592285,-0.758758544921875,-0.5382966995239258
1780001806346844200,4.75984423828125,0.01284325122833252,0.08262157440185547,-0.8626200556755066
1780001806363175000,4.7761748046875,1.4667726755142212,0.20878982543945312,-0.6367559432983398
1780001806379470800,4.792470947265625,1.5397799015045166,-0.36934566497802734,-0.08302974700927734
1780001806395840000,4.808840087890625,1.5753570795059204,-0.7180356979370117,0.5282520055770874
1780001806412158700,4.82515869140625,1.2712855339050293,-0.8042144775390625,1.1479763984680176
1780001806428505300,4.84150537109375,0.47320735454559326,-0.5083131790161133,1.091700792312622
1780001806444835600,4.857835693359375,-0.14075970649719238,-0.030393600463867188,0.9575009346008301
1780001806461199000,4.87419921875,-0.23775827884674072,0.3035106658935547,0.8847460746765137
1780001806477481200,4.890481201171875,-0.13343751430511475,0.4931297302246094,0.7994735240936279
1780001806493838600,4.906838623046875,-0.0013952255249023438,0.44666099548339844,0.780693769454956
1780001806510162700,4.92316259765625,0.03846585750579834,0.2866220474243164,0.8289000988006592
1780001806526503700,4.939503662109375,0.01759791374206543,0.16705322265625,0.8872330188751221
1780001806542826800,4.95582666015625,-0.099445641040802,0.060767173767089844,0.9434196949005127
1780001806559150800,4.97215087890625,-0.2753865122795105,-0.006726264953613281,0.9852545261383057
1780001806575482400,4.988482421875,-0.40028470754623413,-0.15860652923583984,1.1263947486877441
1780001806591816400,5.00481640625,-1.040745735168457,-0.4409055709838867,1.2192966938018799
1780001806608146200,5.021146240234375,-1.8208107948303223,-0.38069915771484375,0.5695617198944092
1780001806624481800,5.037481689453125,-0.8633557558059692,0.03148937225341797,0.006920814514160156
1780001806640813300,5.053813232421875,0.40856003761291504,0.16099834442138672,-0.24475836753845215
1780001806657146000,5.07014599609375,0.9042983055114746,0.027428627014160156,-0.3551595211029053
1780001806673479200,5.086479248046875,0.8057171106338501,-0.13445663452148438,-0.4492337703704834
1780001806689808100,5.10280810546875,0.4837038516998291,-0.09904766082763672,-0.5416250228881836
1780001806706163500,5.11916357421875,0.18695557117462158,-0.006237983703613281,-0.5863015651702881
1780001806722491100,5.1354912109375,0.0955190658569336,0.00478363037109375,-0.5576543807983398
1780001806738819800,5.15181982421875,0.2244178056716919,-0.032867431640625,-0.4254953861236572
1780001806755156200,5.16815625,0.3350929021835327,-0.05683612823486328,-0.21109271049499512
1780001806771490800,5.18449072265625,0.3073955774307251,-0.10538005828857422,0.014333724975585938
1780001806787817700,5.200817626953125,0.16898274421691895,-0.04474639892578125,0.16221952438354492
1780001806804151000,5.217151123046875,-0.05097639560699463,0.024583816528320312,0.28833603858947754
1780001806820486000,5.23348583984375,-0.3435112237930298,0.0076122283935546875,0.36214184761047363
1780001806836817700,5.249817626953125,-0.559963583946228,-0.037021636962890625,0.3889009952545166
1780001806853151700,5.26615185546875,-0.4499098062515259,-0.1517200469970703,0.41828036308288574
1780001806869483300,5.282483154296875,-0.1489161252975464,-0.1361551284790039,0.3230416774749756
1780001806885809400,5.298809326171875,-0.15010011196136475,-0.04780769348144531,0.1499335765838623
1780001806902155300,5.3151552734375,-0.1444638967514038,-0.036991119384765625,0.08367109298706055
1780001806918481700,5.331481689453125,0.017644286155700684,0.0029802322387695312,0.05172085762023926
1780001806934813400,5.3478134765625,0.1845381259918213,0.04272651672363281,0.012696504592895508
1780001806951144200,5.364144287109375,0.39534831047058105,0.05317974090576172,-0.016054391860961914
1780001806967477800,5.380477783203125,0.4697449207305908,0.020444869995117188,-0.009882450103759766
1780001806983811800,5.396811767578125,0.5213063955307007,0.06863212585449219,-0.0235440731048584
1780001807000143000,5.41314306640625,0.512067437171936,0.14983272552490234,-0.05610942840576172
1780001807016473900,5.429473876953125,0.4657320976257324,0.15872478485107422,-0.08437156677246094
1780001807032810200,5.445810302734375,0.4194248914718628,0.08217048645019531,-0.10315179824829102
1780001807049124900,5.462124755859375,0.37780630588531494,-0.013153076171875,-0.1332869529724121
1780001807065459200,5.478459228515625,0.35365915298461914,0.0691976547241211,-0.16538333892822266
1780001807081790500,5.49479052734375,0.31603896617889404,0.13256168365478516,-0.15005707740783691
1780001807098128400,5.51112841796875,0.3375800848007202,0.12433052062988281,-0.06197500228881836
1780001807114458000,5.5274580078125,0.3208693265914917,0.13512611389160156,0.03473830223083496
1780001807130790000,5.543789794921875,0.2857898473739624,0.12554454803466797,0.09682393074035645
1780001807147123200,5.560123291015625,0.24503660202026367,0.0876016616821289,0.11604094505310059
1780001807163455000,5.576455078125,0.15506255626678467,0.06298828125,0.06186270713806152
1780001807179787800,5.592787841796875,0.005483746528625488,0.0051422119140625,-0.013359546661376953
1780001807196136400,5.609136474609375,-0.11459118127822876,-0.08155536651611328,-0.07179641723632812
1780001807212450800,5.625450927734375,-0.1775684356689453,-0.1821432113647461,-0.10602426528930664
1780001807228779300,5.641779296875,-0.13378077745437622,-0.1961822509765625,-0.1658031940460205
1780001807245134300,5.65813427734375,-0.08266764879226685,-0.17124652862548828,-0.20795273780822754
1780001807261446400,5.6744462890625,-0.014393329620361328,-0.14575767517089844,-0.204880952835083
1780001807277796000,5.690796142578125,0.02135908603668213,-0.10060882568359375,-0.18199682235717773
1780001807294129700,5.707129638671875,0.07365119457244873,-0.041625022888183594,-0.1779317855834961
1780001807310446000,5.723446044921875,-0.08442068099975586,-0.025656700134277344,-0.09598350524902344
1780001807326795000,5.739794921875,-0.03020453453063965,0.02788829803466797,-0.042276620864868164
1780001807343123700,5.756123779296875,0.2613075375556946,-0.016015052795410156,-0.06538200378417969
1780001807359457300,5.772457275390625,0.5305059552192688,-0.031493186950683594,-0.10707974433898926
1780001807375792400,5.78879248046875,0.2884688377380371,-0.011666297912597656,-0.1116943359375
1780001807392108300,5.8051083984375,0.07793641090393066,-0.09258365631103516,-0.1168055534362793
1780001807408460800,5.821460693359375,0.11013662815093994,-0.2033405303955078,-0.12485837936401367
1780001807424787200,5.837787109375,0.01640796661376953,-0.15023517608642578,-0.21722102165222168
1780001807441106200,5.854106201171875,-0.22535258531570435,-0.03982734680175781,-0.30562281608581543
1780001807457451800,5.87045166015625,-0.31384599208831787,0.04014301300048828,-0.2012467384338379
1780001807473792300,5.886792236328125,-0.0647154450416565,0.05680561065673828,0.014992237091064453
1780001807490119400,5.903119384765625,0.2539668083190918,0.18537139892578125,0.08590006828308105
1780001807506440700,5.919440673828125,0.2652193307876587,0.21036815643310547,0.13659095764160156
1780001807522782200,5.9357822265625,0.01214599609375,0.09758472442626953,0.1855001449584961
1780001807539101700,5.952101806640625,-0.22658485174179077,-0.09267711639404297,0.23458147048950195
1780001807555436300,5.968436279296875,-0.21584194898605347,-0.07480335235595703,0.2278308868408203
1780001807571769000,5.98476904296875,-0.1376548409461975,0.0707406997680664,0.21384072303771973
1780001807588101600,6.0011015625,-0.12734264135360718,0.10666942596435547,0.16395092010498047
1780001807604435500,6.017435546875,-0.10545539855957031,0.0967254638671875,0.04716968536376953
1780001807620761000,6.033760986328125,-0.14424073696136475,-0.006153106689453125,-0.02122354507446289
1780001807637103600,6.050103515625,-0.044939637184143066,-0.03211784362792969,-0.044827938079833984
1780001807653434000,6.06643408203125,0.06535995006561279,0.03217315673828125,0.02125072479248047
1780001807669765400,6.082765380859375,0.1696401834487915,0.12398529052734375,0.12096905708312988
1780001807686113800,6.09911376953125,0.2738919258117676,0.12343788146972656,0.1934494972229004
1780001807702426600,6.115426513671875,0.2805551290512085,0.10389328002929688,0.1915750503540039
1780001807718777300,6.13177734375,0.2652472257614136,0.11806297302246094,0.1021261215209961
1780001807735110000,6.14810986328125,0.3364986181259155,0.10211753845214844,-0.026769399642944336
1780001807751440600,6.164440673828125,0.43180620670318604,0.004660606384277344,-0.1587069034576416
1780001807767772700,6.180772705078125,0.3822740316390991,-0.10987472534179688,-0.2883267402648926
1780001807784103700,6.197103759765625,0.26046884059906006,-0.1713886260986328,-0.43930768966674805
1780001807800441900,6.21344189453125,0.09170281887054443,-0.21806049346923828,-0.4935894012451172
1780001807816770600,6.2297705078125,-0.12308472394943237,-0.2128448486328125,-0.3827176094055176
1780001807833105200,6.246105224609375,-0.20903325080871582,-0.14092445373535156,-0.13232207298278809
1780001807849436200,6.262436279296875,-0.12916284799575806,0.018098831176757812,0.038074493408203125
1780001807865749800,6.278749755859375,-0.029178738594055176,0.09620285034179688,0.10216164588928223
1780001807882084900,6.2950849609375,0.007811903953552246,0.07472515106201172,0.06545805931091309
1780001807898418400,6.31141845703125,0.04986679553985596,0.0008821487426757812,0.0008947849273681641
1780001807914750200,6.327750244140625,0.13705480098724365,0.03706836700439453,-0.038457632064819336
1780001807931071500,6.344071533203125,0.15695536136627197,0.120452880859375,-0.006504535675048828
1780001807947420700,6.360420654296875,0.09803581237792969,0.1590890884399414,0.11418795585632324
1780001807963752000,6.376751953125,0.0547332763671875,0.2302703857421875,0.2619326114654541
1780001807980082400,6.39308251953125,0.04909682273864746,0.16541671752929688,0.3926842212677002
1780001807996416500,6.40941650390625,-0.07302826642990112,0.09174156188964844,0.42214417457580566
1780001808012748300,6.425748291015625,-0.26718002557754517,0.1180734634399414,0.2580235004425049
1780001808029081900,6.442081787109375,-0.38140857219696045,0.0155487060546875,0.12657642364501953
1780001808045412600,6.45841259765625,-0.26860713958740234,-0.010283470153808594,-0.0021600723266601562
1780001808061742300,6.474742431640625,-0.06600159406661987,-0.05008888244628906,-0.028254270553588867
1780001808078050000,6.491050048828125,-0.020560264587402344,-0.13646602630615234,0.008303165435791016
1780001808094403600,6.507403564453125,0.05256497859954834,-0.0020914077758789062,-0.09231972694396973
1780001808110727400,6.5237275390625,0.1780405044555664,0.04131507873535156,-0.18298912048339844
1780001808127063800,6.540063720703125,0.17574310302734375,0.01708507537841797,-0.17995595932006836
1780001808143411700,6.55641162109375,0.10758864879608154,-0.0655059814453125,-0.11752176284790039
1780001808159739400,6.572739501953125,-0.0020273923873901367,-0.13781261444091797,-0.08455634117126465
1780001808176058600,6.58905859375,0.04827463626861572,0.015645980834960938,-0.11745262145996094
1780001808192410000,6.60541015625,0.11454319953918457,0.014492034912109375,-0.0944356918334961
1780001808208737300,6.6217373046875,0.09460711479187012,-0.04391288757324219,-0.03160429000854492
1780001808225057500,6.6380576171875,-0.03657400608062744,-0.05291748046875,-0.03618931770324707
1780001808241390800,6.654390869140625,-0.08914631605148315,-0.00006961822509765625,-0.06490111351013184
1780001808257726000,6.670725830078125,-0.00003135204315185547,-0.014521598815917969,-0.04502439498901367
1780001808274057200,6.68705712890625,0.040694355964660645,-0.005421638488769531,0.004430055618286133
1780001808290406000,6.703406005859375,-0.06400096416473389,-0.043231964111328125,0.06190609931945801
1780001808306733600,6.719733642578125,-0.06570714712142944,-0.018230438232421875,0.052911996841430664
1780001808323067600,6.736067626953125,0.10656297206878662,0.024099349975585938,0.015783071517944336
1780001808339382800,6.7523828125,0.21733343601226807,0.051680564880371094,0.0111846923828125
1780001808355736000,6.768736083984375,0.10626554489135742,0.07083511352539062,0.04433584213256836
1780001808372059600,6.7850595703125,-0.0703362226486206,0.05588531494140625,0.08135342597961426
1780001808388415000,6.8014150390625,-0.15389949083328247,0.026668548583984375,0.0991523265838623
1780001808404741000,6.8177412109375,-0.10074871778488159,0.026268959045410156,0.09296488761901855
1780001808421077500,6.834077392578125,-0.03224658966064453,0.049988746643066406,0.05888819694519043
1780001808437404200,6.850404052734375,0.06648695468902588,0.030786514282226562,0.024738073348999023
1780001808453745000,6.866744873046875,0.14732730388641357,-0.03149604797363281,-0.009874582290649414
1780001808470096600,6.8830966796875,0.1702570915222168,-0.02665424346923828,-0.034957170486450195
1780001808486411500,6.89941162109375,0.14370286464691162,0.04974651336669922,-0.055365562438964844
1780001808502732500,6.915732666015625,0.12208175659179688,0.030073165893554688,-0.0671529769897461
1780001808519075000,6.932074951171875,0.20907700061798096,-0.008856773376464844,-0.07380485534667969
1780001808535390000,6.948389892578125,0.2907700538635254,0.01940631866455078,-0.09382796287536621
1780001808551723500,6.9647236328125,0.2884054183959961,0.1435251235961914,-0.1274428367614746
1780001808568054800,6.9810546875,0.281679630279541,0.19576168060302734,-0.12175178527832031
1780001808584388400,6.997388427734375,0.15319550037384033,0.09488677978515625,0.018404245376586914
1780001808600720400,7.013720458984375,0.02395176887512207,0.01766681671142578,0.17817449569702148
1780001808617037300,7.030037353515625,0.004683017730712891,0.11789226531982422,0.2719101905822754
1780001808633388300,7.04638818359375,0.09532821178436279,0.16371536254882812,0.295412540435791
1780001808649718800,7.06271875,0.17427945137023926,0.06068992614746094,0.21634578704833984
1780001808666048800,7.079048828125,0.17244470119476318,-0.08556652069091797,0.04970383644104004
1780001808682385400,7.095385498046875,0.03277170658111572,-0.09337043762207031,-0.11697077751159668
1780001808698699000,7.111698974609375,-0.11003100872039795,-0.12983322143554688,-0.19326043128967285
1780001808715036200,7.1280361328125,-0.16393542289733887,-0.16081809997558594,-0.22646641731262207
1780001808731380500,7.14438037109375,-0.09302568435668945,-0.14389801025390625,-0.21606659889221191
1780001808747700500,7.160700439453125,0.03147614002227783,-0.21130657196044922,-0.17573976516723633
1780001808764034000,7.177033935546875,0.10406196117401123,-0.2488393783569336,-0.1800403594970703
1780001808780367400,7.193367431640625,0.1723383665084839,-0.1042165756225586,-0.21985244750976562
1780001808796697600,7.209697509765625,0.3067547082901001,-0.0019521713256835938,-0.20597124099731445
1780001808813032000,7.226031982421875,0.3191901445388794,0.0896463394165039,-0.07865619659423828
1780001808829362400,7.242362548828125,0.33785903453826904,0.20843791961669922,0.05946707725524902
1780001808845696000,7.258696044921875,0.4030495882034302,0.26691150665283203,0.20077037811279297
1780001808862027800,7.27502783203125,0.40494394302368164,0.037555694580078125,0.12984585762023926
1780001808878363000,7.29136279296875,0.08907473087310791,0.15572738647460938,0.0018460750579833984
1780001808894693600,7.307693603515625,-0.12110209465026855,0.1830005645751953,0.022274494171142578
1780001808911027500,7.32402734375,-0.0397876501083374,0.1515045166015625,0.1754450798034668
1780001808927358700,7.340358642578125,-0.02097952365875244,-0.008022308349609375,0.2199265956878662
1780001808943692500,7.356692626953125,-0.24117439985275269,0.031053543090820312,0.08313298225402832
1780001808960023600,7.3730234375,-0.17535650730133057,0.042148590087890625,-0.08544254302978516
1780001808976372500,7.38937255859375,-0.013051867485046387,-0.005120277404785156,-0.061627864837646484
1780001808992701200,7.405701171875,-0.03875315189361572,-0.009305000305175781,0.04293179512023926
1780001809009034800,7.42203466796875,-0.12819838523864746,0.001190185546875,0.11796903610229492
1780001809025362000,7.43836181640625,-0.0776519775390625,0.031104087829589844,0.11822366714477539
1780001809041683000,7.454682861328125,0.03024756908416748,-0.05877399444580078,0.036950111389160156
1780001809058031000,7.471031005859375,0.021602272987365723,-0.1345367431640625,-0.09498429298400879
1780001809074365000,7.487364990234375,-0.08143806457519531,-0.15340137481689453,-0.20032215118408203
1780001809090696000,7.503696044921875,-0.07892954349517822,-0.21028900146484375,-0.24493956565856934
1780001809107029800,7.52002978515625,0.016832709312438965,-0.22014427185058594,-0.2931981086730957
1780001809123349800,7.536349853515625,0.08422386646270752,-0.19075775146484375,-0.34528660774230957
1780001809139695400,7.5526953125,0.09952235221862793,-0.0987997055053711,-0.3540325164794922
1780001809156026000,7.569026123046875,0.13050973415374756,-0.049530029296875,-0.2995743751525879
1780001809172374800,7.585374755859375,0.2009122371673584,-0.038872718811035156,-0.21144914627075195
1780001809188707300,7.601707275390625,0.24674975872039795,0.029010772705078125,-0.10452103614807129
1780001809205044700,7.618044677734375,0.2489243745803833,0.06361675262451172,-0.04190540313720703
1780001809221364700,7.63436474609375,0.259909987449646,0.09305763244628906,-0.0038213729858398438
1780001809237666800,7.650666748046875,0.2396944761276245,0.06485843658447266,0.01066136360168457
1780001809254039000,7.6670390625,0.1772298812866211,0.07479190826416016,0.0208284854888916
1780001809270363600,7.68336376953125,0.12585926055908203,0.1372385025024414,0.02767777442932129
1780001809286730500,7.69973046875,0.08701968193054199,0.16635608673095703,0.08816313743591309
1780001809303031800,7.71603173828125,-0.007291674613952637,0.1382923126220703,0.1578502655029297
1780001809319362600,7.732362548828125,-0.014520525932312012,0.09598731994628906,0.20838713645935059
1780001809335700000,7.748699951171875,0.07230818271636963,0.0529327392578125,0.22178983688354492
1780001809352034800,7.765034912109375,0.09845566749572754,0.043503761291503906,0.21615338325500488
1780001809368364300,7.7813642578125,0.05490720272064209,-0.004357337951660156,0.16051983833312988
1780001809384693800,7.79769384765625,0.006873607635498047,-0.0911102294921875,0.07449197769165039
1780001809401021000,7.81402099609375,-0.048413872718811035,-0.0973663330078125,-0.02759718894958496
1780001809417354800,7.830354736328125,-0.12407338619232178,-0.045513153076171875,-0.06852984428405762
1780001809433700900,7.846700927734375,-0.13092947006225586,-0.11804771423339844,-0.06748223304748535
1780001809450025700,7.863025634765625,-0.0583188533782959,-0.13223743438720703,-0.08324289321899414
1780001809466359800,7.87935986328125,0.02134871482849121,-0.05072593688964844,-0.1170206069946289
1780001809482684700,7.8956845703125,0.0413283109664917,0.00795745849609375,-0.08864402770996094
1780001809499027000,7.91202685546875,0.08293521404266357,0.0526580810546875,-0.05014300346374512
1780001809515345000,7.928344970703125,0.17750632762908936,0.08229446411132812,-0.007250547409057617
1780001809531675100,7.944675048828125,0.24894464015960693,0.09764385223388672,0.026066303253173828
1780001809548005600,7.961005615234375,0.2523384094238281,0.1308135986328125,0.07798433303833008
1780001809564341500,7.977341552734375,0.17526495456695557,0.1398458480834961,0.11961841583251953
1780001809580672800,7.9936728515625,0.10933518409729004,0.06731414794921875,0.14029335975646973
1780001809597003300,8.010003173828125,0.0548628568649292,0.022217750549316406,0.12676787376403809
1780001809613340400,8.02634033203125,-0.026386260986328125,0.039394378662109375,0.05053400993347168
1780001809629671400,8.04267138671875,-0.16363370418548584,0.022559165954589844,0.00693964958190918
1780001809646002700,8.059002685546876,-0.2267112135887146,-0.059578895568847656,-0.0640103816986084
1780001809662354200,8.075354248046875,-0.12596452236175537,-0.10723018646240234,-0.11740541458129883
1780001809678677000,8.091677001953125,-0.053165316581726074,-0.03921031951904297,-0.09228849411010742
1780001809695017500,8.108017578125,-0.08222436904907227,0.028901100158691406,-0.019099950790405273
1780001809711347200,8.12434716796875,-0.04477894306182861,0.1346454620361328,0.04491448402404785
1780001809727679000,8.140678955078124,0.06947696208953857,0.12980937957763672,0.10275936126708984
1780001809744009700,8.157009765625,0.17982745170593262,0.07155132293701172,0.14539194107055664
1780001809760344800,8.1733447265625,0.15455758571624756,0.04635429382324219,0.1678471565246582
1780001809776677000,8.189677001953125,0.022969841957092285,0.020895957946777344,0.1465463638305664
1780001809793008400,8.20600830078125,-0.15877044200897217,0.028188705444335938,0.11401128768920898
1780001809809327000,8.2223271484375,-0.23828202486038208,-0.051441192626953125,0.10377812385559082
1780001809825675500,8.238675537109375,-0.25345927476882935,-0.08747100830078125,0.09386825561523438
1780001809842007600,8.255007568359375,-0.168503999710083,-0.09900760650634766,0.04120016098022461
1780001809858320600,8.271320556640624,-0.07647538185119629,-0.10510444641113281,-0.019980907440185547
1780001809874659300,8.287659423828124,-0.016445159912109375,-0.1104888916015625,-0.07962870597839355
1780001809891005700,8.304005615234376,0.04044187068939209,-0.04826641082763672,-0.11478114128112793
1780001809907337500,8.32033740234375,0.05672287940979004,0.07194328308105469,-0.11512136459350586
1780001809923671000,8.336671142578124,0.07945740222930908,0.08698463439941406,-0.05855917930603027
1780001809939999700,8.352999755859376,0.12118268013000488,0.010485649108886719,0.011807680130004883
1780001809956319500,8.369319580078125,0.18829500675201416,0.05420398712158203,0.031363725662231445
1780001809972666600,8.38566650390625,0.20851945877075195,0.09268665313720703,0.026749134063720703
1780001809988985600,8.401985595703126,0.22108280658721924,0.054004669189453125,0.040611982345581055
1780001810005315600,8.418315673828126,0.26197052001953125,0.03356742858886719,0.02980947494506836
1780001810021652200,8.43465234375,0.22171950340270996,-0.004929542541503906,-0.009898662567138672
1780001810037983700,8.450983642578125,0.1469728946685791,-0.0345001220703125,-0.0499577522277832
1780001810054317000,8.467317138671875,0.09432435035705566,-0.015604972839355469,-0.07992982864379883
1780001810070649000,8.483649169921875,0.09015417098999023,0.031371116638183594,-0.08571410179138184
1780001810086982400,8.499982421875,0.08417212963104248,0.0019702911376953125,-0.05857729911804199
1780001810103313700,8.516313720703126,0.07165372371673584,-0.0124664306640625,-0.049950361251831055
1780001810119647500,8.5326474609375,0.0610198974609375,-0.021085739135742188,-0.08183884620666504
1780001810135978500,8.548978515625,0.08489096164703369,0.00470733642578125,-0.09727358818054199
1780001810152309200,8.565309326171874,0.13013744354248047,0.0736083984375,-0.06821656227111816
1780001810168658000,8.581657958984374,0.1783771514892578,0.08607101440429688,-0.025348663330078125
1780001810184983300,8.5979833984375,0.25521576404571533,0.10336017608642578,-0.005605459213256836
1780001810201314600,8.614314453125,0.2751731872558594,0.10580062866210938,0.00017571449279785156
1780001810217664300,8.630664306640625,0.21207451820373535,0.12195491790771484,0.014874458312988281
1780001810233992000,8.646991943359374,0.09628474712371826,0.11811447143554688,0.053020477294921875
1780001810250316800,8.66331689453125,0.044048428535461426,0.06569862365722656,0.09489893913269043
1780001810266637300,8.67963720703125,0.014103055000305176,0.03657722473144531,0.11639237403869629
1780001810282982100,8.695982177734376,-0.1042400598526001,-0.007616996765136719,0.15101265907287598
1780001810299321900,8.71232177734375,-0.2881779670715332,-0.10847091674804688,0.15178608894348145
1780001810315623000,8.728622802734375,-0.32267284393310547,-0.11748981475830078,0.07247424125671387
1780001810331983000,8.744983154296875,-0.23640257120132446,-0.10715961456298828,0.008318662643432617
1780001810348312800,8.761312744140625,-0.14592373371124268,-0.10151481628417969,0.004996061325073242
1780001810364635100,8.77763525390625,-0.11674308776855469,-0.058341026306152344,0.005379676818847656
1780001810380980000,8.79397998046875,-0.01933586597442627,-0.05310249328613281,-0.004790306091308594
1780001810397302500,8.810302490234376,0.07719075679779053,-0.05797576904296875,-0.05451607704162598
1780001810413644000,8.82664404296875,0.13310790061950684,-0.06832504272460938,-0.0964345932006836
1780001810429981000,8.84298095703125,0.08724117279052734,-0.11246585845947266,-0.1295151710510254
1780001810446316000,8.85931591796875,0.04094398021697998,-0.093963623046875,-0.17190051078796387
1780001810462640400,8.875640380859375,0.030251383781433105,-0.09038257598876953,-0.17215871810913086
1780001810478980400,8.89198046875,0.09066712856292725,-0.11038780212402344,-0.1777482032775879
1780001810495304400,8.908304443359375,0.13438141345977783,-0.11145591735839844,-0.19681835174560547
1780001810511627300,8.924627197265625,0.13520467281341553,-0.12064743041992188,-0.1968390941619873
1780001810527959600,8.94095947265625,0.16044998168945312,-0.058556556701660156,-0.21563935279846191
1780001810544290800,8.957290771484375,0.17179715633392334,-0.0018291473388671875,-0.22014069557189941
1780001810560619800,8.973619873046875,0.15099990367889404,0.008595466613769531,-0.20488286018371582
1780001810576958500,8.98995849609375,0.17478883266448975,0.05185413360595703,-0.16004323959350586
1780001810593292800,9.006292724609375,0.21318018436431885,0.07201671600341797,-0.1043388843536377
1780001810609623300,9.022623291015625,0.2209841012954712,0.08197307586669922,-0.058190107345581055
1780001810625955000,9.038955078125,0.18307757377624512,0.12131977081298828,-0.03516864776611328
1780001810642304300,9.05530419921875,0.14181184768676758,0.15597248077392578,-0.0005130767822265625
1780001810658634000,9.071634033203125,0.15938758850097656,0.19036102294921875,0.05345892906188965
1780001810674967800,9.0879677734375,0.1599717140197754,0.13827896118164062,0.14564871788024902
1780001810691298800,9.104298828125,0.12933003902435303,0.07631683349609375,0.19969940185546875
1780001810707631000,9.120631103515626,0.08495879173278809,0.1001119613647461,0.1960153579711914
1780001810723947000,9.136947021484374,0.0145646333694458,0.1329183578491211,0.12999320030212402
1780001810740297200,9.153297119140625,-0.07511138916015625,0.09400081634521484,0.11927437782287598
1780001810756630800,9.169630859375,-0.12926322221755981,0.03043651580810547,0.13123226165771484
1780001810772959000,9.185958984375,-0.07052266597747803,-0.02796459197998047,0.09149336814880371
1780001810789293800,9.2022939453125,-0.025226116180419922,-0.06680965423583984,0.014373779296875
1780001810805632000,9.218632080078125,-0.04155409336090088,-0.08076858520507812,-0.04294633865356445
1780001810821926400,9.234926513671875,-0.07472360134124756,-0.06622028350830078,-0.10449957847595215
1780001810838293200,9.251293212890625,-0.09270584583282471,-0.08502960205078125,-0.07101678848266602
1780001810854623500,9.26762353515625,-0.07576310634613037,-0.08458137512207031,0.015927553176879883
1780001810870954800,9.283954833984374,-0.04305672645568848,0.010988235473632812,0.07825469970703125
1780001810887288800,9.300288818359375,0.03399491310119629,0.044724464416503906,0.08727908134460449
1780001810903622100,9.3166220703125,0.09977591037750244,0.030272483825683594,-0.019327163696289062
1780001810919954000,9.332953857421876,0.09523880481719971,0.01042938232421875,-0.08350348472595215
1780001810936253700,9.349253662109374,0.10668253898620605,0.02386760711669922,-0.10913252830505371
1780001810952619000,9.365618896484374,0.20339560508728027,-0.01988983154296875,-0.18082022666931152
1780001810968953000,9.381953125,0.2116776704788208,-0.03009033203125,-0.2475438117980957
1780001810985280000,9.398280029296876,0.13294708728790283,-0.0015125274658203125,-0.22871661186218262
1780001811001612000,9.414612060546874,0.09756159782409668,0.030724525451660156,-0.14237475395202637
1780001811017937200,9.430937255859375,0.11561799049377441,0.01595783233642578,-0.07410168647766113
1780001811034269200,9.447269287109375,0.08558213710784912,-0.0033521652221679688,-0.1158442497253418
1780001811050601200,9.463601318359375,0.05763983726501465,-0.012807846069335938,-0.12165141105651855
1780001811066934000,9.47993408203125,0.03854167461395264,0.040154457092285156,-0.06477999687194824
1780001811083265500,9.496265625,-0.002064943313598633,0.011568069458007812,0.028934478759765625
1780001811099584800,9.512584716796875,-0.01703822612762451,-0.06502246856689453,0.09706354141235352
1780001811115930600,9.5289306640625,-0.0024061203002929688,-0.012577056884765625,0.10532498359680176
1780001811132281000,9.545281005859374,-0.01659524440765381,0.03121471405029297,0.1139988899230957
1780001811148607700,9.561607666015625,-0.12901544570922852,0.04241466522216797,0.13651061058044434
1780001811164934000,9.577933837890624,-0.21467643976211548,0.07246112823486328,0.16365480422973633
1780001811181272600,9.5942724609375,-0.17148524522781372,0.10196399688720703,0.19924402236938477
1780001811197603300,9.610603271484376,-0.15932762622833252,0.08683490753173828,0.23364782333374023
1780001811213945000,9.626945068359374,-0.18858343362808228,0.09106826782226562,0.2523345947265625
1780001811230273800,9.643273681640625,-0.20977240800857544,0.05782127380371094,0.20467686653137207
1780001811246604500,9.6596044921875,-0.1714932918548584,-0.028514862060546875,0.10861349105834961
1780001811262938600,9.675938720703124,-0.10981667041778564,-0.038475990295410156,0.045433998107910156
1780001811279263700,9.692263671875,-0.044101715087890625,0.03778266906738281,0.046190500259399414
1780001811295613000,9.708613037109375,-0.02430248260498047,0.0716094970703125,0.056264400482177734
1780001811311913500,9.72491357421875,-0.06344711780548096,0.057562828063964844,0.017040491104125977
1780001811328251000,9.7412509765625,-0.02328479290008545,0.01884937286376953,-0.04634594917297363
1780001811344585200,9.757585205078126,0.08182632923126221,0.07978534698486328,-0.06226658821105957
1780001811360918000,9.77391796875,0.20182263851165771,0.044114112854003906,-0.062478065490722656
1780001811377238300,9.79023828125,0.20641446113586426,-0.04760456085205078,-0.10151791572570801
1780001811393588700,9.806588623046874,0.16735374927520752,-0.12078380584716797,-0.18793654441833496
1780001811409914600,9.82291455078125,0.1320178508758545,-0.0976400375366211,-0.29741978645324707
1780001811426250200,9.839250244140626,0.10285913944244385,-0.12261390686035156,-0.35854554176330566
1780001811442581200,9.855581298828126,0.09530889987945557,-0.10868358612060547,-0.32808661460876465
1780001811458915600,9.87191552734375,0.0630652904510498,-0.1041860580444336,-0.22248530387878418
1780001811475258000,9.888258056640625,0.019943594932556152,-0.09069538116455078,-0.13796734809875488
1780001811491574000,9.904573974609375,-0.009303808212280273,-0.08584880828857422,-0.08517336845397949
1780001811507914200,9.920914306640626,-0.08765852451324463,-0.008894920349121094,-0.030657291412353516
1780001811524245200,9.937245361328126,-0.09069943428039551,0.07228374481201172,0.09576749801635742
1780001811540575200,9.9535751953125,-0.014389634132385254,0.1254291534423828,0.18842267990112305
1780001811556910600,9.96991064453125,0.1035008430480957,0.11601924896240234,0.21436119079589844
1780001811573241000,9.986240966796874,0.07888269424438477,0.07454109191894531,0.17226767539978027
1780001811589575200,10.0025751953125,0.041222214698791504,0.05636310577392578,0.14619803428649902
1780001811605893600,10.0188935546875,0.015624403953552246,0.11437511444091797,0.11536693572998047
1780001811622258000,10.0352578125,-0.006156206130981445,0.11909770965576172,0.12999725341796875
1780001811638584800,10.051584716796874,-0.013137340545654297,0.08006572723388672,0.16692662239074707
1780001811654918100,10.067918212890625,0.049957275390625,0.06885433197021484,0.170518159866333
1780001811671243000,10.084242919921875,0.06256687641143799,0.06290721893310547,0.1457538604736328
1780001811687590100,10.100590087890625,0.028864741325378418,0.01890850067138672,0.11670827865600586
1780001811703911700,10.11691162109375,0.020969867706298828,-0.030118942260742188,0.049278974533081055
1780001811720233000,10.13323291015625,0.069496750831604,-0.04621124267578125,-0.02594161033630371
1780001811736563700,10.149563720703124,0.06683039665222168,-0.03829669952392578,-0.06403589248657227
1780001811752895700,10.165895751953125,-0.016724348068237305,-0.030096054077148438,-0.08945322036743164
1780001811769219000,10.182218994140625,-0.05149376392364502,-0.07328987121582031,-0.1183326244354248
1780001811785553000,10.198552978515625,0.012170672416687012,-0.07723712921142578,-0.13498663902282715
1780001811801885000,10.214885009765625,-0.0008866786956787109,-0.03843975067138672,-0.048369407653808594
1780001811818233600,10.231233642578125,0.04830610752105713,0.013681411743164062,0.07102394104003906
1780001811834561500,10.2475615234375,0.05555415153503418,0.10401535034179688,0.12297940254211426
1780001811850895000,10.26389501953125,0.054148197174072266,0.055934906005859375,0.1346418857574463
1780001811867224300,10.280224365234375,0.03254592418670654,-0.011330604553222656,0.12653708457946777
1780001811883560400,10.296560546875,0.017549514770507812,-0.07034683227539062,0.07863783836364746
1780001811899892000,10.31289208984375,0.03875231742858887,-0.06736946105957031,-0.010907888412475586
1780001811916241700,10.32924169921875,0.09794294834136963,-0.015527725219726562,-0.11908841133117676
1780001811932554500,10.345554443359376,0.08914315700531006,0.012279510498046875,-0.16493010520935059
1780001811948904400,10.361904541015624,-0.016399860382080078,-0.03609943389892578,-0.14506030082702637
1780001811965231000,10.378231201171875,-0.014314532279968262,-0.060067176818847656,-0.08584189414978027
1780001811981555200,10.39455517578125,0.071816086769104,-0.0031709671020507812,-0.07770729064941406
1780001811997887000,10.410886962890626,0.15503311157226562,0.011569023132324219,-0.07220602035522461
1780001812014220500,10.427220458984374,0.1585170030593872,0.008153915405273438,-0.12197065353393555
1780001812030537700,10.443537841796875,0.06418836116790771,0.010878562927246094,-0.16161394119262695
1780001812046885000,10.459885009765625,0.027210712432861328,0.03668689727783203,-0.13040375709533691
1780001812063214000,10.476214111328124,0.10740911960601807,0.0037889480590820312,-0.0037801265716552734
1780001812079554000,10.492553955078124,0.1759805679321289,0.03747081756591797,0.08415794372558594
1780001812095881700,10.5088818359375,0.13792788982391357,0.03762531280517578,0.11323976516723633
1780001812112230400,10.52523046875,0.0684502124786377,0.023529052734375,0.07460403442382812
1780001812128557600,10.5415576171875,-0.02310967445373535,0.008283615112304688,0.040326833724975586
1780001812144894500,10.55789453125,-0.0868082046508789,-0.06409931182861328,0.005495548248291016
1780001812161229800,10.574229736328125,-0.08257782459259033,-0.03639698028564453,-0.04291844367980957
1780001812177555700,10.5905556640625,-0.04163098335266113,-0.017563819885253906,-0.06149625778198242
1780001812193875200,10.606875244140625,-0.037623047828674316,-0.031240463256835938,-0.07549238204956055
1780001812210222300,10.623222412109374,-0.052585601806640625,-0.010617256164550781,-0.022989511489868164
1780001812226540800,10.639540771484375,-0.04624950885772705,0.005492210388183594,0.011773824691772461
1780001812242873600,10.65587353515625,0.006275534629821777,0.049592018127441406,0.031687021255493164
1780001812259191800,10.67219189453125,0.06682181358337402,0.0796060562133789,0.05666613578796387
1780001812275529200,10.688529296875,0.11221063137054443,0.10479354858398438,0.034241676330566406
1780001812291859000,10.70485888671875,0.14689207077026367,0.07720565795898438,0.006746768951416016
1780001812308193800,10.72119384765625,0.13516223430633545,0.01574230194091797,-0.007011890411376953
1780001812324526000,10.737526123046875,0.11057484149932861,0.0015659332275390625,-0.025109052658081055
1780001812340858600,10.753858642578125,0.06346118450164795,0.02499866485595703,-0.011223554611206055
1780001812357187000,10.77018701171875,-0.0005985498428344727,0.023754119873046875,0.035331010818481445
1780001812373525200,10.786525146484376,-0.08488202095031738,0.017128944396972656,0.07062554359436035
1780001812389854500,10.8028544921875,-0.1516716480255127,0.02520751953125,0.08672308921813965
1780001812406189800,10.81918994140625,-0.20828759670257568,0.04255104064941406,0.07057046890258789
1780001812422519300,10.835519287109374,-0.2702215313911438,0.004229545593261719,0.02538442611694336
1780001812438854000,10.85185400390625,-0.2799836993217468,-0.03740215301513672,-0.010189056396484375
1780001812455184600,10.8681845703125,-0.13379311561584473,-0.001399993896484375,-0.005834102630615234
1780001812471518500,10.8845185546875,0.016114354133605957,0.06891155242919922,0.0027472972869873047
1780001812487865300,10.900865234375,0.09174776077270508,0.10434722900390625,-0.00028586387634277344
1780001812504196600,10.917196533203125,0.20351576805114746,0.10556411743164062,-0.03255057334899902
1780001812520528000,10.93352783203125,0.2670426368713379,0.019412994384765625,-0.05511283874511719
1780001812536861700,10.94986181640625,0.33771395683288574,-0.119476318359375,-0.11400365829467773
1780001812553192200,10.966192138671875,0.32877445220947266,-0.1492481231689453,-0.19323492050170898
1780001812569526000,10.982526123046876,0.1505962610244751,0.0029697418212890625,-0.21508383750915527
1780001812585857800,10.99885791015625,-0.12392914295196533,0.13498592376708984,-0.13492226600646973
1780001812602209000,11.015208984375,-0.24026274681091309,0.1095266342163086,0.03733348846435547
1780001812618534400,11.031534423828125,-0.14955615997314453,-0.030042648315429688,0.18591594696044922
1780001812634870000,11.0478701171875,0.030072569847106934,-0.06331348419189453,0.17699551582336426
1780001812651201000,11.064200927734374,-0.005235433578491211,-0.00000858306884765625,0.06951904296875
1780001812667519200,11.080519287109375,-0.06472992897033691,0.023679733276367188,0.0040280818939208984
1780001812683864300,11.0968642578125,-0.025776267051696777,-0.02938079833984375,-0.02855205535888672
1780001812700183800,11.113183837890626,0.04701054096221924,-0.06818962097167969,-0.04962968826293945
1780001812716531500,11.129531494140625,0.064034104347229,-0.08352088928222656,-0.01942920684814453
1780001812732864800,11.14586474609375,0.0356520414352417,-0.04181957244873047,0.013855457305908203
1780001812749181400,11.162181396484375,0.05870997905731201,0.023908615112304688,0.025381088256835938
1780001812765521700,11.178521728515625,0.09588015079498291,0.02793598175048828,-0.014719724655151367
1780001812781860000,11.194860107421874,0.1003427505493164,-0.015254020690917969,-0.0625772476196289
1780001812798191400,11.21119140625,0.06098055839538574,-0.019695281982421875,-0.08986735343933105
1780001812814522600,11.227522705078124,0.05989539623260498,-0.014204978942871094,-0.08737373352050781
1780001812830860000,11.243860107421876,0.06844556331634521,0.010648727416992188,-0.06989288330078125
1780001812847175000,11.2601748046875,0.10097002983093262,0.04499244689941406,-0.0331568717956543
1780001812863501000,11.2765009765625,0.10961902141571045,0.04960346221923828,0.016077518463134766
1780001812879836200,11.292836181640626,0.10777091979980469,0.04960060119628906,0.0454866886138916
1780001812896193300,11.309193359375,0.07996523380279541,0.03969097137451172,0.05015850067138672
1780001812912521200,11.325521240234375,0.032979726791381836,0.015242576599121094,0.055129051208496094
1780001812928851500,11.3418515625,0.0002970695495605469,-0.003795623779296875,0.011527538299560547
1780001812945174000,11.358174072265625,-0.007448434829711914,-0.04239845275878906,-0.03589677810668945
1780001812961503500,11.37450341796875,-0.048200368881225586,-0.04722881317138672,-0.058769941329956055
1780001812977830000,11.390829833984375,-0.04521322250366211,-0.042168617248535156,-0.052474021911621094
1780001812994176300,11.40717626953125,-0.03632950782775879,-0.0130157470703125,-0.022420644760131836
1780001813010501000,11.423501220703125,0.006972074508666992,-0.0029287338256835938,0.012884140014648438
1780001813026818000,11.439818115234376,0.059366703033447266,0.002166748046875,-0.005239725112915039
1780001813043168000,11.45616796875,0.0775153636932373,-0.016945838928222656,-0.0667414665222168
1780001813059498500,11.47249853515625,0.06541669368743896,-0.031378746032714844,-0.08991098403930664
1780001813075836200,11.488836181640625,0.02582526206970215,-0.031325340270996094,-0.12310385704040527
1780001813092183300,11.505183349609375,0.020686984062194824,-0.01672649383544922,-0.10789656639099121
1780001813108495400,11.521495361328125,0.03929710388183594,-0.021242141723632812,-0.06823420524597168
1780001813124845600,11.537845458984375,0.03461432456970215,-0.020879745483398438,-0.03369331359863281
1780001813141184800,11.554184814453125,0.02477741241455078,0.0033330917358398438,-0.03274655342102051
1780001813157510100,11.57051025390625,0.0333561897277832,-0.0014057159423828125,-0.03700089454650879
1780001813173846300,11.58684619140625,0.051280856132507324,-0.011172294616699219,-0.0562441349029541
1780001813190163000,11.603162841796875,0.06865477561950684,-0.02109050750732422,-0.07094073295593262
1780001813206500900,11.6195009765625,0.0709453821182251,-0.007107734680175781,-0.09978795051574707
1780001813222844700,11.6358447265625,0.06383991241455078,-0.031250953674316406,-0.10884499549865723
1780001813239169000,11.6521689453125,0.05661201477050781,-0.03605079650878906,-0.10313916206359863
1780001813255508500,11.668508544921876,0.04083609580993652,-0.01671600341796875,-0.0830986499786377
1780001813271837200,11.684837158203125,0.01736462116241455,0.0026636123657226562,-0.05386042594909668
1780001813288170200,11.701170166015626,0.008628249168395996,0.0075283050537109375,-0.015669584274291992
1780001813304501800,11.717501708984376,0.00843203067779541,0.0073184967041015625,0.01704692840576172
1780001813320835300,11.73383544921875,0.026497364044189453,0.02111053466796875,0.025363445281982422
1780001813337161000,11.750160888671875,0.028652667999267578,0.020389556884765625,0.009903192520141602
1780001813353504800,11.7665048828125,0.026256799697875977,-0.00394439697265625,-0.028400897979736328
1780001813369830700,11.78283056640625,0.024258017539978027,-0.004055976867675781,-0.04229569435119629
1780001813386164700,11.799164794921875,0.0329279899597168,-0.008627891540527344,-0.04130291938781738
1780001813402497300,11.815497314453125,0.018137693405151367,0.006183624267578125,-0.030201435089111328
1780001813418830600,11.83183056640625,0.012376785278320312,0.030579566955566406,0.00005650520324707031
1780001813435161600,11.84816162109375,0.011902451515197754,0.030269622802734375,0.03460240364074707
1780001813451496000,11.864495849609375,0.010680913925170898,0.030175209045410156,0.05395698547363281
1780001813467809300,11.880809326171875,0.00342404842376709,0.005801200866699219,0.06772994995117188
1780001813484146700,11.897146728515626,-0.0027205944061279297,-0.008500099182128906,0.052542686462402344
1780001813500478200,11.913478271484376,-0.023998260498046875,-0.023400306701660156,0.01768183708190918
1780001813516811800,11.929811767578125,-0.029814600944519043,-0.028580665588378906,-0.011548995971679688
1780001813533143000,11.94614306640625,-0.034606337547302246,-0.03818321228027344,-0.021209716796875
1780001813549476900,11.962476806640625,-0.014404535293579102,-0.04278087615966797,-0.001337289810180664
1780001813565807900,11.978807861328125,-0.0035178661346435547,-0.02821063995361328,0.0463864803314209
1780001813582128600,11.995128662109375,-0.005610823631286621,0.004738807678222656,0.07871294021606445
1780001813598487600,12.011487548828125,0.05122244358062744,0.018845558166503906,0.09124898910522461
1780001813614820000,12.027820068359375,0.1077197790145874,0.027856826782226562,0.06412124633789062
1780001813631154700,12.04415478515625,0.12016034126281738,0.022228240966796875,-0.0014934539794921875
1780001813647482600,12.060482666015625,0.09326601028442383,0.012417793273925781,-0.05733466148376465
1780001813663816700,12.076816650390626,0.08199596405029297,-0.021735191345214844,-0.09434819221496582
1780001813680150000,12.09314990234375,0.08644163608551025,-0.007718086242675781,-0.09231710433959961
1780001813696465200,12.109465087890625,0.10620832443237305,0.0017337799072265625,-0.0513453483581543
1780001813712813800,12.125813720703125,0.10267579555511475,0.01612377166748047,-0.03923392295837402
1780001813729146600,12.142146728515625,0.12666785717010498,0.0066699981689453125,-0.03597593307495117
1780001813745480000,12.15847998046875,0.13065814971923828,0.021271705627441406,-0.07028555870056152
1780001813761795000,12.174795166015626,0.11178505420684814,0.026506423950195312,-0.08981060981750488
1780001813778139600,12.1911396484375,0.09316742420196533,0.022367477416992188,-0.08095860481262207
1780001813794485800,12.20748583984375,0.07881593704223633,0.05187225341796875,-0.05195283889770508
1780001813810807800,12.223807861328124,0.04943645000457764,0.06212615966796875,-0.01321268081665039
1780001813827141400,12.240141357421875,0.0185164213180542,0.06264781951904297,0.025641202926635742
1780001813843473700,12.2564736328125,-0.013902902603149414,0.06302833557128906,0.059029340744018555
1780001813859789600,12.27278955078125,-0.046474456787109375,0.058470726013183594,0.08806991577148438
1780001813876140500,12.289140625,-0.06445538997650146,0.03954601287841797,0.1026301383972168
1780001813892476700,12.3054765625,-0.10147213935852051,0.025313377380371094,0.11628270149230957
1780001813908785200,12.32178515625,-0.12917578220367432,0.006313323974609375,0.12110710144042969
1780001813925125600,12.338125732421876,-0.15594065189361572,0.011303901672363281,0.11103963851928711
1780001813941454800,12.354454833984375,-0.13026928901672363,0.02116680145263672,0.09270358085632324
1780001813957771300,12.370771240234374,-0.08546864986419678,-0.002368927001953125,0.06449770927429199
1780001813974122000,12.3871220703125,-0.050417304039001465,-0.006680488586425781,0.04139280319213867
1780001813990450700,12.40345068359375,-0.03443753719329834,0.012862205505371094,0.02821063995361328
1780001814006788600,12.41978857421875,-0.00405573844909668,0.022652626037597656,0.013883590698242188
1780001814023113200,12.43611328125,0.016817688941955566,0.013126373291015625,0.008586645126342773
1780001814039452000,12.452451904296876,0.01814889907836914,0.00341796875,0.0029001235961914062
1780001814055783000,12.468782958984375,0.02942359447479248,0.012885093688964844,-0.03131914138793945
1780001814072134100,12.485134033203124,0.03970205783843994,-0.011165618896484375,-0.060655832290649414
1780001814088461800,12.5014619140625,0.04073798656463623,-0.020730972290039062,-0.07994294166564941
1780001814104778800,12.51777880859375,0.02210378646850586,-0.025463104248046875,-0.09911561012268066
1780001814121105700,12.534105712890625,0.02760136127471924,-0.03961181640625,-0.09876203536987305
1780001814137460200,12.550460205078124,0.037438273429870605,-0.034628868103027344,-0.06500101089477539
1780001814153793300,12.566793212890625,0.02342212200164795,-0.001041412353515625,-0.03615593910217285
1780001814170129200,12.583129150390626,-0.013764500617980957,-0.0008869171142578125,-0.007389068603515625
1780001814186456600,12.59945654296875,0.006961822509765625,-0.0054569244384765625,-0.0027730464935302734
1780001814202791000,12.615791015625,-0.009602785110473633,-0.014865875244140625,0.006552457809448242
1780001814219117000,12.632116943359375,-0.0089036226272583,0.009103775024414062,0.006193399429321289
1780001814235458800,12.648458740234375,-0.008013367652893066,0.0185699462890625,0.005559682846069336
1780001814251786800,12.664786865234374,-0.006161332130432129,0.008939743041992188,0.004921436309814453
1780001814268120800,12.681120849609375,0.004205107688903809,0.008975028991699219,0.009304523468017578
1780001814284451600,12.69745166015625,-0.03216099739074707,0.028148651123046875,0.00831747055053711
1780001814300786200,12.7137861328125,-0.012992143630981445,0.04242134094238281,0.008432626724243164
1780001814317122800,12.730122802734375,0.024783730506896973,0.03735923767089844,-0.0017676353454589844
1780001814333444400,12.7464443359375,0.023699164390563965,0.0034799575805664062,-0.011844158172607422
1780001814349780000,12.762780029296875,-0.02591836452484131,0.007916450500488281,-0.027186870574951172
1780001814366116000,12.7791162109375,-0.026775598526000977,-0.006663322448730469,-0.01795196533203125
1780001814382446800,12.79544677734375,-0.027424216270446777,-0.016409873962402344,-0.0038759708404541016
1780001814398780200,12.8117802734375,-0.0472559928894043,-0.006962776184082031,0.01515340805053711
1780001814415111200,12.828111083984375,-0.038968801498413086,-0.011873245239257812,0.02460789680480957
1780001814431446300,12.8444462890625,-0.010187149047851562,-0.0023975372314453125,0.020109176635742188
1780001814447774000,12.86077392578125,0.009263753890991211,0.007129669189453125,-0.004057884216308594
1780001814464096500,12.877096435546875,0.028983473777770996,0.011996269226074219,-0.018390417098999023
1780001814480426800,12.8934267578125,0.044141173362731934,-0.0023403167724609375,-0.027971267700195312
1780001814496745500,12.909745361328126,0.03418469429016113,0.012020111083984375,-0.04696226119995117
1780001814513080300,12.926080322265625,0.07685744762420654,0.026267051696777344,-0.04175972938537598
1780001814529430000,12.942429931640625,0.09495794773101807,0.02628612518310547,-0.04153704643249512
1780001814545758000,12.958758056640624,0.08462631702423096,0.011961936950683594,-0.036376953125
1780001814562092000,12.975092041015625,0.050524115562438965,-0.011922836303710938,-0.02683258056640625
1780001814578422500,12.991422607421875,0.015635132789611816,-0.02134227752685547,-0.021090984344482422
1780001814594759700,13.007759765625,-0.0047664642333984375,-0.016348838806152344,-0.015227079391479492
1780001814611099600,13.024099609375,-0.02933812141418457,0.0030298233032226562,0.00425267219543457
1780001814627435500,13.040435546875,-0.029471755027770996,0.0032796859741210938,0.043703317642211914
1780001814643767000,13.05676708984375,-0.009113550186157227,-0.0012311935424804688,0.08234500885009766
1780001814660099800,13.073099853515625,-0.013214945793151855,0.018088340759277344,0.08718514442443848
1780001814676429600,13.0894296875,-0.0018631219863891602,0.027679443359375,0.06766486167907715
1780001814692752000,13.105751953125,0.00857532024383545,0.022703170776367188,0.028496980667114258
1780001814709096400,13.122096435546876,0.04795026779174805,0.012897491455078125,-0.034586429595947266
1780001814725429800,13.1384296875,0.07190835475921631,0.0127105712890625,-0.07283782958984375
1780001814741760000,13.154760009765624,0.08122944831848145,-0.0065822601318359375,-0.07797670364379883
1780001814758079700,13.171079833984376,0.05693972110748291,-0.011560440063476562,-0.050290822982788086
1780001814774421500,13.18742138671875,0.03696179389953613,0.007380485534667969,-0.02687525749206543
1780001814790758100,13.203758056640625,0.027278780937194824,0.016828536987304688,-0.012839555740356445
1780001814807092000,13.220092041015626,0.013076424598693848,-0.0024232864379882812,0.0011370182037353516
1780001814823425800,13.23642578125,0.013514995574951172,-0.0023860931396484375,0.010659456253051758
1780001814839756300,13.25275634765625,0.02795720100402832,0.00246429443359375,0.0108184814453125
1780001814856105200,13.269105224609374,0.02315521240234375,0.012093544006347656,0.030140161514282227
1780001814872421600,13.285421630859375,-0.00986337661743164,0.007321357727050781,0.039572954177856445
1780001814888755000,13.3017548828125,-0.04648470878601074,0.007300376892089844,0.0526576042175293
1780001814905086700,13.318086669921875,-0.04405844211578369,0.0214996337890625,0.05609536170959473
1780001814921399600,13.334399658203125,-0.0039049386978149414,0.011723518371582031,0.031473636627197266
1780001814937755000,13.3507548828125,0.03053593635559082,-0.012524604797363281,0.001476287841796875
1780001814954067700,13.367067626953125,0.04155457019805908,-0.008046150207519531,-0.028453826904296875
1780001814970402800,13.38340283203125,0.056743621826171875,0.010858535766601562,-0.03924083709716797
1780001814986735900,13.39973583984375,0.06309807300567627,0.0154266357421875,-0.040453195571899414
1780001815003071200,13.4160712890625,0.08298695087432861,0.015142440795898438,-0.04096221923828125
1780001815019399000,13.43239892578125,0.09253525733947754,0.014891624450683594,-0.05126023292541504
1780001815035732200,13.448732177734374,0.08308494091033936,0.0002918243408203125,-0.06616044044494629
1780001815052066600,13.465066650390625,0.08317697048187256,-0.014186859130859375,-0.06176424026489258
1780001815068411600,13.48141162109375,0.05532348155975342,-0.009439468383789062,-0.03407478332519531
1780001815084747300,13.497747314453125,0.013062357902526855,0.014550209045410156,-0.010476350784301758
1780001815101077500,13.514077392578125,0.009328484535217285,0.024171829223632812,0.013224601745605469
1780001815117404200,13.530404052734376,0.03810703754425049,0.00029468536376953125,0.022919178009033203
1780001815133745700,13.54674560546875,0.04256260395050049,0.01950836181640625,0.013678789138793945
1780001815150071600,13.563071533203125,0.028563976287841797,0.010021209716796875,-0.005348682403564453
1780001815166412500,13.57941259765625,0.0017472505569458008,-0.004105567932128906,0.004212856292724609
1780001815182735600,13.595735595703125,-0.02493143081665039,-0.018274307250976562,0.017797231674194336
1780001815199072000,13.612072021484375,-0.018832683563232422,-0.0038652420043945312,0.02704310417175293
1780001815215404800,13.62840478515625,-0.05575919151306152,0.015228271484375,0.021629810333251953
1780001815231735800,13.64473583984375,-0.005805492401123047,0.015240669250488281,0.01672649383544922
1780001815248068000,13.661068115234375,0.02987825870513916,0.010580062866210938,0.0019516944885253906
1780001815264402400,13.67740234375,0.05101490020751953,-0.008507728576660156,-0.03188467025756836
1780001815280725500,13.6937255859375,0.051494717597961426,-0.018133163452148438,-0.056139230728149414
1780001815297066500,13.71006640625,0.02331674098968506,-0.017615318298339844,-0.07570934295654297
1780001815313402600,13.726402587890625,0.034264206886291504,0.010488510131835938,-0.0666661262512207
1780001815329731600,13.742731689453125,0.007731318473815918,0.020053863525390625,-0.02438664436340332
1780001815346065000,13.75906494140625,0.004300594329833984,0.020186424255371094,-0.0007672309875488281
1780001815362379300,13.775379150390625,0.02904486656188965,0.006060600280761719,-0.0051610469818115234
1780001815378728000,13.79172802734375,0.06264340877532959,-0.017627716064453125,-0.03778195381164551
1780001815395061500,13.8080615234375,0.04762589931488037,-0.012526512145996094,-0.06533288955688477
1780001815411395300,13.824395263671875,-0.004658222198486328,0.01641845703125,-0.04623770713806152
1780001815427710500,13.84071044921875,-0.03719043731689453,0.026205062866210938,0.03519415855407715
1780001815444043000,13.85704296875,-0.07868814468383789,0.04574871063232422,0.09781384468078613
1780001815460377600,13.873377685546876,-0.10994225740432739,0.079559326171875,0.16015052795410156
1780001815476711200,13.889711181640624,-0.11404699087142944,0.089080810546875,0.20740604400634766
1780001815493042200,13.906042236328124,-0.09062528610229492,0.060092926025390625,0.19720983505249023
1780001815509376300,13.922376220703125,-0.07299840450286865,0.026170730590820312,0.11536002159118652
1780001815525707300,13.938707275390625,-0.09871780872344971,-0.017362594604492188,0.05682229995727539
1780001815542058200,13.955058349609375,-0.14212340116500854,-0.021863937377929688,0.008375406265258789
1780001815558368800,13.97136865234375,-0.13217693567276,-0.04600715637207031,0.0028264522552490234
1780001815574717700,13.9877177734375,-0.07838428020477295,-0.05085563659667969,0.011803865432739258
1780001815591051000,14.004051025390625,0.008671998977661133,-0.022790908813476562,-0.016781091690063477
1780001815607385000,14.020385009765626,0.028387784957885742,-0.013152122497558594,-0.03532695770263672
1780001815623713800,14.0367138671875,0.06724560260772705,-0.03166675567626953,-0.06719207763671875
1780001815640048600,14.053048583984374,0.18251252174377441,-0.0732583999633789,-0.08153820037841797
1780001815656365800,14.06936572265625,0.28252315521240234,-0.013886451721191406,-0.12290072441101074
1780001815672715000,14.085715087890625,0.20651566982269287,0.04549121856689453,-0.12693119049072266
1780001815689045800,14.102045654296875,0.03827810287475586,0.018983840942382812,-0.07216572761535645
1780001815705377800,14.118377685546875,-0.06964945793151855,0.04375648498535156,0.07241106033325195
1780001815721695500,14.134695556640626,-0.12416350841522217,0.12177371978759766,0.2213304042816162
1780001815738045000,14.151044921875,-0.12182021141052246,0.18941688537597656,0.3471360206604004
1780001815754358300,14.167358154296876,-0.13410919904708862,0.1807861328125,0.3906219005584717
1780001815770710800,14.183710693359375,-0.14631903171539307,0.1575469970703125,0.33724308013916016
1780001815787024400,14.2000244140625,-0.06336754560470581,0.13842296600341797,0.23543167114257812
1780001815803375000,14.216375,0.02036762237548828,0.0711374282836914,0.1556401252746582
1780001815819683300,14.232683349609376,-0.025294899940490723,0.026781082153320312,0.04764151573181152
1780001815836039400,14.249039306640626,-0.06007564067840576,-0.040973663330078125,-0.07411456108093262
1780001815852367600,14.26536767578125,-0.06982862949371338,-0.07970428466796875,-0.19531989097595215
1780001815868708600,14.28170849609375,-0.013728976249694824,-0.11361980438232422,-0.24792170524597168
1780001815885032000,14.298031982421875,-0.00823831558227539,-0.1133260726928711,-0.30472874641418457
1780001815901360400,14.3143603515625,0.03583729267120361,-0.1517314910888672,-0.34351372718811035
1780001815917695700,14.33069580078125,0.12966907024383545,-0.1857748031616211,-0.353435754776001
1780001815934023400,14.3470234375,0.19801998138427734,-0.1711416244506836,-0.36062121391296387
1780001815950349000,14.36334912109375,0.19236695766448975,-0.12214374542236328,-0.36173439025878906
1780001815966685400,14.379685546875,0.17900514602661133,-0.0968942642211914,-0.31052660942077637
1780001815983000600,14.39600048828125,0.1718660593032837,-0.08695507049560547,-0.18907690048217773
1780001815999351000,14.41235107421875,0.08366847038269043,-0.05727958679199219,-0.08269476890563965
1780001816015681500,14.428681640625,-0.000023365020751953125,0.015245437622070312,-0.004984140396118164
1780001816032019200,14.445019287109375,0.007825970649719238,0.0725870132446289,0.07663536071777344
1780001816048361200,14.461361328125,0.05005514621734619,0.07761478424072266,0.12425088882446289
1780001816064694300,14.4776943359375,0.12567412853240967,0.03442192077636719,0.10882687568664551
1780001816081015600,14.494015625,0.12154793739318848,0.019309043884277344,0.057909488677978516
1780001816097351000,14.510350830078124,0.026296019554138184,0.018251419067382812,0.0065860748291015625
1780001816113696000,14.526696044921875,-0.03948533535003662,0.0037364959716796875,-0.011016845703125
1780001816130028500,14.543028564453126,-0.04535353183746338,-0.0013303756713867188,0.006041526794433594
1780001816146353700,14.559353759765624,-0.06443220376968384,0.031807899475097656,0.048180580139160156
1780001816162689800,14.575689697265625,-0.07008880376815796,0.046813011169433594,0.06772255897521973
1780001816179020800,14.592020751953125,-0.047143757343292236,0.028509140014648438,0.059357643127441406
1780001816195355400,14.60835546875,0.008626222610473633,0.082489013671875,0.03238415718078613
1780001816211680500,14.624680419921875,0.04876899719238281,0.10619831085205078,0.033486127853393555
1780001816228021200,14.641021240234375,0.048593759536743164,0.08213424682617188,0.046905517578125
1780001816244350200,14.65735009765625,0.012873530387878418,0.05752277374267578,0.05040693283081055
1780001816260684000,14.67368408203125,-0.018723487854003906,0.02397441864013672,0.020349502563476562
1780001816277009700,14.690009765625,-0.04597115516662598,-0.019556045532226562,-0.03234219551086426
1780001816293353700,14.706353759765625,-0.06400007009506226,-0.043731689453125,-0.07491207122802734
1780001816309680400,14.722680419921875,-0.05253887176513672,-0.057600975036621094,-0.09799528121948242
1780001816326014500,14.739014404296874,-0.027126073837280273,-0.029427528381347656,-0.09691166877746582
1780001816342343400,14.755343505859376,-0.019398093223571777,-0.06266212463378906,-0.062001705169677734
1780001816358679300,14.77167919921875,-0.03436589241027832,-0.04305267333984375,-0.04606056213378906
1780001816375009800,14.788009765625,-0.04011118412017822,-0.02822589874267578,-0.0014796257019042969
1780001816391344400,14.804344482421875,-0.016868233680725098,0.0009326934814453125,0.03874516487121582
1780001816407673000,14.820673095703125,-0.02115607261657715,0.034081459045410156,0.07280755043029785
1780001816423991800,14.83699169921875,-0.054129600524902344,0.02982330322265625,0.0861806869506836
1780001816440326400,14.853326416015625,-0.03470897674560547,0.015177726745605469,0.08583259582519531
1780001816456660000,14.869659912109375,-0.006356596946716309,0.0333099365234375,0.04166722297668457
1780001816472991500,14.885991455078125,0.031514525413513184,0.02854633331298828,-0.002764463424682617
1780001816489325000,14.902324951171876,0.04003417491912842,-0.0055599212646484375,-0.023343801498413086
1780001816505656600,14.918656494140626,0.025192975997924805,-0.006047248840332031,-0.02462172508239746
1780001816521985800,14.93498583984375,0.015627264976501465,-0.006445884704589844,-0.030585765838623047
1780001816538338800,14.9513388671875,0.010978341102600098,-0.006789207458496094,-0.026854991912841797
1780001816554672000,14.967672119140625,0.0013494491577148438,0.007335662841796875,-0.037091732025146484
1780001816570983200,14.983983154296874,0.02550959587097168,-0.002292633056640625,-0.0373377799987793
1780001816587333400,15.00033349609375,0.04990553855895996,-0.0071353912353515625,-0.028090715408325195
1780001816603665700,15.016665771484375,0.06013774871826172,-0.007145881652832031,-0.03313136100769043
1780001816619998500,15.03299853515625,0.056069374084472656,0.0024013519287109375,-0.023874998092651367
1780001816636327000,15.049326904296874,0.0330120325088501,0.007105827331542969,-0.010052204132080078
1780001816652643600,15.0656435546875,0.04343581199645996,0.025687217712402344,-0.005441904067993164
1780001816668978200,15.081978271484376,0.04409933090209961,0.044994354248046875,-0.009969472885131836
1780001816685328400,15.098328369140624,0.05826520919799805,0.045166015625,-0.023160457611083984
1780001816701643800,15.114643798828125,0.08935153484344482,0.045279502868652344,-0.017423391342163086
1780001816717991400,15.130991455078124,0.08686137199401855,0.03570747375488281,-0.02595233917236328
1780001816734308600,15.14730859375,0.07278454303741455,0.016269683837890625,-0.0015676021575927734
1780001816750658600,15.163658447265625,-0.011322855949401855,0.007037162780761719,0.022138595581054688
1780001816766989800,15.17998974609375,-0.07589882612228394,-0.02199268341064453,0.030989885330200195
1780001816783306500,15.196306396484376,-0.11090594530105591,-0.04612922668457031,0.0350799560546875
1780001816799637000,15.212636962890626,-0.11641138792037964,-0.03647422790527344,0.016429424285888672
1780001816816004600,15.229004638671874,-0.07349848747253418,-0.03149604797363281,0.008078575134277344
1780001816832302000,15.245302001953124,-0.02047276496887207,-0.026395797729492188,-0.005479097366333008
1780001816848652500,15.261652587890625,-0.00930774211883545,0.011662483215332031,0.01481318473815918
1780001816864982500,15.277982421875,0.016867995262145996,0.007287025451660156,0.029402494430541992
1780001816881307100,15.29430712890625,0.05722928047180176,0.02170848846435547,0.053409576416015625
1780001816897638100,15.31063818359375,0.02903735637664795,0.03094768524169922,0.056438446044921875
1780001816913965800,15.3269658203125,-0.004399299621582031,0.03524494171142578,0.03583884239196777
1780001816930298400,15.34329833984375,-0.0033224821090698242,0.011465072631835938,0.000850677490234375
1780001816946636800,15.35963671875,0.012129783630371094,0.001682281494140625,-0.038436174392700195
1780001816962966000,15.375966064453126,0.02264106273651123,0.006484031677246094,-0.03870582580566406
1780001816979298300,15.39229833984375,0.018643498420715332,0.021025657653808594,-0.019287109375
1780001816995636500,15.408636474609375,0.05217111110687256,0.025412559509277344,0.0056133270263671875
1780001817011964200,15.424964111328125,0.056940674781799316,0.03031158447265625,0.02988409996032715
1780001817028312000,15.44131201171875,0.05647170543670654,0.04472923278808594,0.020650386810302734
1780001817044643300,15.457643310546874,0.06977558135986328,0.04471302032470703,0.006600856781005859
1780001817060974300,15.473974365234374,0.04926109313964844,0.011734962463378906,-0.027050495147705078
1780001817077307100,15.49030712890625,0.03718280792236328,-0.012227058410644531,-0.04543948173522949
1780001817093637600,15.5066376953125,0.001462101936340332,-0.012259483337402344,-0.03520631790161133
1780001817109975600,15.5229755859375,-0.0043904781341552734,-0.007405281066894531,-0.015497684478759766
1780001817126304300,15.53930419921875,-0.00445711612701416,-0.026299476623535156,-0.019522428512573242
1780001817142638300,15.555638427734374,-0.009548187255859375,-0.03078174591064453,-0.023313045501708984
1780001817158969300,15.57196923828125,-0.023650646209716797,0.007906913757324219,-0.036956071853637695
1780001817175298300,15.58829833984375,-0.009475231170654297,0.01800823211669922,-0.03971457481384277
1780001817191621600,15.60462158203125,-0.003821134567260742,0.023471832275390625,-0.014084577560424805
1780001817207971000,15.62097119140625,-0.008397936820983887,0.024186134338378906,-0.002470731735229492
1780001817224298500,15.637298583984375,0.004880189895629883,0.02946186065673828,0.013706207275390625
1780001817240635600,15.6536357421875,0.02612626552581787,0.01954936981201172,0.015180587768554688
1780001817256953900,15.669953857421875,0.03826022148132324,-0.013301849365234375,-0.012405633926391602
1780001817273304600,15.6863046875,0.01608562469482422,-0.02298259735107422,-0.01646876335144043
1780001817289609500,15.702609375,-0.03396308422088623,-0.008798599243164062,-0.016821622848510742
1780001817305965300,15.71896533203125,-0.03954470157623291,-0.008980751037597656,-0.0021245479583740234
1780001817322293800,15.735293701171875,-0.03974461555480957,-0.01874828338623047,0.021290302276611328
1780001817338627600,15.751627685546875,-0.058740854263305664,-0.023505210876464844,0.02550506591796875
1780001817354958600,15.76795849609375,-0.0533214807510376,-0.013820648193359375,0.01605510711669922
1780001817371265800,15.784265869140626,-0.013323187828063965,-0.023145675659179688,-0.01671290397644043
1780001817387622100,15.8006220703125,0.007972002029418945,-0.008498191833496094,-0.0022389888763427734
1780001817403940400,15.8169404296875,-0.00018155574798583984,0.025259971618652344,0.012189626693725586
1780001817420274000,15.83327392578125,0.010637879371643066,0.06836414337158203,0.04056692123413086
1780001817436608500,15.8496083984375,0.02536618709564209,0.0627603530883789,0.06431198120117188
1780001817452939500,15.865939453125,0.010526895523071289,0.048089027404785156,0.06773877143859863
1780001817469273300,15.8822734375,0.018925189971923828,0.024499893188476562,0.014733552932739258
1780001817485604900,15.89860498046875,0.03709542751312256,0.009859085083007812,-0.038207054138183594
1780001817501939200,15.914939208984375,0.04559803009033203,-0.009490013122558594,-0.07174468040466309
1780001817518287000,15.931287109375,0.02442753314971924,-0.03827667236328125,-0.07604074478149414
1780001817534612200,15.9476123046875,-0.020371675491333008,-0.023944854736328125,-0.04680037498474121
1780001817550950400,15.963950439453125,-0.03653895854949951,-0.014392852783203125,-0.02310657501220703
1780001817567282400,15.980282470703125,-0.022817015647888184,-0.028764724731445312,-0.0031893253326416016
1780001817583613700,15.99661376953125,-0.047182679176330566,-0.038326263427734375,-0.0036072731018066406
1780001817599930600,16.0129306640625,-0.06568598747253418,-0.014223098754882812,-0.022449970245361328
1780001817616277200,16.02927734375,-0.03521537780761719,-0.013845443725585938,-0.01656317710876465
1780001817632612900,16.04561279296875,-0.004858732223510742,0.00566864013671875,0.012685060501098633
1780001817648946000,16.06194580078125,0.0001289844512939453,0.020203590393066406,0.04164624214172363
1780001817665273000,16.078273193359376,-0.00424039363861084,0.03456592559814453,0.04151606559753418
1780001817681595400,16.094595458984376,0.043568968772888184,0.04806327819824219,0.03178834915161133
1780001817697922000,16.110922119140625,0.04324078559875488,0.02376270294189453,0.021225929260253906
1780001817714244000,16.127244140625,0.027836918830871582,0.023863792419433594,0.00516057014465332
1780001817730582800,16.143582763671876,0.022228121757507324,0.013864517211914062,-0.029109477996826172
1780001817746924500,16.159924560546877,0.03517019748687744,-0.019872665405273438,-0.03410935401916504
1780001817763255800,16.176255859375,0.029755592346191406,-0.02955150604248047,-0.04378056526184082
1780001817779591400,16.19259130859375,0.039217233657836914,-0.015295028686523438,-0.048822879791259766
1780001817795922700,16.208922607421876,0.044170260429382324,-0.01528167724609375,-0.05362868309020996
1780001817812269800,16.225269775390625,0.03484487533569336,0.003887176513671875,-0.053639888763427734
1780001817828602000,16.24160205078125,0.030089259147644043,0.013593673706054688,-0.04367470741271973
1780001817844933000,16.25793310546875,0.02045917510986328,0.018611907958984375,-0.03817915916442871
1780001817861233000,16.27423291015625,0.034500956535339355,0.009261131286621094,-0.01827692985534668
1780001817877601500,16.2906015625,0.019222259521484375,-0.009675979614257812,-0.017348527908325195
1780001817893914000,16.3069140625,0.0036798715591430664,-0.004810333251953125,0.002445220947265625
1780001817910249200,16.323249267578124,-0.0020006895065307617,-0.0048618316650390625,0.016962528228759766
1780001817926579200,16.3395791015625,0.0017542839050292969,-0.0008974075317382812,0.049954891204833984
1780001817942917600,16.355917724609377,-0.017577528953552246,0.008946418762207031,0.04427146911621094
1780001817959248000,16.372247802734375,-0.0264815092086792,-0.0009765625,0.024062395095825195
1780001817975578600,16.38857861328125,-0.020916461944580078,-0.010782241821289062,-0.005624055862426758
1780001817991912400,16.404912353515623,0.013738393783569336,-0.0013170242309570312,-0.04940605163574219
1780001818008243500,16.421243408203125,0.057385802268981934,-0.015766143798828125,-0.07799577713012695
1780001818024595200,16.43759521484375,0.07664036750793457,-0.0158843994140625,-0.0783851146697998
1780001818040922600,16.453922607421877,0.07184338569641113,-0.01129913330078125,-0.06461930274963379
1780001818057249000,16.4702490234375,0.04809010028839111,0.007457733154296875,-0.04189014434814453
1780001818073617200,16.4866171875,0.0532451868057251,-0.00748443603515625,-0.024604320526123047
1780001818089927700,16.502927734375,0.04869484901428223,0.010935783386230469,-0.01724720001220703
1780001818106246700,16.51924658203125,0.07267379760742188,0.029425621032714844,-0.05747699737548828
1780001818122586600,16.535586669921877,0.0963754653930664,-0.0043621063232421875,-0.09653568267822266
1780001818138924000,16.551924072265624,0.08151841163635254,-0.013907432556152344,-0.12479138374328613
1780001818155251200,16.568251220703125,0.03168189525604248,-0.042621612548828125,-0.12469816207885742
1780001818171582200,16.584582275390623,-0.012784719467163086,-0.047481536865234375,-0.06700563430786133
1780001818187914000,16.6009140625,-0.03183162212371826,-0.014110565185546875,-0.0054128170013427734
1780001818204244000,16.617243896484375,0.00423121452331543,0.014121055603027344,0.036901235580444336
1780001818220585200,16.633585205078123,0.05023908615112305,0.05281639099121094,0.051841020584106445
1780001818236908500,16.649908447265624,0.023645877838134766,0.05308055877685547,0.047303199768066406
1780001818253249500,16.66624951171875,-0.015185356140136719,0.005710601806640625,0.041780948638916016
1780001818269580300,16.682580322265625,-0.010717272758483887,0.03429222106933594,-0.006148099899291992
1780001818285907200,16.6989072265625,-0.00692141056060791,0.03888225555419922,-0.04945206642150879
1780001818302242000,16.715241943359374,-0.017715096473693848,-0.004439353942871094,-0.04977226257324219
1780001818318573600,16.731573486328124,-0.0143660306930542,-0.04273509979248047,-0.034945011138916016
1780001818334907100,16.7479072265625,-0.030109763145446777,-0.018622398376464844,-0.048276662826538086
1780001818351240700,16.76424072265625,-0.002989649772644043,-0.008877754211425781,-0.03763532638549805
1780001818367556000,16.78055615234375,0.01448965072631836,0.0008249282836914062,-0.036669015884399414
1780001818383888400,16.796888427734373,0.012877821922302246,0.0008602142333984375,-0.031218290328979492
1780001818400223000,16.813222900390624,0.04967606067657471,-0.027894973754882812,-0.0493621826171875
1780001818416556500,16.829556640625,0.10936141014099121,-0.0328216552734375,-0.10153365135192871
1780001818432887600,16.845887451171876,0.12124967575073242,-0.01869487762451172,-0.1585674285888672
1780001818449220000,16.86222021484375,0.11373066902160645,-0.0526123046875,-0.18734049797058105
1780001818465541600,16.878541748046874,0.1392664909362793,-0.08155059814453125,-0.23473715782165527
1780001818481886700,16.89488671875,0.14189767837524414,-0.08062076568603516,-0.28063130378723145
1780001818498217500,16.911217529296874,0.09631228446960449,-0.055678367614746094,-0.3102405071258545
1780001818514566700,16.927566650390624,0.01786673069000244,-0.044350624084472656,-0.2762484550476074
1780001818530879700,16.943879638671874,-0.021475791931152344,-0.05600166320800781,-0.19604825973510742
1780001818547214000,16.960214111328124,-0.05549311637878418,-0.00948333740234375,-0.10504579544067383
1780001818563565600,16.976565673828127,-0.05533909797668457,0.046036720275878906,0.025103330612182617
1780001818579899000,16.99289892578125,-0.09309506416320801,0.03403282165527344,0.20083951950073242
1780001818596226300,17.009226318359374,-0.11055558919906616,0.0607757568359375,0.3518409729003906
1780001818612559600,17.0255595703125,-0.09318280220031738,0.10108757019042969,0.4398155212402344
1780001818628857600,17.041857666015623,-0.09661829471588135,0.17969703674316406,0.4889535903930664
1780001818645214700,17.058214599609375,-0.16867977380752563,0.199859619140625,0.5154688358306885
1780001818661542700,17.074542724609376,-0.2507737874984741,0.1767568588256836,0.536785364151001
1780001818677876200,17.090876220703127,-0.2732446789741516,0.19736862182617188,0.48769307136535645
1780001818694194000,17.10719384765625,-0.25078362226486206,0.24251079559326172,0.40564417839050293
1780001818710539800,17.123539794921875,-0.19635295867919922,0.18100261688232422,0.35450053215026855
1780001818726872000,17.1398720703125,-0.12568724155426025,0.1475076675415039,0.32702040672302246
1780001818743223600,17.1562236328125,-0.10210251808166504,0.13266754150390625,0.28433847427368164
1780001818759551500,17.172551513671873,-0.12753599882125854,0.07448482513427734,0.2265305519104004
1780001818775882500,17.188882568359375,-0.15818196535110474,-0.0023050308227539062,0.17408204078674316
1780001818792199000,17.205198974609374,-0.14986246824264526,-0.08915519714355469,0.11156463623046875
1780001818808549600,17.221549560546876,-0.12541544437408447,-0.10810375213623047,0.040355682373046875
1780001818824877000,17.237876953125,-0.046666860580444336,-0.0706472396850586,-0.02495431900024414
1780001818841227300,17.254227294921876,0.05677652359008789,-0.06143665313720703,-0.08219265937805176
1780001818857550300,17.27055029296875,0.14147543907165527,-0.06197643280029297,-0.14970088005065918
1780001818873845000,17.286844970703125,0.20687472820281982,-0.07695960998535156,-0.2464923858642578
1780001818890196500,17.303196533203124,0.2478238344192505,-0.0863800048828125,-0.35152244567871094
1780001818906530600,17.319530517578126,0.2653055191040039,-0.11997413635253906,-0.451831579208374
1780001818922856400,17.3358564453125,0.26391685009002686,-0.12833881378173828,-0.5353677272796631
1780001818939201500,17.352201416015625,0.22623121738433838,-0.13663005828857422,-0.5556268692016602
1780001818955526100,17.368526123046873,0.176194429397583,-0.08240318298339844,-0.4616680145263672
1780001818971858700,17.384858642578124,0.18335270881652832,-0.02444744110107422,-0.27711915969848633
1780001818988190500,17.4011904296875,0.17894887924194336,-0.0051364898681640625,-0.1365807056427002
1780001819004545800,17.4175458984375,0.12429261207580566,-0.004614830017089844,-0.057885169982910156
1780001819020868400,17.433868408203125,0.0400005578994751,-0.042713165283203125,-0.028089046478271484
1780001819037201200,17.450201171875,-0.06179213523864746,-0.07550048828125,-0.02343273162841797
1780001819053538000,17.4665380859375,-0.11815261840820312,-0.07017993927001953,-0.017414569854736328
1780001819069865200,17.482865234375,-0.1577708125114441,-0.040770530700683594,0.006747007369995117
1780001819086204200,17.4992041015625,-0.15799742937088013,-0.021001815795898438,0.06474590301513672
1780001819102534700,17.51553466796875,-0.11456453800201416,0.03153514862060547,0.10238933563232422
1780001819118865000,17.531864990234375,-0.08631503582000732,0.07484149932861328,0.12580299377441406
1780001819135199000,17.548198974609374,-0.0446544885635376,0.07468223571777344,0.12884736061096191
1780001819151533600,17.564533447265624,-0.033583879470825195,0.04547691345214844,0.11721467971801758
1780001819167863600,17.580863525390626,-0.056246042251586914,0.02117633819580078,0.08232903480529785
1780001819184195300,17.5971953125,-0.0744626522064209,0.006665229797363281,0.06177711486816406
1780001819200543500,17.61354345703125,-0.05849814414978027,0.030664443969726562,0.05242633819580078
1780001819216864800,17.62986474609375,-0.0331650972366333,0.054696083068847656,0.06658315658569336
1780001819233193700,17.64619384765625,0.005036711692810059,0.05944538116455078,0.08145499229431152
1780001819249525000,17.66252490234375,0.050440430641174316,0.04906272888183594,0.0719153881072998
1780001819265878000,17.6788779296875,0.06287109851837158,0.020651817321777344,0.019301652908325195
1780001819282194000,17.69519384765625,0.018456220626831055,0.0013475418090820312,-0.014568567276000977
1780001819298524000,17.71152392578125,-0.01603090763092041,-0.0130615234375,-0.023934364318847656
1780001819314854400,17.7278544921875,-0.0025086402893066406,-0.008358955383300781,0.004838228225708008
1780001819331188000,17.74418798828125,0.023940086364746094,0.00566864013671875,0.038544416427612305
1780001819347519500,17.76051953125,0.031016111373901367,0.014689445495605469,0.03778529167175293
1780001819363835600,17.776835693359374,0.01057124137878418,0.004549980163574219,-0.03561878204345703
1780001819380170800,17.793170654296876,-0.0038694143295288086,-0.038300514221191406,-0.09873843193054199
1780001819396504600,17.809504638671875,0.006144165992736816,-0.06244087219238281,-0.1280381679534912
1780001819412835300,17.82583544921875,0.005402565002441406,-0.06263923645019531,-0.09987545013427734
1780001819429169000,17.8421689453125,-0.005239605903625488,-0.02041912078857422,-0.028687000274658203
1780001819445500400,17.85850048828125,-0.01073753833770752,-0.0016269683837890625,0.032500505447387695
1780001819461821000,17.874821044921877,-0.015079021453857422,0.017142295837402344,0.05033683776855469
1780001819478165200,17.891165283203126,-0.03304338455200195,0.04553031921386719,0.03933238983154297
1780001819494515700,17.907515625,-0.012819170951843262,0.030900955200195312,0.0237424373626709
1780001819510843600,17.92384375,0.006606340408325195,0.021094322204589844,0.00916433334350586
1780001819527161300,17.940161376953125,0.011129498481750488,-0.0030384063720703125,0.008636713027954102
1780001819543507700,17.9565078125,0.02502286434173584,0.030257225036621094,0.01297450065612793
1780001819559842000,17.972842041015625,0.015493273735046387,0.029895782470703125,0.050142526626586914
1780001819576173600,17.989173583984375,0.024581074714660645,0.048473358154296875,0.05795574188232422
1780001819592494300,18.005494384765626,0.005187630653381348,0.03356742858886719,0.07073283195495605
1780001819608822800,18.02182275390625,0.014838099479675293,0.02376556396484375,0.05108237266540527
1780001819625159200,18.0381591796875,0.014221906661987305,0.028540611267089844,0.012991189956665039
1780001819641487000,18.054487060546876,0.037886738777160645,0.03816795349121094,-0.0010950565338134766
1780001819657833200,18.070833251953125,0.05690646171569824,0.038238525390625,0.00394892692565918
1780001819674170600,18.087170654296877,0.03723561763763428,0.023865699768066406,0.013669490814208984
1780001819690486500,18.103486572265624,0.016609907150268555,0.023728370666503906,0.01380467414855957
1780001819706833700,18.119833740234377,0.015078902244567871,-0.014638900756835938,-0.00023221969604492188
1780001819723167000,18.1361669921875,0.0238267183303833,-0.01936626434326172,-0.009098052978515625
1780001819739499500,18.15249951171875,0.01752173900604248,0.009516716003417969,0.0013380050659179688
1780001819755831800,18.168831787109376,0.04050469398498535,0.009549140930175781,0.011354446411132812
1780001819772162800,18.185162841796874,0.021025776863098145,0.004685401916503906,0.025602340698242188
1780001819788495000,18.2014951171875,0.006800174713134766,0.009382247924804688,0.025279998779296875
1780001819804811000,18.21781103515625,0.0020455121994018555,0.009158134460449219,0.015013933181762695
1780001819821148700,18.234148681640626,0.016523241996765137,-0.010143280029296875,-0.014002084732055664
1780001819837490200,18.250490234375,-0.007727146148681641,-0.02433013916015625,-0.04745960235595703
1780001819853813500,18.2668134765625,0.002740144729614258,-0.014355659484863281,-0.07506275177001953
1780001819870144500,18.28314453125,0.00786435604095459,0.0005092620849609375,-0.05472111701965332
1780001819886478000,18.29947802734375,0.022759556770324707,-0.003841400146484375,0.023346900939941406
1780001819902796000,18.315796142578126,-0.0006607770919799805,0.0060787200927734375,0.05771946907043457
1780001819919142000,18.332141845703124,-0.005469083786010742,0.02055072784423828,0.053293704986572266
1780001819935474200,18.34847412109375,-0.0005823373794555664,0.01076507568359375,0.014313697814941406
1780001819951807500,18.364807373046876,0.03825020790100098,-0.013563156127929688,-0.02516770362854004
1780001819968139300,18.38113916015625,0.05207467079162598,-0.02845287322998047,-0.05530714988708496
1780001819984476000,18.397475830078125,0.056192994117736816,-0.033104896545410156,-0.10888409614562988
1780001820000813300,18.413813232421877,0.0359879732131958,-0.018850326538085938,-0.1375141143798828
1780001820017155600,18.430155517578125,0.026872634887695312,-0.01858234405517578,-0.1225137710571289
1780001820033482800,18.446482666015626,0.02249431610107422,-0.008566856384277344,-0.07367944717407227
1780001820049814000,18.46281396484375,0.013860940933227539,0.010674476623535156,-0.028838396072387695
1780001820066147800,18.47914794921875,0.01362311840057373,0.044852256774902344,-0.00776219367980957
1780001820082481700,18.495481689453126,0.03237426280975342,0.040561676025390625,0.008250713348388672
1780001820098812700,18.511812744140624,0.022375941276550293,0.026510238647460938,0.014122247695922852
1780001820115144200,18.528144287109374,-0.011333584785461426,-0.0020732879638671875,0.028361797332763672
1780001820131477200,18.544477294921876,-0.039684414863586426,-0.0020122528076171875,0.03798317909240723
1780001820147810600,18.560810546875,-0.05329883098602295,0.0074253082275390625,0.04687094688415527
1780001820164142600,18.577142578125,-0.038088083267211914,-0.0023736953735351562,0.041069984436035156
1780001820180464600,18.593464599609376,-0.022777318954467773,-0.0026292800903320312,0.0018732547760009766
1780001820196801300,18.60980126953125,-0.01725304126739502,-0.02136993408203125,-0.0657796859741211
1780001820213143300,18.626143310546876,0.0021609067916870117,-0.03574180603027344,-0.10899806022644043
1780001820229469700,18.6424697265625,0.0029706954956054688,-0.04510974884033203,-0.10867786407470703
1780001820245803800,18.6588037109375,-0.005719184875488281,-0.020931243896484375,-0.07474541664123535
1780001820262138000,18.67513818359375,-0.020062804222106934,-0.0022554397583007812,-0.026716232299804688
1780001820278435600,18.691435546875,-0.04794037342071533,0.0025644302368164062,0.011365175247192383
1780001820294801400,18.707801513671875,-0.05724048614501953,0.012213706970214844,0.030414819717407227
1780001820311135700,18.7241357421875,-0.04247748851776123,0.01702117919921875,0.04468870162963867
1780001820327466800,18.740466796875,-0.03809988498687744,0.036110877990722656,0.03032398223876953
1780001820343783000,18.756782958984374,-0.024666786193847656,0.021694183349609375,0.01613140106201172
1780001820360117500,18.773117431640625,-0.020319819450378418,0.0026102066040039062,-0.00722956657409668
1780001820376433200,18.78943310546875,-0.04002952575683594,0.01714801788330078,-0.011260271072387695
1780001820392782300,18.8057822265625,-0.027005910873413086,0.012346267700195312,0.017682552337646484
1780001820409104100,18.822104248046877,0.019201040267944336,-0.01658344268798828,0.027806758880615234
1780001820425447200,18.838447265625,-0.006985306739807129,0.011951446533203125,0.017940044403076172
1780001820441769700,18.854769775390626,-0.03674769401550293,-0.0026397705078125,-0.00608515739440918
1780001820458112300,18.8711123046875,-0.013765573501586914,-0.007653236389160156,-0.015997886657714844
1780001820474446000,18.887446044921877,-0.02410900592803955,-0.0077228546142578125,-0.011132001876831055
1780001820490794200,18.903794189453127,-0.02943253517150879,-0.012454032897949219,-0.0203397274017334
1780001820507122700,18.920122802734376,-0.010715603828430176,0.00679779052734375,-0.005482673645019531
1780001820523455500,18.93645556640625,0.021967411041259766,0.006897926330566406,-0.004498720169067383
1780001820539786800,18.952786865234376,0.04038405418395996,0.0021142959594726562,0.0005640983581542969
1780001820556120600,18.96912060546875,0.00588679313659668,0.026015281677246094,0.02000141143798828
1780001820572451300,18.985451416015625,-0.023516178131103516,0.025963783264160156,0.05360150337219238
1780001820588785200,19.00178515625,-0.028701066970825195,0.03543376922607422,0.0582280158996582
1780001820605101800,19.018101806640626,-0.029356837272644043,0.04001426696777344,0.0626380443572998
1780001820621433900,19.034433837890624,-0.011172175407409668,0.020681381225585938,0.033701181411743164
1780001820637788700,19.05078857421875,-0.02185821533203125,0.02048969268798828,0.009014368057250977
1780001820654119700,19.06711962890625,0.0011572837829589844,0.00592041015625,-0.00025773048400878906
1780001820670445300,19.0834453125,-0.0047457218170166016,-0.013444900512695312,0.0042667388916015625
1780001820686783700,19.09978369140625,-0.015282630920410156,0.0006933212280273438,0.013536453247070312
1780001820703114200,19.1161142578125,-0.010771989822387695,0.010023117065429688,0.01768946647644043
1780001820719445800,19.13244580078125,0.008237719535827637,0.00023365020751953125,0.007506608963012695
1780001820735777500,19.148777587890624,0.04579150676727295,0.014405250549316406,-0.016715288162231445
1780001820752106200,19.165106201171874,0.0637202262878418,0.0046176910400390625,-0.03605151176452637
1780001820768448000,19.181447998046874,0.03910493850708008,0.0043239593505859375,-0.04124760627746582
1780001820784775200,19.197775146484375,0.03780245780944824,-0.005637168884277344,-0.027583599090576172
1780001820801095700,19.214095703125,0.007912158966064453,-0.02039051055908203,-0.018770933151245117
1780001820817432800,19.230432861328126,-0.00704646110534668,-0.0014667510986328125,-0.014420509338378906
1780001820833760800,19.2467607421875,0.02569591999053955,-0.01113128662109375,-0.014642715454101562
1780001820850091300,19.26309130859375,0.04911613464355469,-0.0016021728515625,-0.019366025924682617
1780001820866424600,19.279424560546875,0.04819893836975098,0.0031328201293945312,-0.023961544036865234
1780001820882754600,19.295754638671873,0.010234832763671875,0.007872581481933594,-0.02877521514892578
1780001820899075300,19.312075439453125,-0.008584380149841309,-0.0112762451171875,-0.00499415397644043
1780001820915411700,19.32841162109375,-0.01793372631072998,0.012633323669433594,0.028136253356933594
1780001820931754500,19.34475439453125,-0.017004728317260742,0.01730632781982422,0.05136680603027344
1780001820948086000,19.3610859375,0.017129898071289062,0.007549285888671875,0.05534791946411133
1780001820964419300,19.37741943359375,0.007823824882507324,0.0024862289428710938,0.04004716873168945
1780001820980768300,19.393768310546875,0.013141751289367676,-0.0026111602783203125,0.00539708137512207
1780001820997100800,19.410100830078125,-0.004834175109863281,-0.0030651092529296875,-0.0012140274047851562
1780001821013396200,19.426396240234375,-0.003477931022644043,-0.008378982543945312,-0.003331422805786133
1780001821029764000,19.44276416015625,-0.002682209014892578,0.0005006790161132812,-0.01530146598815918
1780001821046094000,19.459093994140623,0.02656424045562744,0.004372596740722656,-0.041977643966674805
1780001821062428000,19.475427978515626,0.0545116662979126,-0.01576995849609375,-0.06864118576049805
1780001821078755000,19.491755126953127,0.06308126449584961,-0.02624797821044922,-0.12365484237670898
1780001821095097000,19.50809716796875,0.06772124767303467,-0.045520782470703125,-0.1638638973236084
1780001821111424300,19.52442431640625,0.053177475929260254,-0.04593944549560547,-0.1937718391418457
1780001821127758600,19.540758544921875,0.04398083686828613,-0.050853729248046875,-0.1943037509918213
1780001821144087800,19.557087890625,0.030529260635375977,-0.05062389373779297,-0.16044998168945312
1780001821160422400,19.57342236328125,0.03151345252990723,-0.007647514343261719,-0.13536286354064941
1780001821176745700,19.589745849609375,0.051114559173583984,-0.011829376220703125,-0.09565019607543945
1780001821193087700,19.606087646484376,0.052359819412231445,-0.0015344619750976562,-0.055646657943725586
1780001821209418500,19.62241845703125,0.000615239143371582,0.046875,-0.001893758773803711
1780001821225752600,19.638752685546876,-0.003294229507446289,0.023212432861328125,0.05578422546386719
1780001821242067700,19.655067626953127,0.007120728492736816,0.04727745056152344,0.08938360214233398
1780001821258403300,19.6714033203125,-0.03618884086608887,0.042285919189453125,0.10320568084716797
1780001821274716400,19.68771630859375,-0.07010340690612793,0.027523040771484375,0.09674668312072754
1780001821291082200,19.704082275390626,-0.06056082248687744,0.012742996215820312,0.08590841293334961
1780001821307412700,19.720412841796875,-0.045900940895080566,-0.0020961761474609375,0.05584239959716797
1780001821323729400,19.7367294921875,-0.05595529079437256,-0.007367134094238281,0.02584981918334961
1780001821340064800,19.753064697265625,-0.05118262767791748,-0.00777435302734375,0.005480289459228516
1780001821356398000,19.769398193359375,-0.026715517044067383,0.011013031005859375,-0.010157108306884766
1780001821372729000,19.78572900390625,-0.030881404876708984,0.015491485595703125,-0.00653076171875
1780001821389061600,19.8020615234375,-0.025909066200256348,0.0056705474853515625,-0.021710634231567383
1780001821405394000,19.818393798828126,-0.011337637901306152,0.005715370178222656,-0.016273975372314453
1780001821421728300,19.834728271484376,0.0029131174087524414,0.010678291320800781,-0.02048325538635254
1780001821438058800,19.851058837890626,0.035830140113830566,0.00124359130859375,-0.0007069110870361328
1780001821454392000,19.86739208984375,0.02556765079498291,0.006054878234863281,0.02355480194091797
1780001821470737400,19.8837373046875,0.014481902122497559,0.020254135131835938,0.04256582260131836
1780001821487075300,19.900075439453126,-0.0148543119430542,0.04381561279296875,0.056047677993774414
1780001821503382800,19.9163828125,0.0041506290435791016,0.00033092498779296875,0.06442403793334961
1780001821519737600,19.932737548828126,-0.03392326831817627,-0.004703521728515625,0.05342245101928711
1780001821536064800,19.949064697265626,-0.04716777801513672,0.00001811981201171875,0.01953744888305664
