time,seconds_elapsed,z,y,x
1779968335884399400,0.0043994140625,-0.742060661315918,-0.9343602657318115,-1.1999285221099854
1779968335925222400,0.045222412109375,-1.2522330284118652,-1.6192550659179688,-0.7459594011306763
1779968335941555500,0.061555419921875,-3.8392930030822754,-2.601043701171875,0.13567614555358887
1779968335957886700,0.07788671875,-3.2172579765319824,-1.1734013557434082,0.8617539405822754
1779968335974228000,0.09422802734375,1.4357948303222656,1.08817720413208,1.9453016519546509
1779968335990560300,0.110560302734375,0.5845346450805664,0.669776439666748,1.7220001220703125
1779968336006892300,0.126892333984375,-0.3955669403076172,0.2679443359375,1.4255235195159912
1779968336023223800,0.143223876953125,-2.6465072631835938,0.8489294052124023,-0.6001523733139038
1779968336039559400,0.159559326171875,-0.7849993705749512,0.35343122482299805,-0.9907680749893188
1779968336055906600,0.175906494140625,2.6242189407348633,-0.614774227142334,0.2046080231666565
1779968336072219100,0.19221923828125,3.532050132751465,-1.6118874549865723,-0.6432971954345703
1779968336088565800,0.208565673828125,2.310474395751953,0.6150903701782227,-3.3282365798950195
1779968336104874500,0.22487451171875,-0.9401955604553223,2.28497314453125,-3.7129108905792236
1779968336121230800,0.24123095703125,-2.7324061393737793,1.5780551433563232,-1.2788995504379272
1779968336137554000,0.257553955078125,1.2642316818237305,0.08509111404418945,-1.0900835990905762
1779968336153894400,0.273894287109375,1.3852758407592773,-0.07634735107421875,-0.11870026588439941
1779968336170229200,0.290229248046875,0.9616317749023438,0.705336332321167,-0.07269406318664551
1779968336186560300,0.306560302734375,1.1073436737060547,0.5968255996704102,0.0008761882781982422
1779968336202891800,0.322891845703125,1.2261486053466797,-0.04625058174133301,0.6827095746994019
1779968336219220200,0.33922021484375,1.6778583526611328,-0.8122835159301758,1.6820114850997925
1779968336235561200,0.355561279296875,3.3464174270629883,-0.5398201942443848,0.9932774305343628
1779968336251889700,0.3718896484375,0.5598726272583008,-0.09817337989807129,2.2867133617401123
1779968336268226800,0.388226806640625,-0.6057052612304688,0.49712514877319336,1.9328645467758179
1779968336284518400,0.404518310546875,0.6852941513061523,-0.22470617294311523,2.0693256855010986
1779968336300881000,0.420880859375,2.2852649688720703,-0.7537921667098999,2.366790771484375
1779968336317232400,0.437232421875,0.7988958358764648,0.2591700553894043,1.439375400543213
1779968336333550300,0.45355029296875,-0.7221593856811523,-0.7412421107292175,2.5035414695739746
1779968336349863700,0.46986376953125,-2.967254161834717,-1.613845705986023,2.2266130447387695
1779968336366211600,0.486211669921875,-4.5438971519470215,-2.3890538215637207,3.298720359802246
1779968336382534400,0.502534423828125,-4.4824628829956055,-5.89484167098999,2.7881195545196533
1779968336398873000,0.518873046875,1.963613510131836,-5.714756965637207,1.964341402053833
1779968336415203600,0.53520361328125,5.019432067871094,0.08120369911193848,0.3472261428833008
1779968336431527000,0.55152685546875,0.4624910354614258,2.6453139781951904,2.0244381427764893
1779968336447862500,0.567862548828125,-3.9713597297668457,1.5566625595092773,3.6461312770843506
1779968336464193800,0.58419384765625,-11.25529670715332,-0.5715678930282593,4.521361827850342
1779968336480528100,0.600528076171875,-9.013340950012207,-2.8020851612091064,2.5611960887908936
1779968336496858600,0.616858642578125,5.875046730041504,-3.9529409408569336,0.9806942939758301
1779968336513192400,0.6331923828125,7.9363555908203125,-1.2771657705307007,-0.7415981292724609
1779968336529524200,0.649524169921875,3.981182098388672,1.5640170574188232,0.1715536117553711
1779968336545873200,0.665873046875,1.2306432723999023,0.6551111340522766,0.8069419860839844
1779968336562206200,0.682206298828125,-0.3066701889038086,-0.4150789976119995,0.7751865386962891
1779968336578529500,0.698529541015625,-2.4471988677978516,-0.23189234733581543,1.1981666088104248
1779968336594851800,0.714851806640625,-2.5112361907958984,0.42842650413513184,1.5778679847717285
1779968336611189800,0.731189697265625,-1.3247613906860352,0.3902161121368408,2.4783787727355957
1779968336627538400,0.747538330078125,-0.4630775451660156,0.909168004989624,0.7600009441375732
1779968336643860500,0.763860595703125,0.9816923141479492,-1.0294888019561768,-1.051344394683838
1779968336660181500,0.780181396484375,0.1893787384033203,-0.8891434669494629,-1.962282657623291
1779968336676521200,0.796521240234375,-1.15885591506958,-0.9856967926025391,-3.214474678039551
1779968336692855300,0.812855224609375,0.10712957382202148,-1.6113357543945312,-4.249311923980713
1779968336709190100,0.829190185546875,0.009078025817871094,-1.7679142951965332,-4.1128387451171875
1779968336725521400,0.845521484375,-0.9454512596130371,-1.7241454124450684,-3.5472865104675293
1779968336741858800,0.86185888671875,0.3581695556640625,-1.2465367317199707,-3.7309741973876953
1779968336758174700,0.8781748046875,2.058255672454834,-1.073620319366455,-6.3846964836120605
1779968336774519600,0.89451953125,4.151791095733643,-1.665905475616455,-6.883128643035889
1779968336790851300,0.910851318359375,4.780269622802734,-2.0729570388793945,-6.786518096923828
1779968336807184400,0.927184326171875,6.606197834014893,-2.325026512145996,-6.270624160766602
1779968336823518500,0.9435185546875,6.729075908660889,-0.3457813262939453,-5.658543109893799
1779968336839845000,0.95984521484375,5.1988348960876465,-0.618168830871582,-6.030577182769775
1779968336856180500,0.976180419921875,6.401126861572266,-2.338552474975586,-0.43265581130981445
1779968336872518100,0.99251806640625,0.8709590435028076,-0.5734963417053223,-1.562854290008545
1779968336888841000,1.008841064453125,1.674940586090088,-0.7480616569519043,0.427762508392334
1779968336905171000,1.0251708984375,5.628739356994629,1.1086745262145996,-3.4354772567749023
1779968336921491700,1.04149169921875,4.384143829345703,6.890216827392578,6.331876277923584
1779968336937832000,1.05783203125,1.7355130910873413,1.2040987014770508,1.0014872550964355
1779968336954153000,1.074153076171875,2.844691514968872,2.923515796661377,-0.33249664306640625
1779968336970494200,1.090494140625,7.542327404022217,2.2947793006896973,-2.2119226455688477
1779968336986812000,1.10681201171875,0.45516717433929443,1.0145959854125977,2.699521064758301
1779968337003160300,1.123160400390625,-2.518019914627075,2.1956498622894287,2.8916525840759277
1779968337019502800,1.1395029296875,0.24931228160858154,4.80828332901001,4.386625289916992
1779968337035840500,1.155840576171875,2.9939870834350586,5.64804220199585,6.009373664855957
1779968337052167400,1.17216748046875,3.1920247077941895,4.62584924697876,4.603346347808838
1779968337068484000,1.188484130859375,-0.25222301483154297,3.4335954189300537,3.0625085830688477
1779968337084809500,1.2048095703125,-0.7084811925888062,1.685856580734253,0.37491798400878906
1779968337101156900,1.221156982421875,0.7048177719116211,1.8244798183441162,-5.365877151489258
1779968337117497600,1.23749755859375,-1.8669252395629883,0.0445556640625,-0.029275894165039062
1779968337133831000,1.253830810546875,-0.6604998111724854,-2.0888071060180664,0.684443473815918
1779968337150167600,1.27016748046875,0.719961941242218,-1.7399120330810547,-0.6442995071411133
1779968337166492700,1.28649267578125,1.7617497444152832,-2.0212621688842773,0.6212315559387207
1779968337182827500,1.30282763671875,-0.5036703944206238,0.8819146156311035,-0.7745847702026367
1779968337199160000,1.31916015625,2.535655975341797,0.8118805885314941,-1.7046165466308594
1779968337215489500,1.335489501953125,-1.06261146068573,-1.70570707321167,-2.8873391151428223
1779968337231824000,1.351823974609375,-4.595247745513916,-3.163848876953125,-2.827575206756592
1779968337248139800,1.368139892578125,-4.0069684982299805,-1.9873137474060059,-1.3931899070739746
1779968337264490500,1.384490478515625,-1.601600170135498,-0.2174053192138672,1.9436545372009277
1779968337280816400,1.40081640625,-0.3815251290798187,1.3693485260009766,3.708467960357666
1779968337297152500,1.417152587890625,0.5156053900718689,2.3656182289123535,4.65090274810791
1779968337313472000,1.433471923828125,-0.7368406653404236,2.4375720024108887,4.496431350708008
1779968337329814800,1.449814697265625,-3.641570568084717,2.2614784240722656,3.4723446369171143
1779968337346134300,1.46613427734375,-4.429786682128906,0.5974254608154297,2.866753339767456
1779968337362479400,1.482479248046875,-3.2485477924346924,-0.1602163314819336,2.618506669998169
1779968337378809600,1.4988095703125,-3.959705352783203,0.2358851432800293,3.651629686355591
1779968337395153700,1.515153564453125,3.8745017051696777,3.666698455810547,1.7138786315917969
1779968337411447000,1.531447021484375,4.097705841064453,1.3845343589782715,1.706425666809082
1779968337427791400,1.547791259765625,-0.47958070039749146,-2.1504478454589844,2.926748275756836
1779968337444131600,1.564131591796875,0.49164965748786926,-1.1580619812011719,0.7056636810302734
1779968337460460000,1.5804599609375,4.16096830368042,-1.0681076049804688,-1.8290014266967773
1779968337476793900,1.5967939453125,-0.3526036739349365,-1.8876619338989258,-3.2535953521728516
1779968337493126700,1.613126708984375,-2.2669363021850586,0.9091715812683105,-2.5406289100646973
1779968337509463000,1.629463134765625,-2.190828800201416,3.0736680030822754,-0.49956560134887695
1779968337525788000,1.645787841796875,-1.4783321619033813,4.095492839813232,0.9715981483459473
1779968337542140200,1.66214013671875,-1.748231053352356,3.762465000152588,1.6999163627624512
1779968337558465500,1.678465576171875,-1.1286591291427612,3.6479640007019043,1.6129326820373535
1779968337574793200,1.694793212890625,-0.7878035306930542,4.350863933563232,2.163508892059326
1779968337591172600,1.711172607421875,0.30983078479766846,1.001077651977539,4.520224571228027
1779968337607461000,1.727461181640625,0.5698241591453552,-10.712698936462402,-3.212529182434082
1779968337623783000,1.743782958984375,-1.7378026247024536,1.8899893760681152,-0.5036556720733643
1779968337640165600,1.76016552734375,-1.616390585899353,2.083962917327881,-0.9971480369567871
1779968337656431900,1.776431884765625,-0.6721177101135254,0.42482566833496094,-1.2679834365844727
1779968337672793900,1.7927939453125,1.8332244157791138,0.41538524627685547,-1.315291166305542
1779968337689098200,1.80909814453125,3.1392171382904053,0.7542953491210938,-1.140543818473816
1779968337705458400,1.82545849609375,3.618156909942627,1.1166763305664062,-1.4016330242156982
1779968337721775000,1.841775146484375,2.7686944007873535,2.3874759674072266,-0.5292508602142334
1779968337738123300,1.858123291015625,0.035492897033691406,3.0623583793640137,-1.3127034902572632
1779968337754453500,1.87445361328125,-0.5740985870361328,1.6808481216430664,-1.8364973068237305
1779968337770785500,1.89078564453125,1.2086622714996338,-18.090852737426758,-5.629055976867676
1779968337787120000,1.9071201171875,2.8196804523468018,-13.812739372253418,-3.257556438446045
1779968337803449900,1.923449951171875,-0.2710561752319336,-13.760320663452148,-0.43358588218688965
1779968337819782100,1.9397822265625,-3.5415632724761963,-7.910094261169434,2.5405941009521484
1779968337836116200,1.9561162109375,-4.117291450500488,-1.494776725769043,3.253203868865967
1779968337852448800,1.97244873046875,-1.1998863220214844,-1.2821102142333984,2.971691608428955
1779968337868775700,1.988775634765625,2.3055648803710938,0.9753875732421875,0.36467069387435913
1779968337885108200,2.005108154296875,6.024466037750244,0.6706809997558594,-0.19135701656341553
1779968337901433900,2.021433837890625,5.114614486694336,-0.11911487579345703,1.269547700881958
1779968337917760800,2.0377607421875,3.5265235900878906,-0.16136741638183594,1.4276094436645508
1779968337934096400,2.054096435546875,2.7616918087005615,-1.1514549255371094,1.6865277290344238
1779968337950424800,2.0704248046875,2.47316312789917,-2.231779098510742,2.191981792449951
1779968337966763500,2.086763427734375,1.0989997386932373,-2.5620031356811523,2.7549591064453125
1779968337983092000,2.103092041015625,-1.649004578590393,-3.086883544921875,2.677797794342041
1779968337999411700,2.11941162109375,-11.58909797668457,-3.1700286865234375,2.279205799102783
1779968338015757300,2.13575732421875,-10.407317161560059,-0.07711029052734375,1.5347002744674683
1779968338032091000,2.1520908203125,-2.5939831733703613,0.9268350601196289,0.5136735439300537
1779968338048433700,2.16843359375,4.293111324310303,-0.3542642593383789,-1.4681264162063599
1779968338064741000,2.1847412109375,3.6591341495513916,-0.9620532989501953,-2.9017648696899414
1779968338081100000,2.20110009765625,0.5156714916229248,-1.3586788177490234,-2.63466215133667
1779968338097429800,2.2174296875,-1.354537010192871,-1.0754194259643555,-2.2987210750579834
1779968338113767700,2.233767578125,-2.249105453491211,1.21820068359375,-1.2049095630645752
1779968338130121200,2.250121337890625,-3.227691650390625,2.521517276763916,-0.24995572865009308
1779968338146412000,2.266412109375,-3.448197841644287,3.5138635635375977,0.45935434103012085
1779968338162757400,2.28275732421875,-2.878478527069092,3.9894843101501465,1.3988865613937378
1779968338179096300,2.299096435546875,-2.3763840198516846,4.449676513671875,2.245392084121704
1779968338195420000,2.315419921875,-0.540496826171875,4.880783557891846,2.2474567890167236
1779968338211745000,2.3317451171875,0.19725322723388672,4.902575492858887,2.177609920501709
1779968338228090000,2.348090087890625,-0.15769147872924805,4.169473171234131,1.9232003688812256
1779968338244405800,2.36440576171875,-0.4239315986633301,3.281825065612793,0.9475734829902649
1779968338260748500,2.38074853515625,-0.3465266227722168,2.4095330238342285,-0.07182568311691284
1779968338277073200,2.3970732421875,0.03756427764892578,1.5679917335510254,-0.558076024055481
1779968338293419300,2.413419189453125,0.6629400253295898,1.0612893104553223,-1.044813632965088
1779968338309748700,2.429748779296875,1.2140116691589355,1.144845962524414,-1.4953274726867676
1779968338326080800,2.446080810546875,2.0106358528137207,1.597447395324707,-1.8110411167144775
1779968338342414300,2.462414306640625,1.9061474800109863,1.8747382164001465,-1.6094367504119873
1779968338358731300,2.478731201171875,2.4038209915161133,1.7067813873291016,-1.483443021774292
1779968338375077600,2.49507763671875,2.884218692779541,1.3342161178588867,-1.0273486375808716
1779968338391394800,2.511394775390625,2.8688478469848633,0.9311814308166504,-0.6019903421401978
1779968338407730400,2.52773046875,3.4864001274108887,1.1517724990844727,0.12695026397705078
1779968338424062700,2.544062744140625,2.9987826347351074,1.5120186805725098,0.7256162166595459
1779968338440394000,2.56039404296875,1.7542834281921387,1.5882911682128906,0.9312034845352173
1779968338456727000,2.57672705078125,0.9493532180786133,2.254960536956787,0.9677966833114624
1779968338473059600,2.5930595703125,-0.4622325897216797,3.139549732208252,1.0419803857803345
1779968338489391000,2.60939111328125,2.449953079223633,0.003597259521484375,2.3816604614257812
1779968338505720000,2.625719970703125,7.029070854187012,-6.2474565505981445,3.603588819503784
1779968338522074000,2.64207421875,9.005117416381836,-10.243715286254883,6.677714824676514
1779968338538392600,2.658392578125,-3.513554096221924,-4.121273994445801,9.23520565032959
1779968338554724900,2.674724853515625,-4.0112714767456055,7.1400532722473145,4.508414268493652
1779968338571062500,2.6910625,-4.682679176330566,9.048676490783691,5.690869331359863
1779968338587385900,2.7073857421875,-0.7039761543273926,7.939912796020508,8.60842227935791
1779968338603730400,2.72373046875,0.9495420455932617,1.7678265571594238,0.1688748002052307
1779968338620063200,2.740063232421875,-1.8630237579345703,2.135303020477295,-2.034330368041992
1779968338636389600,2.7563896484375,-4.047922611236572,2.632114887237549,1.0926029682159424
1779968338652722200,2.77272216796875,-4.524689674377441,-2.4082727432250977,2.08634090423584
1779968338669054000,2.789053955078125,-2.314955949783325,-5.66203498840332,-0.5986362099647522
1779968338685390800,2.805390869140625,-1.898306965827942,-2.3152389526367188,-1.1395617723464966
1779968338701722600,2.82172265625,-1.1640636920928955,1.1328353881835938,-0.9117217063903809
1779968338718057000,2.838056884765625,0.7985272407531738,2.5777578353881836,-0.3829297423362732
1779968338734389000,2.854388916015625,-1.0788557529449463,1.3616199493408203,-1.236760139465332
1779968338750721000,2.870720947265625,-3.7898285388946533,-2.2981624603271484,-2.63767671585083
1779968338767051000,2.887051025390625,-12.623760223388672,-21.11246109008789,-3.7519030570983887
1779968338783385900,2.9033857421875,-2.4157001972198486,-25.119035720825195,-9.01768684387207
1779968338799741400,2.919741455078125,11.94807243347168,-12.69397258758545,-9.280027389526367
1779968338816044500,2.93604443359375,8.29985523223877,-5.415787696838379,-7.763236045837402
1779968338832383200,2.95238330078125,6.212261199951172,-3.7224225997924805,-4.87327766418457
1779968338848711400,2.96871142578125,5.774847030639648,-1.8716440200805664,4.088902950286865
1779968338865034000,2.985033935546875,16.297727584838867,1.5435905456542969,6.986468315124512
1779968338881358300,3.0013583984375,22.858211517333984,3.3472561836242676,4.018858909606934
1779968338897700600,3.01770068359375,7.980119705200195,4.562325477600098,0.17175903916358948
1779968338914029600,3.034029541015625,4.130315780639648,5.8871989250183105,-1.3854694366455078
1779968338930361900,3.05036181640625,3.254297971725464,5.930499076843262,-3.681300163269043
1779968338946693400,3.066693359375,0.890862226486206,5.619818687438965,-5.100613594055176
1779968338963029000,3.083029052734375,0.649672269821167,7.093310832977295,-4.597978591918945
1779968338979357400,3.099357421875,2.9558560848236084,9.764491081237793,-3.7173752784729004
1779968338995690800,3.115690673828125,5.344900131225586,10.25508975982666,-4.0777997970581055
1779968339012024600,3.132024658203125,0.2823101282119751,8.7017822265625,-3.4033806324005127
1779968339028366300,3.148366455078125,-3.3683037757873535,5.380325794219971,-2.3360395431518555
1779968339044702000,3.164701904296875,-3.2838902473449707,-1.4126720428466797,-0.8002475500106812
1779968339061035500,3.181035400390625,-5.018377780914307,-9.961103439331055,-1.3139691352844238
1779968339077362200,3.197362060546875,-3.640012264251709,-17.32705307006836,1.6534159183502197
1779968339093695500,3.213695556640625,-0.3926693797111511,-22.393550872802734,5.553250312805176
1779968339110029300,3.230029296875,5.136456489562988,-18.946075439453125,5.332457542419434
1779968339126341400,3.24634130859375,5.561558246612549,-14.705801963806152,4.656330108642578
1779968339142675200,3.26267529296875,-0.22802042961120605,-20.220245361328125,6.131232738494873
1779968339159014700,3.2790146484375,-2.2348594665527344,-15.458138465881348,3.412148952484131
1779968339175343400,3.29534326171875,0.4943704605102539,-7.049314498901367,-2.3499488830566406
1779968339191678700,3.3116787109375,-2.8296916484832764,-3.1306467056274414,-5.528449058532715
1779968339208023600,3.3280234375,-2.953256130218506,3.4499621391296387,-2.822136878967285
1779968339224355800,3.34435595703125,-3.997025489807129,7.183828353881836,2.4169068336486816
1779968339240679000,3.360678955078125,-6.229424476623535,11.798243522644043,2.403024673461914
1779968339257024500,3.3770244140625,-6.023421287536621,16.216922760009766,2.853419780731201
1779968339273353000,3.39335302734375,-6.5709686279296875,16.543785095214844,3.4172286987304688
1779968339289683200,3.40968310546875,-7.292298316955566,16.598045349121094,2.433485507965088
1779968339306018000,3.42601806640625,-8.804778099060059,16.70881462097168,1.330462098121643
1779968339322331400,3.442331298828125,-6.747807502746582,15.671937942504883,-0.0769190788269043
1779968339338681300,3.458681396484375,-5.646625518798828,11.38270378112793,-1.639978051185608
1779968339355012400,3.475012451171875,-0.5903117656707764,10.042415618896484,-0.9439911842346191
1779968339371315500,3.4913154296875,8.433225631713867,6.970856666564941,-1.045128583908081
1779968339387664400,3.507664306640625,18.713592529296875,-13.248737335205078,-3.532247543334961
1779968339403994600,3.52399462890625,14.254014015197754,-18.680255889892578,-0.17896057665348053
1779968339420328200,3.540328125,-24.407886505126953,-12.92251968383789,2.0215001106262207
1779968339436660700,3.55666064453125,-17.661746978759766,-5.2644500732421875,5.218583583831787
1779968339452993000,3.572992919921875,-7.949533939361572,-1.8366279602050781,9.671916007995605
1779968339469323300,3.5893232421875,0.8278875350952148,4.7462239265441895,10.049901962280273
1779968339485657600,3.60565771484375,-5.565103530883789,7.263733863830566,4.551900863647461
1779968339501989600,3.62198974609375,-8.21518325805664,4.7211833000183105,2.278503179550171
1779968339518326300,3.638326171875,-11.259157180786133,-2.891629219055176,2.621797800064087
1779968339534670000,3.654670166015625,-15.098877906799316,-22.840335845947266,1.6598073244094849
1779968339550991600,3.67099169921875,16.460107803344727,-34.17207336425781,-8.920387268066406
1779968339567339300,3.68733935546875,15.049895286560059,-18.3803653717041,-13.348876953125
1779968339583662300,3.703662353515625,5.639340400695801,-5.292072296142578,-12.504438400268555
1779968339599979500,3.7199794921875,7.050893783569336,-1.5523500442504883,-8.62386417388916
1779968339616315000,3.73631494140625,8.527201652526855,-1.0596742630004883,0.04889512062072754
1779968339632658000,3.752657958984375,7.802240371704102,1.1454734802246094,5.036890506744385
1779968339648998700,3.76899853515625,6.072229385375977,6.309754371643066,4.726675987243652
1779968339665329000,3.785328857421875,9.404278755187988,4.94757080078125,2.4541819095611572
1779968339681658000,3.801658203125,9.363716125488281,5.609248161315918,1.2067646980285645
1779968339697963000,3.817962890625,10.548025131225586,6.182411193847656,-3.7575931549072266
1779968339714322400,3.834322509765625,3.5213067531585693,4.444935321807861,-7.402879238128662
1779968339730655500,3.850655517578125,-0.650191068649292,4.44539213180542,-7.019388675689697
1779968339746985200,3.866985107421875,1.6981713771820068,7.803218841552734,-5.037825584411621
1779968339763318300,3.883318359375,6.257122993469238,10.536998748779297,-3.8275060653686523
1779968339779652600,3.899652587890625,-0.2158653736114502,10.769022941589355,-2.7202279567718506
1779968339795963100,3.915963134765625,-5.178302764892578,9.28032112121582,-2.4496397972106934
1779968339812319000,3.932319091796875,-5.338683128356934,4.037169933319092,-4.042771339416504
1779968339828643600,3.9486435546875,-1.466552734375,-5.943534851074219,-2.6260616779327393
1779968339844970200,3.96497021484375,3.2223715782165527,-20.17667007446289,-0.1595451831817627
1779968339861302800,3.981302734375,5.745218276977539,-34.91325759887695,2.2875559329986572
1779968339877621200,3.997621337890625,2.9621732234954834,-31.788963317871094,4.148698329925537
1779968339893963300,4.01396337890625,-1.1713926792144775,-16.87458610534668,6.567199230194092
1779968339910291700,4.030291748046875,-2.0638720989227295,-11.629470825195312,5.390222549438477
1779968339926628600,4.046628662109375,-0.7030200958251953,-12.273130416870117,1.3090007305145264
1779968339942960000,4.062960205078125,-4.370052337646484,-7.630810737609863,-3.0075759887695312
1779968339959293000,4.07929296875,-2.0255849361419678,-3.852771759033203,-6.048092842102051
1779968339975622700,4.09562255859375,-5.287365436553955,2.61307430267334,-2.854196786880493
1779968339991957800,4.111957763671875,-11.926085472106934,4.848219394683838,1.1308296918869019
1779968340008306200,4.12830615234375,-11.699169158935547,14.185962677001953,2.131166696548462
1779968340024618200,4.1446181640625,-8.725889205932617,20.856367111206055,5.378988742828369
1779968340040962800,4.160962890625,-10.434867858886719,22.994020462036133,6.101260185241699
1779968340057304000,4.177303955078125,-9.510003089904785,22.0643367767334,5.266683101654053
1779968340073625000,4.193625,-4.615550994873047,20.00428581237793,2.819265842437744
1779968340089969200,4.20996923828125,-2.421586036682129,15.15041446685791,3.1955366134643555
1779968340106293500,4.22629345703125,3.615450143814087,11.034599304199219,0.6360121965408325
1779968340122630400,4.24263037109375,10.77761459350586,-5.879891395568848,0.6331139206886292
1779968340138959400,4.25895947265625,21.722232818603516,-15.548287391662598,-0.871001124382019
1779968340155302400,4.275302490234375,5.083738327026367,-14.572905540466309,-0.5693938732147217
1779968340171624700,4.291624755859375,-30.62470054626465,-11.739312171936035,-0.023028671741485596
1779968340187941400,4.30794140625,-16.223146438598633,-13.198594093322754,5.279936790466309
1779968340204297200,4.324297119140625,-1.6138418912887573,-6.5567731857299805,11.441560745239258
1779968340220621300,4.340621337890625,-3.433877944946289,9.22494888305664,5.433243751525879
1779968340236965600,4.356965576171875,-6.488285064697266,8.628859519958496,3.53372859954834
1779968340253305000,4.37330517578125,-5.4743733406066895,5.446200847625732,2.998985767364502
1779968340269619000,4.389618896484375,-7.648115634918213,-0.42284584045410156,4.590694427490234
1779968340285950000,4.405949951171875,-20.792774200439453,-25.667390823364258,5.482715129852295
1779968340302280400,4.422280517578125,-1.85212242603302,-36.5900764465332,-5.316783428192139
1779968340318615300,4.438615234375,19.050966262817383,-25.558170318603516,-12.609902381896973
1779968340334946800,4.45494677734375,20.4068546295166,-7.723073959350586,-10.498311042785645
1779968340351264800,4.4712646484375,11.577905654907227,-1.220200538635254,-4.973419189453125
1779968340367596800,4.4875966796875,9.96196174621582,3.0691938400268555,2.807563304901123
1779968340383930400,4.503930419921875,2.0268642902374268,5.555412292480469,8.222698211669922
1779968340400262700,4.5202626953125,7.351495742797852,10.202932357788086,7.506081581115723
1779968340416593200,4.53659326171875,13.063776016235352,8.031525611877441,0.503487229347229
1779968340432925000,4.552925048828125,9.825095176696777,5.321050643920898,-4.712366104125977
1779968340449241900,4.569241943359375,3.1175105571746826,3.7245850563049316,-7.029980659484863
1779968340465596400,4.585596435546875,-2.2612881660461426,5.098199844360352,-6.714321136474609
1779968340481924000,4.601924072265625,-1.0266234874725342,8.487866401672363,-5.410242557525635
1779968340498258700,4.6182587890625,4.507360935211182,10.803434371948242,-4.009267330169678
1779968340514585900,4.6345859375,4.345333099365234,10.072748184204102,-3.656825065612793
1779968340530942200,4.650942138671875,1.3099347352981567,9.494194030761719,-3.5299577713012695
1779968340547269000,4.66726904296875,-4.177045822143555,9.355376243591309,-2.7562544345855713
1779968340563594200,4.68359423828125,-3.219141721725464,4.390854358673096,-3.763335704803467
1779968340579928800,4.6999287109375,-0.5972483158111572,-7.037781715393066,-4.09848690032959
1779968340596259800,4.716259765625,3.1717543601989746,-17.505046844482422,-3.2976770401000977
1779968340612570400,4.7325703125,2.707653045654297,-33.63023376464844,-0.43890953063964844
1779968340628925400,4.748925537109375,1.080573320388794,-34.67410659790039,1.8457871675491333
1779968340645260500,4.765260498046875,1.0356957912445068,-19.279850006103516,3.683093547821045
1779968340661576200,4.781576171875,2.825740098953247,-14.531990051269531,2.9125378131866455
1779968340677923800,4.797923828125,-4.377115726470947,-12.867176055908203,4.226827621459961
1779968340694254000,4.814254150390625,-5.908529281616211,-5.619250297546387,2.516472578048706
1779968340710593800,4.83059375,-4.03928279876709,-2.098560333251953,-4.300222396850586
1779968340726921700,4.846921630859375,0.2642354965209961,4.462314605712891,-4.2399210929870605
1779968340743254000,4.86325390625,-4.203894138336182,11.210822105407715,0.5656683444976807
1779968340759583500,4.87958349609375,-9.562663078308105,13.859615325927734,4.403153896331787
1779968340775916800,4.895916748046875,-10.913152694702148,16.556461334228516,4.558856010437012
1779968340792236800,4.91223681640625,-14.26459789276123,17.33037567138672,5.80933952331543
1779968340808589000,4.928589111328125,-10.173299789428711,17.770584106445312,6.411182403564453
1779968340824894500,4.94489453125,-6.738692283630371,16.217666625976562,3.3940958976745605
1779968340841224400,4.961224365234375,-2.418269157409668,12.43806266784668,2.582503318786621
1779968340857563600,4.977563720703125,3.2549803256988525,10.555851936340332,0.5119384527206421
1779968340873897200,4.993897216796875,8.993104934692383,1.8825173377990723,2.0947840213775635
1779968340890229200,5.010229248046875,13.91135311126709,-11.563492774963379,-1.0521838665008545
1779968340906561500,5.0265615234375,7.969142436981201,-4.797947883605957,-2.879150390625
1779968340922894000,5.04289404296875,-15.53770637512207,2.938389778137207,-1.3505103588104248
1779968340939228700,5.059228759765625,-22.09406280517578,-4.134608268737793,1.410054087638855
1779968340955558100,5.07555810546875,-18.42407989501953,-10.607325553894043,5.368751049041748
1779968340971890000,5.091889892578125,-6.411231994628906,-7.564394950866699,10.276447296142578
1779968340988220400,5.108220458984375,6.148122310638428,-4.203702926635742,8.579643249511719
1779968341004587800,5.124587890625,-10.005145072937012,0.4926748275756836,5.011205196380615
1779968341020895700,5.140895751953125,-9.897283554077148,-1.2313919067382812,1.7536956071853638
1779968341037241000,5.157240966796875,-10.504002571105957,-14.50068187713623,0.9837772846221924
1779968341053538800,5.173538818359375,4.069952487945557,-34.09251022338867,-5.798999309539795
1779968341069897700,5.189897705078125,13.297913551330566,-24.781044006347656,-11.736905097961426
1779968341086226700,5.206226806640625,15.844624519348145,-7.646254539489746,-12.777864456176758
1779968341102559000,5.22255908203125,8.563370704650879,-3.6418380737304688,-7.967311859130859
1779968341118898700,5.238898681640625,7.5383453369140625,-0.026520729064941406,1.3003038167953491
1779968341135225300,5.255225341796875,6.494129180908203,1.5511188507080078,4.881476402282715
1779968341151557600,5.2715576171875,4.510396480560303,8.165501594543457,5.003516674041748
1779968341167875000,5.287875,9.743119239807129,10.145905494689941,1.4627525806427002
1779968341184222500,5.304222412109375,7.8220720291137695,8.15870189666748,-2.868072986602783
1779968341200551700,5.3205517578125,4.918614387512207,7.085440158843994,-6.821891784667969
1779968341216890400,5.336890380859375,1.3851020336151123,8.38250732421875,-6.823941707611084
1779968341233218600,5.353218505859375,3.0253567695617676,8.611162185668945,-5.347301006317139
1779968341249550300,5.36955029296875,3.7029190063476562,8.887112617492676,-4.497042179107666
1779968341265883400,5.38588330078125,3.2334177494049072,9.27486801147461,-2.5668163299560547
1779968341282215400,5.40221533203125,1.0219742059707642,8.45467472076416,-3.3180007934570312
1779968341298544000,5.418544189453125,-2.732302665710449,4.862593173980713,-3.3713669776916504
1779968341314884400,5.43488427734375,1.196303367614746,-0.019845008850097656,-4.217612266540527
1779968341331198000,5.451197998046875,-1.3779010772705078,-5.016730308532715,-3.766995906829834
1779968341347532300,5.4675322265625,3.7478387355804443,-18.96103858947754,-1.2097619771957397
1779968341363864000,5.483864013671875,4.915238380432129,-32.560447692871094,0.18808841705322266
1779968341380198100,5.5001982421875,1.7577428817749023,-30.884321212768555,2.230133533477783
1779968341396527000,5.516527099609375,-3.412889003753662,-15.060096740722656,4.334246635437012
1779968341412860400,5.5328603515625,-3.9396562576293945,-10.893198013305664,3.8193702697753906
1779968341429194200,5.5491943359375,-0.16948986053466797,-9.826788902282715,3.034512996673584
1779968341445525000,5.56552490234375,-6.6328253746032715,-8.74643325805664,-1.5653501749038696
1779968341461856300,5.581856201171875,2.159099578857422,-3.867926597595215,-3.709094285964966
1779968341478178600,5.598178466796875,-3.4405510425567627,3.8031091690063477,-1.5085728168487549
1779968341494538800,5.614538818359375,-15.729839324951172,9.872015953063965,2.1993918418884277
1779968341510861300,5.630861328125,-13.746417045593262,16.96371078491211,4.694565296173096
1779968341527203000,5.647203125,-12.069534301757812,20.64506721496582,5.438969135284424
1779968341543523800,5.66352392578125,-9.865259170532227,19.496074676513672,7.435171127319336
1779968341559866600,5.67986669921875,-4.320924758911133,20.570640563964844,5.952692985534668
1779968341576179500,5.696179443359375,-2.894043445587158,15.769222259521484,7.152539253234863
1779968341592512500,5.712512451171875,0.38022518157958984,12.57279109954834,6.623586654663086
1779968341608854000,5.72885400390625,0.347179651260376,5.169581890106201,5.711857318878174
1779968341625201000,5.745200927734375,21.563873291015625,-17.339111328125,1.014286756515503
1779968341641508000,5.761508056640625,26.825756072998047,-27.184722900390625,0.039890408515930176
1779968341657851100,5.77785107421875,-39.85328674316406,-12.519111633300781,-6.202662467956543
1779968341674164200,5.794164306640625,-16.844268798828125,-6.730618476867676,-1.8255839347839355
1779968341690502100,5.810502197265625,-2.18564510345459,1.1488738059997559,6.952776908874512
1779968341706855000,5.82685498046875,-4.125543594360352,10.08077621459961,5.772870063781738
1779968341723192000,5.843192138671875,-10.336136817932129,7.984886646270752,5.6882123947143555
1779968341739484000,5.85948388671875,-8.616218566894531,4.943241596221924,2.5431134700775146
1779968341755851500,5.8758515625,-11.374767303466797,-7.119927406311035,4.050994396209717
1779968341772174300,5.89217431640625,-21.32405662536621,-36.06928634643555,1.8912100791931152
1779968341788522500,5.9085224609375,16.899394989013672,-34.76725769042969,-9.663734436035156
1779968341804823300,5.9248232421875,17.66836929321289,-16.457530975341797,-10.911998748779297
1779968341821162000,5.941161865234375,19.990581512451172,-1.5293684005737305,-4.192775249481201
1779968341837498600,5.95749853515625,7.978177547454834,-3.9607200622558594,1.1982784271240234
1779968341853831200,5.9738310546875,3.547696590423584,0.4895915985107422,4.094100475311279
1779968341870162000,5.990161865234375,5.004029750823975,10.129396438598633,7.542356967926025
1779968341886495500,6.00649560546875,9.369215965270996,7.083488464355469,-1.8409380912780762
1779968341902825700,6.02282568359375,10.5698881149292,8.43729019165039,-6.904590606689453
1779968341919156000,6.039156005859375,4.9900007247924805,6.375160217285156,-8.20470142364502
1779968341935495200,6.0554951171875,0.5238403081893921,6.388767242431641,-6.640927791595459
1779968341951824100,6.07182421875,2.8161983489990234,8.692760467529297,-3.742234230041504
1779968341968155100,6.088155029296875,3.00595760345459,9.348946571350098,-0.9443584084510803
1779968341984505000,6.104505126953125,2.119828224182129,8.798726081848145,0.9604449272155762
1779968342002852400,6.122852294921875,1.3254674673080444,9.63173770904541,1.8170700073242188
1779968342019183900,6.139183837890625,-1.8876702785491943,9.125746726989746,0.48688817024230957
1779968342035531000,6.155531005859375,-3.6939940452575684,1.763197898864746,0.07422006130218506
1779968342051861500,6.171861572265625,-0.608757734298706,-9.216595649719238,-1.2558194398880005
1779968342068192000,6.18819189453125,5.313342571258545,-24.603273391723633,-0.7818548679351807
1779968342084525800,6.20452587890625,4.7443037033081055,-36.93057632446289,2.739811420440674
1779968342100857900,6.22085791015625,0.684351921081543,-29.68643569946289,1.4943351745605469
1779968342117204500,6.23720458984375,-2.6103451251983643,-17.018802642822266,3.548412799835205
1779968342133534700,6.25353466796875,1.2828645706176758,-9.7406005859375,3.2374887466430664
1779968342149856500,6.2698564453125,-7.036760330200195,-6.400800704956055,3.8837976455688477
1779968342166192400,6.2861923828125,-4.219759941101074,-0.786107063293457,-0.8218768835067749
1779968342182506200,6.30250634765625,1.7842535972595215,2.988677501678467,-6.360732078552246
1779968342198851000,6.31885107421875,-3.9687466621398926,7.640424728393555,-1.9943653345108032
1779968342215184000,6.335183837890625,-10.976066589355469,9.18439769744873,1.8741605281829834
1779968342231511000,6.351510986328125,-11.676115989685059,14.397419929504395,3.5995845794677734
1779968342247860000,6.36785986328125,-11.46762466430664,17.555644989013672,5.203272342681885
1779968342264193000,6.384193115234375,-10.755940437316895,17.05807876586914,5.721424579620361
1779968342280524000,6.40052392578125,-6.4391093254089355,17.712684631347656,3.24749493598938
1779968342296856600,6.416856689453125,-4.15785551071167,15.258358001708984,2.1035144329071045
1779968342313182200,6.43318212890625,0.4008140563964844,12.201255798339844,2.730539560317993
1779968342329509600,6.449509521484375,7.4821577072143555,5.985651969909668,2.127779483795166
1779968342345841700,6.465841552734375,16.491392135620117,-14.753412246704102,-0.6395442485809326
1779968342362174500,6.482174560546875,25.22055435180664,-13.316455841064453,-3.378032684326172
1779968342378506200,6.49850634765625,-21.645721435546875,-9.439225196838379,-4.912962436676025
1779968342394838000,6.514838134765625,-29.91813850402832,-4.254447937011719,-2.4950852394104004
1779968342411168800,6.531168701171875,-7.238800048828125,-5.733675003051758,5.976955413818359
1779968342427502300,6.54750244140625,-2.207003355026245,1.570478916168213,12.911515235900879
1779968342443835100,6.563835205078125,-13.362640380859375,5.423625946044922,7.750287055969238
1779968342460165600,6.58016552734375,-14.441251754760742,4.302028656005859,3.96390962600708
1779968342476499200,6.596499267578125,-6.275922775268555,3.462982177734375,3.1346280574798584
1779968342492831500,6.61283154296875,-7.7143144607543945,-3.4740524291992188,4.8204874992370605
1779968342509156400,6.62915625,-22.746110916137695,-37.47142028808594,4.771615505218506
1779968342525496300,6.645496337890625,7.9094953536987305,-38.169097900390625,-7.237133502960205
1779968342541827000,6.6618271484375,21.10270118713379,-18.062856674194336,-12.070226669311523
1779968342558162200,6.678162109375,8.406198501586914,-7.644330024719238,-10.190790176391602
1779968342574492700,6.69449267578125,7.430054187774658,-5.945024490356445,-5.153233051300049
1779968342590823200,6.7108232421875,11.137547492980957,0.5452795028686523,1.0958675146102905
1779968342607155000,6.727155029296875,3.6939661502838135,6.517827987670898,7.742812633514404
1779968342623487700,6.74348779296875,8.472373962402344,7.2386369705200195,6.077030181884766
1779968342639833000,6.7598330078125,11.421945571899414,6.30336332321167,-0.6903778910636902
1779968342656154000,6.776154052734375,12.217878341674805,5.303786754608154,-5.917497158050537
1779968342672492300,6.7924921875,4.693713188171387,4.4278340339660645,-7.379401206970215
1779968342688818400,6.808818359375,-0.6657564640045166,7.058415412902832,-6.222863674163818
1779968342705149700,6.825149658203125,0.5662968158721924,10.115934371948242,-4.6344404220581055
1779968342721484300,6.841484375,6.75605583190918,11.46048641204834,-3.4686577320098877
1779968342737815000,6.85781494140625,4.167344570159912,9.85898208618164,-3.9150192737579346
1779968342754136600,6.874136474609375,-0.9792863130569458,9.502145767211914,-2.8410487174987793
1779968342770494000,6.890493896484375,-4.730279445648193,6.32932186126709,-1.9304766654968262
1779968342786808800,6.906808837890625,-2.29599928855896,-3.873838424682617,-1.059715986251831
1779968342803154700,6.92315478515625,-2.631148338317871,-12.052451133728027,0.1327979564666748
1779968342819477000,6.93947705078125,-0.9523297548294067,-25.91973876953125,3.450256824493408
1779968342835808800,6.955808837890625,5.983738899230957,-31.01974105834961,5.550174236297607
1779968342852142800,6.972142822265625,3.7813756465911865,-20.954103469848633,6.32749605178833
1779968342868466000,6.9884658203125,1.5572805404663086,-12.046431541442871,6.585778713226318
1779968342884805400,7.004805419921875,2.9328885078430176,-7.973621368408203,5.887535572052002
1779968342901136400,7.021136474609375,-7.228030204772949,-6.321471214294434,4.0664591789245605
1779968342917472300,7.03747216796875,-6.837920665740967,-7.911280632019043,-3.235311985015869
1779968342933800700,7.05380078125,1.1585135459899902,-3.955514907836914,-8.132372856140137
1779968342950135000,7.070135009765625,-5.390357494354248,5.401609420776367,-5.271045684814453
1779968342966466300,7.08646630859375,-13.99797248840332,7.5381975173950195,-0.37291431427001953
1779968342982785500,7.10278564453125,-13.52202033996582,14.100042343139648,0.2743358016014099
1779968342999130600,7.119130615234375,-11.350129127502441,19.540040969848633,2.3496944904327393
1779968343015448600,7.135448486328125,-9.484899520874023,20.086162567138672,3.0369250774383545
1779968343031797000,7.151796875,-3.890326499938965,20.035829544067383,2.4851741790771484
1779968343048126000,7.1681259765625,-1.7173376083374023,16.930946350097656,2.1437129974365234
1779968343064451600,7.18445166015625,4.965180397033691,15.40965461730957,2.888857841491699
1779968343080795000,7.200794921875,11.598584175109863,-0.022441864013671875,2.5121352672576904
1779968343097123600,7.21712353515625,20.11153793334961,-16.306034088134766,-1.8494958877563477
1779968343113456600,7.23345654296875,18.70793342590332,-13.862385749816895,-2.278782844543457
1779968343129805000,7.24980517578125,-23.773334503173828,-4.180326461791992,1.0066635608673096
1779968343146133200,7.26613330078125,-22.231985092163086,-3.86502742767334,4.175542831420898
1779968343162452000,7.282451904296875,-1.6462836265563965,-6.510641098022461,12.196600914001465
1779968343178784300,7.2987841796875,-1.1448118686676025,5.010935306549072,9.69349193572998
1779968343195118000,7.3151181640625,-14.330937385559082,5.399022102355957,4.011292934417725
1779968343211450000,7.3314501953125,-13.686309814453125,4.429543495178223,2.0338337421417236
1779968343227781400,7.347781494140625,-7.507729530334473,0.8290557861328125,2.5997402667999268
1779968343244113200,7.364113037109375,-21.64556312561035,-25.595409393310547,4.598948001861572
1779968343260449000,7.380448974609375,8.342107772827148,-43.48411560058594,-7.069726943969727
1779968343276790500,7.39679052734375,9.992609024047852,-27.15477752685547,-10.586686134338379
1779968343293127700,7.413127685546875,23.799400329589844,-3.193532943725586,-10.138808250427246
1779968343309453600,7.42945361328125,9.705352783203125,-3.6527280807495117,-2.979713201522827
1779968343325777700,7.445777587890625,7.976256370544434,-1.6406335830688477,3.354646682739258
1779968343342095000,7.46209521484375,2.551668643951416,4.313817977905273,7.190535068511963
1779968343358438400,7.4784384765625,3.981128215789795,9.800495147705078,7.46938943862915
1779968343374773000,7.49477294921875,10.076505661010742,7.643153190612793,-0.13900327682495117
1779968343391106600,7.5111064453125,12.23550033569336,6.374344825744629,-5.172557830810547
1779968343407467000,7.527467041015625,6.111911296844482,4.460399627685547,-6.611886978149414
1779968343423769300,7.543769287109375,0.8837621212005615,6.697268009185791,-5.8518853187561035
1779968343440088300,7.56008837890625,-0.04909217357635498,9.410638809204102,-4.602935791015625
1779968343456432400,7.576432373046875,3.1161391735076904,10.612642288208008,-2.703066349029541
1779968343472779300,7.592779296875,2.8930768966674805,11.106470108032227,-2.7761988639831543
1779968343489118500,7.609118408203125,-1.1213847398757935,10.640440940856934,-3.170187473297119
1779968343505418800,7.625418701171875,-6.3500847816467285,7.747743129730225,-3.240410089492798
1779968343544223000,7.664222900390625,2.033878803253174,-10.651257514953613,-4.628576755523682
1779968343560564200,7.680564208984375,-0.26594114303588867,-23.119606018066406,-4.70166015625
1779968343576882400,7.69688232421875,3.816338539123535,-28.509521484375,2.97585391998291
1779968343593214700,7.713214599609375,-0.8973791599273682,-24.767671585083008,4.560049057006836
1779968343609562600,7.729562744140625,-0.879744291305542,-14.491315841674805,6.1295247077941895
1779968343625890800,7.745890869140625,0.4739227294921875,-10.95230770111084,5.5042338371276855
1779968343642212000,7.762212158203125,1.6867451667785645,-7.814597129821777,3.9277806282043457
1779968343658556200,7.77855615234375,-7.088207244873047,-8.160196304321289,-2.8779969215393066
1779968343674889000,7.794888916015625,1.6959505081176758,-3.738983154296875,-5.430097579956055
1779968343691219700,7.8112197265625,-3.2809228897094727,2.921811103820801,-2.338747262954712
1779968343707536400,7.827536376953125,-8.337904930114746,6.927059173583984,2.285998582839966
1779968343723886600,7.843886474609375,-11.05643081665039,15.693168640136719,2.449143886566162
1779968343740228600,7.860228515625,-10.125125885009766,19.658401489257812,3.0205562114715576
1779968343756550000,7.8765498046875,-11.182435035705566,18.863666534423828,3.952406883239746
1779968343772881200,7.892881103515625,-6.1379594802856445,18.26085090637207,3.217823028564453
1779968343789216000,7.909216064453125,-1.5060853958129883,16.489212036132812,2.09540057182312
1779968343805513500,7.925513427734375,2.5002708435058594,13.151968002319336,3.2094039916992188
1779968343821868500,7.94186865234375,4.274932861328125,10.788856506347656,3.4685091972351074
1779968343838197000,7.958197021484375,14.093957901000977,-14.751083374023438,2.1188435554504395
1779968343854528800,7.97452880859375,22.48415184020996,-26.916563034057617,1.672109603881836
1779968343870862300,7.9908623046875,-35.44425964355469,-18.962352752685547,-8.995434761047363
1779968343887193000,8.007193115234376,-17.48613739013672,-2.0548009872436523,-2.2998101711273193
1779968343903505000,8.0235048828125,-1.0798306465148926,6.169579982757568,6.459491729736328
1779968343919857400,8.039857421875,-2.8429574966430664,13.94328784942627,8.119720458984375
1779968343936190000,8.05618994140625,-10.772686958312988,10.903599739074707,6.7545576095581055
1779968343952531200,8.07253125,-7.921093463897705,7.361027717590332,5.174394130706787
1779968343968850700,8.0888505859375,-2.0674898624420166,1.9715046882629395,5.838595390319824
1779968343985185800,8.105185791015625,-27.91938018798828,-30.6926212310791,8.633495330810547
1779968344001534500,8.121534423828125,-10.201273918151855,-43.957794189453125,-0.8710845708847046
1779968344017863400,8.137863525390625,30.663293838500977,-30.580974578857422,-11.079066276550293
1779968344034197500,8.154197509765625,23.72026252746582,-8.10262393951416,-10.503798484802246
1779968344050531000,8.170531005859376,9.628497123718262,-5.478979110717773,-3.789764642715454
1779968344066846200,8.18684619140625,9.305235862731934,1.964770793914795,4.237100124359131
1779968344083193900,8.20319384765625,0.6170806884765625,8.199771881103516,7.3148088455200195
1779968344099524900,8.21952490234375,6.848674774169922,10.121458053588867,6.509495735168457
1779968344115866000,8.2358662109375,9.493038177490234,7.316223621368408,-0.904788613319397
1779968344132191500,8.25219140625,7.998927116394043,7.309593200683594,-4.6640143394470215
1779968344148521700,8.268521728515625,4.348354816436768,6.447968006134033,-6.045599937438965
1779968344164824600,8.284824462890626,2.180758476257324,7.023913383483887,-5.648953914642334
1779968344181155000,8.301155029296876,2.972385883331299,8.596753120422363,-4.3918023109436035
1779968344197520600,8.317520751953126,2.8767662048339844,10.038162231445312,-2.6870555877685547
1779968344213851600,8.3338515625,0.5408706665039062,10.144643783569336,-2.8915998935699463
1779968344230186500,8.3501865234375,-2.683105707168579,8.945684432983398,-3.464388608932495
1779968344246517500,8.366517578125,-5.18192195892334,5.770886421203613,-3.9354047775268555
1779968344262847000,8.382846923828126,0.4692147374153137,-1.8322019577026367,-4.317487716674805
1779968344279184100,8.39918408203125,-0.7512763142585754,-9.521184921264648,-2.6698904037475586
1779968344295496400,8.415496337890625,-0.3638414144515991,-27.84723663330078,1.8022774457931519
1779968344311833000,8.4318330078125,3.415731430053711,-35.92344284057617,5.666552543640137
1779968344328163800,8.448163818359374,1.1800072193145752,-22.827545166015625,5.936821937561035
1779968344344498200,8.464498291015625,0.1994950771331787,-12.782510757446289,5.616155624389648
1779968344360826600,8.48082666015625,2.539468765258789,-10.20166015625,4.203253746032715
1779968344377163800,8.497163818359375,-5.421856880187988,-8.42577075958252,1.1086552143096924
1779968344393494500,8.51349462890625,-6.79386043548584,-5.462563514709473,-2.3191189765930176
1779968344409825000,8.529824951171875,-1.8356750011444092,-1.6038827896118164,-5.441431045532227
1779968344426160400,8.546160400390624,-4.877472400665283,5.890501022338867,-2.168973445892334
1779968344442488300,8.56248828125,-9.945140838623047,9.081148147583008,0.6618634462356567
1779968344458823700,8.57882373046875,-10.50110912322998,15.69239616394043,1.829190731048584
1779968344475168500,8.59516845703125,-10.704620361328125,18.222984313964844,3.510542392730713
1779968344491501800,8.611501708984376,-10.008916854858398,16.881994247436523,4.304625034332275
1779968344507834000,8.627834228515624,-6.726863861083984,19.05841827392578,2.7099149227142334
1779968344524163800,8.644163818359376,-1.953332543373108,16.440837860107422,3.30273175239563
1779968344540483000,8.660483154296875,2.9632728099823,12.113208770751953,3.9451065063476562
1779968344556826000,8.676826171875,6.319555282592773,4.818377494812012,2.67327618598938
1779968344573165300,8.693165283203125,10.605616569519043,-20.29131507873535,0.02115190029144287
1779968344589492500,8.709492431640625,13.714821815490723,-13.571276664733887,-3.7602217197418213
1779968344605815800,8.72581591796875,-17.07904815673828,-0.5911273956298828,-4.243442535400391
1779968344622158300,8.742158447265625,-24.75504493713379,1.8195276260375977,-1.7107553482055664
1779968344638466300,8.75846630859375,-8.562232971191406,-2.5162172317504883,5.368330955505371
1779968344654823000,8.774822998046876,0.020344972610473633,3.24177885055542,11.214030265808105
1779968344671160000,8.79116015625,-2.0740292072296143,7.819352626800537,6.064728736877441
1779968344687488000,8.807488037109374,-10.241483688354492,3.6586756706237793,5.831869125366211
1779968344703817200,8.823817138671876,-5.046111106872559,0.5569038391113281,5.64866828918457
1779968344720169200,8.840169189453125,-18.685537338256836,-14.238621711730957,7.480697154998779
1779968344736482300,8.856482421875,-14.982796669006348,-37.093727111816406,-0.6713099479675293
1779968344752819000,8.87281884765625,20.216426849365234,-36.61113739013672,-12.025835037231445
1779968344769133800,8.8891337890625,15.362789154052734,-15.833105087280273,-13.156063079833984
1779968344785465000,8.905465087890626,7.457907676696777,-4.637555122375488,-8.389423370361328
1779968344801786000,8.9217861328125,8.321273803710938,-3.970212936401367,-2.1048054695129395
1779968344818140200,8.93814013671875,11.309900283813477,3.1574463844299316,7.975010395050049
1779968344834462700,8.954462646484375,0.829992413520813,7.714341640472412,11.121366500854492
1779968344850784300,8.9707841796875,8.947738647460938,7.668172836303711,3.703979730606079
1779968344867120600,8.98712060546875,9.219743728637695,7.228256702423096,-4.425095081329346
1779968344883462000,9.0034619140625,7.467606544494629,6.623333930969238,-5.880904197692871
1779968344899816400,9.01981640625,1.5934946537017822,6.9076385498046875,-5.728693962097168
1779968344916120600,9.03612060546875,1.6771957874298096,8.626607894897461,-4.914461612701416
1779968344932459000,9.052458984375,3.756566047668457,9.075101852416992,-3.332296133041382
1779968344948813000,9.06881298828125,3.3087234497070312,8.764004707336426,-1.7940632104873657
1779968344965098000,9.085097900390625,0.6418828964233398,9.217891693115234,-1.3422186374664307
1779968344981471200,9.10147119140625,-3.263780117034912,9.10510540008545,-2.394534111022949
1779968344997801700,9.1178017578125,-3.8411972522735596,4.663218021392822,-3.1023659706115723
1779968345014138400,9.134138427734374,-1.1307835578918457,-3.6181421279907227,-3.243906259536743
1779968345030458400,9.150458251953125,-2.0791051387786865,-9.093886375427246,-3.377814292907715
1779968345046803700,9.1668037109375,0.3848332166671753,-22.067630767822266,-0.48344898223876953
1779968345063125200,9.183125244140625,-0.7082701921463013,-31.366065979003906,1.9740649461746216
1779968345079461600,9.199461669921876,1.1380348205566406,-25.748104095458984,3.844627857208252
1779968345095795200,9.215795166015624,1.6467344760894775,-13.796401023864746,3.969362258911133
1779968345112129800,9.2321298828125,1.073204517364502,-11.10218620300293,4.026218414306641
1779968345128459800,9.248459716796875,-3.8789267539978027,-8.966902732849121,2.825786590576172
1779968345144779500,9.264779541015624,-0.7943692207336426,-1.7301549911499023,-1.5891859531402588
1779968345161117200,9.2811171875,-1.2643074989318848,2.247372627258301,-4.969839572906494
1779968345177459700,9.297459716796874,-4.214864730834961,8.191965103149414,-3.09401535987854
1779968345193789000,9.313788818359376,-8.418328285217285,8.723052024841309,1.6623430252075195
1779968345210170000,9.330170166015625,-9.626590728759766,11.933806419372559,1.1814451217651367
1779968345226453800,9.346453857421874,-10.414684295654297,14.603170394897461,1.9572972059249878
1779968345242782700,9.36278271484375,-11.145818710327148,13.005983352661133,3.5154619216918945
1779968345259118600,9.37911865234375,-9.81013298034668,13.904009819030762,2.3605432510375977
1779968345275433700,9.395433837890625,-5.682612895965576,15.354846000671387,-0.3148922622203827
1779968345291766800,9.411766845703125,1.2353808879852295,11.093762397766113,2.660311698913574
1779968345308100000,9.42810009765625,6.019680976867676,8.603965759277344,2.08235764503479
1779968345324433000,9.444432861328124,8.296455383300781,-11.834700584411621,6.7611494064331055
1779968345340763000,9.460762939453126,17.063398361206055,-18.0953426361084,0.5700613260269165
1779968345357097700,9.47709765625,-7.058536529541016,-14.237876892089844,-0.6013701558113098
1779968345373429800,9.4934296875,-28.444820404052734,-1.836771011352539,-3.416748523712158
1779968345389761000,9.509760986328125,-5.034494400024414,2.0307207107543945,3.1452860832214355
1779968345406093600,9.526093505859375,1.7908329963684082,9.020501136779785,8.710285186767578
1779968345422424600,9.542424560546875,-8.349672317504883,9.625171661376953,7.253198623657227
1779968345438761700,9.55876171875,-16.1668643951416,7.667728900909424,3.6990699768066406
1779968345455103700,9.575103759765625,-6.870279788970947,2.974308490753174,2.6496758460998535
1779968345471446000,9.591446044921875,-10.262450218200684,-7.891757011413574,4.803830623626709
1779968345487763000,9.607762939453124,-19.579580307006836,-48.15886688232422,-0.673220694065094
1779968345504099000,9.62409912109375,19.419313430786133,-41.504756927490234,-12.702109336853027
1779968345520431000,9.64043115234375,17.0631046295166,-11.919037818908691,-11.755547523498535
1779968345536787200,9.656787109375,7.796684265136719,-3.6033077239990234,-8.011473655700684
1779968345553095700,9.673095703125,8.432920455932617,-3.949509620666504,0.12642772495746613
1779968345569428000,9.689427978515624,10.065425872802734,3.5428833961486816,5.500444412231445
1779968345585762600,9.705762451171875,-0.32744431495666504,9.877469062805176,8.680830001831055
1779968345602092800,9.7220927734375,6.657003402709961,9.147436141967773,6.664456367492676
1779968345618413300,9.738413330078124,8.48202896118164,8.40028190612793,-1.9867947101593018
1779968345634755800,9.754755859375,9.642843246459961,6.895131587982178,-6.683041095733643
1779968345651100200,9.77110009765625,3.180380344390869,6.161940574645996,-7.983027458190918
1779968345667401000,9.78740087890625,0.66148841381073,7.79771614074707,-6.697028636932373
1779968345683753500,9.80375341796875,3.487301826477051,9.374728202819824,-4.819631576538086
1779968345700072400,9.820072509765625,4.466069221496582,10.18670654296875,-2.543504238128662
1779968345716420600,9.836420654296875,1.5060622692108154,9.574019432067871,-2.4409868717193604
1779968345732753400,9.85275341796875,-4.235942363739014,7.70672607421875,-2.715592622756958
1779968345749067500,9.869067626953125,-5.602166175842285,2.369581699371338,-3.6309428215026855
1779968345765404700,9.88540478515625,-1.2413759231567383,-4.7132568359375,-4.938276767730713
1779968345781708300,9.901708251953124,0.32645338773727417,-10.269755363464355,-4.333743095397949
1779968345798052900,9.918052978515625,-0.836376428604126,-22.69576644897461,0.11058127880096436
1779968345814400500,9.934400390625,-2.1804206371307373,-29.984272003173828,3.988313913345337
1779968345830729200,9.950729248046875,0.9460239410400391,-21.4407901763916,5.847040176391602
1779968345847067600,9.967067626953124,1.9447388648986816,-11.012202262878418,5.908780097961426
1779968345863389200,9.98338916015625,4.253225326538086,-8.317765235900879,6.221676349639893
1779968345879727600,9.9997275390625,-5.1961774826049805,-9.331022262573242,3.5986580848693848
1779968345896061000,10.01606103515625,-3.2719857692718506,-9.09635066986084,-2.6415560245513916
1779968345912394200,10.032394287109375,2.9282007217407227,-3.847911834716797,-6.0275559425354
1779968345928726500,10.0487265625,-5.194503307342529,4.097232818603516,-1.1381759643554688
1779968345945050000,10.065050048828125,-9.615132331848145,8.115232467651367,3.422715902328491
1779968345961397500,10.0813974609375,-11.108287811279297,14.802312850952148,2.36013126373291
1779968345977737200,10.0977373046875,-10.441222190856934,17.917922973632812,1.79072105884552
1779968345994058500,10.11405859375,-8.607745170593262,18.380050659179688,2.719634532928467
1779968346010402000,10.130402099609375,-7.388640403747559,17.798816680908203,4.249711990356445
1779968346026733600,10.146733642578125,-4.965731143951416,18.476764678955078,-0.2776658535003662
1779968346043066600,10.163066650390626,0.23011159896850586,13.13886833190918,2.93957257270813
1779968346059392000,10.17939208984375,4.771592140197754,9.558512687683105,2.2776875495910645
1779968346075733800,10.195733642578125,9.546513557434082,-13.432901382446289,3.4608490467071533
1779968346092062000,10.21206201171875,23.126413345336914,-20.514177322387695,1.6393932104110718
1779968346108395800,10.228395751953125,-24.308841705322266,-18.284774780273438,-3.4435484409332275
1779968346124723200,10.24472314453125,-22.729290008544922,-7.874362945556641,-2.403468608856201
1779968346141053400,10.261053466796875,-1.8945684432983398,-0.48920726776123047,6.533038139343262
1779968346157394000,10.277393798828125,-3.965437650680542,11.823858261108398,6.8217010498046875
1779968346173721600,10.2937216796875,-14.520293235778809,8.791525840759277,4.12238073348999
1779968346190059000,10.31005908203125,-13.765021324157715,5.767263412475586,2.1701414585113525
1779968346206369000,10.326369140625,-5.798986434936523,1.8069567680358887,2.045300245285034
1779968346222704000,10.3427041015625,-21.46225357055664,-23.47787094116211,5.005371570587158
1779968346239034600,10.35903466796875,8.766284942626953,-39.98369598388672,-7.233551502227783
1779968346255356000,10.37535595703125,18.168434143066406,-29.63071060180664,-11.75705623626709
1779968346271705900,10.391705810546876,14.97105598449707,-9.419057846069336,-9.563484191894531
1779968346288035000,10.40803515625,6.545147895812988,-4.307346343994141,-6.732691287994385
1779968346304368000,10.4243681640625,9.482666969299316,-2.8699569702148438,-0.5756722092628479
1779968346320699400,10.440699462890626,5.444538116455078,4.26279354095459,5.4055914878845215
1779968346337033000,10.457032958984374,0.12420034408569336,13.093206405639648,9.919103622436523
1779968346353364700,10.47336474609375,11.31697940826416,8.337936401367188,1.1591829061508179
1779968346369695500,10.489695556640624,10.707590103149414,5.657104015350342,-5.2220139503479
1779968346386028000,10.506028076171875,3.679251194000244,4.977047443389893,-5.790614128112793
1779968346402361300,10.522361328125,0.9552443027496338,6.336379051208496,-4.385490417480469
1779968346418684400,10.538684326171875,3.0559163093566895,8.243096351623535,-2.3681833744049072
1779968346435026400,10.5550263671875,3.004974842071533,9.098146438598633,-0.861111044883728
1779968346451370000,10.571369873046875,0.21759921312332153,8.919042587280273,-0.10639934986829758
1779968346467704000,10.5877041015625,-3.7982985973358154,9.19644832611084,-1.0306214094161987
1779968346484036400,10.604036376953125,-6.407954692840576,7.678590774536133,-2.076799154281616
1779968346500351700,10.620351806640626,2.4868571758270264,0.40773773193359375,-2.085799217224121
1779968346516695300,10.6366953125,2.2420120239257812,-9.524158477783203,-2.113370418548584
1779968346533010700,10.6530107421875,2.1091713905334473,-18.918901443481445,-1.0853525400161743
1779968346549375000,10.669375,-0.3080155849456787,-29.51587677001953,4.247745513916016
1779968346565709600,10.68570947265625,-0.11252999305725098,-26.52237892150879,3.4199142456054688
1779968346582028300,10.7020283203125,-1.3530261516571045,-15.62040901184082,3.6825366020202637
1779968346598347300,10.71834716796875,1.3133397102355957,-10.413310050964355,3.6302714347839355
1779968346614694400,10.7346943359375,-5.396028518676758,-5.261483192443848,3.3593742847442627
1779968346631025200,10.751025146484375,-3.9965858459472656,-2.8523035049438477,-0.31802499294281006
1779968346647357700,10.767357666015625,5.4822540283203125,-2.2866907119750977,-5.245224475860596
1779968346663674400,10.78367431640625,-2.565526008605957,5.926846027374268,-3.59283185005188
1779968346680021800,10.800021728515626,-7.714968204498291,8.660677909851074,1.134645700454712
1779968346696370400,10.816370361328126,-8.514188766479492,12.443643569946289,2.90147066116333
1779968346712686800,10.832686767578124,-7.563614845275879,14.603489875793457,2.6162893772125244
1779968346729019100,10.84901904296875,-10.646102905273438,14.159845352172852,3.3455944061279297
1779968346745337900,10.865337890625,-8.695941925048828,14.108345031738281,1.6450705528259277
1779968346761667800,10.881667724609375,-6.328578948974609,13.45829963684082,1.0197405815124512
1779968346777994200,10.897994140625,0.2957024574279785,11.545930862426758,3.367758274078369
1779968346794313500,10.9143134765625,4.948009490966797,10.624462127685547,3.6761975288391113
1779968346810668300,10.930668212890625,7.637299537658691,-10.417404174804688,4.174677848815918
1779968346827001000,10.9470009765625,13.411654472351074,-8.039862632751465,-1.727513313293457
1779968346843344400,10.963344482421874,-4.592048645019531,0.6511898040771484,-1.812533974647522
1779968346859658500,10.979658447265624,-25.19129753112793,-0.45649147033691406,-1.162493348121643
1779968346875984100,10.995984130859375,-22.39206314086914,-4.768047332763672,1.5259194374084473
1779968346892327400,11.012327392578126,4.517419815063477,-8.724638938903809,6.931265354156494
1779968346908660200,11.02866015625,2.2002451419830322,-2.3586816787719727,5.47567081451416
1779968346924996900,11.044996826171875,-12.933497428894043,2.5644259452819824,4.240368366241455
1779968346941338000,11.061338134765625,-15.028386116027832,-1.2537670135498047,3.02022123336792
1779968346957668400,11.07766845703125,-12.76706314086914,-10.222031593322754,2.0453755855560303
1779968346974002700,11.094002685546876,-8.782772064208984,-25.199058532714844,-1.5956521034240723
1779968346990338600,11.110338623046875,12.315173149108887,-29.173797607421875,-9.470646858215332
1779968347006668800,11.126668701171875,14.687796592712402,-13.339479446411133,-10.560216903686523
1779968347022999300,11.142999267578125,8.367202758789062,-5.8650665283203125,-5.8790388107299805
1779968347039336200,11.159336181640626,5.885173797607422,-6.147414207458496,-0.20720016956329346
1779968347055665200,11.1756650390625,11.612833976745605,-0.7785978317260742,7.259466171264648
1779968347071992800,11.191992919921875,2.1861228942871094,4.212268829345703,7.732938289642334
1779968347088338400,11.20833837890625,7.565446853637695,4.5952911376953125,0.3789239227771759
1779968347104642800,11.224642822265626,7.499481201171875,6.55042839050293,-3.9481759071350098
1779968347120990000,11.240989990234375,7.820842266082764,7.68702507019043,-7.440963268280029
1779968347137331700,11.257331787109376,3.5950260162353516,6.014685153961182,-7.35748815536499
1779968347153656800,11.27365673828125,0.2807013988494873,7.193620681762695,-6.430024147033691
1779968347169990400,11.289990478515625,1.9382171630859375,9.211834907531738,-4.727293968200684
1779968347186318600,11.306318603515624,4.45100212097168,10.282378196716309,-2.53205943107605
1779968347202662100,11.322662109375,3.260702133178711,10.158604621887207,-1.5421679019927979
1779968347218986500,11.338986572265625,-1.7991085052490234,9.906728744506836,-1.1164870262145996
1779968347235304400,11.355304443359374,-5.050058841705322,6.184347152709961,-1.8428707122802734
1779968347251638800,11.371638671875,-0.9889932870864868,-1.6847772598266602,-0.9206973314285278
1779968347267971800,11.387971923828125,-1.074415683746338,-7.467082977294922,-1.4786741733551025
1779968347284302300,11.40430224609375,-1.0276455879211426,-16.465133666992188,-0.04935252666473389
1779968347300639000,11.420638916015625,-1.2105088233947754,-26.477970123291016,4.333940505981445
1779968347316963800,11.4369638671875,1.686690092086792,-26.35120391845703,4.331454277038574
1779968347333299700,11.4532998046875,2.2633540630340576,-15.920947074890137,4.190512657165527
1779968347349631500,11.469631591796874,0.8091950416564941,-13.79825210571289,3.036173105239868
1779968347365964800,11.48596484375,-2.846165180206299,-13.522064208984375,0.7618733644485474
1779968347382296300,11.50229638671875,0.6351528167724609,-6.808600425720215,-1.7157402038574219
1779968347398629000,11.518629150390625,-1.9461767673492432,-2.4789438247680664,-3.0680031776428223
1779968347414965500,11.534965576171874,-2.606490135192871,3.3484315872192383,-2.3890795707702637
1779968347431305700,11.5513056640625,-4.603097438812256,8.027876853942871,1.6545027494430542
1779968347447619600,11.56761962890625,-8.449339866638184,11.44033432006836,3.8559985160827637
1779968347463976000,11.583975830078124,-7.866058349609375,15.301610946655273,3.0115692615509033
1779968347480287200,11.600287353515625,-9.42919921875,15.550642013549805,2.545109272003174
1779968347496637200,11.61663720703125,-11.355645179748535,15.175132751464844,3.564765453338623
1779968347512969000,11.632968994140626,-6.894595146179199,15.266059875488281,2.276224374771118
1779968347529301800,11.6493017578125,-4.5842790603637695,13.399070739746094,1.3140842914581299
1779968347545617700,11.66561767578125,0.6367077827453613,10.311544418334961,3.2195050716400146
1779968347561966600,11.681966552734375,5.626187801361084,8.95882797241211,3.0256547927856445
1779968347578294300,11.698294189453126,7.523006439208984,-13.874093055725098,2.3335323333740234
1779968347594619100,11.714619140625,13.329652786254883,-11.998885154724121,-2.8965907096862793
1779968347610979300,11.730979248046875,-9.286211013793945,-5.216622352600098,-1.9132035970687866
1779968347627281200,11.74728125,-26.38262367248535,-3.1474132537841797,-2.766300916671753
1779968347643611100,11.763611083984374,-11.642309188842773,-3.7057790756225586,0.0607222318649292
1779968347659942100,11.779942138671874,5.698607921600342,0.8495626449584961,6.678740978240967
1779968347676290600,11.79629052734375,-1.4404054880142212,7.541630268096924,4.346826076507568
1779968347692624000,11.812623779296874,-12.876448631286621,5.723313331604004,5.778433799743652
1779968347708945700,11.828945556640624,-8.091019630432129,1.2761363983154297,5.264799118041992
1779968347725263600,11.845263671875,-12.180493354797363,-13.851860046386719,6.399319171905518
1779968347741607200,11.861607177734374,-12.993642807006836,-31.378726959228516,1.741236686706543
1779968347757939500,11.877939453125,10.515835762023926,-29.53583526611328,-6.976966857910156
1779968347774271700,11.894271728515625,18.156572341918945,-13.956815719604492,-10.413473129272461
1779968347790590500,11.910590576171876,6.110816955566406,-5.667532920837402,-8.046141624450684
1779968347806923300,11.92692333984375,5.497389793395996,-5.0021772384643555,-2.8489866256713867
1779968347823267300,11.943267333984375,11.773347854614258,-0.5290203094482422,1.4456572532653809
1779968347839598000,11.95959814453125,6.242410182952881,3.9375901222229004,4.349081516265869
1779968347855932200,11.97593212890625,0.9156832695007324,9.52226448059082,5.656501770019531
1779968347872266000,11.992265869140626,9.090231895446777,7.929488658905029,1.1879537105560303
1779968347888597500,12.008597412109374,8.275623321533203,6.338259696960449,-5.079035758972168
1779968347904916200,12.024916259765625,7.273864269256592,5.840526580810547,-7.422938823699951
1779968347921281800,12.04128173828125,-0.20201706886291504,6.129258632659912,-6.607156276702881
1779968347937606400,12.0576064453125,-0.8647013902664185,7.993305683135986,-5.029797554016113
1779968347953933800,12.073933837890625,3.469513416290283,10.09190845489502,-2.7385125160217285
1779968347970278100,12.090278076171876,2.970355272293091,10.530496597290039,-1.444917917251587
1779968347986584000,12.106583984375,-4.011490821838379,8.583245277404785,-1.5951944589614868
1779968348019281200,12.13928125,0.9985090494155884,-0.5909051895141602,-1.1280553340911865
1779968348035603200,12.155603271484376,3.435617685317993,-7.598325729370117,1.0232794284820557
1779968348051922700,12.171922607421875,4.09357213973999,-18.457462310791016,5.613675117492676
1779968348068267800,12.188267822265624,2.0511860847473145,-28.15515899658203,8.660866737365723
1779968348084582700,12.204582763671874,1.8324298858642578,-24.801515579223633,4.494765281677246
1779968348100927200,12.22092724609375,3.468442678451538,-16.086721420288086,4.653456687927246
1779968348117264600,12.2372646484375,-2.9660239219665527,-13.738946914672852,0.9229943156242371
1779968348133595600,12.253595703125,-2.2560856342315674,-12.60506534576416,-5.971525192260742
1779968348149925000,12.269925048828124,-3.016566038131714,-9.273139953613281,-5.973257064819336
1779968348166261800,12.28626171875,0.03273200988769531,-3.8284873962402344,-2.4858880043029785
1779968348182570500,12.302570556640624,-3.991013526916504,4.626613616943359,0.2328205704689026
1779968348198919200,12.318919189453124,-6.819921493530273,7.929077625274658,2.137307643890381
1779968348215239400,12.335239501953126,-10.064412117004395,15.260278701782227,1.0749951601028442
1779968348231575600,12.351575439453125,-9.489646911621094,18.095623016357422,2.5054714679718018
1779968348247906000,12.367906005859375,-9.577625274658203,18.583885192871094,3.441521644592285
1779968348264238000,12.384238037109375,-7.08850622177124,17.831321716308594,4.867584705352783
1779968348280569900,12.40056982421875,-3.5793981552124023,17.433313369750977,5.212331771850586
1779968348296905700,12.41690576171875,-2.224306583404541,13.488019943237305,5.152812480926514
1779968348313236200,12.433236328125,1.6087381839752197,10.105632781982422,3.2123231887817383
1779968348329569500,12.449569580078125,11.154947280883789,-5.353517532348633,3.292170286178589
1779968348345900500,12.465900634765624,15.717594146728516,-14.345976829528809,-0.9430378675460815
1779968348362231600,12.4822314453125,-18.54737091064453,-15.226558685302734,-1.305207371711731
1779968348378557000,12.498556884765625,-26.177228927612305,-8.395807266235352,-0.369289755821228
1779968348394901000,12.51490087890625,0.12141799926757812,-4.391824722290039,3.461109161376953
1779968348411245000,12.5312451171875,2.310431718826294,3.3613805770874023,7.410134315490723
1779968348427574000,12.547573974609374,-9.275735855102539,6.122201919555664,6.307011604309082
1779968348443906300,12.56390625,-12.758779525756836,4.887748718261719,3.935014486312866
1779968348460238800,12.58023876953125,-10.636147499084473,1.527463436126709,2.193481922149658
1779968348476578300,12.596578369140625,-14.081521987915039,-8.838037490844727,2.6388678550720215
1779968348492897800,12.612897705078124,-14.504898071289062,-29.343647003173828,-0.7491919994354248
1779968348509220600,12.629220703125,17.84221649169922,-33.40049743652344,-10.519632339477539
1779968348525569500,12.645569580078124,16.59063720703125,-15.574386596679688,-9.889612197875977
1779968348541893400,12.661893310546875,7.698503017425537,-5.085332870483398,-6.961272239685059
1779968348558232300,12.678232421875,6.532609939575195,-4.17569637298584,-0.09601718187332153
1779968348574561500,12.6945615234375,12.814757347106934,-0.27732276916503906,6.286195755004883
1779968348590895900,12.710895751953124,4.490023612976074,6.84658670425415,8.748132705688477
1779968348607210500,12.72721044921875,6.322665214538574,6.5109405517578125,6.015913963317871
1779968348623561200,12.743561279296875,6.263690948486328,7.468993186950684,-0.9250836968421936
1779968348639892700,12.759892822265625,6.542925834655762,8.266718864440918,-6.699180603027344
1779968348656225300,12.776225341796875,6.1451311111450195,6.200074195861816,-8.831743240356445
1779968348672564200,12.792564208984375,0.19361639022827148,6.223535537719727,-8.400799751281738
1779968348688889600,12.8088896484375,1.9183565378189087,8.176436424255371,-6.095868110656738
1779968348705195500,12.825195556640624,4.919728755950928,9.959517478942871,-2.981635808944702
1779968348721543200,12.841543212890626,1.8571834564208984,10.01150131225586,-1.7760590314865112
1779968348737872100,12.8578720703125,-6.9654541015625,8.333528518676758,-2.850275993347168
1779968348754197000,12.874197021484376,-3.26149320602417,1.5184030532836914,-3.4693589210510254
1779968348770541600,12.89054150390625,0.7490562796592712,-5.717591285705566,-2.204305648803711
1779968348786872300,12.906872314453125,0.7608722448348999,-12.000773429870605,3.6852402687072754
1779968348803205600,12.92320556640625,1.066065788269043,-22.293115615844727,8.490293502807617
1779968348819537700,12.93953759765625,0.2657458782196045,-26.368961334228516,7.958334445953369
1779968348835864300,12.9558642578125,1.009148359298706,-18.074785232543945,6.25116491317749
1779968348852209000,12.972208984375,4.004063606262207,-12.18718147277832,4.213011264801025
1779968348868532500,12.988532470703126,-0.8184130191802979,-10.646202087402344,1.3419127464294434
1779968348884847000,13.00484716796875,-3.058389663696289,-9.478654861450195,-2.7618205547332764
1779968348901214700,13.021214599609374,-0.6546854972839355,-8.772698402404785,-4.364645481109619
1779968348917546500,13.03754638671875,0.0854029655456543,-5.057650566101074,-2.8411641120910645
1779968348933877500,13.05387744140625,-5.774775505065918,4.358829021453857,-1.2703520059585571
1779968348950206000,13.0702060546875,-7.945308685302734,7.524869918823242,0.6648474931716919
1779968348966542000,13.0865419921875,-10.626422882080078,13.571023941040039,0.31224143505096436
1779968348982872800,13.102872802734375,-10.358072280883789,18.075443267822266,2.2071306705474854
1779968348999204000,13.1192041015625,-11.59430980682373,17.73021697998047,2.9874930381774902
1779968349015532300,13.1355322265625,-5.825646877288818,18.53911590576172,2.9280128479003906
1779968349031872300,13.151872314453126,-2.638150691986084,16.029144287109375,1.852642297744751
1779968349048204300,13.168204345703124,4.343872547149658,12.332221031188965,2.961160898208618
1779968349064529000,13.18452880859375,6.188068389892578,7.095407485961914,5.415858745574951
1779968349080839700,13.200839599609376,8.764724731445312,-13.871861457824707,4.0198822021484375
1779968349097201200,13.217201171875,8.357503890991211,-8.039080619812012,-2.463409185409546
1779968349113532200,13.2335322265625,-19.928932189941406,1.6482124328613281,-4.600809574127197
1779968349129861600,13.249861572265624,-22.679529190063477,-3.985666275024414,0.045023560523986816
1779968349146179600,13.2661796875,-6.871591567993164,-10.183497428894043,3.68878173828125
1779968349162528500,13.282528564453125,3.6571319103240967,-7.144444465637207,5.933200836181641
1779968349178845200,13.29884521484375,-8.120685577392578,4.635425090789795,4.962043285369873
1779968349195175700,13.31517578125,-12.190570831298828,3.4085569381713867,4.465776443481445
1779968349211510800,13.3315107421875,-4.771903038024902,3.335578441619873,3.2100958824157715
1779968349227843600,13.347843505859375,-8.485487937927246,-6.233246803283691,5.050655364990234
1779968349244174600,13.364174560546875,-18.554101943969727,-24.78080940246582,4.065828323364258
1779968349260504800,13.3805048828125,-0.31163740158081055,-27.977100372314453,-4.311517715454102
1779968349276831000,13.3968310546875,19.508188247680664,-21.138208389282227,-10.23863410949707
1779968349293171500,13.41317138671875,21.772138595581055,-5.223684310913086,-9.62377643585205
1779968349309503700,13.429503662109376,3.7438015937805176,-4.665619850158691,-6.04667329788208
1779968349325836000,13.4458359375,5.673720359802246,-3.6573362350463867,-0.7391397356987
1779968349342167600,13.46216748046875,3.607198476791382,3.01785945892334,3.9617528915405273
1779968349358508000,13.478508056640624,-0.5918593406677246,12.001202583312988,8.545331001281738
1779968349374833700,13.494833740234375,8.087906837463379,8.947576522827148,0.7682679891586304
1779968349391168300,13.511168212890626,9.827651977539062,5.8793535232543945,-6.374711513519287
1779968349407528000,13.52752783203125,4.4775071144104,5.5628342628479,-6.782679080963135
1779968349423843800,13.54384375,1.0298913717269897,7.0448150634765625,-4.655488014221191
1779968349440158000,13.560157958984375,1.2954990863800049,8.877958297729492,-3.071577310562134
1779968349456492300,13.5764921875,2.2087996006011963,10.317415237426758,-1.5606107711791992
1779968349472822800,13.59282275390625,1.7827954292297363,10.96633243560791,-0.9390597939491272
1779968349497568300,13.617568359375,-3.841479539871216,8.501502990722656,-2.8316662311553955
1779968349513659100,13.6336591796875,-4.311089992523193,4.109884262084961,-2.8988122940063477
1779968349529991700,13.64999169921875,-1.3154336214065552,-1.8145923614501953,-2.917015790939331
1779968349546323700,13.66632373046875,1.7965736389160156,-8.352686882019043,-1.4908918142318726
1779968349562656000,13.682656005859375,2.2461395263671875,-19.644001007080078,2.3158419132232666
1779968349578987800,13.69898779296875,-0.2236320972442627,-34.2053108215332,6.9785637855529785
1779968349595338200,13.715338134765625,3.921229362487793,-26.73273277282715,5.965295314788818
1779968349611665400,13.73166552734375,3.477679967880249,-12.496294021606445,3.909961223602295
1779968349627998700,13.747998779296875,1.2928261756896973,-7.765026092529297,3.3184261322021484
1779968349644313300,13.764313232421875,-8.293996810913086,-7.426531791687012,0.5170040130615234
1779968349660648400,13.7806484375,-2.5675902366638184,-7.235252380371094,-4.4972639083862305
1779968349676981800,13.796981689453125,3.40762996673584,-2.1257553100585938,-6.093967914581299
1779968349693314600,13.813314453125,-2.389260768890381,3.127614974975586,-0.6937702298164368
1779968349709644500,13.82964453125,-8.743019104003906,7.135739326477051,3.4591224193573
1779968349725979400,13.8459794921875,-9.807548522949219,16.934080123901367,4.409605503082275
1779968349742310700,13.862310546875,-8.549367904663086,19.487022399902344,4.463500499725342
1779968349758643200,13.878643310546876,-9.587617874145508,18.092411041259766,5.371695518493652
1779968349774954500,13.89495458984375,-4.5126166343688965,17.714157104492188,3.933621883392334
1779968349791307800,13.911307861328124,-3.601703643798828,14.182483673095703,3.0017831325531006
1779968349807640000,13.92764013671875,0.6576199531555176,11.66676139831543,3.001307964324951
1779968349823972400,13.943972412109375,1.715135097503662,3.696767807006836,2.4656991958618164
1779968349840302800,13.960302734375,16.409395217895508,-12.651315689086914,-1.5966366529464722
1779968349856637700,13.9766376953125,10.333619117736816,-16.971630096435547,0.23429858684539795
1779968349872969500,13.992969482421875,-28.41338539123535,-16.030719757080078,0.16222167015075684
1779968349889320700,14.00932080078125,-13.40864372253418,-7.051100730895996,1.7153934240341187
1779968349905630200,14.025630126953125,1.0305449962615967,3.386404514312744,5.948448657989502
1779968349922007300,14.04200732421875,-2.6369314193725586,9.50052547454834,5.355413436889648
1779968349938302200,14.05830224609375,-14.167984962463379,8.5349702835083,3.734971284866333
1779968349954644700,14.074644775390626,-10.602935791015625,5.71270751953125,2.3385305404663086
1779968349970971400,14.090971435546875,-3.6319057941436768,1.2484216690063477,3.3369994163513184
1779968349987313000,14.10731298828125,-22.45380973815918,-19.895111083984375,5.731592178344727
1779968350003624400,14.12362451171875,-1.3383197784423828,-37.45792007446289,-2.9848735332489014
1779968350019972600,14.13997265625,19.902099609375,-31.34235191345215,-10.244098663330078
1779968350036287500,14.15628759765625,16.192338943481445,-10.856303215026855,-9.781216621398926
1779968350052623600,14.17262353515625,6.287731170654297,-4.861641883850098,-6.983219623565674
1779968350068944600,14.188944580078125,7.900113105773926,-2.8090572357177734,-3.542083263397217
1779968350085288700,14.205288818359374,10.99258804321289,4.174269199371338,1.5278598070144653
1779968350101614000,14.221614013671875,-1.5001609325408936,9.86436653137207,7.008584499359131
1779968350117953300,14.237953369140625,2.142179489135742,14.141029357910156,8.423641204833984
1779968350134297300,14.25429736328125,9.017093658447266,8.375590324401855,-1.5747007131576538
1779968350150637300,14.27063720703125,9.518770217895508,4.966383934020996,-5.42266321182251
1779968350166962000,14.2869619140625,3.798461437225342,4.922036170959473,-5.402070045471191
1779968350183295700,14.303295654296875,0.44454991817474365,6.942574501037598,-4.087734222412109
1779968350199616800,14.31961669921875,3.638150691986084,9.503657341003418,-2.0421385765075684
1779968350215946500,14.335946533203124,2.886232376098633,10.738558769226074,-0.539522111415863
1779968350232279600,14.352279541015625,-2.331686019897461,9.879148483276367,-1.0825386047363281
1779968350248612000,14.368612060546875,-7.192829132080078,8.402003288269043,-2.365226984024048
1779968350264950000,14.384949951171874,-3.474696159362793,4.254271507263184,-2.7403674125671387
1779968350281260300,14.40126025390625,1.837062120437622,-4.37168025970459,-2.4739673137664795
1779968350297606100,14.417606201171875,2.633462429046631,-9.78348159790039,-1.190409779548645
1779968350313946000,14.433946044921875,3.1447458267211914,-18.77517318725586,2.303224563598633
1779968350330273300,14.450273193359376,0.7838923931121826,-28.928241729736328,5.7181854248046875
1779968350346605300,14.466605224609374,1.51692795753479,-26.59018325805664,3.7806243896484375
1779968350362937600,14.4829375,4.043073654174805,-16.558794021606445,2.7779083251953125
1779968350379275000,14.49927490234375,-4.904898166656494,-13.92261791229248,1.4565367698669434
1779968350395595500,14.515595458984375,-4.059183120727539,-7.63911247253418,-1.3158572912216187
1779968350411949800,14.53194970703125,-1.369368076324463,-2.6602783203125,-2.8872013092041016
1779968350428281900,14.54828173828125,-0.7899255752563477,1.0518898963928223,-2.7339210510253906
1779968350444595700,14.564595703125,-4.189277172088623,5.674241065979004,0.08395636081695557
1779968350460911900,14.580911865234375,-5.110539436340332,8.758349418640137,2.863598346710205
1779968350477251600,14.59725146484375,-6.955808162689209,14.595413208007812,2.6334123611450195
1779968350493586000,14.6135859375,-6.575133323669434,16.181772232055664,3.4793648719787598
1779968350509928000,14.629927978515624,-6.866344451904297,14.881814956665039,3.3514232635498047
1779968350526260200,14.64626025390625,-6.407146453857422,13.212852478027344,2.9404921531677246
1779968350542591500,14.662591552734375,-5.005547523498535,12.30923843383789,2.831594944000244
1779968350558925000,14.678925048828125,-4.090958118438721,10.32435417175293,2.140165090560913
1779968350575268400,14.695268310546876,1.0998282432556152,10.020500183105469,0.16104325652122498
1779968350591585500,14.71158544921875,9.422595977783203,5.47664213180542,0.657526433467865
1779968350607934500,14.7279345703125,15.197990417480469,-5.884983062744141,3.5981040000915527
1779968350624270000,14.74427001953125,-9.783584594726562,-18.098060607910156,4.146089553833008
1779968350640587500,14.76058740234375,-21.112895965576172,-11.838584899902344,0.7128745317459106
1779968350656923600,14.776923583984376,-0.48175477981567383,-11.904662132263184,5.309065341949463
1779968350673262300,14.793262451171875,-4.069489002227783,0.7443866729736328,5.957206726074219
1779968350689568000,14.809568115234375,-11.321991920471191,6.672382831573486,2.334623336791992
1779968350705915100,14.8259150390625,-10.814032554626465,5.935639381408691,1.6606569290161133
1779968350722247700,14.84224755859375,-12.317967414855957,2.534420967102051,1.5481531620025635
1779968350738580200,14.858580322265626,-18.842653274536133,-19.734966278076172,1.6845288276672363
1779968350754907600,14.87490771484375,7.5688300132751465,-36.445228576660156,-7.007192611694336
1779968350771244800,14.891244873046874,23.446617126464844,-23.410079956054688,-12.63267707824707
1779968350787563800,14.907563720703125,8.993060111999512,-8.087122917175293,-10.119454383850098
1779968350803907800,14.923907958984374,5.645389080047607,-5.5599164962768555,-2.61179518699646
1779968350820240100,14.940240234375,7.107294082641602,-1.2007551193237305,2.506941318511963
1779968350836560600,14.956560546875,7.22526216506958,4.70323371887207,5.308762550354004
1779968350852906000,14.972906005859375,5.164422988891602,9.624068260192871,5.575931072235107
1779968350869238500,14.989238525390626,5.9582719802856445,6.433844089508057,1.5429413318634033
1779968350885577200,15.0055771484375,4.5511980056762695,7.255940914154053,-3.4976353645324707
1779968350901899800,15.021899658203125,6.823978424072266,7.891458511352539,-6.7131781578063965
1779968350918252500,15.03825244140625,3.44547176361084,6.262065887451172,-6.614382743835449
1779968350934582500,15.05458251953125,0.3141195774078369,7.398947715759277,-5.353937149047852
1779968350950913800,15.070913818359376,1.97279691696167,9.644843101501465,-2.8187880516052246
1779968350967251000,15.0872509765625,3.332167625427246,11.015100479125977,-0.9004659652709961
1779968350983571700,15.10357177734375,-0.3262329697608948,11.082602500915527,-1.466307282447815
1779968351032568600,15.152568603515626,-1.28183913230896,-7.244656562805176,-0.24114108085632324
1779968351048910300,15.168910400390626,-0.11798441410064697,-11.995600700378418,2.894890785217285
1779968351065209900,15.1852099609375,3.6726317405700684,-20.306732177734375,5.272781848907471
1779968351081571000,15.201571044921875,1.9151155948638916,-24.72783660888672,5.753810882568359
1779968351097902600,15.217902587890626,-0.19466805458068848,-26.437864303588867,2.7221531867980957
1779968351114236200,15.234236083984374,2.8762903213500977,-15.717009544372559,2.518714427947998
1779968351130554600,15.2505546875,-3.062986373901367,-12.769638061523438,0.39844250679016113
1779968351146907000,15.266906982421874,-4.114691257476807,-8.17566204071045,-3.228900909423828
1779968351163233000,15.28323291015625,-0.6565384864807129,-4.082213401794434,-4.821743965148926
1779968351179549000,15.299548828125,-0.6473979949951172,-3.0749387741088867,-4.4147257804870605
1779968351195880400,15.31588037109375,-4.534060478210449,2.8265905380249023,-2.0565643310546875
1779968351212219400,15.332219482421875,-5.751848220825195,6.8589935302734375,2.3829190731048584
1779968351228547800,15.3485478515625,-7.124173164367676,15.546856880187988,4.110864639282227
1779968351244867000,15.3648671875,-7.087066173553467,18.225709915161133,4.845271110534668
1779968351261211000,15.3812109375,-11.083330154418945,16.257110595703125,4.640807151794434
1779968351277544400,15.39754443359375,-7.496951103210449,15.820948600769043,4.043645858764648
1779968351293864200,15.4138642578125,-7.4672746658325195,14.388065338134766,1.7752418518066406
1779968351310210300,15.430210205078126,-3.020397901535034,11.05803394317627,1.0857288837432861
1779968351326541300,15.446541259765626,2.702976703643799,8.045304298400879,-1.5893656015396118
1779968351342873900,15.462873779296874,9.446738243103027,-9.906734466552734,-0.4857778549194336
1779968351359208400,15.47920849609375,23.06303596496582,-14.101777076721191,-0.6362442374229431
1779968351375553300,15.49555322265625,-15.879446029663086,-15.629366874694824,-3.450179100036621
1779968351391885000,15.511885009765624,-25.39971160888672,-0.6420040130615234,-1.3371840715408325
1779968351408215800,15.5282158203125,-8.616312026977539,0.6044950485229492,4.325869083404541
1779968351424523500,15.5445234375,-0.2162165641784668,3.141711711883545,9.098015785217285
1779968351440877300,15.560877197265626,-10.002864837646484,3.946655750274658,5.4325714111328125
1779968351457212700,15.577212646484375,-16.804513931274414,3.2234182357788086,2.5120387077331543
1779968351473533000,15.593532958984374,-12.30771541595459,0.4437446594238281,1.307707667350769
1779968351489876200,15.609876220703125,-16.789506912231445,-14.36814022064209,2.1566824913024902
1779968351506193400,15.626193359375,-1.0845532417297363,-36.55192947387695,-5.29642391204834
1779968351522543000,15.642543212890626,22.140235900878906,-27.322067260742188,-12.068388938903809
1779968351538872600,15.65887255859375,9.97471809387207,-9.083494186401367,-8.758421897888184
1779968351555206000,15.675205810546874,5.4569783210754395,-4.698758125305176,-3.3131625652313232
1779968351571522800,15.691522705078125,6.09926700592041,-3.083097457885742,0.9859464168548584
1779968351587870700,15.70787060546875,7.460407257080078,0.28728389739990234,3.241286277770996
1779968351604202000,15.724201904296875,6.308536529541016,7.710001468658447,3.8686716556549072
1779968351620532700,15.74053271484375,3.35483980178833,7.893657684326172,1.7673579454421997
1779968351636855800,15.756855712890625,5.893683910369873,6.246648788452148,-0.3783823251724243
1779968351653214000,15.7732138671875,6.619983196258545,6.979365348815918,-5.081688404083252
1779968351669533400,15.789533447265624,4.531854152679443,4.778292655944824,-5.806571960449219
1779968351685855000,15.80585498046875,1.4186005592346191,6.862036228179932,-5.1833176612854
1779968351702183400,15.822183349609375,2.3443048000335693,8.974932670593262,-3.43416166305542
1779968351718516200,15.83851611328125,4.744246006011963,10.679248809814453,-1.6538385152816772
1779968351734848300,15.85484814453125,0.35336679220199585,10.752202987670898,-1.203462839126587
1779968351751179800,15.8711796875,-6.185905456542969,8.357305526733398,-1.5454546213150024
1779968351767500300,15.887500244140625,-3.271786689758301,4.098398685455322,-1.0911993980407715
1779968351783846100,15.90384619140625,-1.4102449417114258,-2.5756311416625977,-0.43055057525634766
1779968351800174000,15.920174072265626,0.7836415767669678,-11.791817665100098,1.1213542222976685
1779968351816512800,15.9365126953125,4.193639755249023,-21.437885284423828,3.41029691696167
1779968351832842200,15.95284228515625,5.288934707641602,-23.99605941772461,3.748483657836914
1779968351849161700,15.96916162109375,1.4890484809875488,-16.94353485107422,4.734779357910156
1779968351865523000,15.98552294921875,-1.8189501762390137,-14.066097259521484,5.193996429443359
1779968351881852200,16.00185205078125,-5.073912143707275,-14.787859916687012,0.04486966133117676
1779968351898180400,16.018180419921876,-1.4956324100494385,-11.062116622924805,-4.803694725036621
1779968351914521600,16.034521484375,-3.2353897094726562,-6.848501205444336,-6.457714080810547
1779968351930859300,16.050859375,-2.9969422817230225,-0.5233364105224609,-3.4783406257629395
1779968351947172600,16.067172607421874,-3.0927467346191406,5.04252290725708,1.3118289709091187
1779968351963512000,16.083511962890626,-6.901281833648682,10.270085334777832,2.3453097343444824
1779968351979841800,16.099841796875,-8.41400146484375,16.011322021484375,2.328090190887451
1779968351996181800,16.116181640625,-6.659204959869385,17.432510375976562,3.353039503097534
1779968352012509200,16.13250927734375,-7.153459548950195,15.469115257263184,2.9427034854888916
1779968352028842500,16.148842529296875,-5.243651866912842,12.896665573120117,1.3515088558197021
1779968352045179000,16.165178955078126,-2.5036094188690186,12.90575885772705,0.34498119354248047
1779968352061471000,16.181470947265623,0.3359804153442383,11.596573829650879,1.0232270956039429
1779968352077826300,16.197826416015626,2.6338768005371094,7.499262809753418,0.9738156795501709
1779968352094161400,16.214161376953125,5.174389839172363,-9.47215747833252,0.17327117919921875
1779968352110493700,16.23049365234375,9.456987380981445,-8.386531829833984,0.41209185123443604
1779968352126821400,16.2468212890625,-9.064716339111328,-6.974842071533203,3.5911073684692383
1779968352143157500,16.263157470703124,-21.475872039794922,-6.400957107543945,6.287109851837158
1779968352159503600,16.279503662109374,-5.323635101318359,-9.015654563903809,7.9554853439331055
1779968352175817500,16.2958173828125,4.053165435791016,0.3985605239868164,7.222572326660156
1779968352192156000,16.312156005859375,-3.9840502738952637,5.537629127502441,6.764345169067383
1779968352208479000,16.32847900390625,-10.178780555725098,4.907548904418945,5.6542768478393555
1779968352224804600,16.3448046875,-7.702427387237549,3.8634462356567383,4.217742919921875
1779968352241155000,16.361155029296874,-10.362560272216797,-1.195826530456543,5.487046718597412
1779968352257480400,16.37748046875,-21.80864906311035,-18.197141647338867,4.452601909637451
1779968352273813200,16.393813232421873,-7.916020393371582,-28.911418914794922,-3.4899392127990723
1779968352290148400,16.4101484375,26.488996505737305,-27.137693405151367,-11.765922546386719
1779968352306477600,16.4264775390625,13.146607398986816,-11.341837882995605,-9.439035415649414
1779968352322811000,16.442810791015624,4.505133628845215,-3.5630998611450195,-8.012605667114258
1779968352339145200,16.459145263671875,10.703082084655762,-2.1437673568725586,-2.0853164196014404
1779968352355478500,16.475478515625,9.477925300598145,0.2960243225097656,5.365655899047852
1779968352371820000,16.491820068359374,2.542379856109619,6.013715744018555,5.894856929779053
1779968352388161500,16.50816162109375,8.558060646057129,5.451493740081787,1.5709228515625
1779968352404484000,16.524484130859374,6.504732131958008,4.734742164611816,-4.288999080657959
1779968352420800500,16.540800537109376,5.724453926086426,5.27700138092041,-6.408653736114502
1779968352437159000,16.557158935546877,1.8088514804840088,6.705448150634766,-6.486209392547607
1779968352453483800,16.57348388671875,0.6262871026992798,8.622039794921875,-4.849269390106201
1779968352469813200,16.589813232421875,1.9845092296600342,9.888029098510742,-2.329514980316162
1779968352486131500,16.60613134765625,3.8381097316741943,11.422304153442383,-0.868001401424408
1779968352502480100,16.622480224609376,1.1234550476074219,10.37796401977539,-0.07800161838531494
1779968352518795000,16.638794921875,-3.6441354751586914,7.626770973205566,1.7578136920928955
1779968352535149800,16.65514990234375,-0.9062440991401672,2.8827686309814453,3.4723587036132812
1779968352551473700,16.6714736328125,2.4015817642211914,-5.5490522384643555,4.985246658325195
1779968352567809000,16.68780908203125,8.541369438171387,-18.83116340637207,6.1573686599731445
1779968352584136700,16.70413671875,9.061763763427734,-33.7582893371582,2.5531864166259766
1779968352600449500,16.720449462890624,4.200551986694336,-34.64777374267578,1.0766782760620117
1779968352616814000,16.73681396484375,-2.699104070663452,-28.986366271972656,1.5509305000305176
1779968352633103600,16.753103515625,-14.041738510131836,-7.297028541564941,2.493053436279297
1779968352649459500,16.76945947265625,-5.261023998260498,0.19132614135742188,-0.9439976215362549
1779968352665789400,16.78578955078125,-0.9192800521850586,1.1168217658996582,-2.9995853900909424
1779968352682123000,16.802123046875,2.383543014526367,4.087871074676514,-4.075833320617676
1779968352698453200,16.818453369140624,0.6549201011657715,7.312677383422852,1.736374020576477
1779968352714769700,16.834769775390626,-5.902035236358643,8.822086334228516,5.2430500984191895
1779968352731119400,16.851119384765624,-7.498867988586426,11.997879028320312,4.00518798828125
1779968352747451100,16.867451171875,-8.193512916564941,12.549378395080566,2.3095290660858154
1779968352763783000,16.883782958984376,-10.226001739501953,12.166509628295898,1.350669026374817
1779968352780115500,16.900115478515627,-8.2125825881958,11.449933052062988,0.9889912605285645
1779968352796446700,16.91644677734375,-6.5486578941345215,11.730484962463379,1.0509487390518188
1779968352812763400,16.932763427734375,-4.723020076751709,10.686610221862793,0.9193601608276367
1779968352829116700,16.94911669921875,0.01089024543762207,9.801198959350586,1.2860740423202515
1779968352845431000,16.96543115234375,9.613302230834961,-7.360271453857422,2.2512028217315674
1779968352861794000,16.9817939453125,12.695623397827148,-10.66948413848877,-1.6999711990356445
1779968352878119000,16.998118896484375,-1.9657435417175293,-2.515165328979492,1.0711828470230103
1779968352894459400,17.01445947265625,-18.237247467041016,-2.963418960571289,5.3951826095581055
1779968352910785500,17.03078564453125,-15.253337860107422,-3.1732330322265625,6.903847694396973
1779968352927103500,17.047103515625,6.202528953552246,-4.86184024810791,7.33582878112793
1779968352943456500,17.06345654296875,-2.5302934646606445,2.453474998474121,6.430896759033203
1779968352959782400,17.079782470703126,-10.753500938415527,4.929852485656738,5.153802871704102
1779968352976111400,17.096111328125,-9.880047798156738,5.417374610900879,2.4117743968963623
1779968352992453000,17.112453125,-8.298271179199219,1.755180835723877,2.4419708251953125
1779968353008785000,17.128784912109374,-22.334272384643555,-17.489727020263672,2.586115598678589
1779968353025127700,17.145127685546875,-10.072525024414062,-36.79867172241211,-3.234739303588867
1779968353041443800,17.16144384765625,27.760894775390625,-25.6857852935791,-11.561853408813477
1779968353057778400,17.1777783203125,12.71686840057373,-8.916068077087402,-7.7226033210754395
1779968353074110000,17.19410986328125,1.8372859954833984,-3.8261680603027344,-4.943829536437988
1779968353090439400,17.210439453125,6.509016513824463,-3.724787712097168,-0.010580956935882568
1779968353106773500,17.2267734375,12.51341438293457,1.2887649536132812,4.415957450866699
1779968353123107300,17.243107421875,4.231257438659668,6.7589263916015625,6.957956790924072
1779968353139424800,17.2594248046875,6.16542387008667,6.342120170593262,5.497250080108643
1779968353155759000,17.275759033203126,5.998899459838867,5.798632621765137,-0.7354731559753418
1779968353172091100,17.292091064453125,6.140774726867676,5.563163757324219,-5.487489223480225
1779968353188421600,17.308421630859375,4.991636753082275,6.988252639770508,-5.810124397277832
1779968353204732400,17.324732421875,1.1064527034759521,8.345488548278809,-5.210041046142578
1779968353221087000,17.3410869140625,2.4366848468780518,10.755120277404785,-3.918288469314575
1779968353237404200,17.357404052734374,5.175777912139893,11.542017936706543,-2.3245861530303955
1779968353253748700,17.373748779296875,-0.3006918430328369,9.59761905670166,-2.150599241256714
1779968353270082600,17.39008251953125,-3.0432486534118652,4.69911003112793,-2.1886937618255615
1779968353286417000,17.4064169921875,2.39042329788208,-1.0223894119262695,-0.9557228088378906
1779968353302750200,17.422750244140627,0.13220737874507904,-4.995903968811035,0.4793483018875122
1779968353319077000,17.4390771484375,1.2667149305343628,-16.412586212158203,3.4252166748046875
1779968353335409000,17.455408935546874,5.321244716644287,-30.105770111083984,3.4378747940063477
1779968353351756000,17.471756103515624,6.081873893737793,-29.535659790039062,6.5936150550842285
1779968353368089600,17.488089599609374,0.7603163719177246,-15.113547325134277,8.974349975585938
1779968353384424000,17.504423828125,-3.1036534309387207,-12.694104194641113,9.146804809570312
1779968353400751000,17.520751220703126,-1.033719539642334,-8.665627479553223,0.9562099575996399
1779968353417076500,17.537076416015626,-2.0048980712890625,-7.357428550720215,-3.190591812133789
1779968353433419300,17.553419189453123,-4.263167381286621,-6.849177360534668,-3.949087619781494
1779968353449761300,17.56976123046875,-2.5960230827331543,0.667841911315918,-2.3997206687927246
1779968353466081500,17.58608154296875,-5.958192825317383,4.57275390625,1.5227582454681396
1779968353482403600,17.602403564453127,-8.390174865722656,11.8145751953125,3.012913227081299
1779968353498750200,17.618750244140625,-10.379837036132812,18.169052124023438,3.375875473022461
1779968353515065900,17.63506591796875,-8.9764404296875,20.462200164794922,3.5620105266571045
1779968353531412500,17.65141259765625,-10.633323669433594,18.29927635192871,3.3146958351135254
1779968353547746600,17.66774658203125,-7.1712846755981445,16.467235565185547,0.23006334900856018
1779968353564076300,17.684076171875,-0.9624111652374268,15.614502906799316,-0.570302426815033
1779968353580392000,17.700391845703123,4.924692153930664,12.225032806396484,0.6058790683746338
1779968353596744200,17.716744140625,6.883665084838867,-2.306046485900879,1.4744675159454346
1779968353613074700,17.73307470703125,12.819395065307617,-17.325695037841797,-1.1650696992874146
1779968353629390300,17.749390380859374,15.548280715942383,-11.225912094116211,0.17346978187561035
1779968353645726000,17.765725830078125,-21.125165939331055,-5.733551979064941,3.930269718170166
1779968353662043400,17.78204345703125,-22.7355899810791,-9.748939514160156,7.746453285217285
1779968353678378200,17.798378173828127,3.5085065364837646,-13.203267097473145,9.951563835144043
1779968353694726000,17.814725830078125,0.6375522613525391,6.523196220397949,7.259535789489746
1779968353711054000,17.83105419921875,-7.021910667419434,10.003259658813477,5.6062421798706055
1779968353727407900,17.847407958984373,-10.911415100097656,8.813767433166504,5.558503150939941
1779968353743718000,17.8637177734375,-4.132987022399902,5.480032920837402,6.716452598571777
1779968353760054300,17.88005419921875,-6.992486000061035,-5.142332077026367,9.720051765441895
1779968353776383700,17.8963837890625,-31.26001739501953,-38.135231018066406,6.04716157913208
1779968353792714500,17.912714599609377,6.8112006187438965,-35.58997344970703,-6.913811206817627
1779968353809054000,17.929053955078125,33.809600830078125,-16.518939971923828,-11.971148490905762
1779968353825371000,17.945370849609375,10.691595077514648,-4.379852294921875,-6.260985374450684
1779968353841712600,17.961712646484376,5.193120956420898,-0.06099510192871094,-2.0926361083984375
1779968353858068000,17.97806787109375,12.216700553894043,2.0219335556030273,3.6322851181030273
1779968353874387000,17.994386962890626,7.358802795410156,5.601709842681885,6.089710235595703
1779968353890726100,18.01072607421875,3.28964900970459,10.111854553222656,7.662564277648926
1779968353907058700,18.02705859375,6.391849517822266,9.05478286743164,1.9372742176055908
1779968353923372500,18.04337255859375,5.194120407104492,5.853306770324707,-4.369136810302734
1779968353939717400,18.05971728515625,6.022463798522949,6.778416156768799,-6.072330474853516
1779968353956068000,18.076068115234374,4.1070098876953125,7.477506160736084,-5.698531627655029
1779968353972376600,18.09237646484375,4.287550926208496,8.739733695983887,-4.132294654846191
1779968353988719000,18.108718994140624,4.354179382324219,8.925519943237305,-3.669524908065796
1779968354005034000,18.125033935546874,-1.3953592777252197,7.8214826583862305,-2.7862346172332764
1779968354021384000,18.141384033203124,-3.347888231277466,6.959390640258789,-1.233096957206726
1779968354037710000,18.1577099609375,2.5501537322998047,0.3678398132324219,-0.38670825958251953
1779968354054054100,18.17405419921875,1.4448626041412354,-5.061769485473633,0.9336279630661011
1779968354070377700,18.190377685546874,2.3717691898345947,-15.856963157653809,3.3284125328063965
1779968354086712300,18.20671240234375,2.2957162857055664,-26.998023986816406,2.6884872913360596
1779968354103045400,18.22304541015625,3.0970141887664795,-28.996292114257812,6.495997428894043
1779968354119358000,18.23935791015625,1.7745301723480225,-15.260335922241211,7.565052032470703
1779968354135695000,18.255695068359376,-4.737939834594727,-11.942069053649902,6.863943099975586
1779968354152027400,18.27202734375,1.1607673168182373,-10.524866104125977,-0.6620781421661377
1779968354168360400,18.2883603515625,-0.7711629867553711,-9.212552070617676,-4.265263557434082
1779968354184679000,18.304678955078124,-1.9828877449035645,-8.238344192504883,-2.106452703475952
1779968354201021200,18.321021240234376,-0.5407900810241699,-1.4204607009887695,-1.3791303634643555
1779968354217369600,18.33736962890625,-4.873132228851318,6.089591979980469,0.21477937698364258
1779968354233685000,18.35368505859375,-9.588129043579102,9.516342163085938,0.0707923173904419
1779968354250019800,18.370019775390624,-10.854150772094727,15.814949035644531,0.36768704652786255
1779968354266354200,18.386354248046874,-8.214495658874512,19.120777130126953,2.881866455078125
1779968354282686000,18.40268603515625,-7.710787773132324,19.155916213989258,5.3718037605285645
1779968354299018200,18.419018310546875,-3.7462425231933594,19.21817970275879,4.708815574645996
1779968354315350300,18.435350341796877,-1.5898256301879883,15.083763122558594,5.029056549072266
1779968354331672300,18.45167236328125,4.403777599334717,10.85572624206543,2.688403367996216
1779968354348012800,18.4680126953125,5.404599189758301,-3.699801445007324,2.998270034790039
1779968354364361200,18.484361328125,14.856059074401855,-14.4519624710083,-1.9550377130508423
1779968354380678100,18.50067822265625,5.259018898010254,-3.1816415786743164,-4.756196975708008
1779968354397024000,18.51702392578125,-16.847003936767578,1.4088902473449707,0.598335862159729
1779968354413342200,18.53334228515625,-22.683839797973633,-7.875997543334961,5.468878269195557
1779968354429691400,18.54969140625,-4.338471412658691,-17.571712493896484,11.73274040222168
1779968354445991200,18.5659912109375,3.355677843093872,1.9042754173278809,3.4720325469970703
1779968354462349600,18.582349609375,-2.2233548164367676,10.629152297973633,3.627469539642334
1779968354478670800,18.5986708984375,-11.54810905456543,8.05494499206543,5.052666187286377
1779968354495019300,18.615019287109376,-5.487877368927002,4.532216548919678,5.972371578216553
1779968354511335000,18.6313349609375,-10.968877792358398,-4.439990043640137,6.648285388946533
1779968354527683300,18.647683349609373,-25.30990982055664,-28.654850006103516,5.524885177612305
1779968354544039200,18.6640390625,8.793848991394043,-32.773746490478516,-5.421491622924805
1779968354560346400,18.680346435546873,35.68035125732422,-21.31723403930664,-11.3222074508667
1779968354576663800,18.696663818359376,10.351318359375,-7.93231201171875,-7.225559711456299
1779968354593014300,18.71301416015625,3.4120383262634277,-3.530694007873535,-4.1647539138793945
1779968354609325300,18.7293251953125,11.239155769348145,1.3503875732421875,3.01401948928833
1779968354625666000,18.745666015625,7.362457752227783,5.792576313018799,7.491899490356445
1779968354641994200,18.761994140625,5.115848064422607,10.034006118774414,7.999618053436279
1779968354658315800,18.778315673828125,7.323760986328125,7.471463203430176,1.7161715030670166
1779968354674659600,18.79465966796875,8.095357894897461,5.334812164306641,-5.6783857345581055
1779968354690993200,18.8109931640625,5.589256286621094,5.795530319213867,-7.570740222930908
1779968354707337200,18.827337158203125,1.1912733316421509,6.037372589111328,-6.902022361755371
1779968354723670800,18.8436708984375,3.7227370738983154,8.407243728637695,-4.897364139556885
1779968354739989500,18.859989501953127,5.626154899597168,10.549675941467285,-2.783757209777832
1779968354756322300,18.876322265625,-2.30033540725708,8.57251262664795,-2.006819725036621
1779968354772654600,18.892654541015624,-7.7577385902404785,8.370479583740234,-0.9255248308181763
1779968354788987000,18.90898681640625,0.12163645029067993,3.57534122467041,0.3715474605560303
1779968354805316000,18.925316162109375,3.740600109100342,-4.484541893005371,1.5968823432922363
1779968354821654500,18.941654541015627,3.6965789794921875,-12.994869232177734,3.8214211463928223
1779968354837984000,18.95798388671875,3.425401449203491,-21.326797485351562,7.976809024810791
1779968354854329900,18.974329833984374,2.32739520072937,-29.44378662109375,5.69924259185791
1779968354870656800,18.99065673828125,6.265695571899414,-24.10523223876953,6.48088264465332
1779968354886988500,19.006988525390625,-0.9454700946807861,-19.14625358581543,3.429975986480713
1779968354903328800,19.023328857421873,-5.382002830505371,-13.647797584533691,-3.9320898056030273
1779968354919659800,19.03965966796875,-3.8466546535491943,-5.354166030883789,-5.784943580627441
1779968354935991300,19.0559912109375,1.3651127815246582,-3.4341888427734375,-2.139995574951172
1779968354952321800,19.07232177734375,-2.627332925796509,4.381980895996094,0.4005827307701111
1779968354968631600,19.088631591796876,-6.159381866455078,8.103996276855469,2.133007287979126
1779968354984979700,19.104979736328126,-9.920886039733887,11.52990436553955,0.5971915125846863
1779968355001319200,19.121319091796874,-10.858627319335938,16.325626373291016,1.0905736684799194
1779968355017652200,19.13765234375,-10.725191116333008,17.935304641723633,2.7205235958099365
1779968355033984300,19.153984375,-10.464406967163086,17.46698760986328,3.9748194217681885
1779968355050293000,19.17029296875,-3.822633743286133,18.58023452758789,4.033466339111328
1779968355066652000,19.18665185546875,-1.1388800144195557,14.291263580322266,4.7317914962768555
1779968355082980400,19.20298046875,3.4490723609924316,12.3446044921875,3.0192623138427734
1779968355099296300,19.219296142578123,12.960367202758789,-8.483793258666992,5.472323894500732
1779968355115630800,19.235630859375,21.629209518432617,-19.924680709838867,-0.05295407772064209
1779968355131967200,19.25196728515625,-30.110881805419922,-18.350963592529297,-3.3699843883514404
1779968355148297000,19.268296875,-15.93881607055664,-10.61178207397461,-3.2209572792053223
1779968355164629800,19.284629638671873,5.493546962738037,-2.4795970916748047,3.8216552734375
1779968355180958700,19.300958740234375,-3.670189619064331,10.707716941833496,6.577030181884766
1779968355197313800,19.317313720703126,-10.461956024169922,10.962191581726074,7.018273830413818
1779968355213634600,19.333634521484374,-11.512235641479492,8.484747886657715,4.4106855392456055
1779968355229958100,19.349958251953126,-7.3936052322387695,3.37131404876709,3.4627251625061035
1779968355246297000,19.366297119140626,-21.042619705200195,-23.066524505615234,5.690062999725342
1779968355262617900,19.382617919921874,-7.7636590003967285,-39.04670715332031,-2.7360572814941406
1779968355278955500,19.39895556640625,14.787668228149414,-27.43360137939453,-10.090147972106934
1779968355295288300,19.415288330078123,23.43910789489746,-7.388908386230469,-8.488415718078613
1779968355311619800,19.431619873046873,9.303696632385254,-4.45035457611084,-0.8447678685188293
1779968355327969300,19.44796923828125,11.373827934265137,-1.9799995422363281,6.079502105712891
1779968355344279600,19.464279541015625,5.971254348754883,4.854541778564453,8.879586219787598
1779968355360634600,19.480634521484376,5.579760551452637,8.861719131469727,8.726619720458984
1779968355376963000,19.496963134765625,6.542397975921631,6.677753448486328,-2.4223203659057617
1779968355393293800,19.5132939453125,6.817654609680176,7.076205253601074,-6.878108501434326
1779968355409626000,19.529626220703125,2.1715903282165527,7.772216320037842,-7.451916217803955
1779968355425943600,19.545943603515624,1.6521971225738525,9.138795852661133,-6.674381256103516
1779968355442276400,19.5622763671875,3.61545729637146,9.660032272338867,-4.600433349609375
1779968355458623000,19.578623046875,2.4545838832855225,10.003045082092285,-2.3820607662200928
1779968355474944500,19.594944580078124,-2.0303211212158203,8.739692687988281,-2.3179702758789062
1779968355491272700,19.611272705078125,-6.758139133453369,6.558377265930176,-2.331244945526123
1779968355507620900,19.627620849609375,1.5632426738739014,0.1783924102783203,-2.1487441062927246
1779968355523949600,19.643949462890625,2.6717991828918457,-4.836920738220215,-1.7986726760864258
1779968355540284000,19.660283935546875,1.106390118598938,-12.00318431854248,-0.05460762977600098
1779968355556609500,19.676609619140624,-0.266679048538208,-23.75057601928711,2.8992578983306885
1779968355572957200,19.692957275390626,4.12946081161499,-31.28619956970215,4.9187493324279785
1779968355589266700,19.7092666015625,2.1107516288757324,-22.074337005615234,5.006336212158203
1779968355605591300,19.72559130859375,-1.0499534606933594,-12.17768669128418,5.196463584899902
1779968355621933800,19.741933837890624,-4.859821319580078,-8.339803695678711,2.1441822052001953
1779968355638266400,19.758266357421874,-2.4734928607940674,-5.562270164489746,-2.7284669876098633
1779968355654598400,19.774598388671876,0.23415184020996094,-5.625265121459961,-3.2844901084899902
1779968355670930400,19.790930419921875,-0.41609716415405273,0.8686990737915039,-1.131319284439087
1779968355687273000,19.80727294921875,-6.961554527282715,7.483708381652832,1.9994522333145142
1779968355703609600,19.823609619140626,-10.822542190551758,11.633419036865234,3.0758464336395264
1779968355719921200,19.839921142578124,-11.13169002532959,16.968448638916016,3.515932083129883
1779968355736263000,19.856262939453124,-11.033424377441406,18.578773498535156,3.5473382472991943
1779968355752591600,19.872591552734374,-8.320302963256836,18.57796859741211,4.057803630828857
1779968355768924400,19.88892431640625,-5.131594657897949,18.225069046020508,1.4719396829605103
1779968355785256200,19.905256103515626,-0.9524128437042236,14.063079833984375,1.7954151630401611
1779968355801589500,19.921589599609376,3.4599196910858154,8.883062362670898,-0.2426968216896057
1779968355817924000,19.937924072265623,8.933004379272461,-10.947104454040527,0.28631967306137085
1779968355834266000,19.95426611328125,18.184066772460938,-13.230685234069824,-1.620177984237671
1779968355850598100,19.97059814453125,1.7835521697998047,-1.9048643112182617,-4.74603796005249
1779968355866926800,19.9869267578125,-21.538848876953125,3.1906938552856445,3.6736719608306885
1779968355883263200,20.00326318359375,-22.33821678161621,-7.855302810668945,6.579549789428711
1779968355899600000,20.019599853515626,4.687709808349609,-19.22054672241211,11.019874572753906
1779968355915928300,20.03592822265625,3.3032915592193604,-2.1850624084472656,5.769352912902832
1779968355932259000,20.052259033203125,-11.729701042175293,6.224291801452637,2.135772466659546
1779968355948593200,20.06859326171875,-12.677814483642578,6.794534683227539,1.3151719570159912
1779968355964904200,20.084904296875,-6.578012466430664,1.6385326385498047,2.4923317432403564
1779968355981260300,20.10126025390625,-13.154728889465332,-21.74578857421875,3.2740893363952637
1779968355997591800,20.117591796875,-4.30336856842041,-35.58312225341797,-4.571436882019043
1779968356013923000,20.133923095703125,9.51585865020752,-21.76654052734375,-9.047588348388672
1779968356030238000,20.150238037109375,24.01003074645996,-3.5478134155273438,-9.404496192932129
1779968356046585000,20.166585205078125,7.569961071014404,0.15073585510253906,-2.5154948234558105
1779968356062919000,20.1829189453125,6.600098609924316,-1.583780288696289,1.7277201414108276
1779968356079250700,20.199250732421874,8.974358558654785,1.960578441619873,4.268494606018066
1779968356095567000,20.215567138671876,0.8360202312469482,8.41310977935791,6.767114162445068
1779968356111905500,20.231905517578124,2.8878254890441895,12.449896812438965,7.290806293487549
1779968356128234800,20.24823486328125,9.888448715209961,6.721347808837891,-4.5237579345703125
1779968356144553700,20.2645537109375,7.484155654907227,4.340244770050049,-7.586977005004883
1779968356160899000,20.280899169921874,1.200385570526123,7.362641334533691,-6.315579891204834
1779968356177246500,20.29724658203125,1.0495295524597168,9.47469425201416,-4.6240620613098145
1779968356193578200,20.313578125,3.333404064178467,10.494343757629395,-2.348609209060669
1779968356209904400,20.329904296875,3.2163147926330566,10.482151985168457,-1.8576881885528564
1779968356226225400,20.346225341796874,-3.124692678451538,8.36323070526123,-1.59329354763031
1779968356242558700,20.362558837890624,-5.487101078033447,4.122654438018799,-0.4106922149658203
1779968356258896000,20.378895751953124,-0.5629256367683411,-2.988903045654297,-0.76788330078125
1779968356275223300,20.395223388671877,3.3932573795318604,-12.68175983428955,-0.9014098644256592
1779968356291558000,20.411557861328124,5.491605281829834,-28.744827270507812,1.529306173324585
1779968356307887400,20.427887451171873,6.3373517990112305,-29.149953842163086,4.990427017211914
1779968356324225000,20.44422509765625,1.859811544418335,-19.811622619628906,6.360601902008057
1779968356340564500,20.460564453125,-2.4073708057403564,-9.754626274108887,7.576255798339844
1779968356356885000,20.476885009765624,-5.375900745391846,-8.389771461486816,6.422214984893799
1779968356373234400,20.493234375,-1.3367128372192383,-6.0233917236328125,-0.2478325366973877
1779968356389538600,20.50953857421875,-1.653153896331787,-5.581136703491211,-3.1989383697509766
1779968356405896700,20.525896728515626,-0.06607627868652344,-1.1026124954223633,-3.943315267562866
1779968356422213600,20.542213623046877,-3.4378511905670166,3.913567066192627,0.29342710971832275
1779968356438559700,20.558559814453126,-9.797383308410645,6.465422630310059,2.869011640548706
1779968356454889000,20.574888916015624,-10.515384674072266,12.856928825378418,3.9204001426696777
1779968356471229200,20.591229248046876,-8.508609771728516,17.916669845581055,4.83701229095459
1779968356487537400,20.607537353515625,-8.651622772216797,18.866130828857422,5.054255962371826
1779968356503888400,20.623888427734375,-4.522580623626709,18.317848205566406,3.1714110374450684
1779968356520189700,20.640189697265626,-1.8634287118911743,16.272785186767578,1.6387829780578613
1779968356536555500,20.656555419921876,2.6131341457366943,12.986845970153809,2.0341734886169434
1779968356552881000,20.672880859375,3.7273049354553223,6.004380226135254,0.6493635773658752
1779968356569212700,20.689212646484375,9.309194564819336,-10.99272346496582,1.0834208726882935
1779968356585522400,20.7055224609375,21.30324935913086,-12.917906761169434,3.169497013092041
1779968356601858000,20.721858154296875,-9.094867706298828,-19.926021575927734,1.6546446084976196
1779968356618203600,20.73820361328125,-21.089094161987305,-13.853322982788086,-0.6929595470428467
1779968356634536000,20.754535888671874,-9.060998916625977,-8.252725601196289,6.256929874420166
1779968356650867500,20.770867431640625,-5.193864822387695,5.946262359619141,9.543347358703613
1779968356667214300,20.78721435546875,-8.720115661621094,12.220972061157227,6.097531318664551
1779968356683544000,20.8035439453125,-11.529229164123535,8.105062484741211,5.961023330688477
1779968356699876900,20.819876953125,-4.297885417938232,4.910163879394531,5.753339767456055
1779968356716191000,20.83619091796875,-5.151034355163574,-4.065759658813477,7.934968948364258
1779968356732527900,20.85252783203125,-22.210067749023438,-35.534053802490234,8.11664867401123
1779968356748864800,20.86886474609375,12.169511795043945,-32.83261489868164,-7.116399765014648
1779968356765194500,20.885194580078124,19.325143814086914,-14.644830703735352,-9.203946113586426
