time,seconds_elapsed,z,y,x
1779968335884399400,0.0043994140625,0.5870414972305298,0.3176499307155609,0.1892155110836029
1779968335900730600,0.020730712890625,0.9060658812522888,0.8437576293945312,1.818698525428772
1779968335912978700,0.032978759765625,1.1301007270812988,1.3451253175735474,2.841745138168335
1779968335929314600,0.049314453125,1.1362093687057495,1.9216293096542358,3.0976977348327637
1779968335945634800,0.065634765625,1.2321151494979858,1.608102798461914,3.023324728012085
1779968335961985300,0.0819853515625,1.1939361095428467,0.44135013222694397,2.5329527854919434
1779968335978309000,0.09830908203125,1.020603060722351,0.3459024429321289,1.6300939321517944
1779968335994647800,0.114647705078125,0.8692612648010254,1.0900890827178955,0.6612616181373596
1779968336010976300,0.130976318359375,0.7622070908546448,1.665218710899353,-0.3831652104854584
1779968336027303200,0.14730322265625,0.8080220222473145,0.551916778087616,-1.5916093587875366
1779968336043641000,0.16364111328125,0.9680687189102173,-0.38087448477745056,-2.3713788986206055
1779968336059988700,0.17998876953125,1.3535246849060059,0.07895433157682419,-2.741715908050537
1779968336076317400,0.1963173828125,1.7302757501602173,1.0737483501434326,-2.9301679134368896
1779968336092647700,0.212647705078125,1.4753923416137695,1.9576704502105713,-2.7177395820617676
1779968336108985600,0.228985595703125,1.0012081861495972,1.6901113986968994,-2.055103302001953
1779968336125308700,0.24530859375,0.8910996913909912,0.43615779280662537,-1.1595749855041504
1779968336141653800,0.26165380859375,0.8462010622024536,0.1385136991739273,-0.7576256394386292
1779968336157974800,0.277974853515625,0.8020660877227783,0.289702832698822,-0.8930850028991699
1779968336174316800,0.29431689453125,0.6711881756782532,0.5064072608947754,-1.0221302509307861
1779968336190641400,0.310641357421875,0.4398229718208313,0.769079327583313,-1.0560332536697388
1779968336206976800,0.326976806640625,0.3101668357849121,1.156978726387024,-1.1366674900054932
1779968336223291000,0.343290771484375,0.32498031854629517,1.7270687818527222,-1.3475687503814697
1779968336239647000,0.35964697265625,0.2684752643108368,2.951090097427368,-1.7078264951705933
1779968336255973000,0.37597314453125,0.3549126982688904,3.3521230220794678,-1.995696783065796
1779968336272328200,0.392328125,0.2623666226863861,2.8214337825775146,-1.6284140348434448
1779968336288629800,0.408629638671875,0.0835358202457428,2.6028966903686523,-1.2275336980819702
1779968336304962600,0.424962646484375,-0.006108652334660292,2.9584202766418457,-1.3228286504745483
1779968336321299700,0.4412998046875,-0.1973094791173935,3.1332805156707764,-1.3295482397079468
1779968336337642500,0.457642578125,-0.2967278063297272,2.774244546890259,-1.183704137802124
1779968336353966600,0.473966552734375,-0.19883663952350616,1.9642372131347656,-0.9317222237586975
1779968336370285800,0.490285888671875,0.2025018334388733,0.9738719463348389,-0.6359107494354248
1779968336386632200,0.506632080078125,0.9201157689094543,-0.8274169564247131,-0.6951646208763123
1779968336402931200,0.52293115234375,1.2977832555770874,-0.5250386595726013,-1.2541064023971558
1779968336419297800,0.5392978515625,0.8840747475624084,1.6559029817581177,-2.191937208175659
1779968336435614700,0.55561474609375,0.09926560521125793,2.8428142070770264,-2.655125856399536
1779968336451947000,0.571947021484375,-0.6418666839599609,1.9556851387023926,-2.3095288276672363
1779968336468279000,0.588279052734375,-1.0403034687042236,-1.1510227918624878,-1.344361662864685
1779968336484615400,0.604615478515625,-0.8600982427597046,-5.9699859619140625,-0.3695734739303589
1779968336500943600,0.620943603515625,-0.16722436249256134,-4.549571514129639,-1.2637274265289307
1779968336517275600,0.637275634765625,-0.17287486791610718,-1.7843374013900757,-2.0560197830200195
1779968336533610200,0.6536103515625,-0.9714284539222717,-0.06841690838336945,-2.2936463356018066
1779968336549953000,0.669953125,-1.4860824346542358,0.671493649482727,-2.23897385597229
1779968336566306000,0.68630615234375,-1.4552336931228638,0.8362745046615601,-2.1261165142059326
1779968336582618400,0.702618408203125,-1.2328788042068481,0.5516113042831421,-2.13008713722229
1779968336598948600,0.718948486328125,-1.0737483501434326,0.21105393767356873,-2.152383804321289
1779968336615251700,0.735251708984375,-1.2220358848571777,0.23426681756973267,-2.0476202964782715
1779968336631613200,0.75161328125,-1.4494304656982422,0.23915374279022217,-1.882992148399353
1779968336647933400,0.767933349609375,-1.4130840301513672,1.0980303287506104,-1.8399261236190796
1779968336664278000,0.784278076171875,-1.189049243927002,2.0305161476135254,-2.322051525115967
1779968336680585200,0.800585205078125,-0.8170322775840759,2.529287576675415,-3.003777027130127
1779968336696942000,0.816942138671875,-0.4486805200576782,2.817005157470703,-3.64335298538208
1779968336713275000,0.83327490234375,-0.007788531947880983,2.7035367488861084,-3.7840046882629395
1779968336729599000,0.849598876953125,0.48319441080093384,1.8883371353149414,-3.448028802871704
1779968336745945000,0.865945068359375,0.7822129726409912,0.8541423082351685,-2.9659035205841064
1779968336762279200,0.882279052734375,0.6000223755836487,-0.10323622822761536,-2.6143505573272705
1779968336778598100,0.89859814453125,0.574976921081543,-0.5114469528198242,-2.7030787467956543
1779968336794942000,0.91494189453125,0.917061448097229,-0.616973876953125,-3.0941851139068604
1779968336811265500,0.931265625,1.2892310619354248,-0.4558582007884979,-3.4161112308502197
1779968336827599400,0.947599365234375,1.6487252712249756,0.15561792254447937,-3.319136381149292
1779968336843921200,0.963921142578125,1.4086552858352661,0.4001167416572571,-3.0805933475494385
1779968336860254000,0.98025390625,2.118786096572876,1.3587169647216797,-2.766303300857544
1779968336876595500,0.996595458984375,2.62076473236084,0.46929723024368286,-2.2290472984313965
1779968336892917200,1.012917236328125,2.9775099754333496,-0.40973785519599915,-1.947438359260559
1779968336909265000,1.029264892578125,2.3458752632141113,0.19807305932044983,-2.144136905670166
1779968336925573600,1.04557373046875,1.0806206464767456,1.4301882982254028,-1.771356463432312
1779968336941912000,1.061912109375,2.4158194065093994,0.23854288458824158,-1.4433218240737915
1779968336958241300,1.0782412109375,2.379014730453491,-0.8219192028045654,-0.6974554061889648
1779968336974576600,1.09457666015625,1.9078848361968994,0.7504479289054871,-1.303586483001709
1779968336990897200,1.110897216796875,2.127643585205078,1.1395691633224487,-2.0862574577331543
1779968337007242800,1.12724267578125,2.121993064880371,0.35735616087913513,-2.481792688369751
1779968337023561700,1.143561767578125,1.380402684211731,-0.46670106053352356,-2.5833492279052734
1779968337039921700,1.159921630859375,0.6401867866516113,-0.8775079250335693,-1.7026340961456299
1779968337056252400,1.17625244140625,-0.012217304669320583,-0.6801984310150146,-0.8759807348251343
1779968337072583700,1.192583740234375,-0.2583959996700287,-0.3674354553222656,-0.38896843791007996
1779968337088882400,1.20888232421875,-0.6382014751434326,-0.3988949954509735,0.06811147183179855
1779968337105254000,1.22525390625,-0.9920451641082764,0.9474520087242126,-0.25824329257011414
1779968337121575700,1.24157568359375,-0.5726861953735352,1.0389291048049927,-0.761443555355072
1779968337137918700,1.257918701171875,-0.5700899958610535,0.6001750826835632,-0.5551238059997559
1779968337154243600,1.27424365234375,-0.879493236541748,0.48426342010498047,-0.02626720629632473
1779968337170579200,1.2905791015625,-1.0257954597473145,0.9184358716011047,0.9118691086769104
1779968337186903300,1.3069033203125,-1.3406964540481567,-0.9946413636207581,-0.23121249675750732
1779968337203251000,1.3232509765625,-1.8594738245010376,-0.8439103364944458,-1.4477506875991821
1779968337219569700,1.339569580078125,-2.0221166610717773,-0.31352660059928894,-1.432326316833496
1779968337235905800,1.35590576171875,-1.650099754333496,-0.27977627515792847,-1.2817480564117432
1779968337252244200,1.372244140625,-1.2246321439743042,-0.28008171916007996,-1.2675453424453735
1779968337268580900,1.388580810546875,-1.2176071405410767,-0.010842857882380486,-0.8895725011825562
1779968337284898000,1.40489794921875,-1.5616769790649414,0.4639521539211273,-0.36651915311813354
1779968337301236500,1.421236572265625,-2.0755674839019775,0.931569516658783,-0.2099849283695221
1779968337317569300,1.4375693359375,-2.292119026184082,1.3704761266708374,0.10048733651638031
1779968337333896400,1.453896484375,-1.725236177444458,1.4912748336791992,0.2744311988353729
1779968337350235400,1.4702353515625,-1.425148606300354,1.0827586650848389,0.29794952273368835
1779968337366561500,1.4865615234375,-1.179580807685852,0.9027060866355896,0.2971859276294708
1779968337382883000,1.502883056640625,-1.1826350688934326,0.22510384023189545,1.0370965003967285
1779968337399227400,1.519227294921875,-1.32863187789917,1.297019600868225,1.313665747642517
1779968337415548000,1.5355478515625,-1.158505916595459,3.5749361515045166,1.5068517923355103
1779968337431876400,1.55187646484375,-0.46700647473335266,4.000709056854248,2.2574524879455566
1779968337448217900,1.5682177734375,0.11041389405727386,3.71574068069458,2.218815326690674
1779968337464543200,1.584543212890625,0.3959933817386627,4.787045478820801,1.545030951499939
1779968337480877000,1.600876953125,-0.05650503560900688,4.151440143585205,0.841008722782135
1779968337497208000,1.6172080078125,-0.7380779385566711,2.6862800121307373,0.30863967537879944
1779968337513543400,1.63354345703125,-1.592678427696228,2.146427869796753,-0.1385136991739273
1779968337529868000,1.649867919921875,-2.2634084224700928,1.640020489692688,-0.28267788887023926
1779968337546225000,1.666224853515625,-2.8397598266601562,0.9999864101409912,-0.0754418596625328
1779968337562540000,1.6825400390625,-3.358537197113037,0.3956879675388336,0.31154128909111023
1779968337578859500,1.698859619140625,-3.863569974899292,0.10033461451530457,0.5780312418937683
1779968337595216000,1.7152158203125,-3.576157808303833,-0.35216382145881653,0.027488935738801956
1779968337611539000,1.7315390625,-1.6733126640319824,-0.408974289894104,-0.7580837607383728
1779968337627881000,1.747880859375,-0.8993463516235352,-0.760832667350769,-0.6739370822906494
1779968337644206800,1.764206787109375,-1.294118046760559,-1.3261884450912476,0.016798794269561768
1779968337660537900,1.780537841796875,-1.303891897201538,-1.9423987865447998,0.048105638474226
1779968337676876300,1.796876220703125,-1.236696720123291,-1.9546160697937012,-0.26450464129447937
1779968337693213000,1.813212890625,-1.2463178634643555,-1.1850786209106445,-0.3839288055896759
1779968337709531600,1.82953173828125,-1.353830099105835,-0.5797111392021179,-0.5041165351867676
1779968337725882600,1.845882568359375,-1.4391984939575195,-0.21380282938480377,-0.6688974499702454
1779968337742200800,1.862200927734375,-1.3125966787338257,-0.9468411207199097,-1.289994716644287
1779968337758541300,1.878541259765625,-1.4141530990600586,-1.7922786474227905,-1.7731890678405762
1779968337774871300,1.894871337890625,-2.621070146560669,-2.3797783851623535,-1.0430524349212646
1779968337791201800,1.911201904296875,-2.995988607406616,-0.7997753024101257,-0.9744827747344971
1779968337807528400,1.927528564453125,-1.2095131874084473,0.07452555745840073,-0.9095783233642578
1779968337823873300,1.943873291015625,0.7916813492774963,-0.623235285282135,0.04260785132646561
1779968337840195000,1.960195068359375,1.3393220901489258,-2.107179641723633,1.4703526496887207
1779968337856535600,1.97653564453125,1.5402966737747192,-2.689028739929199,2.710103750228882
1779968337872859400,1.992859375,0.8535314798355103,-2.4272730350494385,2.7455339431762695
1779968337889171200,2.009171142578125,0.3225368559360504,-1.758375644683838,2.515542984008789
1779968337905515300,2.025515380859375,0.16844609379768372,-1.2278391122817993,2.4553728103637695
1779968337921837800,2.041837890625,-0.19517144560813904,-0.6739370822906494,2.6039657592773438
1779968337938178600,2.058178466796875,-0.8060367107391357,0.16752979159355164,2.724306344985962
1779968337954498300,2.074498291015625,-1.3683381080627441,1.458898901939392,2.794097661972046
1779968337970844000,2.090843994140625,-1.6323846578598022,2.676811456680298,2.8044822216033936
1779968337987175000,2.1071748046875,-1.398881435394287,3.177568197250366,2.791654109954834
1779968338003507000,2.1235068359375,-0.7063129544258118,0.49724429845809937,2.0781636238098145
1779968338019841000,2.139841064453125,-0.308792382478714,-2.690708637237549,1.2217304706573486
1779968338036183800,2.156183837890625,-0.3251330256462097,-3.481473684310913,1.2507466077804565
1779968338052522800,2.172522705078125,-0.1950187236070633,-2.5222625732421875,2.1000020503997803
1779968338068849200,2.18884912109375,0.05726861581206322,-1.183704137802124,2.3157901763916016
1779968338085182700,2.2051826171875,0.37720927596092224,-0.9150761365890503,1.8522961139678955
1779968338101513500,2.221513427734375,0.7658722996711731,-1.4121677875518799,1.4121677875518799
1779968338117853200,2.237853271484375,0.7531968355178833,-1.6812539100646973,1.404226541519165
1779968338134187500,2.2541875,0.6027712821960449,-1.9008599519729614,1.5905404090881348
1779968338150508000,2.270508056640625,0.475253164768219,-2.0004310607910156,1.7191275358200073
1779968338166831400,2.286831298828125,0.33368512988090515,-1.987450122833252,1.618945598602295
1779968338183174100,2.303174072265625,0.1420261710882187,-1.8263343572616577,1.4370604753494263
1779968338199492600,2.31949267578125,0.02871066704392433,-1.1945469379425049,1.1841622591018677
1779968338215841500,2.335841552734375,-0.12568552792072296,-0.6368269920349121,0.8289441466331482
1779968338232174300,2.35217431640625,-0.20586158335208893,-0.2695443034172058,0.5232060551643372
1779968338248505900,2.368505859375,-0.2557998299598694,-0.056352317333221436,0.33567044138908386
1779968338264818200,2.384818115234375,-0.24297164380550385,0.03848451003432274,0.24755313992500305
1779968338281172000,2.401171875,-0.19532416760921478,0.03390302136540413,0.2548835277557373
1779968338297500200,2.417500244140625,-0.17928895354270935,-0.10903944820165634,0.32620203495025635
1779968338313837000,2.433837158203125,-0.16050484776496887,-0.25244006514549255,0.4086688458919525
1779968338330161200,2.4501611328125,-0.13209961354732513,-0.3833179473876953,0.45295658707618713
1779968338346502400,2.46650244140625,-0.1385136991739273,-0.7121161818504333,0.48258355259895325
1779968338362828300,2.482828369140625,-0.09224065393209457,-1.0487029552459717,0.5164865851402283
1779968338379161000,2.4991611328125,0.006261368747800589,-1.328937292098999,0.5470298528671265
1779968338395485000,2.51548486328125,0.13668109476566315,-1.4205671548843384,0.5508477091789246
1779968338411814100,2.531814208984375,0.27977627515792847,-1.3179417848587036,0.44547349214553833
1779968338428147700,2.548147705078125,0.45784351229667664,-1.229519009590149,0.242513507604599
1779968338444477000,2.564476806640625,0.6294966340065002,-1.2554807662963867,-0.05910121276974678
1779968338460808000,2.580807861328125,0.8141306638717651,-1.2234103679656982,-0.527634859085083
1779968338477148200,2.597148193359375,0.9098837971687317,-1.2594513893127441,-0.8367326855659485
1779968338493474800,2.613474853515625,0.9039278626441956,-0.7359399199485779,-0.42898011207580566
1779968338509794800,2.629794921875,0.7893906235694885,0.2698497176170349,0.47907108068466187
1779968338526155500,2.646155517578125,-0.033139441162347794,1.775479793548584,0.7506006956100464
1779968338542453500,2.66245361328125,-0.7113525867462158,0.5076290369033813,-0.3413209617137909
1779968338558816300,2.678816162109375,-0.3061962127685547,0.737772524356842,-0.7628179788589478
1779968338575133400,2.695133544921875,-0.06734789162874222,1.996002197265625,-1.3070988655090332
1779968338591482400,2.711482421875,-0.5516113042831421,1.6224581003189087,-1.0505355596542358
1779968338607813000,2.727813232421875,-0.13836097717285156,1.4511103630065918,-1.341460108757019
1779968338624150000,2.74414990234375,0.25014930963516235,3.8231000900268555,-2.4966063499450684
1779968338640450800,2.760450927734375,-0.1488984078168869,5.3617167472839355,-2.975524663925171
1779968338656846600,2.7768466796875,-0.959669291973114,4.470006465911865,-2.610074520111084
1779968338673147400,2.7931474609375,-1.1226176023483276,3.102126359939575,-2.5298984050750732
1779968338689473500,2.8094736328125,-1.0453431606292725,2.967278003692627,-2.4579689502716064
1779968338705806300,2.825806396484375,-1.1523972749710083,2.7317893505096436,-2.638174295425415
1779968338722139100,2.84213916015625,-1.4230105876922607,2.806162118911743,-3.1841351985931396
1779968338738468900,2.85846875,-1.5919147729873657,2.7739391326904297,-4.164268493652344
1779968338754809000,2.87480908203125,-1.8781051635742188,2.495231866836548,-4.955491542816162
1779968338771132200,2.891132080078125,-1.0900890827178955,0.2539672255516052,-4.625166416168213
1779968338787472400,2.907472412109375,0.6777549982070923,-1.7609717845916748,-4.463439464569092
1779968338803797500,2.923797607421875,1.5111279487609863,0.6227771043777466,-4.945565223693848
1779968338820123400,2.940123291015625,1.4723379611968994,2.5841126441955566,-4.662734508514404
1779968338836463900,2.9564638671875,0.797789990901947,1.4451544284820557,-3.2365167140960693
1779968338852783900,2.972783935546875,-0.33505958318710327,-1.0198395252227783,-2.3886358737945557
1779968338869128000,2.9891279296875,-0.6638578176498413,-2.1754438877105713,-1.829694151878357
1779968338885435600,3.005435546875,-0.4092797040939331,1.6510159969329834,-1.288467526435852
1779968338901780500,3.021780517578125,-0.37369680404663086,3.204293727874756,-0.14187344908714294
1779968338918113800,3.03811376953125,-0.27641651034355164,2.8683178424835205,0.6679811477661133
1779968338934445300,3.0544453125,-0.035582900047302246,2.4379632472991943,0.9106473922729492
1779968338950777300,3.07077734375,0.3588833212852478,1.6945401430130005,0.8300131559371948
1779968338967109600,3.087109619140625,0.837496280670166,0.7748825550079346,0.6965391039848328
1779968338983441700,3.103441650390625,1.03037691116333,-0.10186178237199783,0.6357579827308655
1779968338999776300,3.1197763671875,1.0905472040176392,-0.1014036312699318,1.6464345455169678
1779968339016120300,3.136120361328125,1.291369080543518,-0.7154759168624878,3.208111524581909
1779968339032454700,3.15245458984375,1.6165021657943726,-2.017840623855591,4.306752681732178
1779968339048780000,3.168780029296875,2.3070852756500244,-3.2055153846740723,4.209319591522217
1779968339065134300,3.18513427734375,2.903595209121704,-3.9060251712799072,3.735288143157959
1779968339081445400,3.2014453125,2.6875016689300537,-3.770871162414551,3.405421018600464
1779968339097783800,3.21778369140625,-0.247094988822937,-4.168697357177734,3.784921169281006
1779968339114112800,3.23411279296875,-3.6439638137817383,-3.4184019565582275,4.952284336090088
1779968339130427000,3.250427001953125,-3.928016185760498,-1.1910345554351807,5.831014156341553
1779968339146752500,3.26675244140625,-1.5322027206420898,-0.10002918541431427,5.365076541900635
1779968339163095300,3.28309521484375,0.5369505286216736,-1.0335839986801147,4.343099117279053
1779968339179424300,3.29942431640625,0.6356052756309509,-0.8642216324806213,3.891364336013794
1779968339195782400,3.315782470703125,0.7409795522689819,-1.0787880420684814,2.867554187774658
1779968339212108000,3.33210791015625,0.5983424782752991,-1.6931657791137695,1.3724614381790161
1779968339228449300,3.34844921875,0.5572618246078491,-1.610698938369751,0.17333301901817322
1779968339244737500,3.364737548828125,0.5201517343521118,-1.3045027256011963,-0.8907942175865173
1779968339261109800,3.38110986328125,-0.1160643994808197,-0.8732318878173828,-1.7426458597183228
1779968339277434000,3.39743408203125,-0.8283332586288452,-0.15515977144241333,-1.9857702255249023
1779968339293769200,3.413769287109375,-1.3483322858810425,0.5054910182952881,-2.3541219234466553
1779968339310101500,3.4301015625,-1.3173309564590454,1.0790934562683105,-3.090519905090332
1779968339326431700,3.446431640625,-0.9395107626914978,2.769815683364868,-3.285844087600708
1779968339342761000,3.462760986328125,-0.2548835277557373,4.125173091888428,-3.456428289413452
1779968339359096000,3.479095947265625,-0.08032877743244171,4.925253868103027,-3.3006577491760254
1779968339375421200,3.495421142578125,-0.5224425196647644,4.389983177185059,-0.6107125282287598
1779968339391743000,3.511742919921875,-0.5455026626586914,2.7004826068878174,4.196338653564453
1779968339408080000,3.528079833984375,0.0032070425804704428,3.306002616882324,1.2928962707519531
1779968339424413700,3.54441357421875,1.1239920854568481,1.3735305070877075,-2.464535713195801
1779968339440740600,3.56074072265625,0.4807509481906891,1.2759448289871216,-2.0054705142974854
1779968339457079600,3.57707958984375,-0.5062545537948608,2.774244546890259,-1.1895073652267456
1779968339473408000,3.593407958984375,-0.9065240025520325,2.0760254859924316,-2.225076675415039
1779968339489740800,3.60974072265625,-2.1342103481292725,2.8464794158935547,-2.269975185394287
1779968339506077200,3.6260771484375,-2.7542386054992676,1.9715676307678223,-2.31945538520813
1779968339522402600,3.642402587890625,-3.0447051525115967,-0.10247264802455902,-2.6025912761688232
1779968339538750000,3.65875,-2.3043363094329834,-4.019798755645752,-2.651766061782837
1779968339555055000,3.67505517578125,-0.3248275816440582,-4.124409198760986,-5.115538120269775
1779968339571415600,3.69141552734375,1.9643899202346802,1.4928019046783447,-5.054757118225098
1779968339587749400,3.707749267578125,2.4214699268341064,3.550806999206543,-4.066224575042725
1779968339604078300,3.724078369140625,1.1823296546936035,2.2154555320739746,-2.740952253341675
1779968339620411100,3.7404111328125,0.5592471361160278,0.19456058740615845,-1.8642079830169678
1779968339636729000,3.75672900390625,-0.25961771607398987,-0.4948008358478546,-1.7536413669586182
1779968339653076500,3.773076416015625,-0.9914342761039734,-1.2345587015151978,-1.183398723602295
1779968339669407700,3.78940771484375,-0.9567676782608032,0.05253441259264946,-0.8300131559371948
1779968339685742600,3.80574267578125,-0.6681338548660278,0.6562219858169556,-0.5335907936096191
1779968339702073900,3.822073974609375,-0.6236934065818787,1.5312864780426025,0.5177083015441895
1779968339718404400,3.838404296875,-0.04184427112340927,1.8009834289550781,0.6798930168151855
1779968339734748700,3.854748779296875,0.7041749358177185,0.5745187401771545,0.6769914031028748
1779968339751075600,3.87107568359375,1.2586878538131714,-0.8124507665634155,0.8559749126434326
1779968339767399200,3.887399169921875,1.5210545063018799,-0.8839219808578491,1.3338242769241333
1779968339783735000,3.903735107421875,1.536784291267395,-1.2341004610061646,2.052049160003662
1779968339800051500,3.920051513671875,1.4508049488067627,-2.5198190212249756,3.0602822303771973
1779968339816402000,3.93640185546875,1.8512271642684937,-3.9098429679870605,4.030641555786133
1779968339832711200,3.952711181640625,2.5868616104125977,-4.490928649902344,3.851963520050049
1779968339849035800,3.969035888671875,2.995835781097412,-4.159839630126953,3.4628424644470215
1779968339865385000,3.985385009765625,1.4981470108032227,-2.55754017829895,3.7116172313690186
1779968339881712600,4.001712646484375,-2.2438607215881348,-1.057865858078003,4.89318323135376
1779968339898044000,4.0180439453125,-2.655278444290161,-0.9384417533874512,5.654779434204102
1779968339914373400,4.034373291015625,-1.3767375946044922,-1.066265344619751,5.16914176940918
1779968339930711600,4.050711669921875,0.41340306401252747,-1.0900890827178955,3.5075881481170654
1779968339947041500,4.06704150390625,0.9512699246406555,-1.6714800596237183,2.792112350463867
1779968339963378200,4.083378173828125,1.1323914527893066,-1.9740110635757446,2.177123785018921
1779968339979706600,4.09970654296875,0.6835582256317139,-1.9005545377731323,1.560302495956421
1779968339996040400,4.11604052734375,0.4980078935623169,-2.599231719970703,0.912938117980957
1779968340012392400,4.132392333984375,0.24755313992500305,-2.7391197681427,0.13759739696979523
1779968340028712400,4.14871240234375,-0.36392298340797424,-1.4970779418945312,-0.8602510094642639
1779968340045038000,4.1650380859375,-0.7988590002059937,-0.04459316283464432,-2.6894869804382324
1779968340061382000,4.1813818359375,-0.8355109095573425,1.5187636613845825,-4.111733913421631
1779968340077685200,4.197685302734375,-0.3865249752998352,3.7812559604644775,-4.45763635635376
1779968340094045700,4.214045654296875,-0.18845193088054657,5.5067973136901855,-3.9187004566192627
1779968340110363400,4.23036328125,-0.08078692853450775,5.549863338470459,-2.300823926925659
1779968340126713300,4.24671337890625,-0.7278459668159485,2.9263498783111572,2.250732898712158
1779968340143041800,4.263041748046875,-0.3006984293460846,0.6429356932640076,4.914105415344238
1779968340159376400,4.27937646484375,1.1381946802139282,2.1204659938812256,0.20036379992961884
1779968340175703300,4.295703369140625,2.283566951751709,0.9564622640609741,-3.5865426063537598
1779968340192048000,4.312048095703125,0.3880521357059479,2.871983051300049,-3.300046682357788
1779968340208365600,4.328365478515625,-0.27091872692108154,5.935625076293945,-1.2939653396606445
1779968340224705500,4.34470556640625,-0.5751296281814575,3.0831897258758545,-1.519832730293274
1779968340241039600,4.36103955078125,-1.4246904850006104,1.88864266872406,-1.1942415237426758
1779968340257365800,4.37736572265625,-2.5355489253997803,1.5250251293182373,-1.9081902503967285
1779968340273698800,4.39369873046875,-3.6199874877929688,1.109636664390564,-2.7960829734802246
1779968340290034700,4.41003466796875,-2.886796474456787,-2.1006128787994385,-1.220050573348999
1779968340306367700,4.42636767578125,-1.567480206489563,-6.665761470794678,-4.102112770080566
1779968340322699000,4.442698974609375,0.5396994352340698,-3.2221615314483643,-7.768526077270508
1779968340339028200,4.4590283203125,1.412778615951538,4.503756523132324,-4.977482795715332
1779968340355358200,4.475358154296875,1.0876455307006836,4.721072196960449,-1.9659171104431152
1779968340371679500,4.491679443359375,0.16081027686595917,1.6116151809692383,-1.5080735683441162
1779968340388017700,4.508017578125,-0.8717046976089478,0.09147707372903824,-1.581377387046814
1779968340404346000,4.52434619140625,-1.013272762298584,-0.3937026560306549,-1.1536190509796143
1779968340420676600,4.540676513671875,-0.9514226317405701,0.6867652535438538,-0.23273965716362
1779968340437011200,4.55701123046875,-0.9886853694915771,1.9065104722976685,0.8880453705787659
1779968340453320700,4.57332080078125,-0.4550946056842804,2.6138923168182373,1.3558154106140137
1779968340469674000,4.589674072265625,0.2658790946006775,1.6936239004135132,1.2736539840698242
1779968340486007600,4.606007568359375,0.7400632500648499,-0.1290452778339386,1.0438159704208374
1779968340502355000,4.62235498046875,1.0445796251296997,-1.1788171529769897,0.9758572578430176
1779968340518685400,4.638685546875,1.3713924884796143,-1.0755809545516968,1.630246639251709
1779968340535015700,4.655015625,1.3454307317733765,-1.7679967880249023,2.380847215652466
1779968340551359200,4.671359130859375,1.0059423446655273,-2.72965145111084,2.9515480995178223
1779968340567680500,4.687680419921875,1.1465940475463867,-3.0805933475494385,3.3993122577667236
1779968340584013000,4.704012939453125,2.362215995788574,-2.72491717338562,4.089284896850586
1779968340600329700,4.720329833984375,3.1917707920074463,-3.1202995777130127,4.3644795417785645
1779968340616679200,4.73667919921875,3.0250046253204346,-3.7110064029693604,4.284456253051758
1779968340633009400,4.753009521484375,-0.35384368896484375,-3.4875824451446533,3.6952764987945557
1779968340649338000,4.769338134765625,-2.3075435161590576,-2.6668848991394043,4.307210922241211
1779968340665676000,4.785676025390625,-1.2498302459716797,-1.0204503536224365,4.754822254180908
1779968340682008300,4.80200830078125,0.20265454053878784,-0.6479753255844116,3.8342485427856445
1779968340698338300,4.81833837890625,0.6820310354232788,-2.1452059745788574,3.1064023971557617
1779968340714689300,4.834689208984375,1.239292860031128,-2.4104743003845215,2.3849706649780273
1779968340730996500,4.85099658203125,1.3100005388259888,-0.9556986689567566,1.080162525177002
1779968340747343600,4.867343505859375,0.6285803318023682,-0.6788240075111389,-0.19822576642036438
1779968340763664600,4.88366455078125,0.294895201921463,-1.0192286968231201,-0.8378016948699951
1779968340780002600,4.90000244140625,-0.313373863697052,-1.0340421199798584,-1.2455542087554932
1779968340796333300,4.916333251953125,-0.8483390808105469,-1.009149432182312,-2.4520130157470703
1779968340812663600,4.93266357421875,-0.960280179977417,0.13607023656368256,-3.141069173812866
1779968340828978400,4.948978515625,-0.9511171579360962,2.1641428470611572,-3.1476359367370605
1779968340845317400,4.9653173828125,-0.7547240257263184,4.341419219970703,-2.8634307384490967
1779968340861648100,4.981648193359375,-0.5934556126594543,5.557499408721924,-2.465452194213867
1779968340877981200,4.997981201171875,-0.849255383014679,4.1494550704956055,0.21380282938480377
1779968340894313000,5.01431298828125,-0.31154128909111023,1.6423112154006958,3.871511220932007
1779968340910643200,5.030643310546875,0.49098294973373413,2.0198259353637695,1.6171129941940308
1779968340926978600,5.046978515625,1.236391305923462,2.498744249343872,-1.2930489778518677
1779968340943308800,5.063308837890625,1.475545048713684,2.5867087841033936,-1.5473216772079468
1779968340959643600,5.0796435546875,-0.8338310718536377,1.7004960775375366,-2.595871925354004
1779968340975966700,5.095966796875,-3.081204414367676,2.1821634769439697,-2.7843236923217773
1779968340992290300,5.112290283203125,-1.7901406288146973,3.135265827178955,-2.8289170265197754
1779968341008650800,5.128650634765625,-1.666593074798584,2.147038698196411,-2.001194477081299
1779968341024965000,5.144965087890625,-2.375654935836792,-0.5056437253952026,-1.5871806144714355
1779968341041336300,5.16133642578125,-2.1759018898010254,-2.8397598266601562,-1.3947581052780151
1779968341057653000,5.177653076171875,-0.9288206100463867,-3.930306911468506,-4.182289123535156
1779968341073990100,5.193990234375,0.5529857873916626,-0.6892086863517761,-7.582059383392334
1779968341090308400,5.210308349609375,0.8581129312515259,4.7525315284729,-5.354997634887695
1779968341106630400,5.22663037109375,0.417679101228714,3.5520286560058594,-2.119091510772705
1779968341122978800,5.242978759765625,-0.31780263781547546,-0.41691553592681885,-1.273043155670166
1779968341139312400,5.2593125,-0.780380368232727,-0.4248567819595337,-1.2893837690353394
1779968341155642600,5.275642578125,-0.8918632864952087,-0.5377141237258911,-1.0366383790969849
1779968341171976400,5.2919765625,-0.8521569967269897,0.01191187184303999,-0.2148718535900116
1779968341188307700,5.3083076171875,-0.8147414922714233,0.6027712821960449,0.5659666657447815
1779968341204622600,5.32462255859375,-0.5439754724502563,1.0115928649902344,0.8865181803703308
1779968341220969000,5.340968994140625,-0.1508837193250656,0.3407101035118103,1.0224356651306152
1779968341237306600,5.357306640625,0.3637702465057373,-0.6513350605964661,1.2287554740905762
1779968341253635000,5.373635009765625,0.6892086863517761,-1.0558805465698242,1.4676038026809692
1779968341269962500,5.38996240234375,1.0960450172424316,-0.9691377282142639,1.662164330482483
1779968341286304000,5.406303955078125,1.4158328771591187,-0.9634872078895569,2.0861048698425293
1779968341302620200,5.4226201171875,2.0189096927642822,-1.882992148399353,2.5948028564453125
1779968341318961700,5.438961669921875,2.884047508239746,-2.311055898666382,2.769815683364868
1779968341335284000,5.455283935546875,3.3883168697357178,-3.00118088722229,3.313485860824585
1779968341351616000,5.471615966796875,3.441767454147339,-3.1928398609161377,3.9709296226501465
1779968341367948500,5.487948486328125,2.229963541030884,-3.5497379302978516,3.680004835128784
1779968341384280600,5.504280517578125,-1.214400053024292,-1.853670597076416,3.9567270278930664
1779968341400609000,5.520609130859375,-1.842369556427002,-1.5845844745635986,4.8841729164123535
1779968341416945000,5.53694482421875,-0.6647741198539734,-2.400242328643799,4.695262908935547
1779968341433280300,5.5532802734375,0.4378376603126526,-1.7701348066329956,3.6949710845947266
1779968341449607700,5.569607666015625,1.1354458332061768,-2.735607385635376,2.7953193187713623
1779968341465941800,5.585941650390625,1.4211779832839966,-1.4257594347000122,2.2406537532806396
1779968341482273800,5.602273681640625,1.0719157457351685,-0.7385360598564148,0.8894197940826416
1779968341498622700,5.618622802734375,0.6661485433578491,-2.526386022567749,-0.025503624230623245
1779968341514931000,5.634930908203125,0.1615738570690155,-2.797915458679199,-0.4902193546295166
1779968341531281700,5.65128173828125,-0.5593998432159424,-1.441641926765442,-2.015702486038208
1779968341547600100,5.66760009765625,-0.7402159571647644,0.982729434967041,-3.2782082557678223
1779968341563948800,5.68394873046875,-0.42302417755126953,4.397313594818115,-3.587611675262451
1779968341580274000,5.70027392578125,-0.3208569586277008,6.9805097579956055,-3.5500433444976807
1779968341596618200,5.7166181640625,-0.4306600093841553,7.56266450881958,-2.959642171859741
1779968341612915200,5.732915283203125,-1.0575604438781738,3.219107151031494,0.2203696370124817
1779968341629279500,5.749279541015625,-0.9521862268447876,-1.7595973014831543,5.651114463806152
1779968341645607400,5.765607421875,1.0222829580307007,4.249484062194824,0.9969320893287659
1779968341661940200,5.781940185546875,3.216052770614624,1.1100949048995972,-3.620445489883423
1779968341678275000,5.798275146484375,0.8254316449165344,2.200031280517578,-1.9168951511383057
1779968341694604500,5.8146044921875,-0.9169087409973145,6.178138256072998,-0.44180828332901
1779968341710942200,5.830942138671875,-1.3724614381790161,4.91990852355957,-1.461495041847229
1779968341727266300,5.847266357421875,-2.149329423904419,1.7507398128509521,-1.8733710050582886
1779968341743603000,5.86360302734375,-3.0195069313049316,-0.3926336467266083,-2.713157892227173
1779968341759933000,5.879932861328125,-3.6215145587921143,-1.2709051370620728,-2.8131871223449707
1779968341776234800,5.89623486328125,-2.1815524101257324,-4.241390228271484,-1.330159068107605
1779968341792600000,5.91260009765625,-0.6615670323371887,-3.614794969558716,-7.081455230712891
1779968341808925200,5.92892529296875,0.570242702960968,0.9808968901634216,-8.51255989074707
1779968341825253600,5.945253662109375,-0.16798794269561768,5.4893879890441895,-2.510045289993286
1779968341841582600,5.96158251953125,-0.01572977937757969,2.267073631286621,-0.8290968537330627
1779968341857915000,5.977914794921875,-0.6450737118721008,0.9628763198852539,-1.3967434167861938
1779968341874247400,5.994247314453125,-1.2315043210983276,-0.08277224004268646,-1.1539244651794434
1779968341890577000,6.010576904296875,-0.7484626173973083,0.0024434609804302454,-0.09285151958465576
1779968341906910500,6.026910400390625,-0.6039929986000061,0.4813618063926697,0.290313720703125
1779968341923232300,6.043232177734375,-0.10445795953273773,0.47021353244781494,0.7180721163749695
1779968341939580000,6.059579833984375,0.5523748993873596,-0.14355333149433136,1.0615310668945312
1779968341955908400,6.075908447265625,1.0097602605819702,-0.841619610786438,1.3416128158569336
1779968341972235300,6.0922353515625,1.2589932680130005,-1.0155634880065918,1.6786576509475708
1779968341988582000,6.108581787109375,1.5575536489486694,-1.11391282081604,1.8087719678878784
1779968342004894700,6.124894775390625,1.463938593864441,-1.397048830986023,2.02425479888916
1779968342021225500,6.1412255859375,0.9410378932952881,-1.7634152173995972,2.5382978916168213
1779968342037574000,6.157573974609375,0.8978192210197449,-2.5894577503204346,3.713449716567993
1779968342053903000,6.173903076171875,1.9222402572631836,-3.0158417224884033,4.284761428833008
1779968342070233600,6.190233642578125,2.8240299224853516,-2.886796474456787,3.8363864421844482
1779968342086567400,6.2065673828125,2.2262983322143555,-3.1453452110290527,3.573103427886963
1779968342102899200,6.222899169921875,-0.6507241725921631,-2.657416582107544,3.561802625656128
1779968342119246000,6.23924609375,-1.6626224517822266,-2.0867156982421875,4.213137626647949
1779968342135574800,6.25557470703125,-0.9497427344322205,-0.48517972230911255,4.342946529388428
1779968342151899600,6.271899658203125,-0.09162978827953339,-0.4688390791416168,3.45566463470459
1779968342168234000,6.28823388671875,0.4156937897205353,-2.0305161476135254,2.5842654705047607
1779968342184547800,6.3045478515625,0.9804387092590332,-1.7490599155426025,1.6575828790664673
1779968342200892400,6.320892333984375,0.542142927646637,-0.38606682419776917,0.5233588218688965
1779968342217225700,6.337225830078125,0.1768454909324646,-1.228297233581543,-0.3507893681526184
1779968342233554200,6.35355419921875,-0.027947084978222847,-1.797776460647583,-0.6776022911071777
1779968342249901300,6.3699013671875,-0.49984049797058105,-1.5375478267669678,-1.325730323791504
1779968342266235000,6.38623486328125,-0.7806857824325562,-1.1885910034179688,-2.7004826068878174
1779968342282565600,6.402565673828125,-0.5403103232383728,0.5890268087387085,-3.5431711673736572
1779968342298898400,6.4188984375,-0.4346306324005127,3.137251138687134,-3.6665658950805664
1779968342315221800,6.4352216796875,-0.25931230187416077,5.085300445556641,-3.246137857437134
1779968342331551200,6.45155126953125,-0.3153591752052307,5.13126802444458,-0.8281805515289307
1779968342347883300,6.46788330078125,-0.9297369122505188,0.1765400618314743,5.6126298904418945
1779968342364215800,6.4842158203125,-0.01038470957428217,-1.0687087774276733,5.482973575592041
1779968342380547600,6.500547607421875,1.3559681177139282,1.341460108757019,0.49144110083580017
1779968342396879600,6.516879638671875,2.6902506351470947,0.33108896017074585,-1.7256942987442017
1779968342413210000,6.533210205078125,1.1203268766403198,2.334268808364868,-1.4155274629592896
1779968342429544000,6.5495439453125,-0.08827003091573715,5.18196964263916,-2.160935878753662
1779968342445876700,6.565876708984375,-0.8135197758674622,4.820337772369385,-2.2545509338378906
1779968342462207200,6.582207275390625,-1.5656476020812988,2.102598190307617,-2.588388681411743
1779968342478540500,6.59854052734375,-2.4225387573242188,1.458593487739563,-3.7450621128082275
1779968342494873300,6.614873291015625,-4.10287618637085,2.585334539413452,-3.4295501708984375
1779968342511198000,6.631197998046875,-3.7617082595825195,-0.3462078869342804,-0.9732610583305359
1779968342527538000,6.647537841796875,-2.121076822280884,-4.800942897796631,-5.761833667755127
1779968342543868700,6.66386865234375,0.043676864355802536,-1.3935363292694092,-7.023881435394287
1779968342560203500,6.68020361328125,0.5070181488990784,3.623499870300293,-3.9819250106811523
1779968342576535800,6.696535888671875,-0.006719517521560192,2.7847819328308105,-2.647031784057617
1779968342592864800,6.71286474609375,0.1189660057425499,1.146135926246643,-2.3373231887817383
1779968342609199400,6.729199462890625,-1.2157745361328125,0.6218608021736145,-1.651168704032898
1779968342625526800,6.74552685546875,-1.4845552444458008,-0.6475171446800232,-1.1467467546463013
1779968342641874200,6.761874267578125,-1.0283915996551514,0.1036943718791008,-0.7718282341957092
1779968342658194200,6.778194091796875,-0.9202684760093689,0.8423831462860107,0.6032294034957886
1779968342674533600,6.79453369140625,-0.34177911281585693,2.0225749015808105,1.277471899986267
1779968342690860000,6.810860107421875,0.4495968222618103,1.2290608882904053,1.1267409324645996
1779968342707189500,6.827189453125,0.9428704977035522,-0.4639521539211273,0.879187822341919
1779968342723527400,6.84352734375,1.2428053617477417,-1.1094839572906494,0.9920451641082764
1779968342739856600,6.859856689453125,1.433700680732727,-0.9627236127853394,1.6610952615737915
1779968342756179500,6.876179443359375,1.2997685670852661,-1.9590448141098022,2.504394769668579
1779968342772535800,6.892535888671875,0.956156849861145,-2.853504180908203,2.8128817081451416
1779968342788850200,6.90885009765625,1.6123788356781006,-3.141221761703491,3.059976816177368
1779968342805194200,6.9251943359375,2.5676193237304688,-3.2979087829589844,3.2614095211029053
1779968342821518800,6.941518798828125,2.2988386154174805,-4.364937782287598,3.4706308841705322
1779968342837850400,6.957850341796875,0.2099849283695221,-4.1357102394104,3.805537700653076
1779968342854184400,6.974184326171875,-2.274709463119507,-1.5680910348892212,4.081954479217529
1779968342870507500,6.990507568359375,-2.3356432914733887,0.156686931848526,4.650058746337891
1779968342886846700,7.0068466796875,-1.3920091390609741,1.5622878074645996,4.783074855804443
1779968342903178000,7.023177978515625,-0.7826710939407349,1.2793045043945312,3.6244161128997803
1779968342919513600,7.039513671875,0.30711251497268677,-1.5503759384155273,1.7409659624099731
1779968342935841000,7.055841064453125,1.490511178970337,-1.542281985282898,0.9214902520179749
1779968342952178000,7.072177978515625,1.0111347436904907,-0.6731734871864319,0.4720461070537567
1779968342968508000,7.0885078125,0.48090365529060364,-2.353663682937622,0.33536502718925476
1779968342984827100,7.1048271484375,0.3358231782913208,-2.997668504714966,0.2422080636024475
1779968343001173000,7.121173095703125,-0.3113885521888733,-2.794708490371704,-0.5510004758834839
1779968343017488100,7.137488037109375,-0.7415903806686401,-1.7886134386062622,-1.9860756397247314
1779968343033839600,7.153839599609375,-0.6389650702476501,0.6018549799919128,-2.8573222160339355
1779968343050167300,7.170167236328125,-0.33658674359321594,3.4177911281585693,-3.249192237854004
1779968343066490600,7.18649072265625,-0.21120665967464447,5.53810453414917,-2.894890308380127
1779968343082839000,7.202839111328125,-0.3930917978286743,4.873330116271973,1.0294606685638428
1779968343099165200,7.219165283203125,-0.21151208877563477,-0.17348572611808777,6.052910804748535
1779968343115498000,7.235498046875,0.8924741148948669,0.6882924437522888,3.4516940116882324
1779968343131848200,7.25184814453125,2.325563907623291,1.5755741596221924,-1.5457944869995117
1779968343148175000,7.268175048828125,2.1033618450164795,1.0961977243423462,-2.141082763671875
1779968343164491500,7.284491455078125,-0.12858712673187256,2.5048530101776123,-1.996307611465454
1779968343180824000,7.300823974609375,-0.6672175526618958,3.4048101902008057,-2.2936463356018066
1779968343197161200,7.3171611328125,-1.6336064338684082,3.0801353454589844,-1.7925840616226196
1779968343213491700,7.33349169921875,-2.2062926292419434,0.5774203538894653,-2.434298038482666
1779968343229822700,7.34982275390625,-2.663830518722534,0.17592918872833252,-3.732997417449951
1779968343246154500,7.366154541015625,-2.998584747314453,-0.7718282341957092,-2.191784381866455
1779968343262492700,7.38249267578125,-1.450346827507019,-3.483458995819092,-2.9268081188201904
1779968343278829300,7.398829345703125,0.5326744914054871,-2.5749497413635254,-9.074402809143066
1779968343295171800,7.415171875,1.1158981323242188,3.5390477180480957,-6.694014072418213
1779968343311491600,7.43149169921875,0.31322115659713745,5.074305057525635,-2.194380760192871
1779968343327820800,7.44782080078125,0.38866302371025085,1.3712397813796997,-1.7014124393463135
1779968343344136700,7.46413671875,-0.5836817622184753,1.077413558959961,-1.623068928718567
1779968343360478500,7.480478515625,-1.2961033582687378,-0.17348572611808777,-1.2770137786865234
1779968343376816000,7.496816162109375,-1.0932960510253906,0.00015271631127689034,-0.3243694305419922
1779968343393148000,7.51314794921875,-1.0560332536697388,0.5384777188301086,0.589790403842926
1779968343409508600,7.529508544921875,-0.6498079299926758,1.8617645502090454,1.3897184133529663
1779968343425811000,7.54581103515625,-0.024587325751781464,1.679421305656433,1.4158328771591187
1779968343442129700,7.562129638671875,0.4129449129104614,0.3527746796607971,1.1105530261993408
1779968343458474000,7.578473876953125,0.7431175708770752,-0.39965859055519104,1.097266674041748
1779968343474822700,7.59482275390625,0.9766207933425903,-0.20051652193069458,1.5694655179977417
1779968343491159800,7.611159912109375,0.9321803450584412,-0.6843217611312866,2.135279417037964
1779968343507461600,7.627461669921875,1.0198395252227783,-2.2343924045562744,2.5970935821533203
1779968343523903000,7.643903076171875,1.769829273223877,-3.799429178237915,3.1259500980377197
1779968343540125000,7.660125,2.8955013751983643,-3.6998581886291504,3.145803213119507
1779968343556469800,7.6764697265625,3.3899967670440674,-3.120757818222046,3.174055814743042
1779968343572796000,7.6927958984375,2.6277894973754883,-3.1980323791503906,3.5184311866760254
1779968343589136600,7.70913671875,-0.9867000579833984,-2.2463042736053467,3.3954944610595703
1779968343605454000,7.7254541015625,-2.805856704711914,-1.9940168857574463,4.032932281494141
1779968343621809200,7.74180908203125,-2.0166189670562744,-1.7224873304367065,4.447251796722412
1779968343638138600,7.758138671875,-0.7509061098098755,-0.17501288652420044,3.7959165573120117
1779968343654477800,7.774477783203125,0.05864306539297104,-0.6620252132415771,2.6674957275390625
1779968343670795000,7.790794921875,0.9034696817398071,-1.5262467861175537,1.7116444110870361
1779968343687158500,7.807158447265625,0.9854783415794373,-0.2768746614456177,1.0093021392822266
1779968343703459000,7.823458984375,0.7160868048667908,-0.623235285282135,0.3101668357849121
1779968343719806200,7.83980615234375,0.6922630667686462,-1.2809844017028809,-0.28099802136421204
1779968343736138500,7.856138427734375,-0.11301007121801376,-1.5163202285766602,-0.6409503817558289
1779968343752465400,7.87246533203125,-0.7907650470733643,-1.2741122245788574,-1.7869335412979126
1779968343768781600,7.888781494140625,-0.7878634333610535,-0.34666603803634644,-2.7601945400238037
1779968343785131500,7.905131591796875,-0.42012256383895874,2.5083653926849365,-3.2013919353485107
1779968343801444900,7.92144482421875,-0.06520986557006836,5.5006890296936035,-3.2363641262054443
1779968343817787000,7.937786865234375,0.01664607785642147,6.51839017868042,-2.1461222171783447
1779968343834117400,7.954117431640625,-0.6809620261192322,2.6980390548706055,1.3643674850463867
1779968343850434300,7.970434326171875,0.06643159687519073,0.2226603776216507,5.508935451507568
1779968343866780400,7.986780517578125,2.423302412033081,1.5593862533569336,-0.12690725922584534
1779968343883111200,8.003111083984376,2.616183042526245,0.4859432876110077,-2.1652119159698486
1779968343899440000,8.019440185546875,0.7615962624549866,2.3793201446533203,-0.8897252082824707
1779968343915782100,8.0357822265625,0.21059578657150269,3.5500433444976807,-1.4535537958145142
1779968343932109800,8.05210986328125,-0.3039054572582245,3.0337095260620117,-1.3967434167861938
1779968343948440600,8.068440673828125,-1.8950567245483398,1.7285959720611572,-2.0054705142974854
1779968343964776000,8.08477587890625,-3.6783251762390137,2.146580457687378,-3.2650747299194336
1779968343981118500,8.101118408203124,-4.764290809631348,2.213623046875,-2.632676601409912
1779968343997456000,8.117455810546875,-3.18245530128479,-6.323982238769531,-3.0327932834625244
1779968344013781800,8.13378173828125,-0.41004329919815063,-9.666637420654297,-7.850076675415039
1779968344030118700,8.15011865234375,1.3613132238388062,1.215927243232727,-5.663789749145508
1779968344046435000,8.16643505859375,0.697149932384491,5.83498477935791,-2.105499744415283
1779968344062775000,8.182775146484374,0.664315938949585,1.5891659259796143,-1.9500346183776855
1779968344079116800,8.19911669921875,-0.5342016816139221,1.141401767730713,-1.7214182615280151
1779968344095445000,8.215445068359376,-1.1956160068511963,-0.33368512988090515,-1.34115469455719
1779968344111762700,8.2317626953125,-0.964403510093689,0.029626963660120964,-0.7046330571174622
1779968344128110000,8.248110107421875,-0.9469938278198242,0.8768970370292664,0.18020524084568024
1779968344144440000,8.264440185546874,-0.7406741380691528,1.5354098081588745,1.0754282474517822
1779968344160767000,8.28076708984375,-0.256868839263916,1.2767083644866943,1.340238332748413
1779968344177106400,8.2971064453125,0.28817567229270935,0.2796235680580139,1.2542591094970703
1779968344193447700,8.31344775390625,0.7438811659812927,-0.3604104816913605,1.2777774333953857
1779968344209754000,8.329754150390626,1.0653489828109741,-0.5316054821014404,1.5363260507583618
1779968344226102800,8.346102783203126,1.259145975112915,-1.2515101432800293,2.0030272006988525
1779968344242440700,8.362440673828125,1.471268892288208,-2.390162944793701,2.5366179943084717
1779968344258768100,8.37876806640625,2.130392551422119,-3.090519905090332,2.8008172512054443
1779968344275098000,8.39509814453125,2.967583417892456,-3.3706016540527344,2.76111102104187
1779968344291415000,8.4114150390625,3.2682816982269287,-3.5466835498809814,3.251635789871216
1779968344307751400,8.42775146484375,2.3712260723114014,-4.218482494354248,3.816380500793457
1779968344324082700,8.444082763671876,-1.1427761316299438,-3.1056389808654785,3.5098788738250732
1779968344340414200,8.460414306640626,-2.6751315593719482,-1.8768835067749023,3.8725802898406982
1779968344356747800,8.476747802734375,-1.986228346824646,-0.6210972666740417,4.362036228179932
1779968344373079800,8.493079833984375,-0.8045095205307007,0.7622070908546448,3.4965927600860596
1779968344389414000,8.509413818359375,0.030543262138962746,-0.6762278079986572,2.154979944229126
1779968344405742800,8.525742919921875,0.5720753073692322,-1.289689302444458,1.9561432600021362
1779968344422079000,8.542078857421876,0.6223189830780029,-0.6979135274887085,1.4998269081115723
1779968344438409200,8.5584091796875,0.3130684494972229,-1.5439618825912476,0.6198754906654358
1779968344454754000,8.574754150390625,0.24007004499435425,-2.0445659160614014,-0.02015855349600315
1779968344471067600,8.591067626953125,-0.26801711320877075,-1.924683690071106,-0.4836525619029999
1779968344487420000,8.607419921875,-0.4433354437351227,-1.5053247213363647,-1.7348573207855225
1779968344503735300,8.6237353515625,0.07498370856046677,0.029016099870204926,-2.937345504760742
1779968344520075000,8.640074951171876,0.029016099870204926,2.6554312705993652,-3.6134207248687744
1779968344536411000,8.656410888671875,-0.19975294172763824,5.80657958984375,-3.2733213901519775
1779968344552744000,8.672743896484375,-0.11056660860776901,7.1674346923828125,-2.1671972274780273
1779968344569063400,8.6890634765625,-0.5711590051651001,2.657111167907715,3.078913450241089
1779968344585398000,8.70539794921875,0.6788240075111389,-1.0363328456878662,5.461287975311279
1779968344601726000,8.721725830078125,1.5722143650054932,0.694248378276825,2.4520130157470703
1779968344618079500,8.73807958984375,2.459648847579956,0.5157229900360107,-0.3171917796134949
1779968344634404000,8.754404052734374,1.1827877759933472,0.7050912380218506,-0.9193521738052368
1779968344650745600,8.77074560546875,0.02535090781748295,2.908634901046753,-2.4468207359313965
1779968344667063600,8.7870634765625,-0.4225660264492035,4.0883684158325195,-3.3954944610595703
1779968344683405600,8.803405517578126,-1.7353154420852661,3.4718525409698486,-2.9152016639709473
1779968344699736300,8.819736328125,-2.819143056869507,2.362368583679199,-3.6471710205078125
1779968344716076000,8.836075927734376,-3.905872344970703,2.3385448455810547,-3.9012908935546875
1779968344732396800,8.852396728515625,-3.3736560344696045,-2.56257963180542,-1.74356210231781
1779968344748735200,8.8687353515625,-2.0302107334136963,-6.590167045593262,-5.264741897583008
1779968344765047300,8.88504736328125,0.5865833759307861,-0.8147414922714233,-5.558262825012207
1779968344781385000,8.901385009765624,0.9967793822288513,3.541949510574341,-3.589749574661255
1779968344797715500,8.917715576171876,0.2070833146572113,1.5774067640304565,-2.4909558296203613
1779968344814055200,8.93405517578125,0.17638733983039856,0.927446186542511,-2.161241292953491
1779968344830380300,8.95038037109375,-0.7999280095100403,1.5650367736816406,-1.4926491975784302
1779968344846710500,8.96671044921875,-1.0207557678222656,-0.5151121020317078,-1.0409144163131714
1779968344863048400,8.98304833984375,-0.9469938278198242,0.2041817009449005,-0.0679587572813034
1779968344879382500,8.999382568359374,-0.8843801617622375,1.0761919021606445,0.884227454662323
1779968344895717600,9.015717529296875,-0.4199698567390442,1.5300647020339966,1.4227051734924316
1779968344912037400,9.032037353515625,0.09025534242391586,0.5893322229385376,1.471421718597412
1779968344928376600,9.04837646484375,0.4766276180744171,-0.44974952936172485,1.4451544284820557
1779968344944692500,9.0646923828125,0.8303185701370239,-0.4535674452781677,1.7956384420394897
1779968344961047300,9.08104736328125,1.1992812156677246,-0.4570799171924591,2.1426098346710205
1779968344977392400,9.097392333984375,1.140179991722107,-1.2049317359924316,2.489581346511841
1779968344993720000,9.113719970703125,1.0181596279144287,-2.2853996753692627,2.956129550933838
1779968345010051000,9.130051025390625,1.5068517923355103,-2.8649580478668213,3.536298990249634
1779968345026383400,9.14638330078125,2.431701898574829,-3.081815242767334,3.6725218296051025
1779968345042713000,9.162713134765625,2.818990468978882,-3.3171510696411133,3.829819679260254
1779968345059048400,9.17904833984375,2.16964054107666,-4.043316841125488,3.5795176029205322
1779968345075380700,9.195380615234376,-0.5436700582504272,-4.240321159362793,3.0503556728363037
1779968345091713000,9.211713134765626,-2.5164594650268555,-2.713463306427002,4.0156755447387695
1779968345108042800,9.228042724609375,-2.1316142082214355,-1.214400053024292,4.704731464385986
1779968345124377900,9.2443779296875,-0.7774787545204163,-0.3943135142326355,3.9128973484039307
1779968345140706300,9.260706298828126,0.2750420868396759,-0.8979719281196594,2.526844024658203
1779968345157044700,9.277044677734375,0.9396634697914124,-0.5812382698059082,1.5363260507583618
1779968345173372200,9.2933720703125,1.0067058801651,-0.3764457106590271,0.4236350357532501
1779968345189720300,9.30972021484375,0.5160284042358398,-1.0109820365905762,-0.4337143301963806
1779968345206051300,9.32605126953125,0.2295326143503189,-1.404226541519165,-0.6818783283233643
1779968345222356200,9.342356201171874,-0.3982841372489929,-1.2738068103790283,-0.7406741380691528
1779968345238694100,9.358694091796876,-0.8310821652412415,-1.4205671548843384,-1.2582297325134277
1779968345255036000,9.375035888671874,-0.502436637878418,-1.1481212377548218,-2.3597724437713623
1779968345271350000,9.39135009765625,0.030237829312682152,0.633009135723114,-3.3261611461639404
1779968345287686000,9.407685791015625,0.051770828664302826,3.695887565612793,-3.2401819229125977
1779968345304018000,9.424017822265625,0.15347988903522491,6.769303321838379,-2.4642302989959717
1779968345320350500,9.4403505859375,-0.23396138846874237,6.664539813995361,-0.22388210892677307
1779968345336669400,9.45666943359375,-0.10613783448934555,0.5717698931694031,4.96419620513916
1779968345353015300,9.473015380859374,0.7380779385566711,0.3396410644054413,3.4547483921051025
1779968345369345800,9.489345703125,2.414292097091675,0.2076941877603531,-0.7721336483955383
1779968345385678000,9.505677978515624,1.2450960874557495,0.3159700334072113,-0.09193521738052368
1779968345402010000,9.522010009765625,0.2893974184989929,3.1946725845336914,-0.826195240020752
1779968345418343400,9.538343505859375,-0.8115344643592834,4.49383020401001,-2.071444034576416
1779968345434676200,9.55467626953125,-2.065182685852051,3.2757649421691895,-2.525927782058716
1779968345451025700,9.571025634765626,-2.817157745361328,1.3190107345581055,-3.866318941116333
1779968345467340000,9.587340087890626,-3.950160026550293,1.8613064289093018,-4.757112979888916
1779968345483681000,9.603680908203126,-3.608991861343384,-1.2434161901474,-2.8231136798858643
1779968345500006700,9.620006591796875,-1.463022232055664,-5.168225288391113,-5.843842506408691
1779968345516351200,9.636351318359376,0.7932085394859314,-0.2883284091949463,-5.876981735229492
1779968345532689400,9.652689453125,0.5873469114303589,2.9466612339019775,-3.3599116802215576
1779968345549008100,9.669008056640624,0.012217304669320583,1.0693196058273315,-2.2963950634002686
1779968345565345800,9.685345703125,0.041691552847623825,0.6998988389968872,-1.9037615060806274
1779968345581678800,9.701678955078124,-0.9248499870300293,1.5430456399917603,-1.4450017213821411
1779968345597999600,9.71799951171875,-1.292590856552124,-0.266642689704895,-1.2646437883377075
1779968345614340400,9.73434033203125,-0.9627236127853394,-0.07208210229873657,-0.9221010804176331
1779968345630680000,9.75068017578125,-0.9879218339920044,0.1966986060142517,0.11194105446338654
1779968345647009300,9.76700927734375,-0.7194465398788452,1.0844385623931885,0.9320276379585266
1779968345663331300,9.783331298828125,-0.1518000066280365,0.68951416015625,1.256244421005249
1779968345679681000,9.799680908203126,0.3550654351711273,-0.3433062732219696,1.264491081237793
1779968345696000800,9.816000732421875,0.8268061280250549,-0.48808133602142334,1.4593570232391357
1779968345712340700,9.8323408203125,1.1174252033233643,-0.33246341347694397,1.8031214475631714
1779968345728670200,9.848670166015625,1.0937541723251343,-1.1665998697280884,2.338697671890259
1779968345744981800,9.864981689453124,1.2612839937210083,-2.9634599685668945,3.0239357948303223
1779968345761306400,9.881306396484375,2.0619757175445557,-4.097989559173584,3.3565518856048584
1779968345777647900,9.89764794921875,3.1780264377593994,-3.975205659866333,3.261104106903076
1779968345793987600,9.913987548828125,3.6198346614837646,-3.529121160507202,3.1161763668060303
1779968345810318300,9.930318359375,2.4863743782043457,-4.711909294128418,3.369074583053589
1779968345826648800,9.94664892578125,-1.4187345504760742,-4.347680568695068,3.409086227416992
1779968345842982700,9.962982666015625,-3.0993776321411133,-2.8382327556610107,4.208708763122559
1779968345859311400,9.979311279296875,-2.6818511486053467,-1.302364706993103,4.84248161315918
1779968345875647500,9.9956474609375,-1.476919412612915,0.2779437005519867,4.061643123626709
1779968345891981300,10.011981201171874,0.07620543986558914,-1.5761851072311401,2.3325889110565186
1779968345908311800,10.028311767578124,1.3852896690368652,-1.1910345554351807,1.5209017992019653
1779968345924643800,10.044643798828124,1.277166485786438,-0.20525072515010834,0.8625417351722717
1779968345940984600,10.060984619140624,0.8356636762619019,-0.7622070908546448,0.26313021779060364
1779968345957328000,10.077327880859375,0.7289149761199951,-1.4761558771133423,-0.1849394589662552
1779968345973654000,10.093654052734376,0.022449297830462456,-1.723708987236023,-0.3605632185935974
1779968345989984000,10.10998388671875,-0.6801984310150146,-1.3825408220291138,-1.1104003190994263
1779968346006304500,10.126304443359375,-0.7913759350776672,-0.09972374886274338,-2.521498918533325
1779968346022652400,10.14265234375,-0.5490151643753052,1.6035212278366089,-3.38938570022583
1779968346038983400,10.1589833984375,-0.02932153269648552,4.2555928230285645,-3.6019668579101562
1779968346055315500,10.1753154296875,0.12247848510742188,6.643923282623291,-2.772564649581909
1779968346071646200,10.191646240234375,-0.4101960062980652,5.15967321395874,0.6940956115722656
1779968346087979300,10.207979248046875,-0.3695734739303589,0.3732386529445648,5.85056209564209
1779968346104296000,10.2242958984375,0.8837692737579346,1.7076737880706787,1.6139060258865356
1779968346120643800,10.240643798828126,2.38741397857666,0.20586158335208893,-1.7055357694625854
1779968346136962800,10.256962890625,0.650418758392334,1.952783465385437,-0.8301658630371094
1779968346153308000,10.273307861328124,-0.08659014850854874,3.682448387145996,-1.6288721561431885
1779968346169608400,10.2896083984375,-1.2542591094970703,3.305391788482666,-1.926210880279541
1779968346185973800,10.305973876953125,-1.9611828327178955,1.2060006856918335,-2.2043073177337646
1779968346202300400,10.322300537109374,-2.4663684368133545,0.33857205510139465,-3.8447859287261963
1779968346218623700,10.338623779296874,-3.3715178966522217,0.7434229850769043,-3.9770381450653076
1779968346234963000,10.354962890625,-2.2760839462280273,-2.2910501956939697,-1.9494236707687378
1779968346251275000,10.37127490234375,-0.8408560156822205,-2.6508498191833496,-7.550294399261475
1779968346267623700,10.387623779296876,0.8022187948226929,1.866346001625061,-5.908441543579102
1779968346283953400,10.403953369140625,0.6305656433105469,3.36708927154541,-3.037069320678711
1779968346300284200,10.4202841796875,0.4219551682472229,0.5529857873916626,-2.4547619819641113
1779968346316606000,10.43660595703125,-0.03375030308961868,1.3797918558120728,-2.1536054611206055
1779968346332937200,10.452937255859375,-0.718224823474884,0.02977968007326126,-2.0143282413482666
1779968346349283800,10.469283935546875,-0.9844093322753906,-1.6552921533584595,-0.9758572578430176
1779968346365614600,10.485614501953124,-0.964403510093689,-0.43478333950042725,0.22220222651958466
1779968346381947000,10.50194677734375,-0.6543893814086914,0.6811147332191467,1.0920743942260742
1779968346398266400,10.518266357421876,-0.08139779418706894,0.5193881988525391,1.500590443611145
1779968346414609400,10.534609375,0.395077109336853,-0.2635883390903473,1.6056592464447021
1779968346430957300,10.550957275390624,0.6863071322441101,-0.3026837408542633,1.9407188892364502
1779968346447317000,10.56731689453125,0.9946413636207581,-0.4583016633987427,2.3318252563476562
1779968346463605500,10.58360546875,1.1438452005386353,-1.396132469177246,2.5957190990448
1779968346479952400,10.599952392578125,1.0769554376602173,-2.9715540409088135,2.937345504760742
1779968346496292000,10.6162919921875,1.011745572090149,-3.9377901554107666,3.7304012775421143
1779968346512620000,10.6326201171875,1.7989981174468994,-3.1583261489868164,4.005596160888672
1779968346528947500,10.648947509765625,2.8927524089813232,-2.09694766998291,4.0410261154174805
1779968346545306600,10.665306640625,2.987436532974243,-2.0363192558288574,3.958559513092041
1779968346561594000,10.681593994140625,0.5357288122177124,-3.026379108428955,3.428786516189575
1779968346577942300,10.6979423828125,-2.2653937339782715,-2.096794843673706,3.5051448345184326
1779968346594275000,10.714275146484376,-1.761582612991333,-1.0877982378005981,4.105930805206299
1779968346610599400,10.730599365234376,-0.7915286421775818,0.6441574096679688,3.8673877716064453
1779968346626944000,10.746944091796875,-0.14966198801994324,-1.401172161102295,2.8715248107910156
1779968346643281700,10.76328173828125,0.8139779567718506,-2.0303633213043213,1.5691601037979126
1779968346659607000,10.77960693359375,1.1574369668960571,-0.06383541971445084,0.2590068578720093
1779968346675928600,10.795928466796875,0.531758189201355,-0.6623306274414062,-0.7292203903198242
1779968346692276200,10.812276123046875,0.19914206862449646,-1.094365119934082,-0.9671524167060852
1779968346708600300,10.828600341796875,-0.22647829353809357,-1.1100949048995972,-0.8304712772369385
1779968346724922000,10.844922119140625,-0.5992587804794312,-0.6939429044723511,-1.5483906269073486
1779968346741253600,10.861253662109375,-0.53328537940979,-0.47479501366615295,-2.5314254760742188
1779968346757589000,10.877589111328126,-0.1547016203403473,1.2773191928863525,-3.344181776046753
1779968346773918000,10.89391796875,0.07956519722938538,4.073860168457031,-2.9437596797943115
1779968346790251800,10.910251708984376,0.044287730008363724,6.45180606842041,-1.9336938858032227
1779968346806591500,10.926591552734376,-0.48029279708862305,5.0685014724731445,1.2040153741836548
1779968346822918400,10.94291845703125,0.16279558837413788,0.3171917796134949,4.945717811584473
1779968346839259100,10.959259033203125,0.7345654368400574,0.3842342495918274,2.621833562850952
1779968346855578400,10.975578369140624,1.666898488998413,1.9176586866378784,-0.8969029188156128
1779968346871911700,10.99191162109375,1.5247195959091187,0.670577347278595,-1.2725850343704224
1779968346888250400,11.00825048828125,-0.7449501752853394,0.8611672520637512,-2.536923408508301
1779968346904566800,11.02456689453125,-1.5812246799468994,5.039332866668701,-3.2702670097351074
1779968346920924400,11.04092431640625,-1.6174184083938599,5.226257801055908,-2.353052854537964
1779968346937261600,11.057261474609374,-2.016160726547241,1.9588921070098877,-1.9034560918807983
1779968346953590300,11.07359033203125,-2.4075727462768555,-1.009149432182312,-2.068084239959717
1779968346969920000,11.089919921875,-2.1560487747192383,-3.1024317741394043,-2.084730386734009
1779968346986255600,11.106255615234375,-1.1994339227676392,-3.9127445220947266,-4.980690002441406
1779968347002587100,11.122587158203125,0.11881329119205475,-0.7725918292999268,-6.798319339752197
1779968347018918100,11.138918212890625,0.3882048726081848,3.3701436519622803,-4.409836292266846
1779968347035250400,11.15525048828125,0.10216721147298813,2.5257749557495117,-2.330909013748169
1779968347051566600,11.171566650390625,-0.03298672288656235,0.5170974135398865,-2.2603540420532227
1779968347067916500,11.18791650390625,-1.3318389654159546,1.1756101846694946,-1.6030631065368652
1779968347084247000,11.2042470703125,-1.7156150341033936,-0.07941248267889023,-1.155909776687622
1779968347100575000,11.220574951171875,-1.2634220123291016,0.6391177773475647,-0.7205155491828918
1779968347116916500,11.23691650390625,-0.9416487812995911,0.5740606188774109,0.32940909266471863
1779968347133244200,11.253244140625,-0.5103778839111328,0.9436340928077698,1.116508960723877
1779968347149560300,11.269560302734375,0.09651670604944229,0.6020076870918274,1.224173903465271
1779968347165908500,11.285908447265625,0.5174028873443604,-0.45463645458221436,1.3468050956726074
1779968347182240500,11.302240478515625,0.8516988754272461,-1.1212431192398071,1.5522085428237915
1779968347198572000,11.318572021484375,1.2394455671310425,-0.9146180152893066,1.9619464874267578
1779968347214889200,11.33488916015625,1.2855658531188965,-1.1693488359451294,2.380694627761841
1779968347231225000,11.35122509765625,1.018770456314087,-2.1394028663635254,2.900999069213867
1779968347247556900,11.367556884765625,1.299310326576233,-3.0393600463867188,3.477961301803589
1779968347263889400,11.383889404296875,2.305710792541504,-3.1861205101013184,3.4602460861206055
1779968347280219600,11.4002197265625,2.912147283554077,-3.1135802268981934,3.4768922328948975
1779968347296554000,11.416553955078125,2.431854486465454,-3.9072468280792236,3.628844976425171
1779968347312872700,11.432872802734375,0.47998735308647156,-4.245360851287842,3.4550538063049316
1779968347329220600,11.449220703125,-2.0842721462249756,-2.5337162017822266,3.925420045852661
1779968347345549000,11.465549072265626,-2.2514965534210205,-0.9983065128326416,4.642117500305176
1779968347361883400,11.48188330078125,-0.6403394937515259,-0.47678032517433167,4.07889986038208
1779968347378215700,11.498215576171875,0.5349652171134949,-0.9714284539222717,2.828000545501709
1779968347394547700,11.514547607421875,0.9666942358016968,-0.6768386960029602,1.9469802379608154
1779968347410879200,11.530879150390625,1.354135513305664,-0.9921978712081909,0.9230173826217651
1779968347427227600,11.5472275390625,0.9842566251754761,-1.168585181236267,-0.09834930300712585
1779968347443553800,11.5635537109375,0.6653849482536316,-1.1217013597488403,-0.7420485615730286
1779968347459878700,11.579878662109374,0.19776763021945953,-1.15178644657135,-0.9802860021591187
1779968347476216300,11.59621630859375,-0.6918048858642578,-0.8526151776313782,-1.1293370723724365
1779968347492558800,11.612558837890624,-1.2098186016082764,-0.9341656565666199,-2.252412796020508
1779968347508864300,11.6288642578125,-1.0881037712097168,-0.23518311977386475,-3.1418325901031494
1779968347525218300,11.64521826171875,-0.5201517343521118,2.437047004699707,-3.3869423866271973
1779968347541545200,11.661545166015625,-0.08735372871160507,5.052924633026123,-3.202461004257202
1779968347557888300,11.67788818359375,0.006261368747800589,6.816034317016602,-2.7658450603485107
1779968347574214100,11.694214111328124,-0.6024658679962158,5.114011287689209,0.7887797355651855
1779968347590544100,11.710544189453126,0.1820378452539444,0.25366178154945374,4.755280494689941
1779968347606887700,11.7268876953125,0.7507534027099609,0.18509216606616974,2.830291509628296
1779968347623213600,11.743213623046875,2.3185391426086426,0.08765916526317596,-0.956156849861145
1779968347639543300,11.759543212890625,1.896583914756775,-0.3903428912162781,-1.1858421564102173
1779968347655877400,11.77587744140625,0.08216137439012527,3.2172744274139404,-1.8025106191635132
1779968347672211500,11.79221142578125,-0.34758231043815613,6.3971333503723145,-3.003624439239502
1779968347688543000,11.80854296875,-1.5158621072769165,5.003597259521484,-2.4269676208496094
1779968347704853500,11.824853515625,-2.658027410507202,1.5476270914077759,-2.1702516078948975
1779968347721194000,11.841194091796876,-3.649156332015991,-0.20265454053878784,-2.303725481033325
1779968347737525200,11.857525146484376,-3.1312952041625977,-2.8380799293518066,-1.468061923980713
1779968347753856000,11.87385595703125,-1.7398968935012817,-5.695402145385742,-4.64501953125
1779968347770191000,11.890191162109375,-0.05100724846124649,-2.11283016204834,-6.03214168548584
1779968347786518500,11.9065185546875,0.47418415546417236,3.1340441703796387,-3.7649152278900146
1779968347802854100,11.922854248046875,-0.12751811742782593,2.3205244541168213,-2.602133274078369
1779968347819189000,11.93918896484375,0.15683965384960175,-0.28955012559890747,-2.169029712677002
1779968347835518500,11.9555185546875,-0.5517640113830566,1.3807082176208496,-1.6465872526168823
1779968347851849500,11.971849365234375,-1.2261592149734497,0.8437576293945312,-1.4608842134475708
1779968347868183000,11.98818310546875,-1.1818715333938599,-0.4479169547557831,-1.2655600309371948
1779968347884508200,12.004508056640624,-0.9920451641082764,0.15241087973117828,-0.2883284091949463
1779968347900844300,12.02084423828125,-0.6840163469314575,0.7605272531509399,0.4789183437824249
1779968347917198600,12.037198486328125,-0.12461651116609573,1.1444560289382935,1.056491494178772
1779968347933524000,12.05352392578125,0.4537201523780823,-0.08002334833145142,1.3029755353927612
1779968347949856300,12.069856201171875,0.8709411025047302,-1.2753338813781738,1.4204144477844238
1779968347966188500,12.0861884765625,1.2475395202636719,-1.1320860385894775,1.7996090650558472
1779968347982506200,12.10250634765625,1.394452691078186,-1.0198395252227783,2.4271204471588135
1779968348015180500,12.1351806640625,1.9562959671020508,-4.089437484741211,3.2391128540039062
1779968348031502300,12.15150244140625,2.4782803058624268,-3.637244462966919,2.8796188831329346
1779968348047859700,12.167859619140625,2.5474607944488525,-2.6448938846588135,3.318678140640259
1779968348064184800,12.184184814453126,1.32863187789917,-2.4216225147247314,3.8985419273376465
1779968348080495400,12.200495361328125,-1.0047205686569214,-2.37321138381958,3.6939022541046143
1779968348096852700,12.216852783203125,-2.524247884750366,-0.5641340613365173,4.640743255615234
1779968348113178400,12.233178466796875,-1.5792393684387207,1.387580394744873,4.747033596038818
1779968348129519900,12.249519775390626,-0.265573650598526,0.19853121042251587,3.268587112426758
1779968348145828000,12.265828125,0.7704538106918335,-0.5134322643280029,2.5957190990448
1779968348162151200,12.282151123046875,1.3555099964141846,-0.7783950567245483,2.083050489425659
1779968348178485500,12.298485595703125,1.4283556938171387,-0.8910996913909912,1.1252137422561646
1779968348194849500,12.314849609375,1.0998629331588745,-1.9088011980056763,0.2863430976867676
1779968348211155700,12.33115576171875,0.7774787545204163,-2.4665210247039795,-0.2669481039047241
1779968348227492900,12.347492919921875,-0.14813482761383057,-2.4013113975524902,-0.43508878350257874
1779968348243821300,12.3638212890625,-0.8626944422721863,-1.5735888481140137,-1.1757628917694092
1779968348260156200,12.38015625,-0.9695958495140076,-0.45433104038238525,-2.567924737930298
1779968348276490000,12.396489990234375,-0.7344127297401428,2.0836613178253174,-3.0474538803100586
1779968348292822000,12.412822021484375,-0.39706242084503174,4.368144512176514,-2.9491047859191895
1779968348309153000,12.429153076171875,-0.0630718395113945,5.356371879577637,-2.3432791233062744
1779968348325473500,12.4454736328125,-0.5227479338645935,3.7424659729003906,-0.660192608833313
1779968348341807900,12.461807861328126,-0.24846944212913513,2.4666738510131836,3.768733024597168
1779968348358149400,12.4781494140625,0.735634446144104,2.902678966522217,1.5752687454223633
1779968348374482400,12.494482421875,1.9182696342468262,0.23380866646766663,-1.3423763513565063
1779968348390817000,12.510817138671875,0.7800748944282532,0.21792617440223694,-0.831845760345459
1779968348407148000,12.52714794921875,-0.42302417755126953,3.464674949645996,-0.8153523802757263
1779968348423494000,12.543493896484375,-1.040150761604309,3.2253684997558594,-1.9950858354568481
1779968348439812600,12.5598125,-1.98500657081604,1.9538525342941284,-1.771356463432312
1779968348456159200,12.5761591796875,-2.4223861694335938,0.25854870676994324,-2.493093729019165
1779968348472491300,12.5924912109375,-2.7760770320892334,-0.7221954464912415,-3.187800168991089
1779968348488827600,12.60882763671875,-2.3857343196868896,-2.6116015911102295,-2.372753381729126
1779968348505135000,12.625135009765625,-0.9483683109283447,-3.1746666431427,-4.910593032836914
1779968348521490000,12.641489990234374,0.4986187517642975,0.36819902062416077,-7.716144561767578
1779968348537817900,12.65781787109375,0.7228062748908997,3.8400516510009766,-4.312403202056885
1779968348554158300,12.674158447265626,0.13744467496871948,1.566258430480957,-2.135432243347168
1779968348570482700,12.690482666015624,0.042760565876960754,-0.4714352488517761,-1.9872974157333374
1779968348586816800,12.706816650390625,-0.7751879692077637,1.0670288801193237,-1.6357444524765015
1779968348603147000,12.72314697265625,-1.538464069366455,0.6478226184844971,-1.1711814403533936
1779968348619485400,12.7394853515625,-1.1951578855514526,1.025948166847229,-1.0335839986801147
1779968348635796200,12.755796142578125,-1.1062769889831543,0.4352414906024933,-0.16264286637306213
1779968348652119600,12.77211962890625,-0.9254608750343323,0.93095862865448,0.6502660512924194
1779968348668478200,12.788478271484376,-0.2603813111782074,0.782976508140564,1.165378212928772
1779968348684774100,12.804774169921876,0.4205807149410248,-0.3901901841163635,1.4555391073226929
1779968348701124400,12.821124267578124,0.9167560338973999,-1.1050552129745483,1.585806131362915
1779968348717464000,12.837464111328124,1.3168727159500122,-0.8011497855186462,1.9726365804672241
1779968348733793300,12.853793212890626,1.3619240522384644,-1.2849550247192383,2.780200481414795
1779968348750123300,12.870123291015625,1.4815009832382202,-3.0778446197509766,3.333644390106201
1779968348766461700,12.886461669921875,2.386345148086548,-3.732692003250122,2.8686232566833496
1779968348782790000,12.902789794921874,2.9663615226745605,-3.3429601192474365,2.5638015270233154
1779968348799121400,12.919121337890624,2.2705860137939453,-3.5417966842651367,3.855781316757202
1779968348815453400,12.935453369140625,0.5115996599197388,-3.261104106903076,4.120591640472412
1779968348831786500,12.951786376953125,-1.2330315113067627,-3.321732521057129,3.7592647075653076
1779968348848120800,12.968120849609376,-2.4573581218719482,-1.4066699743270874,4.416555881500244
1779968348864450300,12.9844501953125,-2.084730386734009,0.8498662710189819,4.835456371307373
1779968348880780800,13.00078076171875,-0.9628763198852539,0.503047525882721,3.6500725746154785
1779968348897122800,13.017122802734375,0.0022907445672899485,-0.2958115041255951,2.2124011516571045
1779968348913461800,13.033461669921875,0.9764680862426758,0.19349156320095062,1.3877331018447876
1779968348929798100,13.049798095703125,1.3199270963668823,0.17027868330478668,0.6252205967903137
1779968348946124000,13.0661240234375,0.9196576476097107,-1.0380127429962158,0.13255776464939117
1779968348962457600,13.08245751953125,0.7509061098098755,-1.714240550994873,-0.19837848842144012
1779968348978774300,13.098774169921874,-0.07742717117071152,-2.3177754878997803,-0.3003929853439331
1779968348995123700,13.115123779296875,-0.9111055135726929,-2.3411409854888916,-1.1337659358978271
1779968349011453700,13.13145361328125,-1.0586295127868652,-1.4136948585510254,-2.637868881225586
1779968349027788300,13.147788330078125,-1.143081545829773,1.397354245185852,-3.28523325920105
1779968349044103700,13.164103759765625,-0.6656904220581055,4.637689113616943,-3.2846224308013916
1779968349060450600,13.180450439453125,-0.08017606288194656,7.0974907875061035,-2.1908681392669678
1779968349076765700,13.196765625,-0.24908030033111572,4.895473957061768,0.9489791393280029
1779968349093121000,13.21312109375,0.6236934065818787,0.8286387324333191,4.654335021972656
1779968349109435100,13.22943505859375,1.1102476119995117,0.9764680862426758,1.2942707538604736
1779968349125779700,13.24577978515625,1.8698585033416748,0.7527387142181396,-0.5380195379257202
1779968349142097700,13.26209765625,1.6534595489501953,1.1546880006790161,-1.1296426057815552
1779968349158462700,13.278462646484375,0.18616119027137756,5.151731967926025,-2.4501805305480957
1779968349174774800,13.29477490234375,-0.3778201639652252,4.486499786376953,-2.28326153755188
1779968349191096800,13.311096923828124,-1.116814374923706,2.2437081336975098,-1.3478741645812988
1779968349207428000,13.327427978515624,-1.6901113986968994,0.47342056035995483,-1.6015359163284302
1779968349223761200,13.34376123046875,-2.7670669555664062,0.47219884395599365,-2.4026856422424316
1779968349240081000,13.360080810546876,-3.082273244857788,-0.7266241908073425,-1.7134770154953003
1779968349256415500,13.37641552734375,-2.2324070930480957,-3.8741073608398438,-2.2325596809387207
1779968349272755500,13.39275537109375,-1.1910345554351807,-4.78429651260376,-7.155370235443115
1779968349289105000,13.40910498046875,0.168751522898674,2.0894646644592285,-6.0147318840026855
1779968349305422600,13.425422607421876,0.11041389405727386,4.739245414733887,-2.3739750385284424
1779968349321755000,13.4417548828125,0.2393064647912979,0.4584543704986572,-1.3397802114486694
1779968349338087400,13.45808740234375,-0.09575312584638596,0.8862127661705017,-1.4338533878326416
1779968349354421500,13.47442138671875,-0.9860892295837402,0.35414913296699524,-1.7774651050567627
1779968349370750200,13.490750244140624,-1.2753338813781738,-1.1197160482406616,-0.9711230397224426
1779968349387083500,13.50708349609375,-0.9153815507888794,-0.43936482071876526,-0.30314189195632935
1779968349403405600,13.523405517578125,-0.6411030888557434,0.7174612283706665,0.6304129362106323
1779968349419737300,13.5397373046875,-0.19089539349079132,1.2302825450897217,1.2095131874084473
1779968349436074800,13.55607470703125,0.2736676335334778,0.603076696395874,1.4469870328903198
1779968349452422400,13.57242236328125,0.6982190012931824,-0.12186761945486069,1.5543465614318848
1779968349468742700,13.58874267578125,1.0584768056869507,-0.5778785347938538,1.7289013862609863
1779968349485063000,13.60506298828125,1.2289081811904907,-1.0566442012786865,2.0092885494232178
1779968349501575000,13.621574951171874,1.2165381908416748,-1.9297232627868652,2.5305092334747314
1779968349517739500,13.637739501953124,1.5173892974853516,-3.168405294418335,2.956740617752075
1779968349534074000,13.65407421875,2.3350324630737305,-3.8562395572662354,3.1117475032806396
1779968349550407200,13.6704072265625,2.908482074737549,-3.6535849571228027,3.0379855632781982
1779968349566738700,13.68673876953125,3.0256154537200928,-3.618154764175415,3.1728341579437256
1779968349583069400,13.7030693359375,1.7301230430603027,-3.9012908935546875,3.067765235900879
1779968349599417000,13.7194169921875,-0.7924449443817139,-3.235600471496582,3.4689509868621826
1779968349615753500,13.73575341796875,-1.6849191188812256,-0.8196284174919128,4.165184497833252
1779968349632077000,13.7520771484375,-1.0461066961288452,0.7872526049613953,3.89732027053833
1779968349648400100,13.768400146484375,-0.021991148591041565,-1.0257954597473145,2.4634668827056885
1779968349664733400,13.7847333984375,0.9592111706733704,-3.12091064453125,1.6815593242645264
1779968349681065200,13.801065185546875,1.249372124671936,-1.9173532724380493,1.2240211963653564
1779968349697397200,13.817397216796875,0.6007859706878662,-1.3125966787338257,0.5154175758361816
1779968349713728300,13.833728271484375,0.6288857460021973,-1.732261061668396,-0.16661348938941956
1779968349730062600,13.8500625,0.2756529450416565,-2.152689218521118,-0.4602869749069214
1779968349746393000,13.86639306640625,-0.5316054821014404,-1.5859588384628296,-1.1157454252243042
1779968349762726700,13.8827265625,-0.8761335015296936,-0.792750358581543,-2.339613914489746
1779968349779060000,13.89906005859375,-0.6692028641700745,1.6563611030578613,-2.8800768852233887
1779968349795392800,13.915392822265625,-0.2577851414680481,4.603938579559326,-2.9277243614196777
1779968349811721000,13.931720947265624,0.027947084978222847,6.269157409667969,-2.3890938758850098
1779968349828053000,13.948052978515625,-0.3084869384765625,4.168391704559326,-0.3335324227809906
1779968349844388600,13.964388671875,-0.22540926933288574,0.9045386910438538,3.891517162322998
1779968349860716300,13.98071630859375,0.535881519317627,2.869234085083008,2.4976751804351807
1779968349877057300,13.997057373046875,1.7443257570266724,1.3081679344177246,-1.42637038230896
1779968349893401600,14.013401611328124,0.7675521969795227,0.9202684760093689,-0.755182147026062
1779968349909728000,14.02972802734375,0.10812314599752426,2.029905319213867,-0.44104471802711487
1779968349926064000,14.046064208984374,-0.7701483368873596,2.4912612438201904,-1.1047497987747192
1779968349942395100,14.06239501953125,-1.7351627349853516,2.1264219284057617,-1.5427402257919312
1779968349958726400,14.078726318359376,-2.3287711143493652,0.9650143980979919,-3.1280882358551025
1779968349975044600,14.095044677734375,-3.4440581798553467,2.1277964115142822,-4.317442893981934
1779968349999552000,14.119552001953124,-3.1916182041168213,-1.1927143335342407,-0.8303185701370239
1779968350015890000,14.135889892578126,-1.711338996887207,-5.00039005279541,-6.278931140899658
1779968350032204300,14.152204345703124,0.19547687470912933,-0.19120082259178162,-5.787795543670654
1779968350048542500,14.16854248046875,0.5919284224510193,3.240792751312256,-2.9686524868011475
1779968350064857900,14.18485791015625,0.28298333287239075,1.253495454788208,-2.3846652507781982
1779968350081210000,14.201210205078125,0.3975205719470978,0.7202101349830627,-1.8038851022720337
1779968350097536300,14.217536376953126,-0.14874568581581116,2.453234910964966,-1.514793038368225
1779968350113873200,14.233873046875,-0.6940956115722656,-0.44852781295776367,-1.7087428569793701
1779968350130218000,14.250218017578124,-0.836885392665863,-1.3303117752075195,-0.6499606370925903
1779968350146546700,14.266546630859375,-0.9034696817398071,-0.21609358489513397,0.42470407485961914
1779968350162878500,14.28287841796875,-0.5381723046302795,0.8645270466804504,1.0910053253173828
1779968350179214000,14.299214111328125,-0.003817907767370343,0.7168503403663635,1.5210545063018799
1779968350195526400,14.3155263671875,0.4421137273311615,-0.18555031716823578,1.645365595817566
1779968350211864300,14.3318642578125,0.8223773241043091,-0.1973094791173935,2.004554271697998
1779968350228196900,14.34819677734375,0.9566149711608887,-0.4086688458919525,2.3664920330047607
1779968350244535300,14.364535400390626,1.0766500234603882,-1.7269160747528076,2.6707029342651367
1779968350260862200,14.3808623046875,1.3368785381317139,-3.2757649421691895,2.984534978866577
1779968350277189400,14.397189453125,2.035097599029541,-3.475670576095581,3.2429308891296387
1779968350293528600,14.413528564453125,2.6067147254943848,-3.029128074645996,3.0503556728363037
1779968350309857300,14.429857177734375,2.4017693996429443,-2.8790078163146973,3.707035779953003
1779968350326190800,14.44619091796875,1.463022232055664,-2.6542093753814697,3.7730093002319336
1779968350342522000,14.462522216796875,-0.21212296187877655,-2.4993550777435303,3.4177911281585693
1779968350358854400,14.4788544921875,-1.5121968984603882,-1.0308351516723633,3.978107213973999
1779968350375189000,14.49518896484375,-0.5502368807792664,0.727082371711731,3.6532795429229736
1779968350391531500,14.511531494140625,0.9318749308586121,-0.8006916046142578,2.5280659198760986
1779968350407852000,14.52785205078125,1.2315043210983276,-1.044274091720581,2.613281488418579
1779968350424196400,14.5441962890625,1.2501357793807983,-0.5775730609893799,2.3072381019592285
1779968350440524300,14.560524169921875,0.8225300312042236,-0.7727445363998413,1.1436924934387207
1779968350456859100,14.576859130859376,0.45402559638023376,-1.2722796201705933,0.1238529309630394
1779968350473167600,14.593167724609375,0.28496864438056946,-1.256244421005249,-0.7559457421302795
1779968350489500700,14.609500732421875,-0.4027129113674164,-1.00502610206604,-1.147357702255249
1779968350505849000,14.62584912109375,-1.0080803632736206,-0.8677340745925903,-1.4637858867645264
1779968350522176500,14.642176513671876,-1.3103059530258179,-1.0881037712097168,-1.9792033433914185
1779968350538509000,14.658509033203124,-1.2350168228149414,-0.3104722499847412,-2.316553831100464
1779968350554842400,14.67484228515625,-0.967915952205658,1.2067643404006958,-1.88864266872406
1779968350571176200,14.69117626953125,-0.36071592569351196,2.233934164047241,-1.521665334701538
1779968350587516400,14.707516357421875,-0.07757988572120667,3.3822081089019775,-0.09040805697441101
1779968350603840800,14.7238408203125,0.09453139454126358,4.507421970367432,2.93154239654541
1779968350620183600,14.74018359375,0.5364924073219299,4.898681163787842,1.504408359527588
1779968350636521200,14.756521240234376,1.798081874847412,1.4437800645828247,-1.4895949363708496
1779968350652853200,14.772853271484376,1.1743884086608887,0.7823656797409058,-1.6210836172103882
1779968350669179100,14.78917919921875,-0.2321287989616394,2.593581199645996,-1.1992812156677246
1779968350685507000,14.805507080078126,-1.246165156364441,2.2968533039093018,-1.99447500705719
1779968350701836300,14.821836181640625,-2.3464860916137695,2.1372647285461426,-1.368949055671692
1779968350718163200,14.8381630859375,-3.0101912021636963,0.9969320893287659,-1.796554684638977
1779968350734485500,14.854485595703125,-3.286302328109741,-1.1633929014205933,-2.62076473236084
1779968350750828000,14.870828125,-1.8219056129455566,-4.488943099975586,-2.528676748275757
1779968350767162600,14.88716259765625,-0.14828753471374512,-3.12427020072937,-7.367798328399658
1779968350783490300,14.903490234375,0.5160284042358398,2.6143505573272705,-5.809175968170166
1779968350799833900,14.919833740234376,-0.02733621932566166,2.630080223083496,-2.5557074546813965
1779968350816157200,14.9361572265625,0.3732386529445648,0.18768835067749023,-2.247220516204834
1779968350832488700,14.95248876953125,-0.14523321390151978,0.27229318022727966,-2.314415693283081
1779968350848826400,14.968826416015625,-1.0151053667068481,0.6562219858169556,-2.0051651000976562
1779968350865155000,14.985155029296875,-1.2431107759475708,0.5109887719154358,-1.4688254594802856
1779968350881486800,15.00148681640625,-1.0265589952468872,0.5119050741195679,-1.026253581047058
1779968350897821000,15.017821044921876,-0.9098837971687317,0.05161811411380768,-0.1612684279680252
1779968350914152700,15.034152587890626,-0.6061310172080994,0.5482515692710876,0.7809911966323853
1779968350930496800,15.050496826171875,0.06261368840932846,0.3819434940814972,1.396132469177246
1779968350946830800,15.066830810546875,0.6125451326370239,-0.5314527750015259,1.5795447826385498
1779968350963164400,15.083164306640626,1.0151053667068481,-0.8857545852661133,1.5990924835205078
1779968350979492400,15.099492431640625,1.2585351467132568,-0.7504479289054871,1.933235764503479
1779968350995831600,15.11583154296875,1.202946424484253,-1.5780175924301147,2.520124673843384
1779968351008074800,15.12807470703125,1.1719449758529663,-2.7656924724578857,2.8930578231811523
1779968351024408000,15.144407958984376,1.8863518238067627,-3.578601360321045,2.9243645668029785
1779968351040723500,15.160723388671874,2.5778512954711914,-3.8951821327209473,2.9165761470794678
1779968351057073000,15.177072998046874,2.0473148822784424,-4.139528274536133,3.7229182720184326
1779968351073393200,15.19339306640625,1.059393048286438,-3.3935091495513916,3.7617082595825195
1779968351089732000,15.209732177734375,0.08414668589830399,-2.77531361579895,3.2736268043518066
1779968351106075000,15.226074951171874,-0.879187822341919,-2.0166189670562744,3.927863597869873
1779968351122395400,15.2423955078125,-1.3231340646743774,0.05115996301174164,4.463439464569092
1779968351138714600,15.258714599609375,-0.3520110845565796,-0.43279802799224854,3.310736894607544
1779968351155065900,15.27506591796875,0.22418753802776337,-1.8895589113235474,2.3512203693389893
1779968351171368000,15.291367919921875,0.45692721009254456,-2.0146336555480957,1.8828394412994385
1779968351187716900,15.307716796875,0.7180721163749695,-1.6169602870941162,1.0942124128341675
1779968351204051500,15.324051513671876,0.40775254368782043,-1.5861116647720337,0.3039054572582245
1779968351220367600,15.34036767578125,0.5074763298034668,-1.2936599254608154,-0.31841349601745605
1779968351236713000,15.356712890625,0.11957687139511108,-0.925308108329773,-0.7545713186264038
1779968351253047000,15.373047119140624,-0.41981714963912964,-0.28878653049468994,-1.6265814304351807
1779968351269379800,15.3893798828125,-0.5004513263702393,-0.4095851480960846,-2.445140838623047
1779968351285714000,15.4057138671875,-0.5007568001747131,1.1074986457824707,-2.785698175430298
1779968351302039600,15.42203955078125,-0.45173484086990356,2.668870210647583,-2.8264734745025635
1779968351318374700,15.438374755859375,-0.32681289315223694,4.063475608825684,-2.288912057876587
1779968351334704000,15.4547041015625,-0.456163614988327,3.8796050548553467,0.6863071322441101
1779968351351040500,15.47104052734375,-0.4046982228755951,1.315040111541748,5.557499408721924
1779968351367372300,15.487372314453125,0.05772676691412926,1.8109099864959717,3.6885571479797363
1779968351383720400,15.503720458984375,2.041206121444702,0.8849910497665405,-0.8648324608802795
1779968351400035300,15.520035400390626,1.744478464126587,0.016951510682702065,-0.4004221558570862
1779968351416379400,15.53637939453125,0.21074850857257843,1.1151344776153564,-0.48426342010498047
1779968351432720100,15.55272021484375,-1.3063353300094604,2.8315131664276123,-2.065335512161255
1779968351449042200,15.569042236328125,-2.247678756713867,3.237738609313965,-2.492635726928711
1779968351465384700,15.585384765625,-2.471102714538574,1.5632041692733765,-3.2013919353485107
1779968351481710300,15.60171044921875,-2.82265567779541,0.6965391039848328,-3.882964849472046
1779968351498027800,15.61802783203125,-2.479196548461914,-1.3187053203582764,-2.4807238578796387
1779968351514375000,15.634375,-0.854905903339386,-2.658027410507202,-5.31422233581543
1779968351530702000,15.6507021484375,0.35094207525253296,0.9305005073547363,-5.945857048034668
1779968351547033900,15.667033935546876,0.43707409501075745,2.094198703765869,-3.866166114807129
1779968351563369700,15.68336962890625,0.2915354371070862,0.7646505832672119,-2.9385671615600586
1779968351579706000,15.6997060546875,0.19746218621730804,0.08750644326210022,-2.532341957092285
1779968351596035600,15.71603564453125,-0.45234572887420654,0.9318749308586121,-2.4602596759796143
1779968351612376800,15.732376953125,-1.3894129991531372,0.7076873779296875,-1.7870862483978271
1779968351628684000,15.74868408203125,-1.3374894857406616,0.17088955640792847,-1.359175205230713
1779968351645018600,15.7650185546875,-0.8151996731758118,-0.0029016099870204926,-0.7359399199485779
1779968351661351200,15.78135107421875,-0.6152940392494202,0.17867808043956757,0.5377141237258911
1779968351677685800,15.797685791015626,-0.036041051149368286,0.45555275678634644,1.1134545803070068
1779968351694010600,15.8140107421875,0.4960225820541382,-0.25274550914764404,1.1769846677780151
1779968351710350300,15.830350341796875,0.9053022861480713,-0.7699956297874451,1.2980886697769165
1779968351726684200,15.84668408203125,1.1204795837402344,-0.2125810980796814,1.877036213874817
1779968351743015000,15.863014892578125,1.1424707174301147,-0.5455026626586914,2.500882387161255
1779968351759348000,15.879347900390625,1.2560917139053345,-2.3877196311950684,3.1035008430480957
1779968351775679500,15.895679443359375,1.6815593242645264,-3.5249979496002197,3.5303430557250977
1779968351792011800,15.91201171875,2.1620047092437744,-3.757584810256958,3.4245104789733887
1779968351808344600,15.928344482421876,2.391690254211426,-3.366173028945923,3.715893268585205
1779968351824675600,15.944675537109376,1.5360206365585327,-2.707507371902466,3.9425241947174072
1779968351841007400,15.96100732421875,-1.5546520948410034,-0.6000223755836487,3.7223074436187744
1779968351857339000,15.9773388671875,-3.02622652053833,0.49785518646240234,4.678922176361084
1779968351873693700,15.993693603515625,-1.564884066581726,0.5584835410118103,4.423428058624268
1779968351890019600,16.01001953125,0.4535674452781677,-0.6204863786697388,3.2391128540039062
1779968351906342000,16.026341796875,1.0430524349212646,-1.1285735368728638,2.5778512954711914
1779968351922681300,16.042681396484376,1.207069754600525,-1.6743816137313843,1.9501873254776
1779968351939020300,16.059020263671876,1.0175487995147705,-1.998598337173462,1.1673635244369507
1779968351955347200,16.07534716796875,0.9085093140602112,-1.8041905164718628,0.14569136500358582
1779968351971680800,16.0916806640625,0.6959282159805298,-2.0059287548065186,-0.6717990636825562
1779968351988013300,16.108013427734374,0.04046982154250145,-1.892460584640503,-0.9298896193504333
1779968352004344000,16.124343994140624,-0.5787948369979858,-1.1210904121398926,-1.3041973114013672
1779968352020656600,16.14065673828125,-0.5768095254898071,-0.5167919993400574,-2.1650590896606445
1779968352037015600,16.157015625,-0.028099801391363144,0.9896016716957092,-2.9944615364074707
1779968352053319700,16.173319580078125,0.403323769569397,3.2766811847686768,-3.244457960128784
1779968352069648100,16.189648193359375,0.6495024561882019,5.348888874053955,-2.5648703575134277
1779968352085996800,16.205996826171877,0.5929974317550659,5.366603851318359,-0.40653082728385925
1779968352102325000,16.222324951171874,0.6860016584396362,2.51523756980896,3.1726813316345215
1779968352118645500,16.2386455078125,1.041067123413086,2.0286834239959717,1.1169670820236206
1779968352134990000,16.254989990234375,1.3249666690826416,2.6868908405303955,-1.4694362878799438
1779968352151323100,16.2713232421875,1.0459539890289307,1.3519974946975708,-1.8764252662658691
1779968352167654400,16.287654296875,0.2765692472457886,0.6635523438453674,-1.062294602394104
1779968352183991600,16.303991455078126,-0.23594669997692108,1.9084957838058472,-1.2009611129760742
1779968352200319000,16.320319091796875,-1.1936306953430176,2.99308705329895,-1.0746647119522095
1779968352216652500,16.336652587890626,-1.684613585472107,2.440253973007202,-1.5291484594345093
1779968352232983600,16.352983642578124,-2.191173553466797,2.4075727462768555,-2.944675922393799
1779968352249337000,16.369337158203123,-2.900540828704834,1.6076445579528809,-3.305086374282837
1779968352265644800,16.385644775390624,-2.152689218521118,-2.0535762310028076,-2.12397837638855
1779968352281980200,16.401980224609375,-1.388802170753479,-4.813465595245361,-5.499619960784912
1779968352298312700,16.418312744140625,0.10430523753166199,0.9019425511360168,-6.9075117111206055
1779968352314642700,16.434642578125,0.7415903806686401,4.414112091064453,-3.562566041946411
1779968352330980400,16.45098046875,0.20128010213375092,1.7285959720611572,-2.389552116394043
1779968352347320300,16.4673203125,-0.14798210561275482,0.6672175526618958,-1.934457540512085
1779968352363649000,16.48364892578125,-0.73685622215271,1.4358386993408203,-1.3683381080627441
1779968352379984400,16.499984375,-1.207375168800354,-0.023518312722444534,-1.3658946752548218
1779968352396323300,16.5163232421875,-0.9740246534347534,0.313373863697052,-0.6953173875808716
1779968352412652300,16.53265234375,-0.5392413139343262,0.7490735054016113,0.34284812211990356
1779968352428980200,16.548980224609377,0.025503624230623245,0.9674578309059143,1.0932960510253906
1779968352445306000,16.56530615234375,0.6047565937042236,0.1010981947183609,1.3912456035614014
1779968352461647400,16.5816474609375,1.0305296182632446,-1.1728612184524536,1.5312864780426025
1779968352477975300,16.597975341796875,1.439045786857605,-1.592678427696228,1.7664695978164673
1779968352494321000,16.61432080078125,1.6600263118743896,-1.1853840351104736,2.375960350036621
1779968352510647300,16.630647216796874,1.4495831727981567,-1.463938593864441,3.135265827178955
1779968352526977500,16.6469775390625,1.4161384105682373,-2.5442538261413574,3.7840046882629395
1779968352543308800,16.663308837890625,1.7153096199035645,-2.6981918811798096,4.435798168182373
1779968352559634700,16.679634765625,2.0946569442749023,-2.9820914268493652,4.483750820159912
1779968352575972600,16.69597265625,2.1542162895202637,-2.0253236293792725,4.646393775939941
1779968352592310000,16.71231005859375,0.21273382008075714,-0.3260493278503418,3.6213619709014893
1779968352608639700,16.7286396484375,-1.206153392791748,1.5699236392974854,3.241250991821289
1779968352624956000,16.744955810546877,0.8153523802757263,1.5421292781829834,3.908773899078369
1779968352641285600,16.76128564453125,0.14477506279945374,-1.8742872476577759,4.694499492645264
1779968352657622000,16.7776220703125,-0.32421672344207764,-2.621222734451294,4.387845039367676
1779968352673956400,16.793956298828125,0.26374107599258423,-2.7736337184906006,2.9830076694488525
1779968352690287900,16.810287841796875,0.28619036078453064,-2.0372354984283447,1.4718798398971558
1779968352706620700,16.82662060546875,-0.05711590126156807,-1.469894528388977,-0.16752979159355164
1779968352722951200,16.842951171875,-0.34208452701568604,-1.9753854274749756,-1.189049243927002
1779968352739289900,16.859289794921875,-0.9752463698387146,-1.8567248582839966,-1.391398310661316
1779968352755613400,16.875613525390627,-1.3388638496398926,-1.0554224252700806,-1.5008958578109741
1779968352771927800,16.891927734375,-1.1844676733016968,-0.2393064647912979,-2.3095288276672363
1779968352788281600,16.908281494140624,-0.6464481353759766,1.8396207094192505,-2.766455888748169
1779968352804614000,16.92461376953125,-0.13637566566467285,3.9009854793548584,-2.7475192546844482
1779968352820946000,16.94094580078125,0.28206703066825867,4.879744529724121,-2.609463691711426
1779968352837279500,16.957279541015627,0.19288070499897003,4.826904296875,-1.4074335098266602
1779968352853628700,16.973628662109373,0.6146831512451172,3.283400774002075,3.006678819656372
1779968352869956400,16.989956298828126,0.9711230397224426,1.4253013134002686,2.3962717056274414
1779968352886286800,17.006286865234376,0.6336199641227722,1.8857409954071045,-0.6162103414535522
1779968352902621700,17.02262158203125,1.2173017263412476,1.66781485080719,-0.8272642493247986
1779968352918931000,17.038930908203124,0.40744712948799133,0.6224716901779175,-1.3859004974365234
1779968352935283700,17.05528369140625,-0.20066922903060913,2.4611761569976807,-1.4581353664398193
1779968352951621400,17.071621337890626,-1.0766500234603882,3.436422348022461,-1.439045786857605
1779968352967952000,17.087951904296876,-1.7692184448242188,2.6568057537078857,-1.4016302824020386
1779968352984266800,17.104266845703126,-2.2826507091522217,1.6577355861663818,-2.4804184436798096
1779968353000612600,17.120612548828124,-3.330437421798706,1.067639708518982,-3.640451431274414
1779968353016930800,17.136930908203126,-3.0527989864349365,-2.540130376815796,-2.3073906898498535
1779968353033282000,17.153281982421873,-1.4482088088989258,-4.342030048370361,-4.767955780029297
1779968353049610200,17.1696103515625,-0.29886582493782043,1.671021819114685,-6.7683868408203125
1779968353065930000,17.185929931640626,-0.15332718193531036,4.29025936126709,-3.5022432804107666
1779968353082260000,17.202260009765624,-0.08414668589830399,0.6835582256317139,-2.744006633758545
1779968353098589700,17.218589599609373,0.24159720540046692,-0.6375905871391296,-2.537687063217163
1779968353114938000,17.234938232421875,-0.584750771522522,1.7380642890930176,-2.0060815811157227
1779968353131261000,17.251260986328123,-1.5454890727996826,0.7770205736160278,-1.7009543180465698
1779968353147591700,17.267591796875,-1.4903584718704224,0.6436992287635803,-1.1398745775222778
1779968353163923200,17.283923095703123,-1.117730736732483,0.9243918061256409,-0.15042556822299957
1779968353180244000,17.300243896484375,-0.3825543522834778,1.2131783962249756,0.5966626405715942
1779968353196577800,17.316577880859374,0.17531833052635193,1.2948815822601318,1.109789490699768
1779968353212921300,17.33292138671875,0.641255795955658,0.32039880752563477,1.1720976829528809
1779968353229259300,17.34925927734375,0.9489791393280029,-0.5855143666267395,1.3393220901489258
1779968353245566200,17.365566162109374,1.232573390007019,-0.5677992701530457,1.5909985303878784
1779968353261922600,17.381922607421874,1.511891484260559,-1.0737483501434326,1.9602665901184082
1779968353278250200,17.398250244140623,2.1314616203308105,-1.9715676307678223,2.4029910564422607
1779968353294582300,17.414582275390625,2.716059684753418,-2.1058051586151123,2.5280659198760986
1779968353310910700,17.43091064453125,2.819753885269165,-2.210263252258301,2.972470283508301
1779968353327250200,17.447250244140626,2.697275400161743,-2.2626447677612305,3.7339138984680176
1779968353343571000,17.463571044921874,0.7869471311569214,-1.591456651687622,3.776521682739258
1779968353359924200,17.47992431640625,-2.5421156883239746,0.31230485439300537,4.740925312042236
1779968353376261000,17.49626123046875,-2.3075435161590576,0.6710354685783386,5.430592060089111
1779968353392585700,17.512585693359377,-0.43050727248191833,0.06719517707824707,4.498869895935059
1779968353408923000,17.5289228515625,-0.02122756652534008,-0.06536258012056351,3.4037411212921143
1779968353425256000,17.545255859375,-0.03787364438176155,-0.6679811477661133,2.5257749557495117
1779968353441580300,17.561580322265623,0.5002986192703247,-1.7018705606460571,1.958433985710144
1779968353457924400,17.57792431640625,0.2718350291252136,-1.8414533138275146,1.5401439666748047
1779968353474249000,17.5942490234375,0.0907134860754013,-2.018604278564453,0.7573201656341553
1779968353490586600,17.610586669921876,-0.2154827117919922,-1.9320141077041626,-0.18845193088054657
1779968353506917000,17.626917236328126,-0.6765332818031311,-1.4297300577163696,-0.8617781400680542
1779968353523250000,17.64325,-1.2023354768753052,-0.5106833577156067,-1.662164330482483
1779968353539560400,17.659560546875,-0.9454666972160339,-0.0065668015740811825,-2.624277114868164
1779968353555916300,17.675916259765625,-0.09544769674539566,1.3990341424942017,-3.213609457015991
1779968353572230100,17.692230224609375,0.3119994103908539,4.100432872772217,-3.279888153076172
1779968353588577800,17.708577880859377,0.5300782918930054,6.200282096862793,-1.856266736984253
1779968353604893200,17.72489306640625,0.6866125464439392,3.931070566177368,1.5653421878814697
1779968353621224000,17.741223876953125,0.6979135274887085,0.35246923565864563,2.9883527755737305
1779968353637562400,17.757562255859376,1.2489140033721924,1.6417003870010376,-0.6733261942863464
1779968353653893400,17.773893310546875,1.9086484909057617,1.9689713716506958,-1.9770653247833252
1779968353670210600,17.79021044921875,1.0968085527420044,1.751808762550354,-1.4804319143295288
1779968353686562000,17.80656201171875,0.5500841736793518,1.9158260822296143,-1.2513574361801147
1779968353702893300,17.822893310546874,-0.14569136500358582,1.8014415502548218,-1.3144292831420898
1779968353719227600,17.8392275390625,-0.9231700897216797,1.862222671508789,-0.6023131608963013
1779968353735564500,17.855564453125,-1.627650499343872,1.312138557434082,-1.524566888809204
1779968353751884800,17.871884765625,-2.8771753311157227,2.442850112915039,-3.2788190841674805
1779968353768221000,17.888220947265626,-3.3840408325195312,1.9955440759658813,-2.973539352416992
1779968353784541000,17.904541015625,-2.0453295707702637,-4.366617679595947,-2.261423110961914
1779968353800883200,17.92088330078125,-0.7121161818504333,-5.587737083435059,-7.8233513832092285
1779968353817217500,17.937217529296873,0.44593164324760437,3.2343788146972656,-5.227173805236816
1779968353833548000,17.953548095703123,0.24129177629947662,4.6660943031311035,-1.9497292041778564
1779968353849896400,17.969896484375,0.06994406878948212,0.49617528915405273,-1.6398677825927734
1779968353866225700,17.9862255859375,-0.055894169956445694,0.9181304574012756,-1.4088079929351807
1779968353882557200,18.00255712890625,-0.6322455406188965,2.1487185955047607,-1.2971723079681396
1779968353898889200,18.01888916015625,-1.1203268766403198,0.7677049040794373,-1.2072224617004395
1779968353915221800,18.0352216796875,-1.1447614431381226,0.9753990769386292,-0.192422553896904
1779968353931553300,18.05155322265625,-0.8151996731758118,1.3700180053710938,0.3927863538265228
1779968353947886000,18.067885986328125,-0.2838996350765228,1.3460415601730347,0.6621779203414917
1779968353964222700,18.08422265625,0.36331209540367126,0.5707008838653564,0.8993463516235352
1779968353980532200,18.1005322265625,1.0506882667541504,-0.012828170321881771,1.0152580738067627
1779968353996888300,18.116888427734374,1.4906638860702515,-0.14767667651176453,1.6016886234283447
1779968354013201000,18.133200927734375,1.5288430452346802,-1.1470521688461304,2.3435845375061035
1779968354029548500,18.149548583984377,1.3518447875976562,-2.3512203693389893,2.847395658493042
1779968354045865200,18.165865234375,1.652390480041504,-2.420706272125244,3.0219504833221436
1779968354062211600,18.182211669921877,2.0221166610717773,-2.1928534507751465,3.224757671356201
1779968354078524400,18.1985244140625,2.1322250366210938,-1.965458869934082,4.025296688079834
1779968354094861600,18.214861572265626,1.012050986289978,-1.887115478515625,3.97001314163208
1779968354111196700,18.23119677734375,-2.0511326789855957,-0.8686503767967224,4.349360466003418
1779968354127527700,18.247527587890627,-2.8733572959899902,0.06108652427792549,5.2413763999938965
1779968354143858400,18.2638583984375,-1.41690194606781,-0.7857254147529602,4.317137241363525
1779968354160192500,18.280192626953124,-0.10491610318422318,-0.3721696436405182,3.0575332641601562
1779968354176526800,18.29652685546875,0.12797626852989197,-0.2646573781967163,2.6723828315734863
1779968354192856800,18.31285693359375,0.711963415145874,-0.7887797355651855,2.104430675506592
1779968354209197000,18.329197021484376,0.9208793640136719,-1.1131491661071777,1.1299480199813843
1779968354225537000,18.345537109375,0.6319400668144226,-2.102139949798584,0.20036379992961884
1779968354241845800,18.361845703125,0.4970915913581848,-2.9739973545074463,-0.4369213581085205
1779968354258187800,18.378187744140625,-0.08170322328805923,-2.599384307861328,-0.7617489695549011
1779968354274520800,18.394520751953124,-0.4763221740722656,-0.7470881938934326,-1.9216293096542358
1779968354290852600,18.4108525390625,-0.31459560990333557,1.4453071355819702,-3.082273244857788
1779968354307186000,18.42718603515625,-0.3851505517959595,3.6494617462158203,-3.7472000122070312
1779968354323511800,18.44351171875,-0.4225660264492035,5.042387008666992,-3.5321755409240723
1779968354339865300,18.459865234375,-0.244804248213768,4.649600982666016,-1.6099354028701782
1779968354356194600,18.476194580078126,-0.5247332453727722,1.454470157623291,1.4121677875518799
1779968354372523500,18.4925234375,0.5403103232383728,0.9283624291419983,3.0952541828155518
1779968354388860000,18.50885986328125,0.9486737251281738,1.6701055765151978,0.8752171993255615
1779968354405192000,18.52519189453125,1.1407908201217651,2.166128158569336,-0.42989641427993774
1779968354421523200,18.541523193359374,0.5829181671142578,1.8970420360565186,-1.1809552907943726
1779968354437857000,18.55785693359375,0.3732386529445648,3.3651039600372314,-1.2263119220733643
1779968354454189300,18.574189208984375,0.15103642642498016,1.9642372131347656,-1.9514089822769165
1779968354470520600,18.5905205078125,-0.7965682744979858,1.6383405923843384,-1.0644327402114868
1779968354486853600,18.606853515625,-1.4043792486190796,0.16401731967926025,-0.6922630667686462
1779968354503185200,18.62318505859375,-2.4407119750976562,0.42470407485961914,-2.1401662826538086
1779968354519515600,18.639515625,-3.0838005542755127,0.0887281745672226,-3.0188961029052734
1779968354535851500,18.6558515625,-1.7708983421325684,-3.9154934883117676,-2.448347806930542
1779968354552180000,18.672179931640624,-0.7840455174446106,-4.541630268096924,-7.744702339172363
1779968354568515000,18.68851513671875,0.5575672388076782,3.2980613708496094,-6.105597972869873
1779968354584830700,18.704830810546873,0.5250386595726013,4.363563060760498,-2.5983152389526367
1779968354601159200,18.7211591796875,0.1085812970995903,0.15500704944133759,-2.1986567974090576
1779968354617501700,18.737501708984375,-0.6837109327316284,-0.055741455405950546,-1.7484490871429443
1779968354633831000,18.753830810546877,-1.2618948221206665,0.660803496837616,-1.4886785745620728
1779968354650161200,18.7701611328125,-1.338711142539978,0.27320948243141174,-1.2192870378494263
1779968354666495700,18.786495849609373,-1.1339186429977417,0.3341432809829712,-0.21303924918174744
1779968354682827300,18.8028271484375,-0.8707883954048157,0.9272934198379517,0.5545129179954529
1779968354699161900,18.819161865234374,-0.35033121705055237,1.0769554376602173,1.0378600358963013
1779968354715491000,18.835490966796876,0.4384485185146332,0.041691552847623825,1.235169529914856
1779968354731822000,18.851822021484374,1.1701123714447021,-0.684474527835846,1.4798210859298706
1779968354748138500,18.868138427734376,1.4373658895492554,-0.5748242139816284,1.990351676940918
1779968354764487700,18.88448779296875,1.4634803533554077,-1.8292360305786133,2.5813639163970947
1779968354780818000,18.90081787109375,1.0787880420684814,-3.9329030513763428,3.2646164894104004
1779968354797156400,18.91715625,1.0783299207687378,-4.2668938636779785,3.8988473415374756
1779968354813484000,18.933484130859377,1.831221342086792,-3.1865785121917725,3.771023988723755
1779968354829833000,18.9498330078125,2.09389328956604,-2.2655465602874756,4.201836585998535
1779968354846149600,18.966149658203125,0.7757988572120667,-2.091297149658203,4.1858015060424805
1779968354862496000,18.98249609375,-1.7931948900222778,-1.4856243133544922,4.355316638946533
1779968354878828300,18.998828369140625,-2.5282185077667236,1.1464413404464722,5.161811351776123
1779968354895145000,19.01514501953125,-0.7709119319915771,1.2205088138580322,4.287510395050049
1779968354911476200,19.031476318359374,0.4732678532600403,-0.494189977645874,3.3064608573913574
1779968354927825400,19.047825439453124,0.48808133602142334,-1.1394164562225342,3.1636710166931152
1779968354944178700,19.0641787109375,0.8541423082351685,-0.55069500207901,1.9060522317886353
1779968354960491500,19.080491455078125,0.7634288668632507,-0.7035640478134155,0.6429356932640076
1779968354976831500,19.09683154296875,0.5364924073219299,-1.063821792602539,-0.11652254313230515
1779968354993153000,19.113153076171876,0.02229658141732216,-1.4317153692245483,-0.36529740691185
1779968355009470000,19.129469970703123,-0.8078693151473999,-1.522887110710144,-0.3689626157283783
1779968355025817600,19.145817626953125,-1.0067058801651,-1.1887437105178833,-1.6641496419906616
1779968355042150400,19.162150390625,-0.6258314251899719,0.23945917189121246,-2.8732047080993652
1779968355058484200,19.178484130859374,-0.41263946890830994,3.2566752433776855,-3.3257031440734863
1779968355074814500,19.194814453125,-0.03436116874217987,5.8640007972717285,-3.414889335632324
1779968355091120000,19.2111201171875,0.12232576310634613,6.244875431060791,-1.9879082441329956
1779968355107457000,19.22745703125,-0.04932736977934837,2.8098273277282715,3.886477470397949
1779968355123799600,19.243799560546876,0.9306532144546509,2.233628749847412,2.0526599884033203
1779968355140131800,19.2601318359375,2.7461447715759277,-1.2000447511672974,-2.141388177871704
1779968355156462600,19.276462646484376,1.4815009832382202,0.5093088746070862,-0.9529497623443604
1779968355172795400,19.29279541015625,-0.07254024595022202,4.307974338531494,-0.8856018781661987
1779968355189134000,19.309134033203126,-0.7767151594161987,2.4886651039123535,-1.8458820581436157
1779968355205466400,19.32546630859375,-1.7985399961471558,1.1582005023956299,-1.4689781665802002
1779968355221784800,19.341784912109375,-2.852435350418091,-0.0933096632361412,-1.7241671085357666
1779968355238126000,19.3581259765625,-3.941149950027466,-0.36361753940582275,-3.2401819229125977
1779968355254456000,19.3744560546875,-2.69345760345459,-3.3678529262542725,-2.605034828186035
1779968355270802000,19.390802001953126,-0.470060795545578,-4.9205193519592285,-6.093380928039551
1779968355287121700,19.40712158203125,1.0896308422088623,-0.4080579876899719,-8.665276527404785
1779968355303452400,19.423452392578124,0.475253164768219,5.06025505065918,-3.782630205154419
1779968355319806000,19.439805908203127,0.24358251690864563,1.4897476434707642,-1.8611537218093872
1779968355336133400,19.45613330078125,-0.45326200127601624,0.5821545720100403,-1.7661641836166382
1779968355352463600,19.472463623046874,-1.4152220487594604,0.9807441234588623,-1.3903292417526245
1779968355368797400,19.48879736328125,-1.4274393320083618,0.38927388191223145,-0.4456261992454529
1779968355385127700,19.505127685546874,-1.172708511352539,0.7958046793937683,0.3988949954509735
1779968355401465300,19.52146533203125,-0.7800748944282532,1.4140002727508545,1.1365147829055786
1779968355417793500,19.53779345703125,-0.2099849283695221,0.9717338681221008,1.3785701990127563
1779968355434126600,19.554126708984374,0.29733866453170776,-0.12782354652881622,1.4089607000350952
1779968355450459000,19.570458984375,0.817948579788208,-0.7003570199012756,1.5094480514526367
1779968355466786600,19.58678662109375,1.1511754989624023,-0.8755226135253906,1.9541579484939575
1779968355483127800,19.6031279296875,1.2513574361801147,-1.921934723854065,2.482250928878784
1779968355499454500,19.619454345703126,1.3322970867156982,-3.8240163326263428,2.886949062347412
1779968355515788000,19.6357880859375,1.7519614696502686,-3.9883391857147217,3.1051807403564453
1779968355532120000,19.6521201171875,2.41413950920105,-2.7676777839660645,3.3576207160949707
1779968355548450800,19.668450927734376,2.881451368331909,-2.1288654804229736,3.68764066696167
1779968355564777200,19.684777099609374,2.559678077697754,-3.0101912021636963,3.4490978717803955
1779968355581099800,19.701099853515625,-0.6142250299453735,-2.2620339393615723,3.4576499462127686
1779968355597421800,19.717421875,-2.319607973098755,-1.0288498401641846,4.692667007446289
1779968355613768400,19.7337685546875,-1.4010194540023804,-0.8921687006950378,4.710381984710693
1779968355630100000,19.750099853515625,-0.23090706765651703,-2.1343631744384766,3.1511483192443848
1779968355646430000,19.766429931640626,0.20494529604911804,-2.6093108654022217,2.0983221530914307
1779968355662765800,19.782765869140626,0.8142833709716797,-1.3788756132125854,1.296714186668396
1779968355679101000,19.799100830078125,0.8547531962394714,-0.21303924918174744,0.611934244632721
1779968355695441200,19.815441162109376,0.45814892649650574,-0.7194465398788452,-0.0074830991216003895
1779968355711776300,19.8317763671875,0.11988230794668198,-1.4324790239334106,-0.3640756905078888
1779968355728089900,19.84808984375,-0.6721044778823853,-1.6210836172103882,-0.775340735912323
1779968355744423400,19.86442333984375,-0.903775155544281,-1.3029755353927612,-1.860848307609558
1779968355760761600,19.88076171875,-0.603076696395874,0.1719585657119751,-2.803260564804077
1779968355777094400,19.897094482421874,-0.4795292317867279,2.57342267036438,-3.180011749267578
1779968355793422000,19.913422119140623,-0.2964223623275757,4.880049705505371,-2.780200481414795
1779968355809755600,19.929755615234374,0.2177734673023224,5.110345840454102,-0.68951416015625
1779968355826094300,19.94609423828125,-0.20952677726745605,1.2921327352523804,4.286288738250732
1779968355842434300,19.962434326171874,0.5025894045829773,0.49953505396842957,3.3632712364196777
1779968355858751200,19.978751220703124,1.2612839937210083,1.6389514207839966,-1.3889548778533936
1779968355875098400,19.995098388671874,1.75608491897583,2.6923885345458984,-1.3859004974365234
1779968355891413800,20.011413818359376,0.3019201457500458,1.6155858039855957,-2.1265745162963867
1779968355907763500,20.027763427734374,-1.2330315113067627,1.9810359477996826,-2.939941644668579
1779968355924068000,20.044068115234374,-0.8319984674453735,2.9266552925109863,-2.1868975162506104
1779968355940428500,20.060428466796875,-1.004873275756836,1.1690434217453003,-0.9682214260101318
1779968355956762600,20.0767626953125,-1.605048418045044,-0.8074111342430115,-1.2762502431869507
1779968355973089800,20.09308984375,-2.414292097091675,-0.9592111706733704,-1.99447500705719
1779968355989407200,20.1094072265625,-1.9926424026489258,-1.9917261600494385,-1.8481727838516235
1779968356005753000,20.125753173828127,-0.4804455041885376,-2.8930578231811523,-5.619654655456543
1779968356022057000,20.142056884765626,0.5852088928222656,-0.9002626538276672,-8.508894920349121
1779968356038421500,20.15842138671875,0.34544429183006287,4.765359878540039,-3.899458408355713
1779968356054747600,20.17474755859375,0.15882496535778046,2.528829336166382,-1.351233959197998
1779968356071072800,20.19107275390625,0.5864306092262268,0.018936822190880775,-1.3947581052780151
1779968356087402000,20.207402099609375,-0.018325956538319588,2.2229385375976562,-1.4046846628189087
1779968356103728400,20.223728271484376,-0.812908947467804,0.9001099467277527,-1.7475327253341675
1779968356120068400,20.240068359375,-1.1201741695404053,-0.7646505832672119,-0.3481931984424591
1779968356136397000,20.25639697265625,-0.9595165848731995,0.389426589012146,0.4908302128314972
1779968356152733000,20.27273291015625,-0.3039054572582245,1.3292428255081177,0.9677632451057434
1779968356169072400,20.289072265625,0.30375275015830994,0.5112941861152649,1.161560297012329
1779968356185381600,20.305381591796873,0.755182147026062,-0.6606507897377014,1.341460108757019
1779968356201739300,20.3217392578125,1.244943380355835,-0.9929614663124084,1.4967725276947021
1779968356218062600,20.3380625,1.4326317310333252,-1.0500773191452026,1.9668333530426025
1779968356234396000,20.35439599609375,1.4721852540969849,-2.4865269660949707,2.493093729019165
1779968356250726700,20.3707265625,1.6919440031051636,-4.205348968505859,3.104722499847412
1779968356267060700,20.387060791015625,2.079538106918335,-4.012010097503662,3.4988834857940674
1779968356283390700,20.403390625,2.526844024658203,-2.7099509239196777,3.5498907566070557
1779968356299724300,20.419724365234377,2.5639541149139404,-2.2156083583831787,3.6048684120178223
1779968356316076000,20.436075927734375,-0.20693060755729675,-0.6609562039375305,3.718031406402588
1779968356332401000,20.45240087890625,-2.2149972915649414,0.46471574902534485,4.540561199188232
1779968356348734700,20.468734619140626,-1.7450892925262451,-0.2782491147518158,4.582711219787598
1779968356365050400,20.48505029296875,-0.22663100063800812,-1.5552629232406616,3.4127514362335205
1779968356381393700,20.5013935546875,0.31780263781547546,-1.8449658155441284,2.149634838104248
