time,seconds_elapsed,z,y,x
1779213514071325400,0.076325439453125,-0.20733225235939023,0.0036409868508577347,-0.18320348101407288
1779213514081317400,0.0863173828125,-0.2765454893171787,0.1306257370367646,-0.30356004523187874
1779213514091310600,0.096310546875,-0.4146902236819267,0.2454211599960923,-0.2611532743960619
1779213514101302500,0.106302490234375,-0.7722334957748651,0.26254794362485406,-0.11262421640008688
1779213514111295500,0.11629541015625,-0.8760463369488716,0.49189825878590343,0.10235533584207296
1779213514121287700,0.12628759765625,-0.45021921770274637,0.8091288097128272,0.3214993142873049
1779213514131280400,0.1362802734375,0.4676601818472147,0.704067722043395,0.5850143493786454
1779213514141272600,0.1462724609375,1.4158715912967919,0.2813578580349684,0.5689756532475352
1779213514151265500,0.156265625,1.6777496728360652,0.08802227458506823,0.3634644788354635
1779213514161257500,0.166257568359375,1.044979592809081,0.08957856411635876,0.27460487664341926
1779213514171250700,0.176250732421875,0.0807885239392519,0.09641133274585008,-0.18350012587308884
1779213514181242400,0.186242431640625,-0.6304974589198827,0.4868079499095678,-0.43112960956841706
1779213514191235600,0.196235595703125,-0.8770447003364562,0.8606669815093279,-0.3313575682178139
1779213514201227500,0.2062275390625,-1.1023872411608695,0.8595030522964894,-0.24141630826890467
1779213514211220500,0.216220458984375,-1.1761112335413693,0.6196861420482397,-0.33159926801919937
1779213514221212700,0.226212646484375,-0.3916372648745775,0.22318346309438347,-0.6303285320937633
1779213514231205400,0.236205322265625,-0.23609423646330832,-1.0587643725335598,-1.7695073345571755
1779213514241197600,0.246197509765625,0.3174170134097338,-1.1323615236639977,-0.36869887235760684
1779213514251190500,0.2561904296875,1.689954489892721,-1.8844810366928577,0.6847451819360256
1779213514261182500,0.266182373046875,2.6570190683722497,-1.6535153952896593,0.736750094461441
1779213514271175700,0.27617578125,1.3828408438324928,-0.19957067844718693,0.378532868629694
1779213514281167600,0.286167724609375,-0.191556591078639,0.11317834315150975,0.29977029756009577
1779213514291160600,0.29616064453125,-0.7377040341854095,0.38371640874743457,0.057635319627821445
1779213514301152500,0.306152587890625,-1.7570938431859016,0.41322365826070306,-0.3570923134550452
1779213514311145500,0.3161455078125,-1.8316174615114926,0.0842281429991126,-0.2732435251623392
1779213514321137400,0.326137451171875,-1.2847165696889162,-0.12924129694104194,0.23902473695725202
1779213514331130600,0.336130615234375,-0.836539086946845,0.0795382316172123,0.4829389995217323
1779213514341122600,0.34612255859375,-0.3601145838856697,0.31004502333700656,0.564856235229969
1779213514351115500,0.356115478515625,0.2301654309362173,0.179352066282928,0.6175646198496222
1779213514361107700,0.366107666015625,0.49751229927539825,-0.27070670016109943,0.4655959427937865
1779213514371100400,0.376100341796875,0.7805126638203859,-0.3182821058064699,0.2109469357252121
1779213514381092600,0.386092529296875,0.8484569037556647,-0.07070522908121347,0.12362813323438167
1779213514391085600,0.39608544921875,0.5377426028549671,-0.20013123493939636,-0.12927578373253346
1779213514401077500,0.406077392578125,-0.20775077003240583,0.033873628029227255,0.4726470303490758
1779213514411070500,0.416070556640625,-0.5951087501525879,0.3424786816909909,0.4804059739127755
1779213514421062400,0.4260625,-0.914406755003333,0.5379080225497483,0.3149243198111653
1779213514431055600,0.4360556640625,-0.9002741847544908,0.5586778388559818,0.26548458159863947
1779213514441047600,0.446047607421875,-0.7226713002264499,0.5408320933029055,0.17919453763365745
1779213514451040500,0.45604052734375,-0.720295218744874,0.6608434973448515,0.32488895672559737
1779213514461033500,0.466033447265625,-0.33010990624427794,0.5242226115465164,0.4173042055726051
1779213514471025400,0.476025390625,0.039698973181843754,-0.04660656061321497,0.3664806117862463
1779213514481017600,0.486017578125,0.41169513351917264,-0.4162333614706993,-0.02243307334333658
1779213514491010300,0.49601025390625,0.7222416766375302,-0.5773246716588736,-0.2914975592553615
1779213514501002500,0.50600244140625,0.8959136514574289,-0.5681959010466933,-0.39113282248377795
1779213514510995700,0.51599560546875,0.7039905651539564,-0.1268769058972597,-0.16974340319931505
1779213514520987400,0.5259873046875,0.37556758908331395,0.2367509468063712,0.12412380779683589
1779213514530980600,0.535980712890625,0.1899368809223175,0.3439253733679652,0.35350977879315615
1779213514540972500,0.54597265625,0.12023498366475105,0.4842978667847812,0.4044318645179271
1779213514550965500,0.555965576171875,0.002955342674255371,0.6890130685135721,0.5882113918542862
1779213514560958700,0.565958740234375,-0.3238362328022718,0.8085342048205435,0.7026084631457924
1779213514570950400,0.575950439453125,-0.8746341320633888,0.7168456628128885,0.5632771493449806
1779213514580943600,0.585943603515625,-0.8755962550938129,0.5016802326098084,0.17693623731285332
1779213514590935600,0.595935546875,-0.2584288178682327,0.06606105653718114,-0.36419045502245423
1779213514600928500,0.605928466796875,0.5964969896405935,-0.35793519401997326,-0.37442689461559053
1779213514610920400,0.61592041015625,1.3042577209830284,-0.4119925090305507,-0.08625321908593177
1779213514620913400,0.625913330078125,1.5924994933128356,-0.37369960325434803,0.05064823721945286
1779213514630905600,0.635905517578125,1.4164765714526175,-0.230479319190979,0.023320377571880817
1779213514640898600,0.645898681640625,0.7840835080444812,-0.024881635539233685,-0.06776333041042089
1779213514650890500,0.655890380859375,0.15255495251119136,0.22903218912258744,0.039109482856094835
1779213514660883500,0.665883544921875,-0.5540191993951797,0.6675748514264822,0.051811728040874
1779213514670875600,0.675875732421875,-1.2500485764116047,0.9315496129840611,0.11314210279434919
1779213514680867300,0.685867431640625,-1.3923673815906048,0.8262599772557616,0.09904080446660518
1779213514690860500,0.695860595703125,-0.8769856636255979,0.35391090693995353,-0.15147767866849898
1779213514700853500,0.705853515625,-0.1180365968376398,-0.2718250366665423,-0.4179787438333034
1779213514710845400,0.715845458984375,0.3154068426311016,-0.7456929871127009,-0.6505275627747178
1779213514720838700,0.725838623046875,0.6730149966537952,-0.7974643831431866,-0.7089432191252708
1779213514730830300,0.735830322265625,0.8980407266139984,-0.6033573769293725,-0.5258239092633128
1779213514740823600,0.745823486328125,0.8177706735908985,-0.29955358606949445,-0.2359004674568772
1779213514750815700,0.755815673828125,0.4296007925659418,0.07106807104423642,-0.020780629961192607
1779213514760808400,0.765808349609375,-0.10852350308299064,0.3807750945985317,0.12742781777828932
1779213514770800600,0.775800537109375,-0.45017304047346113,0.6208573777846992,0.2746335182160139
1779213514780793300,0.78579345703125,-0.7079413486063479,0.6735273300901055,0.29505817434638737
1779213514790785500,0.79578564453125,-0.6312637671172618,0.5370420533701777,0.20835925731956959
1779213514800777500,0.805777587890625,-0.12575579291284084,0.11189794795215129,-0.07001461646854877
1779213514810770400,0.8157705078125,0.44228667113780973,-0.40777284550890325,-0.2695265504658222
1779213514820762400,0.825762451171875,0.956997942495346,-0.6285647372916341,-0.25586305903345347
1779213514830755600,0.835755615234375,1.0153162759512662,-0.500868770096451,-0.2330757654249668
1779213514840747500,0.84574755859375,0.6462509083688259,-0.15089344903975724,-0.15796557938307523
1779213514850740500,0.855740478515625,0.3030763533681631,0.1712410944111645,-0.05195815077424049
1779213514860732700,0.865732666015625,-0.06474281354546546,0.3267510973356664,-0.076252634075284
1779213514870725400,0.875725341796875,-0.37908231920599933,0.35378538086414335,-0.22737229308634996
1779213514880717600,0.885717529296875,-0.5306283869355917,0.1833541415311396,-0.4263052581518888
1779213514890710500,0.89571044921875,-0.2080535523712635,-0.1546229909569025,-0.5154579980716109
1779213514900702500,0.905702392578125,0.31557226232588287,-0.287883314280957,-0.46521571130454537
1779213514910695700,0.91569580078125,0.6313116979122162,-0.26839140895605085,-0.3473004027590155
1779213514920687400,0.925687255859375,0.8297399283260106,-0.36795682181864975,-0.21738632112294434
1779213514930680600,0.9356806640625,0.817806913948059,-0.33520606033951045,-0.043512393990159035
1779213514940672500,0.945672607421875,0.4578039737433195,-0.16869710901677606,0.15571692367345094
1779213514950665500,0.95566552734375,-0.1388461606323719,0.06027881987392902,0.14716829103678464
1779213514960657700,0.96565771484375,-0.6986486196041107,0.3723855980463326,0.017234043395519257
1779213514970650400,0.975650390625,-0.9645943889737129,0.3549273905061185,-0.11661094794869423
1779213514980642600,0.985642578125,-0.7478332140117884,0.02407265724390745,-0.24347908601760862
1779213514990635500,0.995635498046875,-0.19261516022086142,-0.2986281417876482,-0.34142449646294115
1779213515000627500,1.00562744140625,0.4461667274415493,-0.5536692169137298,-0.40114422114938497
1779213515010620700,1.01562060546875,0.8021049024254083,-0.6577277034118771,-0.34189532884508367
1779213515020612900,1.02561279296875,0.7732453031659126,-0.6051444064766168,-0.22854630530178546
1779213515030606000,1.035606201171875,0.5188607922524213,-0.48731663008406756,-0.21724486682564018
1779213515040598300,1.045598388671875,0.02016132901906967,-0.23227628561034797,-0.09243804520070552
1779213515050591000,1.055591064453125,-0.5008335526525974,-0.11745558207929134,0.055688569474220274
1779213515060583200,1.065583251953125,-0.9029255760461091,0.026644115167111158,0.008559154030680655
1779213515070575900,1.075575927734375,-1.391544374769926,0.3042044806152582,0.0806231042444706
1779213515080568000,1.085568115234375,-1.4427274495184421,0.2739835298746824,0.22375497937202452
1779213515090561000,1.09556103515625,-1.0529688379973172,0.12389876686930655,0.1397252815544605
1779213515100553000,1.105552978515625,-0.6343699164390564,0.05629442641288042,0.11166676954478025
1779213515110546200,1.115546142578125,-0.11427286038994788,-0.2625911982446909,0.07187602642625569
1779213515120538000,1.1255380859375,0.49459085887074467,-0.48152431041821836,0.03428162430822849
1779213515130531000,1.135531005859375,0.881720875453949,-0.4526857539467513,0.09366291082054376
1779213515140523000,1.14552294921875,0.882173879918456,-0.2972144755974412,0.062334291099011896
1779213515150516000,1.155515869140625,0.6284662453532218,-0.26219021622836586,-0.06697919429540634
1779213515160508200,1.165508056640625,0.3485013029813766,-0.3396364440023899,-0.21993395977914332
1779213515170501000,1.175501220703125,0.189941557097435,-0.39483211539313195,-0.28372517168819905
1779213515180493000,1.1854931640625,0.051664720785617825,-0.41114027611538767,-0.35946868719756603
1779213515190485000,1.195485107421875,-0.04012742772698402,-0.31121085224598644,-0.38288843349069357
1779213515200478000,1.20547802734375,-0.19104454990327357,0.009404518813639878,-0.3196607006832957
1779213515210470000,1.215469970703125,-0.7243208209991455,0.5410381372690201,-0.02466390113532543
1779213515220463000,1.225463134765625,-1.1263391946345567,0.8605582604378461,0.36447424039989706
1779213515230455000,1.235455078125,-0.9527782789736986,0.8752167542569339,0.6378019367143511
1779213515240448000,1.245447998046875,-0.45783962957859037,0.6565067833147943,0.7442056711643934
1779213515250440200,1.255440185546875,0.27705753049254417,0.06722586253285408,0.4909481184542179
1779213515260433000,1.265432861328125,1.035999583017826,-0.40194735422581435,0.04306757283210754
1779213515270425000,1.275425048828125,1.3809089989870786,-0.817783679202944,-0.4234507455036044
1779213515280418000,1.28541796875,1.3978916979700327,-1.0682824347242712,-0.6863666456580162
1779213515290410000,1.295409912109375,1.2008745033979416,-0.9796503576777875,-0.812226775728166
1779213515300403200,1.3054033203125,0.6156897658884525,-0.49196606332510706,-0.8155161726623773
1779213515310395000,1.315394775390625,-0.3773427820622921,0.2339243450783193,-0.6119824358031153
1779213515320388000,1.32538818359375,-1.1897405304431914,0.7839910074554384,-0.09205226075351237
1779213515330380000,1.335380126953125,-1.7446189770162104,1.0999700970165431,0.6888523249939084
1779213515340373000,1.345373046875,-1.7231775450587272,1.2313427068978546,1.127459430836141
1779213515350365200,1.355365234375,-0.9128957659184932,1.023483508054912,1.1792410559996962
1779213515360358000,1.36535791015625,0.6766074681878089,0.40250118871629237,0.9838160990551114
1779213515370350000,1.37535009765625,1.9680133063822984,-0.38562837984859943,0.6383063791051506
1779213515380343000,1.385343017578125,2.3810037404090165,-0.9361534535177052,0.2285702706992626
1779213515390335000,1.3953349609375,2.355609186911583,-1.0997167067773639,-0.04762625904977321
1779213515400327000,1.405326904296875,1.8873451939523218,-0.7637344013683497,-0.19676701920330522
1779213515410320100,1.415320068359375,1.059280505362153,-0.0363157604843378,-0.0976718542009592
1779213515420312000,1.42531201171875,0.13862579587996005,0.843586959631741,0.46862756557464597
1779213515430305000,1.435304931640625,-0.37707507103681565,1.5142127230614424,1.2278244696438312
1779213515440297200,1.445297119140625,-0.3623059564501047,1.658928360249102,2.1661498603731393
1779213515450290000,1.4552900390625,-0.1575859324157238,1.6451126008644699,2.82982945792675
1779213515460282000,1.4652822265625,0.31499475469887256,2.06625916107893,3.474744733777642
1779213515470275000,1.475275146484375,0.8450450494855641,2.1853289003565908,3.8276147533625364
1779213515480267000,1.48526708984375,0.6893564751237631,2.4736855312377215,3.151895173925161
1779213515490260200,1.49526025390625,-0.9547627307891845,2.1758917944476006,0.8085702990472317
1779213515500252000,1.505251953125,-2.5655460688114164,1.0128142300024627,-2.051635592442751
1779213515510245000,1.5152451171875,-3.0232220322608945,0.45062224554568525,-2.987286795526743
1779213515520237000,1.525237060546875,-2.667428234183788,0.3172930947691202,-3.121222387763858
1779213515530230000,1.53522998046875,-1.6237795977175236,0.2931041176691651,-2.5743425387293097
1779213515540222200,1.54522216796875,-0.07443535552024841,0.4487938610747456,-1.1477689361542462
1779213515550214100,1.555214111328125,1.146490002259612,0.6847711931601166,0.2425572949975729
1779213515560207000,1.56520703125,1.7258476410508155,0.9474518232539295,0.9078583562731742
1779213515570199000,1.575198974609375,1.7239900304853915,1.237526656229794,1.0837351476609707
1779213515580192000,1.58519189453125,0.9676812490731477,1.3343416013404725,0.7938777568280696
1779213515590184000,1.595183837890625,0.04093172984719276,1.4612331202849744,0.3079723087161779
1779213515600177200,1.60517724609375,-0.2488046649545431,1.8498159660249947,0.4170645515978336
1779213515610168800,1.6151689453125,-0.6983557741373777,2.3606503959491847,0.2753378670930862
1779213515620162000,1.625162109375,-1.5733587395131587,2.4283950216591355,-0.6726841572642326
1779213515630154200,1.635154296875,-2.214776528637111,1.7413354253008961,-1.3816899202317
1779213515640147000,1.64514697265625,-2.154710474731028,0.7635062917008996,-1.5789678115665913
1779213515650139100,1.65513916015625,-1.8683054163090884,0.34557284831404683,-1.4955226356387137
1779213515660132000,1.665132080078125,-1.1431650956206023,0.6767705497950315,-1.1536065562665463
1779213515670124000,1.6751240234375,0.3686358901239931,1.1888240001201629,-0.9646697922974824
1779213515680117200,1.6851171875,1.4134643840245902,1.309459965801239,-0.6499532700181007
1779213515690109000,1.69510888671875,2.039343097102642,1.0964511291101575,-0.4774012391388416
1779213515700101000,1.70510107421875,2.459688570067286,1.0415303291380404,-0.5700163944721222
1779213515710094000,1.715093994140625,2.679599733492732,1.1905068386405706,-0.4893745855271816
1779213515720086000,1.7250859375,2.457880643862486,0.8512325059488415,-0.4115606934845447
1779213515730079000,1.735078857421875,3.3533167409360405,-0.21669833885878323,-0.6827239052414894
1779213515740071200,1.7450712890625,4.821102643865347,-0.999148985004425,-0.9654472064107656
1779213515750064000,1.755064208984375,4.062084603494405,-1.760985589927435,-1.0693956566631793
1779213515760056000,1.76505615234375,0.04685534774251282,-2.393218494337797,-0.9717045132398605
1779213515770049000,1.775049072265625,-2.284434294492006,-1.7427204499185085,-1.5034826547324656
1779213515780041000,1.785041015625,-4.418039729613065,-0.030937574577331543,-1.4377584289342165
1779213515790034200,1.7950341796875,-5.021076934677362,1.4503765029668807,-0.45184652664363384
1779213515800025900,1.80502587890625,-4.592812943673134,2.106763020902872,0.4004161991357803
1779213515810018000,1.81501806640625,-4.185175561112165,2.0566659878253937,1.0323697020828724
1779213515820011300,1.82501123046875,-3.8744402174234387,1.4612263982832432,2.0598837808281183
1779213515830003000,1.8350029296875,-3.317363968545198,0.35838323004841804,2.986670709455013
1779213515839996200,1.84499609375,-1.6277052467286586,-0.7273737788289785,3.1030273903816936
1779213515849988000,1.854988037109375,-0.7724397589366883,-1.3309855689108372,2.27978383833766
1779213515859981000,1.86498095703125,-2.6931647329866886,-1.0992395907849073,1.2539894229918718
1779213515869973000,1.874972900390625,-3.5269255873918532,0.0682534520149231,0.6019874037504196
1779213515879966000,1.884966064453125,-3.471594745314121,0.8593354406446218,0.2970937718272209
1779213515889958100,1.894958251953125,-4.551067559355497,-0.978674936774373,-1.6134347293138502
1779213515899951000,1.904951171875,-2.882040706679225,-3.8128789565235373,-3.788789055883884
1779213515909943000,1.914943115234375,1.5555214695274828,-6.744665983146429,-6.777545923963189
1779213515919935000,1.92493505859375,6.454369031852483,-8.672367152884602,-9.325037280645965
1779213515929928200,1.93492822265625,10.25054059920311,-8.862810229763388,-9.477611522379517
1779213515939920000,1.944919921875,14.77873815510273,-8.452157298773527,-8.637949334976076
1779213515949913000,1.9549130859375,13.87596163213849,-4.595625663006305,-4.1923540744394066
1779213515959905000,1.964905029296875,6.283101195564866,2.1666864514678714,2.017550367489457
1779213515969898000,1.97489794921875,3.378642320850491,9.23194690901637,6.726917560487985
1779213515979890200,1.98489013671875,3.7636768264591693,9.842017081457376,6.290632175591588
1779213515989883000,1.9948828125,5.005428114646673,4.486158741593361,3.3263135831981896
1779213515999875000,2.004875,1.181132276573777,0.00924655177295208,-2.4437498271793126
1779213516009868000,2.014867919921875,-4.256162237483263,-4.1108652932763095,-5.45245584283173
1779213516019863800,2.02486376953125,-4.147750378081202,-2.5888392661154267,1.0321154350608586
1779213516029855700,2.034855712890625,-3.1029356204450127,-0.0957458545744419,1.9455401932895182
1779213516039848700,2.0448486328125,-0.9786539670515805,0.4442962573945522,1.078462175694108
1779213516049840600,2.054840576171875,0.6419856521397829,0.5168664035648107,1.3636878150731324
1779213516059833900,2.064833740234375,1.4921791704297065,0.39019349580705165,-0.20071078839302062
1779213516069825500,2.074825439453125,1.8279630306571721,-0.36047932554483414,-1.137843754467368
1779213516079818800,2.08481884765625,0.7998205908805132,-1.113287405359745,-1.6746768412619828
1779213516089811000,2.09481103515625,-0.3715594494204968,-0.7403337981671094,-1.4959943448036908
1779213516099803600,2.1048037109375,0.06698803518898784,0.29278526097834107,-1.7465677729964255
1779213516109795800,2.1147958984375,1.239242520236969,0.7108639580547809,-2.4214351195186374
1779213516119787800,2.124787841796875,2.2211294047951697,-0.08343816166520118,-3.9759716696619987
1779213516129780700,2.13478076171875,1.3546557828336954,-0.6062514909356832,-4.424124602484703
1779213516139772700,2.144772705078125,-2.454407414793968,0.054798342636227605,-2.9565654940485953
1779213516149765600,2.154765625,-0.918997078468278,0.39140404064059253,-2.558113288462162
1779213516159757800,2.1647578125,0.35516141845770177,1.4301450313210486,0.23757950658500193
1779213516169750800,2.174750732421875,1.1529811909098178,0.47052843075990675,0.30630057611167427
1779213516179742700,2.18474267578125,0.8832435549765825,-1.2960305753856896,-1.0300181705206632
1779213516189734700,2.194734619140625,0.6078296269726008,-1.65230192784667,-1.171337443268299
1779213516199727900,2.204727783203125,-0.12617781771719455,-0.7891635877877473,0.9704998136252164
1779213516209719600,2.214719482421875,-0.09244279444105923,0.4139975652426481,3.5014106223851442
1779213516219712800,2.224712646484375,1.1310317363649607,1.138405480003357,4.304225718906522
1779213516229705000,2.234705078125,1.137517591252923,1.2873211992293596,2.6355747138053176
1779213516239697700,2.24469775390625,0.6234148071825504,0.4121002071887254,1.6191864247083663
1779213516249689900,2.25468994140625,0.6797580411732197,-2.1658558458626267,1.6529501626223324
1779213516259682600,2.2646826171875,0.6109755968481302,-2.9651819312244654,3.397856724408269
1779213516269674800,2.2746748046875,1.2390998968958853,-1.9574831445395946,3.893912395134568
1779213516279666700,2.284666748046875,1.7535808666288852,-1.092550322279334,2.364154312416911
1779213516289659600,2.29465966796875,2.561750183659792,-1.1546107648730277,1.6297142484635114
1779213516299651800,2.30465185546875,1.2133107911229133,-1.1705091757506132,1.452526374477148
1779213516309644800,2.314644775390625,-1.030260747104883,0.10200842210054396,0.46640579787194725
1779213516319636700,2.32463671875,-1.5168436560869216,1.2401733713462948,0.1670364823281765
1779213516329629700,2.334629638671875,-1.939479285815358,0.9633885203152894,-0.7698568297713995
1779213516339622000,2.344621826171875,-1.8857552944123743,0.09066051413416862,-1.5189742383748293
1779213516349613600,2.354613525390625,-1.810447247710824,-1.4404755789384245,-1.9848668260276316
1779213516359606800,2.364606689453125,-1.4644862768620253,-2.0079148163989187,-1.9471365225702524
1779213516369599000,2.374598876953125,0.6035913683483377,-0.8328738424375652,-1.6602794825971126
1779213516379591700,2.384591796875,1.429687350681424,-1.0164061170145868,-1.2754442989528179
1779213516389584000,2.394583984375,0.3193593796491623,0.7141989476963877,-1.3397247556835412
1779213516399576600,2.40457666015625,0.9556330838829279,0.6154901516631245,-2.3951176059573887
1779213516409568800,2.41456884765625,0.13037293131947517,0.007565759079158306,-1.7741706501930952
1779213516419562000,2.42456201171875,0.989337200564146,0.31847412124723196,-1.1010638836026192
1779213516429553700,2.4345537109375,-2.165454279324412,0.3506774779766798,0.24255028073489665
1779213516439545900,2.4445458984375,-1.5181863028675318,0.9878314721763134,1.0648264490514994
1779213516449538800,2.454538818359375,-2.7239801424890757,1.2588783640772103,0.41193829462528225
1779213516459530800,2.46453076171875,-2.087132437759638,0.8748781699523329,1.2777835555553436
1779213516469523700,2.474523681640625,-0.9028273763686419,1.2490806081622838,2.2600573936045167
1779213516479516000,2.484515869140625,0.4686696876833215,2.962323034662008,3.335547860011458
1779213516489508900,2.4945087890625,1.1733844389259815,2.6571491244927046,3.6091812612742182
1779213516499500800,2.504500732421875,1.954336078685522,1.475531402489543,3.9660067404866215
1779213516509493000,2.514492919921875,2.2925813605904577,1.478410465057194,3.315387115514278
1779213516519485700,2.524485595703125,1.0789625264316796,1.223132512435317,2.8411569076269862
1779213516529478000,2.534477783203125,-0.7714771244496107,-0.11897183186113834,2.2811416826874016
1779213516539470600,2.544470703125,-0.6610171003460884,-0.49898237182795996,1.237084465420246
1779213516549462800,2.554462890625,-0.7667261305302381,-1.5524863396152853,-0.10832710372805594
1779213516559455700,2.564455810546875,-0.8926146099120378,-1.0141422637358308,-1.0608429323732853
1779213516569447700,2.57444775390625,-0.7794622779846191,0.7109685874730348,-1.1885779164046049
1779213516579439900,2.58443994140625,-0.5042448224008083,1.5384057918146252,-2.1054367407351733
1779213516589432800,2.594432861328125,-0.2770084306538105,1.642898724207282,-2.7444559442847964
1779213516599424800,2.6044248046875,0.26239014098094776,0.8459335227578878,-1.8591981268763542
1779213516609417700,2.614417724609375,0.486363713273406,0.36465222731530667,-1.6087398494958876
1779213516619410000,2.624409912109375,0.08059910231437534,1.3166282499954103,-1.8096926299512386
1779213516629403000,2.63440283203125,-0.1925251438498497,4.08316041700989,-0.875002965375781
1779213516639394800,2.644394775390625,-1.0408083715390413,3.1210028997942802,-1.526540874236822
1779213516649386800,2.65438671875,-1.136749602555111,2.7341332877129316,-0.38892800591588017
1779213516659379700,2.664379638671875,-0.7688695722997189,3.0089369017988443,-1.5985037021636963
1779213516669372000,2.674371826171875,-1.2374153048098087,2.2765873803839085,-2.4322896910101175
1779213516679364600,2.684364501953125,-0.9466730939663947,1.46276135276556,-3.6275621366173025
1779213516689356800,2.694356689453125,-0.6345370896995067,0.925401027226448,-4.556093278563022
1779213516699349800,2.704349853515625,0.4281593615859747,0.6051710022225976,-4.489557736381888
1779213516709341700,2.714341796875,-0.4021716645009815,1.295270696929097,-5.372292757314443
1779213516719333600,2.724333740234375,-0.8867449872262776,3.531306286694109,-7.778871668484807
1779213516729326800,2.734326904296875,-1.4575965173482894,2.6906279079854487,-7.729309472936391
1779213516739318800,2.74431884765625,-1.072198585254699,1.212666063478589,-6.131424779453873
1779213516749311700,2.754311767578125,0.27650939509049055,0.6618012364611029,-5.152875514885783
1779213516759304000,2.764303955078125,1.514661782003194,0.9478189030006527,-3.210603968003392
1779213516769296600,2.774296630859375,2.0195190372139216,1.0997837806642055,-0.4569909037947654
1779213516779288800,2.784288818359375,1.273419368996471,0.21524580196291207,-0.7511351781666279
1779213516789280800,2.79428076171875,-0.12062325232997535,0.5592565155267715,0.17570377290844916
1779213516799273700,2.804273681640625,-1.3150655307233332,1.5370517468571663,-0.2531412328541279
1779213516809266000,2.814265869140625,0.49763862906880674,0.3664803195253014,-0.3014712562590837
1779213516819258600,2.824258544921875,-1.868968994784355,1.0033110731199384,0.15186346311569213
1779213516829250800,2.834250732421875,-0.9917208808302879,2.036555219949782,0.6200006148248911
1779213516839243800,2.844243896484375,-2.1538129413694143,2.9040310046911237,-0.25064590890705585
1779213516849235700,2.854235595703125,-3.436741458597779,0.7017752271920442,0.7617050874978304
1779213516859227600,2.8642275390625,0.34151275926828384,-3.5937571899101135,5.025258019754291
1779213516869220600,2.874220703125,-0.20839723297609014,-6.535761366903781,6.401506625714898
1779213516879212800,2.884212890625,-0.886135184764862,-8.66550778850913,7.843160893043875
1779213516889205800,2.894205810546875,0.722193745842576,-10.254495474308728,9.52165875389874
1779213516899197700,2.90419775390625,6.479268495309353,-7.298023503762483,11.870475211930275
1779213516909189600,2.914189697265625,7.0084700643122195,-1.8092863872379064,9.75082874405682
1779213516919182800,2.924182861328125,3.929172509086132,-0.9862783975154161,6.556589050877094
1779213516929174800,2.9341748046875,1.4707552741289138,-0.6130339906826615,5.653067847025394
1779213516939167700,2.944167724609375,-0.020689736807346343,0.41849049274772404,5.2012482083886855
1779213516949160000,2.954159912109375,0.30943069083094593,1.0620154832839965,4.05442853578329
1779213516959152600,2.964152587890625,0.694468045983836,0.6045052317902445,2.955821982204914
1779213516969144800,2.974144775390625,0.07396766494326293,-0.7580106168940662,1.9033564175546167
1779213516979136800,2.98413671875,-0.35806890340223907,-1.566974299173057,2.084979643639922
1779213516989129700,2.994129638671875,-0.04676759639382362,-1.629108976046741,2.2073908022999764
1779213516999121700,3.00412158203125,-2.2819945001244544,-0.17333499795049429,0.8679963014841079
1779213517009114600,3.014114501953125,-2.8111867167770863,2.196853918455541,-0.22936171333789823
1779213517019102000,3.02410205078125,-3.595008359014988,4.735125903633237,-1.4612906956911087
1779213517029094000,3.034093994140625,-1.9931354726791382,5.290934324532747,-1.5667887134730816
1779213517039086800,3.0440869140625,0.22440851137731224,4.558884955108166,-0.9013415217250585
1779213517049079000,3.0540791015625,1.8413059118330477,3.6750226837113495,-1.2477508208632468
1779213517059071700,3.06407177734375,3.5691280678272244,2.2940490950554606,-1.9451181684851646
1779213517069064000,3.07406396484375,3.090297672668099,1.6868559393554925,-3.0809330474734304
1779213517079057000,3.084056884765625,1.2423445779055355,2.4121736624374983,-4.514831878370046
1779213517089048800,3.094048828125,-0.9981471144855022,3.9562095690935846,-3.6114316705495115
1779213517099041000,3.104041015625,-2.9691800609499213,5.229200629675388,-2.4270097047805783
1779213517109033700,3.11403369140625,-4.1815860121876,4.9625242079436775,-1.3598685490459204
1779213517119026000,3.12402587890625,-5.507350631579756,5.312874353662133,2.7949925378233194
1779213517129019000,3.134018798828125,-5.993810790964961,7.945667912316322,5.1158267639517785
1779213517139010800,3.1440107421875,-0.4461386703908443,3.443664243598282,-1.538321912923455
1779213517149002800,3.154002685546875,1.6929671157121657,1.2743375067546963,1.6086837353944778
1779213517158996000,3.163995849609375,4.448165987807512,1.6876386141657829,3.7648388559758663
1779213517168988000,3.17398779296875,4.207959055328369,1.1947986906155943,5.748334393650293
1779213517178980900,3.18398095703125,2.750434434172511,1.7674197146281598,6.036608314684033
1779213517188973000,3.19397314453125,0.7150817949455232,2.4508050063878297,4.693764550197124
1779213517198965800,3.2039658203125,-0.09608436581380665,2.9384669427782297,4.3620700051099055
1779213517208958000,3.2139580078125,-0.5475683792879804,1.6656354566723108,2.9182500841796397
1779213517218950000,3.223949951171875,-1.0248276161402463,-0.3166661950424313,1.6628069552481173
1779213517228942800,3.23394287109375,-1.929083564007282,-1.6157956132262945,0.4885971714138984
1779213517238935000,3.24393505859375,-1.8014648998320102,-2.8180156860142946,-2.6381787588238717
1779213517248927700,3.253927734375,-0.5743430254995823,-4.648800203832984,-6.383815486201644
1779213517258920000,3.263919921875,1.6212088704466818,-5.9180935789406295,-7.422527250787615
1779213517268911900,3.273911865234375,3.6620764006376265,-7.24871849784553,-8.140244143477082
1779213517278904800,3.28390478515625,6.292670403420924,-8.349087969443202,-8.823056311523914
1779213517288896800,3.293896728515625,8.120505423784255,-9.195006294631957,-8.847257271322608
1779213517298890000,3.303889892578125,9.275814107793568,-9.42210357016921,-8.722924204689264
1779213517308882000,3.3138818359375,8.986198709022998,-7.54601860589981,-7.612175377896428
1779213517318873900,3.323873779296875,6.941278104048967,-4.686322417497634,-5.656317204210162
1779213517328867000,3.3338671875,5.107051921343803,-3.3215736951947212,-3.9505923137336967
1779213517338858800,3.343858642578125,3.369203753636777,-3.8022143546462055,-2.688523044660687
1779213517348852000,3.35385205078125,0.8661655789256095,-5.319774634569883,-2.215830129343271
1779213517358844000,3.363843994140625,-0.7998530318453908,-5.344423922657966,-3.9901621075779197
1779213517368835800,3.3738359375,-1.2298004458919167,-2.6275071426838634,-6.4527703644841905
1779213517378829000,3.3838291015625,-2.3296634292721747,-1.556091962891817,-6.35461569520235
1779213517388821000,3.393821044921875,-3.3351085918113585,-1.602075715431571,-5.356517096033692
1779213517398814000,3.40381396484375,-3.822678173743188,-1.4429858081936835,-4.277313746583461
1779213517408806000,3.413805908203125,-3.4906726630106566,-0.8887018203824758,-3.090170831418037
1779213517418798800,3.423798828125,-3.613758944453299,-0.18602818304598331,-1.5540210018366574
1779213517428790800,3.433790771484375,-4.029029890632629,0.9468301842242479,0.0327519305229187
1779213517438783000,3.443782958984375,-6.472492717564106,0.8926251313060521,-0.38035073170661926
1779213517448775700,3.453775634765625,-6.649314096325636,0.6932417921245098,-0.9892407544523477
1779213517458768000,3.463767822265625,-6.215997498106956,1.512911577335,-0.32852935905456543
1779213517468761000,3.473760986328125,-6.386852077418565,0.11007540870010853,-2.1971172455668446
1779213517478752800,3.483752685546875,-4.234389089353383,-1.401451436278224,-5.107390944039821
1779213517488745000,3.493744873046875,-3.2933181993082163,-1.243237142831087,-1.6289456021785735
1779213517498738000,3.503738037109375,-1.5854966288134456,1.6553583928078413,3.5490924110144375
1779213517508729900,3.513729736328125,2.9086718162342904,5.860853688371181,9.391552364560962
1779213517518722800,3.523722900390625,6.6393398148000236,7.774470803177357,13.515856400603056
1779213517528715000,3.533715087890625,9.259964212232827,6.324116512042283,13.710388792622089
1779213517538708000,3.5437080078125,8.716423152232169,1.7263088288217783,13.061574171245097
1779213517548700000,3.553699951171875,4.553897814345359,-2.4402701683700085,10.248859514248371
1779213517558692000,3.563692138671875,1.583979502248764,-2.2017449053674936,7.446217922976612
1779213517568684800,3.573684814453125,-1.2416004815399646,0.5515273825794458,4.658424356746673
1779213517578677000,3.583677001953125,-1.8607693217158316,1.6626351058125495,3.4240397979348898
1779213517588669700,3.593669677734375,-1.2133201434731482,-0.6278583425879478,4.750418165311217
1779213517598662000,3.603661865234375,-1.3294810095667837,-2.2950883749753235,6.779821467679739
1779213517608653800,3.61365380859375,-3.2437165485322472,-2.497607089573145,7.167380523329973
1779213517618646800,3.623646728515625,-3.5465433110535143,-2.035410433828831,6.821769681093096
1779213517628639000,3.633638916015625,-3.311841990253329,-2.278225502979755,6.373671108806133
1779213517638632000,3.6436318359375,-3.1110154665261507,-0.2602341137245297,5.594954680752754
1779213517648623900,3.653623779296875,2.3632936039343475,3.8049984324067827,4.802517185860872
1779213517658616800,3.663616943359375,6.069767656964063,7.361293322145938,3.2025819895893335
1779213517668609000,3.673609130859375,0.32501287536621093,7.881909433633089,2.8788807813435793
1779213517678600700,3.6836005859375,-1.709414392644167,7.964836723166703,2.51076467730999
1779213517688594000,3.693593994140625,-1.3046315227314829,6.406547542491555,0.4423679196804762
1779213517698586000,3.703586181640625,0.9788187291592358,2.0774363886535165,-3.472191542163491
1779213517708578800,3.713578857421875,-0.035383448070287704,-3.7124107496023178,-9.7868417222023
1779213517718571000,3.723571044921875,0.40891164028048516,-4.023812448245287,-11.037059225440025
1779213517728563700,3.733563720703125,2.0825185142233966,-1.8383266037613153,-11.281322739833593
1779213517738556000,3.743555908203125,3.7921936036303636,1.0854694241076708,-10.571673418265581
1779213517748547800,3.7535478515625,2.9521231276869773,4.1481893540203565,-7.954428141877055
1779213517758540800,3.763540771484375,1.4335416880220173,4.044460683998465,-4.20702498934865
1779213517768533000,3.773532958984375,2.495991763330996,0.9183639681965112,1.1048720437139272
1779213517778526000,3.78352587890625,2.09114664183706,-1.7147580917596816,4.225748394519091
1779213517788518000,3.793517822265625,-0.384075597448647,-1.7483090637058019,5.616910491973162
1779213517798510800,3.8035107421875,0.9996171870380639,-0.8883411703765391,3.492400801977515
1779213517808503000,3.8135029296875,1.573390011434257,0.4694453116983175,0.8372536649569868
1779213517818494700,3.82349462890625,1.5227601866543292,2.175139222514629,-1.2033864862188697
1779213517828488000,3.833488037109375,1.2092577163398266,2.1265999402731657,-3.5819887184441086
1779213517838480000,3.84347998046875,0.019110066400468348,1.4829682744920254,-5.2202106830120085
1779213517848472800,3.853472900390625,-1.10288028537482,2.1475421905368566,-8.31444101895392
1779213517858465000,3.863465087890625,-1.8142141990289091,3.4969314311444757,-10.189566782802343
1779213517868457700,3.873457763671875,-1.8496715891182423,4.522207375574111,-8.485500180926918
1779213517878450000,3.883449951171875,-1.307033323176205,4.791960136011243,-5.125992768657207
1779213517888441900,3.89344189453125,-1.7449997930273413,4.502520093807578,-1.4039289323076605
1779213517898434800,3.903434814453125,-2.1394889402016997,3.8305888007372615,1.3484206878364084
1779213517908427000,3.913427001953125,-1.3054188737168908,2.820453726816177,2.966815962167084
1779213517918419700,3.923419677734375,-0.3178235483840108,1.7261369793862102,4.092852666723728
1779213517928412000,3.933411865234375,0.3991255748033523,0.8938467820554972,4.6622073824167245
1779213517938404900,3.94340478515625,0.675182403820753,0.3879068461745977,4.6594706509292125
1779213517948396800,3.953396728515625,0.32569881180375815,0.1824251901179552,4.631181252773106
1779213517958390000,3.96339013671875,-0.39563948625326156,-0.4189776917427778,4.3181411392733455
1779213517968382000,3.9733818359375,-1.0066975006878376,-1.166238658824563,3.6503921003237365
1779213517978374000,3.983373779296875,-1.8231372179359198,-1.7012421921044587,2.8873990188419816
1779213517988366800,3.993366943359375,-2.5902666685700413,-2.087310716935992,2.012880329851806
1779213517998359000,4.003359130859375,-3.2941628334388136,-2.3041344357401132,1.2165636554390191
1779213518008351700,4.013351806640625,-3.404822471767664,-2.6614690335184332,0.5345093200221658
1779213518018344400,4.023344482421875,-2.871918541115522,-2.980911999797821,-0.16494330944120883
1779213518028337400,4.03333740234375,-2.1070435914099215,-2.574080088400841,-0.5892836972609162
1779213518038329300,4.043329345703125,-1.4293901213005185,-1.6101801114320755,-0.4208037381261587
1779213518048321500,4.053321533203125,-1.0016402172982692,-0.8250082236289977,-0.2817339978709817
1779213518058314200,4.063314208984375,-0.7636393434960395,-0.1406628546655178,-0.3783852768525481
1779213518068306400,4.073306396484375,-0.6773323483962566,0.9834691853135824,-0.4613727721408009
1779213518078299400,4.08329931640625,-0.4142530013084411,1.717642707285285,-0.735381144195795
1779213518088291300,4.093291259765625,0.0765314510166645,3.2087861049264665,-1.3912079824224113
1779213518098284500,4.103284423828125,2.0447809042423963,3.348103390201926,-3.0245857218295336
1779213518108276500,4.1132763671875,8.459260408776998,1.905030488246679,-5.625300719177723
1779213518118269400,4.12326953125,11.119055956125258,1.1744009224921463,-4.085063328021764
1779213518128261400,4.133261474609375,6.3026996300041676,1.0166104074150324,-2.3565929372519254
1779213518138253600,4.143253662109375,2.238779627776146,1.2362135278046131,-1.4379969138652084
1779213518148246300,4.153246337890625,-0.08234333389950915,0.3288561067909002,-0.5318915387392044
1779213518158238500,4.163238525390625,-0.6874123553186655,-0.9301596199303865,0.36843349941968917
1779213518168231400,4.1732314453125,-1.1843079840004442,-1.754552926531434,0.7279980482071637
1779213518178223400,4.183223388671875,-1.7027169408321379,-2.0259984623610974,0.2839922981917858
1779213518188216300,4.19321630859375,-1.8778759393393993,-2.012669609710574,-0.2977455137342214
1779213518198208300,4.203208251953125,-1.9943173759400843,-1.573553969824314,-0.6151824008882045
1779213518208201500,4.213201416015625,-1.930790367925167,-0.6437678593814372,-0.2681073313176632
1779213518218193400,4.223193359375,-1.4150924236178397,0.3188198659449816,0.3574842353820801
1779213518228185300,4.233185302734375,-0.33762802678942677,1.1001871007680892,0.8184872974276542
1779213518238178600,4.243178466796875,0.9622738370716571,1.7017945652902124,1.312913905647397
1779213518248170500,4.25317041015625,2.24940214407742,2.2522370752424,1.9112737665504216
1779213518258163500,4.26316357421875,3.292490808573365,2.6920734306186436,2.4625088881850243
1779213518268155400,4.2731552734375,2.390226911306381,2.6423914080828426,2.212160500919819
1779213518278148400,4.2831484375,0.3163093444287777,2.111874664828181,1.444437760567665
1779213518288140300,4.293140380859375,-0.9084598292976618,1.527762524986267,0.9459604156523942
1779213518298133200,4.30313330078125,-1.272062839820981,0.9692582891315221,0.7246931614428758
1779213518308125400,4.31312548828125,-1.1583300776571035,0.42614159202277657,0.5844722053259611
1779213518318118400,4.323118408203125,-0.6767822402328253,0.038517069920897484,0.44377252578139303
1779213518328110300,4.3331103515625,-0.21956861533178015,-0.3227420078247785,0.25303777247965337
1779213518338102300,4.343102294921875,0.02708908245563507,-0.4994786309123039,0.05906009173393249
1779213518348095500,4.353095458984375,-0.006294707096880302,-0.46620238425433635,-0.10540449427962302
1779213518358087400,4.36308740234375,-0.1895230394244194,-0.3262035464555025,-0.2559808401942253
1779213518368080400,4.373080322265625,-0.33745442378818985,-0.19941665692925453,-0.35302667145133015
1779213518378072600,4.383072509765625,-0.2945966943144798,-0.2718050167918205,-0.3221019563555717
1779213518388065300,4.393065185546875,-0.21259879458546638,-0.18574001375436783,-0.4387047209978103
1779213518398057500,4.403057373046875,-0.1797358049035072,-0.05457096362113952,-0.6104138713121414
1779213518408050200,4.41305029296875,-0.07827800242304801,-0.1815145050138235,-0.555779194805026
1779213518418042400,4.42304248046875,0.07350479667186736,-0.36429040826559067,-0.39602702426612374
1779213518428035600,4.43303564453125,0.15541735620498656,-0.2680506326943636,-0.49092298401296136
1779213518438027300,4.44302734375,0.22135259440541266,-0.31987375891208647,-0.5390419950157403
1779213518448019500,4.45301953125,0.22796353697776794,-0.4500836086243391,-0.5528115771710872
1779213518458012400,4.463012451171875,0.13627191709703765,-0.4283206896275282,-0.5184902053743601
1779213518468004400,4.47300439453125,0.02325112086110748,-0.32615736922621724,-0.37143209671378136
1779213518477997300,4.482997314453125,-0.0035328594344202426,-0.20204642091095446,-0.21997312274575231
1779213518487989500,4.492989501953125,0.008417124344641343,-0.14586334591805933,-0.14292553890049456
1779213518497982500,4.502982421875,0.0519838697373867,-0.10266542470455169,-0.10145955604612826
1779213518507974400,4.512974365234375,0.08416880489415489,-0.05751753846704959,-0.06988952878415584
1779213518517967400,4.52296728515625,0.09523263522214255,-0.03517769636511803,-0.01579553502500057
1779213518527959300,4.532959228515625,0.08943768520778976,-0.03690262046158314,0.048608255824446674
1779213518537952500,4.542952392578125,0.007187281155586242,-0.012518705311417579,0.10004033689796923
1779213518547944200,4.552944091796875,-0.07080896345032378,0.07025368592143058,0.06525193211138249
1779213518557937400,4.5629375,-0.09755086730294861,0.16917349435687065,0.004603109881281852
1779213518567929300,4.572929443359375,-0.05308044193559326,0.1960486418008804,-0.0015407997012138366
1779213518577921300,4.58292138671875,0.04459666382921859,0.1708089866042137,0.00023556232154369353
1779213518587914500,4.59291455078125,0.09412672894001006,0.10058335773348807,0.05313771594762802
1779213518597906400,4.602906494140625,0.08218374115731567,0.05954115324914455,0.09654197338819503
1779213518607899400,4.6128994140625,0.007923760470282286,0.0442500606149435,0.0848883604735136
1779213518617891300,4.622891357421875,-0.09986207598792389,0.0524368742018938,0.09163082047104835
1779213518627884300,4.63288427734375,-0.17648120528804137,0.11332301231920719,0.05898878006339073
1779213518637876200,4.642876220703125,-0.20736264749765396,0.13646774106323717,0.03602349953949451
1779213518647869400,4.652869384765625,-0.1754793165028095,0.08651508489251136,0.03917290348112583
1779213518657861400,4.662861328125,-0.19759061054587362,-0.010303367349505424,0.0571294159322977
1779213518667854300,4.672854248046875,-0.2380032849550247,-0.10502513957321644,0.04746902266144752
1779213518677846500,4.682846435546875,-0.27557050680518147,-0.20392565878629684,0.053930327630043025
1779213518687839200,4.692839111328125,-0.26540917827486993,-0.26028409034609795,0.05435644408762454
1779213518697831400,4.70283154296875,-0.21387652290370315,-0.21095336546599863,-0.009203297153115271
1779213518707824400,4.712824462890625,-0.12887301161792128,-0.08740297364294529,-0.056607437884807585
1779213518717816300,4.72281640625,0.01708327328059822,-0.033382629641890524,-0.09481003502905368
1779213518727808500,4.73280859375,0.15498367749545722,-0.10122165563702583,-0.10576982046067714
1779213518737801200,4.74280126953125,0.24848025530576703,-0.20079671311080455,-0.09588847791552543
1779213518747793400,4.75279345703125,0.21983407960124313,-0.2645335644841194,-0.1101549036771059
1779213518757786400,4.762786376953125,0.08102529183719306,-0.276309926995635,-0.09913549701273441
1779213518767778300,4.7727783203125,-0.09398410559892655,-0.2512456283658743,-0.07105389638841152
1779213518777771500,4.782771484375,-0.1833609731307253,-0.15648936935067176,-0.10668635078370571
1779213518787763500,4.792763427734375,-0.19513795669674872,-0.07363923670649528,-0.18474808010756968
1779213518797756400,4.80275634765625,-0.11786299383640289,-0.10219371553957461,-0.21982933036088942
1779213518807748400,4.812748291015625,0.031333880418539045,-0.1840244420081377,-0.2020540196955204
1779213518817741300,4.8227412109375,0.10701079696509987,-0.2136474268555641,-0.23451602736115454
1779213518827733200,4.832733154296875,0.11924714167118072,-0.1851788727402687,-0.26265257304310796
1779213518837726500,4.8427265625,0.08383333499524742,-0.13626900362074373,-0.2720774039924145
1779213518847718400,4.852718505859375,0.0355447761118412,-0.14299918865859507,-0.21105039609968662
1779213518857711400,4.86271142578125,0.02316343344449997,-0.12945055577754974,-0.08676467573940753
1779213518867703600,4.87270361328125,0.07353281718995422,-0.0814291599303484,-0.005639467191696166
1779213518877696300,4.8826962890625,0.18294483007788656,-0.0845049141138792,0.02065583453774452
1779213518887688400,4.8926884765625,0.30355390775203706,-0.12495382888019084,0.045970893058180806
1779213518897680400,4.902680419921875,0.3669207567691803,-0.16895020699501037,0.014198036700487136
1779213518907673300,4.91267333984375,0.2858978760847822,-0.21509119592308998,-0.08713876974880695
1779213518917665500,4.92266552734375,0.1277227090716362,-0.21806232068836687,-0.2119172420620918
1779213518927658200,4.932658203125,0.024325444694887847,-0.20920272240638732,-0.332019539257884
1779213518937650400,4.942650390625,-0.027675960699189452,-0.19118366611301899,-0.38131636186838147
1779213518947643400,4.952643310546875,-0.011566519153118134,-0.1831692864835262,-0.33721067816019057
1779213518957635300,4.96263525390625,0.02833522832551971,-0.16749650105535982,-0.1834615474283695
1779213518967628500,4.972628662109375,0.10110003855135291,-0.15927052450180051,-0.06316811157464981
1779213518977620500,4.982620361328125,0.17262447506096212,-0.14159107542634009,-0.0320808993935585
1779213518987613400,4.992613525390625,0.27649291887972505,-0.13144552898705006,-0.03839315128028393
1779213518997605400,5.00260546875,0.32793548481464385,-0.1215355448693037,-0.11207213547527789
1779213519007598300,5.012598388671875,0.2829951038479805,-0.12422142295241355,-0.2250368358761072
1779213519017590800,5.0225908203125,0.20265607724189758,-0.17473112848401068,-0.3496230004876852
1779213519027583500,5.03258349609375,0.14440496380329132,-0.19561609560251234,-0.47165188183188433
1779213519037575700,5.04257568359375,0.146596920889616,-0.22256781541407106,-0.5276327122509479
1779213519047568600,5.052568603515625,0.14011457313299178,-0.24299334832727906,-0.4748877950131893
1779213519057560600,5.062560546875,0.1830582638571039,-0.20898528026342392,-0.2965910830020904
1779213519067553800,5.0725537109375,0.20494627053830772,-0.1578898837983608,-0.17372224370241166
1779213519077545700,5.082545654296875,0.2494938527951017,-0.13054010457992554,-0.11359013882279395
1779213519087538700,5.09253857421875,0.29658056160807605,-0.1330985568910837,-0.045966216883063314
1779213519097530600,5.102530517578125,0.2702677607545629,-0.12659984252154827,-0.02012391961812973
1779213519107523600,5.112523681640625,0.1794704684982076,-0.14361936638355255,-0.07117781502902508
1779213519117515500,5.122515625,0.10013678300976753,-0.1790484071612358,-0.1719289305448532
1779213519127507700,5.1325078125,0.05196984121203422,-0.2001589997291565,-0.2507312491029501
1779213519137500700,5.142500732421875,0.06916417365167289,-0.19787468818426132,-0.32479484870135783
1779213519147492600,5.15249267578125,0.13639116869568824,-0.20151450599133966,-0.3213116827607155
1779213519157485800,5.16248583984375,0.18689736709594726,-0.17948212240338324,-0.2795832495778799
1779213519167477500,5.1724775390625,0.22397242151498795,-0.16139935322403906,-0.22906185360848902
1779213519177470700,5.182470703125,0.22344405025932937,-0.14176058677434922,-0.11277063913345337
1779213519187462700,5.192462646484375,0.20725622798111287,-0.1286591131389141,-0.04981470900475979
1779213519197455600,5.20245556640625,0.17714516735579816,-0.07007657578885555,0.013767244067788124
1779213519207447800,5.21244775390625,0.13817279141545294,-0.030882044997811317,0.05531447546482086
1779213519217440500,5.2224404296875,0.13292144675850867,0.017714520388841627,0.02168108593225479
1779213519227432700,5.2324326171875,0.08480714846346527,0.06194120012819767,-0.06554945375323296
1779213519237425700,5.24242578125,0.016973310100100933,0.09897826062440872,-0.09951017554402351
1779213519247417600,5.25241748046875,-0.01234155864622444,0.0732727414816618,-0.054237201622128486
1779213519257410800,5.262410888671875,0.010893186468817293,0.0697691172748804,-0.000374094009399414
1779213519267402800,5.27240283203125,0.02996025397777557,0.06265665492117405,0.12201251473128795
1779213519277395700,5.282395751953125,0.04802552403304726,0.05572539435327053,0.24525135638713835
1779213519287387600,5.2923876953125,0.10215458910558373,0.06897884368002415,0.3243465204119682
1779213519297380600,5.302380615234375,0.12453700997391715,0.09786182381510734,0.3128179951816797
1779213519307372500,5.31237255859375,0.09118658383488655,0.09217910200357436,0.22133213613927363
1779213519317365800,5.32236572265625,-0.0182125330388546,0.020309797579050062,0.07000994029343127
1779213519327357700,5.332357666015625,-0.10976621488677338,-0.027565467795729635,-0.06513970390856266
1779213519337350700,5.3423505859375,-0.1505365984261036,-0.030638883891701697,-0.1406324595272541
1779213519347342800,5.3523427734375,-0.1860544499984011,-0.018586627048254013,-0.1212824468910694
1779213519357335600,5.36233544921875,-0.1639127608170733,-0.006344400590658187,-0.047613984090089795
1779213519367327700,5.37232763671875,-0.12291673356201499,0.026385902622342108,0.02798398546874523
1779213519377320700,5.38232080078125,-0.06356558645963668,0.05942366434931755,0.10493687676787376
1779213519387312600,5.392312744140625,-0.012405892586708068,0.09322539618611335,0.13940262547135351
1779213519397305600,5.4023056640625,0.035426684423815455,0.14033493788540363,0.18644553167521952
1779213519407297500,5.412297607421875,0.06821487357020378,0.19663199464678763,0.2174164240002632
1779213519417290800,5.422290771484375,0.08587791950013487,0.2681348038464784,0.24675883834064005
1779213519427282700,5.43228271484375,0.07281856797337531,0.3310357889175415,0.2970797433018684
1779213519437275600,5.442275634765625,0.04527472748756409,0.36567221801280975,0.3513444174528122
1779213519447267800,5.452267822265625,-0.01686228747367859,0.3343815922141075,0.3953969096690416
1779213519457259800,5.462259765625,-0.058169280374050135,0.2685983297049999,0.39645664785504336
1779213519467252700,5.472252685546875,-0.04502217749860137,0.21299919207990167,0.3453817096561193
1779213519477245700,5.48224560546875,-0.05560677294228226,0.14324410333037377,0.2809492772340774
1779213519487237600,5.492237548828125,-0.08105101080033927,0.07796119155883789,0.2099579246878624
1779213519497229600,5.5022294921875,-0.07339729944309219,0.02093698956668377,0.10816986733973026
1779213519507222500,5.512222412109375,-0.0783610045313835,-0.014874328526854514,0.07001695455610751
1779213519517214700,5.522214599609375,-0.10692775832414626,-0.026319267126917838,0.053504795694351195
1779213519527207700,5.532207763671875,-0.10594459250569344,-0.03758709559440612,0.01812836188673973
1779213519537199600,5.54219970703125,-0.07611644047498703,-0.043351650470495225,-0.009860299757122992
1779213519547192600,5.552192626953125,-0.016024119616486133,-0.03806055832505226,-0.01873568013012409
1779213519557184800,5.562184814453125,0.030356559818983078,-0.009394435811042785,-0.042970542198419566
1779213519567177700,5.572177734375,0.13229483929276464,0.03075578826963901,-0.015610826107859611
1779213519577169700,5.582169677734375,0.18244568491671234,0.07188917816877365,0.044352351945638656
1779213519587162600,5.59216259765625,0.1869604589274153,0.02715571795105934,0.10079846178889273
1779213519597154600,5.602154541015625,0.1484814011956565,-0.06513678129911422,0.16557985377907752
1779213519607147800,5.612147705078125,0.1268985697397962,-0.1763075840204954,0.19063480005860328
1779213519617139500,5.622139404296875,0.11704586876723914,-0.25478140127658844,0.15148410840928553
1779213519627132700,5.632132568359375,0.15042785908831283,-0.34240123254060745,0.05489654231369495
1779213519637124900,5.642124755859375,0.2065232375314459,-0.38797932688891884,-0.10240765055119991
1779213519647117600,5.65211767578125,0.27234392770780247,-0.43199148709475993,-0.2603337747067213
1779213519657109800,5.66210986328125,0.32367899641394615,-0.4757803599387407,-0.44564124226272106
1779213519667102500,5.6721025390625,0.33269232395291326,-0.5138870954930782,-0.6363409242510796
1779213519677094700,5.6820947265625,0.33731939923167226,-0.504724714872241,-0.8032640093326568
1779213519687087900,5.692087890625,0.2952630127361044,-0.4717898289978504,-0.9669470895797013
1779213519697079600,5.70207958984375,0.28640286646485325,-0.4316173930853605,-1.053539915883541
1779213519707072800,5.71207275390625,0.31566169417500495,-0.4190577712416649,-1.0770797814249993
1779213519717064700,5.722064697265625,0.3766261582255363,-0.423718164268136,-1.0038836123108863
1779213519727057700,5.7320576171875,0.5003834707975388,-0.39696751998662944,-0.8012982622176408
1779213519737049600,5.742049560546875,0.5567711284518242,-0.3501543308854103,-0.5937216797083615
1779213519747042600,5.75204248046875,0.4782324292659759,-0.25687632772922514,-0.4268132076740265
1779213519757034800,5.76203466796875,0.3676794661819935,-0.18661504302322862,-0.23590894302427767
1779213519767027700,5.77202783203125,0.2830079633295536,-0.1323626438319683,-0.041239188361167904
1779213519777019600,5.78201953125,0.2422340543925762,-0.08906360033154487,0.10119184502065182
1779213519787012600,5.7920126953125,0.19521978976130486,-0.041865795826911925,0.23753157579004763
1779213519797004800,5.8020048828125,0.16439679974066093,0.015853402692079542,0.3011754881829023
1779213519806997800,5.811997802734375,0.0851496417582035,0.08187573465406894,0.3098153062343597
1779213519816989700,5.82198974609375,0.03675939433230087,0.12702712802290916,0.3263952696353197
1779213519826982700,5.831982666015625,-0.055316831818688655,0.1601332788109779,0.35609073519706724
1779213519836974600,5.841974609375,-0.13216273734569547,0.21592530865967272,0.38584991364479065
1779213519846967800,5.8519677734375,-0.17348960399031638,0.27485446749031545,0.43012569322288036
1779213519856959500,5.86195947265625,-0.16625322299599646,0.33320670321583745,0.4890308866560459
1779213519866952700,5.87195263671875,-0.09971709629297255,0.40073710165321824,0.5970920329242945
1779213519876945000,5.88194482421875,-0.022483040831750258,0.4577823464334011,0.673097414240241
1779213519886937600,5.8919375,0.01845102710300125,0.5011451028198003,0.7324509359627962
1779213519896929800,5.9019296875,0.00997194343805313,0.5145160410463809,0.6906739874631166
1779213519906922500,5.911922607421875,-0.055814830768969835,0.4351531659960747,0.5717161841273307
1779213519916914700,5.921914794921875,-0.17849311136603355,0.32266601997911926,0.42976328965127464
1779213519926908000,5.931907958984375,-0.24058570266366003,0.22505670962035654,0.26170389401614663
1779213519936899600,5.941899658203125,-0.29347207419872284,0.14822832148373127,0.08327332649230956
1779213519946892800,5.951892822265625,-0.30353637209534645,0.06621230157613754,-0.014228431838750838
1779213519956884700,5.961884765625,-0.29144027611017226,-0.00817687671482563,-0.02160042191147804
1779213519966877700,5.971877685546875,-0.2765022346973419,-0.0747971745699644,0.055386956179141994
1779213519976869600,5.98186962890625,-0.26884032176733014,-0.10232815557420254,0.17970073359012603
1779213519986862600,5.991862548828125,-0.2517582540631294,-0.02444528994858265,0.3291676569581032
1779213519996854800,6.001854736328125,-0.16453122150897978,0.08346855680346489,0.41008536023497577
1779213520006847700,6.01184765625,-0.0304208572268486,0.13426935423612593,0.317004340955615
1779213520016839700,6.021839599609375,0.051346740877628326,0.09011398616731166,0.08347147941291332
1779213520026833000,6.0318330078125,0.04777180500030517,-0.02712123115956783,-0.15944938820004462
1779213520036824800,6.041824951171875,-0.026913141366839408,-0.07386369311213493,-0.3098024467527866
1779213520046818000,6.051818115234375,-0.06580079816579819,-0.07206628830134869,-0.3875637318253517
1779213520056810000,6.06181005859375,-0.09100713561475277,-0.054586161190271376,-0.41455110747218127
1779213520066803000,6.071802978515625,-0.066871642267704,0.020029227072000503,-0.34699323650598524
1779213520076795000,6.081794921875,0.02995674456314882,0.11475625999271868,-0.11884206800162792
1779213520086787800,6.091787841796875,0.1198491992175579,0.23574819950461387,0.12178630475997924
1779213520096779800,6.10177978515625,0.16815233461558818,0.3157113785356283,0.29384616820812226
1779213520106773000,6.11177294921875,0.1820803222030401,0.37316169698536394,0.4183756341964006
1779213520116765000,6.121764892578125,0.17998656479418276,0.3784031047701835,0.48809857424199576
1779213520126758000,6.1317578125,0.10287468354105948,0.3738742291688919,0.5232113886773586
1779213520136750000,6.14175,-0.01894434987816494,0.3338233738094568,0.5186071097522974
1779213520146742800,6.15174267578125,-0.10761807867586612,0.3549064938485622,0.4657376893520355
1779213520156735000,6.16173486328125,-0.1625350792557001,0.3299555924654007,0.4033966762512922
1779213520166728000,6.17172802734375,-0.24076924253702162,0.29811142443716526,0.3293050196021795
1779213520176720000,6.181719970703125,-0.28754093058407304,0.2782452789723873,0.2857569697767496
1779213520186713000,6.191713134765625,-0.30480303103029727,0.27742461023926734,0.2573825236856937
1779213520196704800,6.201704833984375,-0.25879239048361774,0.3081909199029207,0.2862608276456594
1779213520206698000,6.211697998046875,-0.18815642724633216,0.30757483383119105,0.33404783021509643
1779213520216690000,6.22168994140625,-0.13560674031972883,0.25148528234064577,0.3776999249368906
1779213520226683000,6.231682861328125,-0.15217501328289507,0.15278291604816913,0.4064285912930965
1779213520236675000,6.241675048828125,-0.16744798573851585,0.04570727368593216,0.3243476894557476
1779213520246667800,6.251667724609375,-0.1894102266997099,0.0004173486292362213,0.19203356094062327
1779213520256660000,6.261659912109375,-0.18791794231534004,-0.04528934053480625,0.0422504112303257
1779213520266653000,6.27165283203125,-0.2016349175006151,-0.10568214217722416,-0.0828799432605505
1779213520276644900,6.281644775390625,-0.16382979524135588,-0.1860673460125923,-0.2237912197291851
1779213520286638000,6.29163818359375,-0.12455752303898333,-0.2686947758167982,-0.3687491412401199
1779213520296630000,6.301630126953125,-0.10279051238894461,-0.3328127354621887,-0.4528004663676023
1779213520306623000,6.311623046875,-0.08248889811635017,-0.3815110076576471,-0.5080418765962124
1779213520316615000,6.321614990234375,-0.07432195827364921,-0.3572334754914045,-0.5286398434668779
1779213520326608000,6.33160791015625,-0.06037292789816856,-0.30913375371098517,-0.5292155975282192
1779213520336599800,6.341599853515625,-0.04354220460653305,-0.1900064390271902,-0.4741238249033689
1779213520346593000,6.351593017578125,0.009796002349257468,-0.11059680222570896,-0.35426176620423794
1779213520356585000,6.3615849609375,0.0644236645936966,-0.05562661015391349,-0.25811668317914005
1779213520366578000,6.371577880859375,0.10478022490143775,-0.03969605057239532,-0.16060323441028593
1779213520376570000,6.381570068359375,0.07869125939905643,-0.02898527146577835,-0.08947101208865642
1779213520386562800,6.391562744140625,0.05824234561026096,-0.03436871806979179,-0.02848842785954475
1779213520396555000,6.401554931640625,0.04023264166712761,-0.0628109687000513,-0.010175941577553749
1779213520406548000,6.4115478515625,0.04163081802725792,-0.07715513587296009,-0.00632861849963665
1779213520416540000,6.421539794921875,0.08119944282770157,-0.10290507867932319,-0.011882745495438576
1779213520426532900,6.431532958984375,0.13559388083815574,-0.13703180468678475,-0.020800795966386794
1779213520436524800,6.44152490234375,0.1329594406813383,-0.16857903559505938,-0.016647183418273925
1779213520446518000,6.45151806640625,0.08467851711511612,-0.14119126245379446,-0.039616555595397944
1779213520456510000,6.461510009765625,0.037004911792278286,-0.0874415520876646,-0.06351882470846176
1779213520466503000,6.4715029296875,-0.004410802179574966,-0.021023498806357382,-0.09086685036122798
1779213520476495000,6.4814951171875,-0.010051438415050505,0.0002174421429634094,-0.0726321054905653
1779213520486487800,6.49148779296875,-0.008843816190958023,0.046159109106659886,-0.049970776349306106
1779213520496480000,6.50147998046875,0.013377367967367172,0.09632453124523162,-0.017011340555548666
1779213520506472700,6.51147265625,0.031307576933503146,0.12528466826975346,0.0029138416200876235
1779213520516465000,6.52146484375,0.06577917085587978,0.16777765608429906,0.05704466025829315
1779213520526458000,6.5314580078125,0.09442425058186053,0.17372224370241166,0.12682663701474667
1779213520536449800,6.54144970703125,0.11489654524624347,0.16725976969003675,0.1735012944281101
1779213520546443000,6.551443115234375,0.0815904879719019,0.16632687275409697,0.23781740699410436
1779213520556435000,6.56143505859375,0.02866144633889198,0.16891279759407044,0.3015694559365511
1779213520566428000,6.571427978515625,0.014656301862001418,0.13069967905580998,0.3460188385158777
1779213520576419800,6.581419921875,0.023026655322313308,0.12745558256804942,0.3895756561696529
1779213520586412800,6.591412841796875,0.05673486365675926,0.13569734121263027,0.33671558811962604
1779213520596406000,6.601406005859375,0.11325345421433448,0.135190560734272,0.23609248289763926
1779213520606398000,6.61139794921875,0.1274737027466297,0.11556465376615524,0.1661211210489273
1779213520616391000,6.621390869140625,0.13670330338478087,0.09173486536741256,0.11880290503501892
1779213520626382800,6.6313828125,0.13534253642559052,0.05319324552714824,0.10979542271494865
1779213520636375800,6.641375732421875,0.11575871503353118,0.02950023525059223,0.0714379272699356
1779213520646368000,6.651367919921875,0.10164952566027641,-0.010294014999270438,0.004285714495182037
1779213520656361000,6.66136083984375,0.038032501274347305,-0.027386604097485542,-0.04153378739356994
1779213520666353000,6.671352783203125,-0.0029506664991378784,-0.04231763124763965,-0.058443421140313145
1779213520676345900,6.681345947265625,-0.050154316222667694,-0.02614917125701904,-0.051447863164544104
1779213520686338000,6.691338134765625,-0.03949614408612251,0.004779050970077514,-0.00030628947019577024
1779213520696331000,6.7013310546875,-0.022215338939428328,0.016682839253544808,0.050884384062886236
1779213520706323000,6.711322998046875,0.013165771043300628,0.025140286475419996,0.07207037995457649
1779213520716316000,6.72131591796875,0.031551322561502455,-0.0010083002597093581,0.11212766505479813
1779213520726307800,6.731307861328125,0.04992752172946929,0.0020808979272842407,0.13432546833753586
1779213520736301000,6.741301025390625,0.029839842468500136,-0.0041653029859066,0.1359492701470852
1779213520746292700,6.751292724609375,0.025750527328252792,-0.005855740290880203,0.08014964151382446
1779213520756286000,6.761285888671875,0.0506289479970932,-0.03344517348408699,0.009829320096969603
1779213520766278100,6.771278076171875,0.07488193024396896,-0.05926759700477123,-0.06494096646606921
1779213520776270800,6.781270751953125,0.10149988805651664,-0.10241934098899363,-0.1407896959155798
1779213520786263000,6.791262939453125,0.054738136881589884,-0.14092764308154582,-0.17539865248203276
1779213520796255700,6.801255859375,0.006254384219646454,-0.1545534328520298,-0.20463000766336917
1779213520806248000,6.811248046875,-0.017610475492477417,-0.17848434353768824,-0.23906886835992336
1779213520816241200,6.8212412109375,-0.024616554862260817,-0.19009587087631225,-0.25817338180243965
1779213520826232800,6.83123291015625,-0.02673252410292625,-0.17535948951542377,-0.2848234883189201
1779213520836226000,6.84122607421875,-0.03652443479895592,-0.15144260735511778,-0.29681203227639197
1779213520846218000,6.851218017578125,-0.041781624674797055,-0.12750117527544497,-0.24330314492881297
1779213520856211000,6.8612109375,-0.043780689537525175,-0.086504563498497,-0.17820844920575618
1779213520866203000,6.871202880859375,-0.06172492702901363,-0.04876140055954456,-0.09839432325661182
1779213520876195800,6.88119580078125,-0.08166355320811271,-0.04321837947964668,-0.019967267751693725
1779213520886188000,6.89118798828125,-0.06582943973839282,-0.041674072647094725,0.028889994397759435
1779213520896181000,6.901180908203125,-0.014077039527677698,-0.03281681245267391,0.04853928224146366
1779213520906173000,6.9111728515625,0.034383331117033955,-0.04756546877324581,0.03607026129066944
1779213520916166000,6.921165771484375,0.043377369433641434,-0.031116438275575635,0.005900163954496383
1779213520926157800,6.93115771484375,0.031177813073992727,0.019198621466755866,-0.031978608062863345
1779213520936151000,6.941151123046875,-0.005709023013280239,0.06778408093750476,-0.05351999326348304
1779213520946143000,6.95114306640625,-0.03874035728275776,0.07550678414404392,-0.05308218636810779
1779213520956136000,6.961135986328125,-0.03271803053660551,0.04646481405496597,-0.01830781010687351
1779213520966127900,6.9711279296875,-0.04582067093253135,0.018249357917904854,0.01755319234728813
1779213520976120800,6.981120849609375,-0.018261048355698584,-0.0034621231526136397,0.07274199560582638
1779213520986112800,6.99111279296875,-0.009012743017077446,0.0014081132322549819,0.09686930564641952
1779213520996106000,7.00110595703125,-0.01534896030128002,-0.002622165197134018,0.0872147575944662
1779213521006098000,7.011097900390625,-0.03712707686722278,-0.006734276691079139,0.04794891513288021
1779213521016091000,7.0210908203125,-0.06415069287121296,0.033655601364374156,0.001356090784072876
1779213521026085400,7.03108544921875,-0.06348258435130119,0.06764145759642123,-0.03591536298990249
1779213521036078300,7.041078369140625,-0.0665717825382948,0.087541505330801,-0.02757832727730274
1779213521046070300,7.0510703125,-0.07104454403817653,0.0787801067262888,0.0037555531412363052
1779213521056063500,7.0610634765625,-0.06557517271637917,0.04887947398126125,0.05440320583879947
1779213521066055400,7.071055419921875,-0.027425182542204857,0.05831950249969959,0.11086392872929572
1779213521076048400,7.08104833984375,-0.02245966908931732,0.0849801304101944,0.140110481479764
1779213521086040600,7.09104052734375,-0.015414425611280603,0.07442951030135155,0.1545446650236845
1779213521096033300,7.101033203125,-0.014424245530151529,0.07952128048241137,0.16820727967321872
1779213521106025500,7.111025390625,-0.03855798645317554,0.050638300347328184,0.1268728142440319
1779213521116018400,7.121018310546875,-0.03708849842250347,0.03320259689986706,0.10017185432314872
1779213521126010400,7.13101025390625,-0.006134556661438546,0.0026151509344577786,0.0615343728929758
1779213521136003600,7.141003662109375,-0.01428454594016075,-0.033704116681218144,0.011687515184283256
1779213521145995300,7.150995361328125,-0.017761282140016554,-0.05856909334659576,-0.00009995324313640594
1779213521155988500,7.160988525390625,-0.02944879732429981,-0.05092237798571586,-0.028060557836294173
1779213521165980400,7.17098046875,-0.044535891819000244,-0.044244799917936325,-0.032332828328013416
1779213521175973400,7.180973388671875,-0.04031681281924247,-0.04295359106361866,-0.04932371061742306
1779213521185965600,7.190965576171875,-0.038114334338903426,-0.021298224094510078,-0.06135492467284202
1779213521195958300,7.200958251953125,-0.03472819903194904,-0.01996492966413498,-0.06302198110222816
1779213521205950500,7.210950439453125,0.0015244330883026121,-0.04069266039431095,-0.06351473305523395
1779213521215943400,7.220943359375,0.03215338010787964,-0.051585810330510136,-0.07701777322888374
1779213521225935400,7.230935302734375,0.03387830420434475,-0.0426338575899601,-0.1057978775113821
1779213521235928600,7.240928466796875,0.009116787913441657,-0.04608604387044906,-0.09549977085888385
1779213521245921300,7.25092138671875,-0.009724106156826019,-0.05487023882865905,-0.07127484566271304
1779213521255913500,7.26091357421875,0.004134907847642899,-0.06316811157464981,-0.03696867143511772
1779213521265906400,7.270906494140625,-0.0013625205248594284,-0.04836100306510925,-0.013646248036623
1779213521275898400,7.2808984375,0.024830489873886107,-0.023617022430896757,0.005123918884992599
1779213521285891600,7.2908916015625,0.018705284991860388,0.00492868857383728,0.009019757279753685
1779213521295883500,7.300883544921875,0.02456803954541683,0.039276363855600356,0.023560908329486846
1779213521305876500,7.31087646484375,0.024904139631986618,0.03742050685584545,0.013192074528336524
1779213521315868400,7.320868408203125,0.051661213654279704,0.026312837386131285,0.008615268132090568
1779213521325861400,7.330861328125,0.042194297128915786,0.03633855683803558,0.026752397847175598
1779213521335853300,7.340853271484375,0.027003742259740827,0.033417116433382035,0.04940203655064106
1779213521345846500,7.350846435546875,0.032570728737115855,0.053502457606792446,0.08044248698055743
1779213521355838500,7.36083837890625,0.05000000244379043,0.05475801062583923,0.06962006419301033
1779213521365831400,7.37083154296875,0.03881926773786545,0.06227788473665714,0.06721300305128097
1779213521375823600,7.38082373046875,0.028536358654499053,0.06649871730208397,0.06584229921996593
1779213521385816300,7.39081640625,0.037357963013648986,0.05497603729069232,0.06262976691424846
1779213521395808500,7.40080859375,0.04787701894044876,0.0711591103285551,0.0660310997903347
1779213521405801500,7.410801513671875,0.03559387595057487,0.05046119021475315,0.06625438715219498
1779213521415793400,7.42079345703125,0.0503238275706768,0.061115270698070524,0.042646717071533204
1779213521425786400,7.430786376953125,0.038704701447486875,0.06620820992290974,0.03695756551921368
1779213521435778300,7.4407783203125,0.03048749272227287,0.06406944432854653,0.04143734128177166
1779213521445771500,7.450771484375,0.028329437905550002,0.053206689530611036,0.04083236112594604
1779213521455763500,7.460763427734375,0.029069442617893217,0.054718263137340545,0.029299159720540046
1779213521465756400,7.47075634765625,0.022215338939428328,0.06245499486923217,0.05859539683163166
1779213521475748600,7.48074853515625,0.0013373883668915368,0.05135901583731174,0.06472527788877487
1779213521485741300,7.4907412109375,-0.003041854197217617,0.07005728656649589,0.06683890904188156
1779213521495733500,7.5007333984375,0.020921205192373598,0.08300503094494342,0.09070201518833637
1779213521505726500,7.5107265625,0.05936755024790764,0.08675649243295193,0.12500234419703482
1779213521515718400,7.520718505859375,0.12881927213668823,0.06569149257242679,0.15058569826483725
1779213521525711600,7.530711669921875,0.16281389619708062,0.06367080039978026,0.14434709613621233
1779213521535703300,7.540703369140625,0.17095862420797348,0.05739946504533291,0.10725158345103263
1779213521545696500,7.550696533203125,0.118355161267519,0.06007949790954589,0.07534487158060073
1779213521555688400,7.5606884765625,0.005661674456926994,0.036819033831357956,0.039164135652780534
1779213521565681400,7.570681396484375,-0.09933248088955879,-0.00831014770567417,0.018665537503361702
1779213521575673300,7.58067333984375,-0.1588005689024925,-0.039356443354487416,0.017353870382905007
1779213521585666300,7.590666259765625,-0.1267594169974327,-0.04287234252095222,0.03999298769235611
1779213521595658500,7.600658447265625,-0.040859253699448886,-0.021401684468984602,0.09765022689104079
1779213521605651500,7.6106513671875,0.07225157717380207,-0.009449380868673325,0.10983517020344734
1779213521615643400,7.620643310546875,0.1519955650627613,0.011516834792494773,0.1134662201821804
1779213521625636400,7.63063623046875,0.14330138647556304,0.007909165689349174,0.08771569285392761
1779213521635628500,7.640628662109375,0.10864391459226608,-0.006179565417766571,0.03345394131243229
1779213521645621500,7.65062158203125,0.03041734552893322,-0.037276129949092865,-0.025590368330478667
1779213521655613400,7.660613525390625,-0.01445405728816986,-0.0639829350888729,-0.0871709184527397
1779213521665606400,7.6706064453125,-0.037916775073343886,-0.06749708068966866,-0.16647066513895986
1779213521675598300,7.680598388671875,-0.03552023532562889,-0.08137596843838692,-0.20593407599925995
1779213521685591600,7.690591552734375,0.017367314386367797,-0.08528817344605923,-0.18718378282189368
1779213521695583200,7.700583251953125,0.05325227767142932,-0.08823591733574866,-0.13644728279709814
1779213521705576400,7.710576416015625,0.06262567526102066,-0.086944708481431,-0.0636217005610466
1779213521715568600,7.720568603515625,0.02633038217597641,-0.05732289267778396,-0.01464051977097988
1779213521725561300,7.730561279296875,-0.0226315276580397,-0.07161036122739314,-0.0117465518951416
1779213521735553500,7.740553466796875,-0.038292038126522675,-0.08568915546238422,-0.04803483985066414
1779213521745546200,7.750546142578125,-0.02232640266504604,-0.10570610757470131,-0.07423135738074779
1779213521755538400,7.760538330078125,0.016705626474088058,-0.11483341688215731,-0.11074234817624092
1779213521765531600,7.77053173828125,-0.014179332000017164,-0.0986608652383089,-0.13445523219704628
1779213521775523300,7.7805234375,-0.021617962134745903,-0.07478665317595004,-0.10898469085395336
1779213521785516500,7.7905166015625,-0.008557409598166123,-0.05832417867481708,-0.07233575289249419
1779213521795508500,7.800508544921875,0.012312369084358215,-0.04122165270447731,-0.04550327554643154
1779213521805501400,7.81050146484375,0.010506205578381195,-0.0345820685595274,-0.02822890014052391
1779213521815493400,7.820493408203125,0.028253450059890745,-0.03374561773538589,-0.023027239844202994
1779213521825486300,7.830486328125,0.020395137774944304,-0.035576924815773965,-0.023031916019320486
1779213521835478500,7.840478515625,-0.0063350573735777285,-0.049912908682227135,-0.01801028846502304
1779213521845471500,7.850471435546875,-0.001971016945177689,-0.012206570622324943,0.015395722052454947
1779213521855463400,7.86046337890625,0.020440721349185332,0.015253098711371421,0.025353052443265914
1779213521865456400,7.870456298828125,0.020637125270697287,0.05042670342326164,0.01530979733467102
1779213521875448600,7.880448486328125,0.013350475393864325,0.06599544395506382,0.018065818044543266
1779213521885441500,7.890441650390625,-0.01104863275885582,0.04797638766169548,-0.008153495839238167
1779213521895433500,7.90043359375,-0.02194295173883438,-0.009256488645076751,-0.022111294043064115
1779213521905426400,7.910426513671875,-0.04923543867892585,-0.06430091499686241,-0.021570611295104025
1779213521915418400,7.92041845703125,-0.057228204698232,-0.08481061906218529,-0.05048340204656124
1779213521925411600,7.93041162109375,-0.05878419740200042,-0.07453472424149513,-0.05454173752665519
1779213521935403300,7.9404033203125,-0.016139818418025968,-0.05181202030181885,-0.05811199722886085
1779213521945396500,7.950396484375,0.045379936861130406,-0.003975333371758461,-0.024375147321820258
1779213521955388700,7.960388671875,0.0660720117560355,0.02846855411529541,0.008124854266643524
1779213521965381400,7.97038134765625,0.061633152525755575,0.026992051821947097,0.05567687903642654
1779213521975373600,7.98037353515625,0.024482114827632902,0.01911912648975849,0.07194470774829387
1779213521985366300,7.9903662109375,-0.0035550621330738066,-0.0030617256581783295,0.07850655048191547
1779213521995358500,8.0003583984375,0.023335282880067823,-0.030523148557543754,0.056280105626583095
1779213522005351400,8.010351318359374,0.019063601476815527,-0.03736380823254585,0.017706337082386017
1779213522015343400,8.02034326171875,0.047422265476849856,-0.03447627009749412,-0.021312252619862554
1779213522025333200,8.030333251953126,0.04926818560448009,-0.020578093126416206,-0.03707680798470974
1779213522035325200,8.0403251953125,0.04160276097655296,-0.0007855974197387695,-0.027530981004238127
1779213522045318400,8.050318359375,0.046539632856845856,-0.005785597664117813,-0.014240706798434257
1779213522055310300,8.060310302734376,0.019409633868932723,-0.0017617489755153656,-0.002447393152117729
1779213522065303300,8.07030322265625,0.035003508841991424,-0.013799977293610571,0.005320318239927292
1779213522075295200,8.080295166015626,0.027854806131124496,-0.02251929032206535,0.016568272963166236
1779213522085288200,8.0902880859375,0.028523494606348683,-0.04454173703789711,0.020290508356690405
1779213522095280000,8.100280029296876,0.059466918969154355,-0.043887072521448134,0.01673193909227848
1779213522105273300,8.1102734375,0.06213000069856643,-0.03614391104876995,0.0018821604847908018
1779213522115265300,8.120265380859376,0.04735211828351021,-0.009010989451408385,-0.0021364275068044662
1779213522125258200,8.13025830078125,0.04965045835375786,0.005491583153605461,-0.012228782454133034
1779213522135250400,8.14025048828125,0.025872105598018967,0.004496142375469208,-0.02543722359538078
1779213522145243100,8.1502431640625,-0.005748188263177871,0.007968786922097206,-0.013176292437314987
1779213522155235300,8.1602353515625,-0.0028466238860622977,0.002932546320557594,-0.0023836802661418915
1779213522165228300,8.170228271484374,-0.00025251345634460447,0.01160977377295494,0.007947744134068489
1779213522175220200,8.18022021484375,0.02962473612980684,0.0165524908721447,0.012217092016339302
1779213522185213400,8.19021337890625,0.06478373007774353,0.0016419219881296156,0.027392449316382406
1779213522195205000,8.200205078125,0.09197568838596343,0.01234744039773941,0.015434885019063949
1779213522205198300,8.2101982421875,0.07477905439138412,-0.009487374791502952,-0.027169746476411818
1779213522215190300,8.220190185546874,0.038350481182336804,-0.030493337941169738,-0.05358429067134857
1779213522225183200,8.230183349609375,0.028529346675111446,-0.05664309372007847,-0.07142214517891407
1779213522235175400,8.240175537109375,0.02154080067873001,-0.06557049654126167,-0.08199146998822689
1779213522245168000,8.250168212890625,0.012481880432367323,-0.047612815046310424,-0.08209200775325298
1779213522255160300,8.260160400390625,0.012086745918227825,-0.022317045748233795,-0.06444470738172531
1779213522265153300,8.2701533203125,0.011087211203575134,-0.016736030745506284,-0.07029986315071582
1779213522275145200,8.280145263671875,0.005393966856383485,-0.010852233403921127,-0.04284545451402664
1779213522285138400,8.290138427734375,-0.004632919356011553,-0.015981997507810593,-0.027791093245148658
1779213522295130400,8.30013037109375,-0.019628245055675505,-0.024144261175394057,-0.01728080514669418
1779213522305123300,8.310123291015625,-0.013150574615813093,-0.02123801833987236,-0.012379589101672172
1779213522315115300,8.320115234375,-0.013103812864638166,0.0005161328285932541,0.011451368340849876
1779213522325108200,8.330108154296875,-0.016475333982706068,-0.01798983019888401,0.00438099156320095
1779213522335100200,8.34010009765625,0.0027320553123950956,-0.04292670305669308,-0.008882979157567023
1779213522345093400,8.35009326171875,0.007537995431042509,-0.08661679170131682,-0.041670565515756604
1779213522355085300,8.360085205078125,-0.017497077104233903,-0.09999942036569118,-0.06596212620735169
1779213522365078300,8.370078369140625,-0.054849196040630335,-0.08656184664368628,-0.05802957964241504
1779213522375070200,8.3800703125,-0.027855975174903867,-0.07186755085885524,-0.057793432798981664
1779213522385063200,8.390063232421875,0.020505027890205384,-0.04582008641064167,-0.033194413593411444
1779213522395055400,8.400055419921875,0.06298866335451603,0.0008989946663379669,-0.043946693754196166
1779213522405048300,8.41004833984375,0.08017126882374286,-0.0021288287222385404,-0.03833645265698433
1779213522415040300,8.420040283203125,0.06431611256599426,-0.01018061775267124,-0.042808629634976385
1779213522425033200,8.430033203125,0.03712064712643623,-0.024172318226099013,-0.05260346294045448
1779213522435025200,8.440025146484375,0.0004804769933223724,-0.0239332487732172,-0.06633212856352329
1779213522445018400,8.450018310546875,-0.04717676171660423,-0.026057985842227935,-0.09654489599764346
1779213522455010000,8.460010009765625,-0.08126140214800834,-0.047236967471241946,-0.1314654027312994
1779213522465003300,8.470003173828125,-0.06857377001047134,-0.08976619564294815,-0.15060791009664534
1779213522474995500,8.479995361328125,-0.054361704784631724,-0.12276187179386615,-0.12769815915226937
1779213522484988200,8.48998828125,-0.046372459596395486,-0.13812310705482958,-0.08141396236121654
1779213522494980400,8.49998046875,-0.04532967254519462,-0.10789981822669506,-0.06006839199364185
1779213522504973000,8.50997314453125,-0.02771568992137909,-0.03742109137773514,-0.036026422148942944
1779213522514965200,8.51996533203125,0.00041150398116151333,-0.0008715221375226974,-0.0062432783037424085
1779213522524958500,8.52995849609375,0.041271921586990355,0.005352466943860054,-0.002722118440270424
1779213522534950100,8.5399501953125,0.03462006248235702,0.007193126374483108,-0.004883680388331413
1779213522544943400,8.549943359375,0.01620294678211212,-0.00029050737917423245,-0.0068967737764120095
1779213522554935300,8.559935302734376,-0.026680501654744147,0.007708674681186675,-0.0020750527083873748
1779213522564928300,8.56992822265625,-0.05924480065107345,0.037976971694827076,0.0167746091902256
1779213522574920200,8.579920166015626,-0.0840384656459093,0.06320844358503819,0.042213001829385755
1779213522584913200,8.5899130859375,-0.06202595580220222,0.08864800526797771,0.07583762353360653
1779213522594905300,8.5999052734375,-0.016730770048499106,0.06075929686725139,0.09807049812972544
1779213522604898300,8.609898193359374,0.0038958383947610854,0.028625205981731412,0.07360241182744502
1779213522614890200,8.61989013671875,0.010693829113460378,0.013206103053689001,0.06903846491277217
1779213522624883200,8.62988330078125,-0.011557167944527463,0.026063246539235113,0.08900690170824527
1779213522634875400,8.63987548828125,-0.04776888239085674,0.04978022221326828,0.08823533281385898
1779213522644868400,8.649868408203124,-0.06311082842946052,0.05167582670152187,0.09252046278715133
1779213522654860300,8.6598603515625,-0.05792728831171989,0.03218085263669491,0.07122983747720718
1779213522664853200,8.669853271484374,-0.04104863422513008,0.012440379378199577,0.030564065089821815
1779213522674845200,8.67984521484375,-0.02937573208808899,0.0018313070803880691,0.0042670097947120665
1779213522684838400,8.68983837890625,-0.023673721054196357,0.006854103678464889,-0.011005962660908699
1779213522694830000,8.699830078125,-0.021944705304503438,0.020548867031931876,-0.023829203876852986
1779213522704823300,8.7098232421875,0.005187630629324121,0.049073535248637196,0.014244798451662063
1779213522714815500,8.7198154296875,0.014372809887147741,0.06572890197336673,0.05569558373689651
1779213522724808200,8.72980810546875,0.04354921886920929,0.08728490022122859,0.11744155355393886
1779213522734800400,8.73980029296875,0.0518009143859148,0.059035541814565655,0.12744681473970412
1779213522744793000,8.74979296875,0.037273791861534115,0.04463116888701915,0.11227847170233726
1779213522754785300,8.759785400390625,0.01981763014793396,0.022117723783850667,0.06481354069411754
1779213522764778500,8.769778564453125,-0.0018090952485799788,0.0046200610160827636,0.011475333738327025
1779213522774770200,8.779770263671875,-0.02319032145142555,-0.002944236758351326,-0.020683891588449476
1779213522784763400,8.789763427734375,0.010680968490242958,-0.005082417830824851,-0.05173895506560802
1779213522794755300,8.79975537109375,0.04772445872724056,0.004566869524121284,-0.04013093485832214
1779213522804748300,8.809748291015625,0.07604980497956275,0.01723988861441612,-0.016505144599080084
1779213522814740200,8.819740234375,0.061410454252362245,0.01184767418205738,-0.008683072671294211
1779213522824733200,8.829733154296875,0.02966448590159416,0.02732172216773033,0.0195849904358387
1779213522834725400,8.839725341796875,0.0188180977165699,0.01371814422905445,0.030425533401966093
1779213522844718300,8.84971826171875,0.006252630653977393,0.007318798580765723,0.022741993162035942
1779213522854710300,8.859710205078125,0.022463760742545125,0.018248773396015164,0.02863572737574577
1779213522864703200,8.869703125,0.0517617514193058,0.010649988830089569,0.04339432056844234
1779213522874695400,8.8796953125,0.02855564787685871,0.028478490987420082,0.046615036180615424
1779213522884687000,8.88968701171875,0.01267594169974327,0.04506663769483566,0.0626408728301525
1779213522894680300,8.899680419921875,-0.00007832593321800231,0.06719488287270069,0.06364391239285469
1779213522904672300,8.90967236328125,-0.0024620061993598937,0.05026654442548752,0.06958265479207039
1779213522914665200,8.919665283203125,0.016882161217927932,0.029400282007455824,0.05899287171661854
1779213522924657400,8.929657470703125,0.02131985140442848,0.013119009292125701,0.06508592789471149
1779213522934650000,8.939650146484375,0.013523498439788818,0.009973697003722191,0.0685883830577135
1779213522944642300,8.949642333984375,0.023431144469976423,0.0014817629903554916,0.04814180735647678
1779213522954635300,8.95963525390625,0.013751461976766586,-0.0012555530190467834,0.048826867011189455
1779213522964627200,8.969627197265625,0.008719897550344467,0.012643208473920822,0.021286533656716344
1779213522974620400,8.979620361328125,-0.0027227029621601103,0.009310849180817603,-0.009493804532289504
1779213522984612400,8.9896123046875,0.018206687819957733,0.02028466313779354,-0.03646715165376663
1779213522994605300,8.999605224609375,0.0440367101252079,0.015749357795715332,-0.049066520985960954
1779213523004597200,9.00959716796875,0.06185176827907562,-0.00919511384665966,-0.038705285969376564
1779213523014590200,9.019590087890625,0.037678281009197234,-0.03157411891520023,-0.02427344051301479
1779213523024585500,9.02958544921875,0.01935001263618469,-0.0567243422627449,-0.023805238479375837
1779213523034578400,9.039578369140624,0.002322889418792329,-0.06444704546928405,-0.011264905858039855
1779213523044570400,9.0495703125,-0.0017465514063835143,-0.06605097353458404,-0.030703765821456907
1779213523054563300,9.059563232421874,-0.009099836778640747,-0.06799392429590224,-0.04474807326495647
1779213523064555500,9.069555419921874,0.005378769858073792,-0.05948503914773464,-0.04544248526990413
1779213523074548500,9.079548583984375,0.00007949440617521759,-0.04007482075691223,-0.05642623609900474
1779213523084540400,9.08954052734375,0.021461305701732634,-0.011566519153118134,-0.05092822320461273
1779213523094533400,9.099533447265625,0.01638648665547371,-0.012876432707905769,-0.0454220270037651
1779213523104525300,9.109525390625,0.024943887120485304,0.003771335232257843,-0.023538696497678754
1779213523114518500,9.1195185546875,0.05685293707847595,0.011314590218663215,-0.010898410633206367
1779213523124510200,9.12951025390625,0.029692542952299117,0.031712650603055954,-0.0027688801914453505
1779213523134503400,9.13950341796875,0.011101239728927612,0.030509120032191275,0.0021411036819219587
1779213523144495400,9.149495361328125,-0.02029109287858009,0.028348142606019974,0.010255436554551123
1779213523154488300,9.15948828125,-0.03788753984570503,0.010445406168699264,0.020870938593149185
1779213523164480500,9.16948046875,-0.053704702180624,-0.02059972043633461,0.010725976675748825
1779213523174473200,9.17947314453125,-0.01061725560426712,-0.03861351603269577,0.024242460852861403
1779213523184465400,9.18946533203125,-0.002711011382722063,-0.03248012784421444,0.026913141366839408
1779213523194458400,9.199458251953125,0.009493804532289504,-0.02268178740739822,0.032086744612455365
1779213523204450300,9.2094501953125,0.00378887088894844,-0.03504442537426948,0.00850713158249855
1779213523214443500,9.219443603515625,0.020296938097476958,-0.005111643925309181,0.020980244186520575
1779213523224435500,9.229435546875,0.006820202550507383,-0.000021627309918403625,0.0003805237501859665
1779213523234428400,9.239428466796875,-0.0032967023161880205,0.04187807078659534,-0.00017009586989879608
1779213523244420400,9.24942041015625,-0.009278700476884841,0.05568213973343372,0.006514496460556984
1779213523254413300,9.259413330078125,-0.0096247374355793,0.08138590531051158,0.0214759187489748
1779213523264405500,9.269405517578125,0.003591302490234375,0.08430968380272388,0.04895429278314113
1779213523274397400,9.2793974609375,0.008542202895879744,0.08080898220539093,0.09718202485740184
1779213523284390400,9.289390380859375,0.0030289912907115646,0.05657061300575733,0.09350947382450103
1779213523294382300,9.29938232421875,0.008461538875102996,0.051587563896179196,0.09934183323979377
1779213523304375300,9.309375244140625,-0.008746786698914365,0.02286532728075981,0.06194120012819767
1779213523314367200,9.3193671875,-0.008490762686298694,0.006582300999760628,0.03114975602328777
1779213523324360400,9.3293603515625,-0.03200374250411987,-0.018475567889213562,-0.004799509236216545
1779213523334352400,9.339352294921875,-0.04370820882320404,-0.04825111294984817,-0.013562076884508133
1779213523344345300,9.349345458984375,-0.03126958072738489,-0.03774900815784931,-0.0243166951328516
1779213523354337500,9.359337646484375,-0.009623566108511294,-0.024996494090557098,-0.033948446831107135
1779213523364330200,9.369330322265625,0.012893380417773732,-0.001668225473165512,-0.03161445092558861
1779213523374322400,9.379322509765625,0.02241875484032789,0.020889058771729467,-0.010461188259720802
1779213523384315400,9.3893154296875,0.012806874603033066,0.04102291526198387,0.004666238245368003
1779213523394307300,9.399307373046875,0.041648353683948515,0.04103577474355698,0.04004091848731041
1779213523404300500,9.409300537109376,0.0541360793352127,0.030801965498924253,0.06648351973295212
1779213523414292200,9.419292236328126,0.04834931262731552,0.032549101427197455,0.07004559612870216
1779213523424285400,9.429285400390626,-0.004416647398471832,0.02991641483604908,0.06816226660013198
1779213523434277400,9.43927734375,-0.009083470165729522,0.03729892630279064,0.0598310761064291
1779213523444270300,9.449270263671876,-0.005326165742112789,0.027214170140028,0.03449965097308159
1779213523454262500,9.459262451171876,-0.007924952346947975,0.022217677026987074,0.0049789574563503265
1779213523464255200,9.469255126953126,0.016958146780298555,0.016364859345555306,0.0100865097284317
1779213523474247400,9.479247314453126,0.041626141852140426,0.025975568255782126,0.03815992704629898
1779213523484240400,9.489240478515624,0.05936521216034889,0.021941782695055007,0.0458405446767807
1779213523494232300,9.499232421875,0.06390227106809615,0.03245791601240635,0.051475920215249056
1779213523504225500,9.5092255859375,0.05268412696123123,0.028908699098229407,0.061001873451471324
1779213523514217500,9.519217529296874,0.02261398058490595,0.02267535766661167,0.06149871705770492
1779213523524210400,9.52921044921875,0.010489829832315445,0.031602175965905185,0.02653261761665344
1779213523534202400,9.539202392578124,0.0049158290922641755,0.019110358661413192,0.006501052457094192
1779213523544195300,9.5491953125,0.0012064531803131103,-0.005028641816973686,0.00012274959683418273
1779213523554187300,9.559187255859374,-0.008093290084600448,-0.017778817796707154,-0.013116671204566955
1779213523564180500,9.569180419921874,0.0010217442631721496,-0.011406944677233695,-0.022659575575590132
1779213523574172400,9.57917236328125,-0.0016471849684254265,-0.018408347871899603,-0.018065818044543266
1779213523584164400,9.589164306640624,0.006737194733950309,-0.04822071781158447,-0.02419160744845867
1779213523594157600,9.599157470703124,-0.0022609306693077086,-0.061630234482884405,-0.03997369846999645
1779213523604149200,9.609149169921874,0.017668932248023336,-0.09150748635232447,-0.0599573328346014
1779213523614142500,9.619142578125,0.03407645255837124,-0.08499825058877468,-0.09067688074707984
1779213523624134400,9.629134521484374,0.046939445829391475,-0.07779343377649783,-0.09259528158903121
1779213523634127400,9.63912744140625,0.04711830952763557,-0.059174658024311065,-0.0987087960332632
1779213523644119600,9.64911962890625,0.025058457977441138,-0.0501104770809412,-0.10381284117400645
1779213523654112300,9.6591123046875,0.00016717326045036316,-0.04622282199263572,-0.1084469307154417
1779213523664104400,9.6691044921875,-0.038383214408159255,-0.0649503188163042,-0.13833295041322707
1779213523674097400,9.679097412109375,-0.07528759300198871,-0.09137655344903468,-0.14872984126508235
1779213523684089300,9.68908935546875,-0.07862403938174248,-0.10705284600853919,-0.14930208819508553
1779213523694082600,9.69908251953125,-0.03103227169003803,-0.09907295317053794,-0.12405249612629413
1779213523704074500,9.709074462890625,0.020329666756722143,-0.06827566384673119,-0.08583353236913681
1779213523714067500,9.7190673828125,0.06506897675991058,-0.07021686104238033,-0.04981704709231853
1779213523724059400,9.729059326171875,0.06479658955931664,-0.057660161808133124,-0.016818448331952094
1779213523734052400,9.73905224609375,0.044297402321430854,-0.01789221504330635,0.0013332944303750991
1779213523744044300,9.749044189453125,0.0032861774972407147,-0.007280220136046409,0.004257657444477081
1779213523754037500,9.75903759765625,0.0037269070020643992,0.0025900164932012555,0.016770517536997796
1779213523764029400,9.769029541015625,0.030700263256696052,0.03195055101215839,0.019458733707666397
1779213523774021400,9.779021484375,0.04437690186500549,0.05872457616925239,0.029926936230063438
1779213523784014300,9.789014404296875,0.038548045014473606,0.08783844245076179,0.042620413586497305
1779213523794006300,9.79900634765625,0.009278700476884841,0.08500351128578186,0.043892333218455315
1779213523803999500,9.80899951171875,-0.01962941409945488,0.07172258943021297,0.06376023224890232
1779213523813991400,9.818991455078125,-0.04363571897572838,0.05284136334955692,0.059143678364157674
1779213523823984400,9.828984375,-0.023958383214473723,0.03776946642398834,0.07715572039484977
1779213523833976300,9.838976318359375,-0.007002572238445281,0.02589431971311569,0.08515665602087974
1779213523843969300,9.84896923828125,-0.01414543886356987,0.0012298340559005736,0.0902168620198965
1779213523853961500,9.85896142578125,-0.03288287255936302,0.00763093326985836,0.10866378833651542
1779213523863954400,9.868954345703125,-0.053696518874168396,0.020716624814271927,0.13737433451414108
1779213523873946400,9.8789462890625,-0.046012398678925814,0.024079963767528533,0.11970891396403312
1779213523883939600,9.888939697265625,-0.05534720869064331,0.04197743950784206,0.1337999831587076
1779213523893931300,9.89893115234375,-0.026565341709321365,0.03808101659119129,0.11684592574834823
1779213523903924500,9.908924560546875,-0.043833296507596965,0.02239128002822399,0.09110708885788917
1779213523913916400,9.91891650390625,-0.04552607190012931,-0.0028659108251333234,0.06933890916407108
1779213523923908400,9.928908447265625,-0.04852350471701938,-0.0008773673564195632,0.03328501448631287
1779213523933901300,9.9389013671875,-0.06585808131098747,-0.005769815573096275,0.008968903875350952
1779213523943893500,9.9488935546875,-0.07830605947375296,0.018792963275313376,0.006765840873122215
1779213523953886200,9.95888623046875,-0.058974760671192776,0.04536942003369331,0.005260112485289573
1779213523963878400,9.96887841796875,-0.04971008415308315,0.0754161832511425,-0.00024549919366836546
1779213523973871400,9.978871337890626,-0.006944120049476623,0.09481003502905368,0.025415011763572692
1779213523983863300,9.98886328125,0.08276362340450287,0.10538403601348399,0.06442015746235848
1779213523993856500,9.9988564453125,0.12991700424551963,0.11037819103896618,0.12506839517056942
1779213524003848200,10.00884814453125,0.12101122873425484,0.08850830453634262,0.13809271191656589
1779213524013841400,10.01884130859375,0.06134089614748955,0.04368716603517532,0.12163666715621947
1779213524023829800,10.028829833984375,-0.03445289378848392,0.0077495912134647365,0.07945756759643555
1779213524033822700,10.03882275390625,-0.09771452429890633,-0.014764438411593436,0.02719838804900646
1779213524043814700,10.048814697265625,-0.09344751450419425,-0.02633738730549812,-0.01575169588327408
1779213524053806800,10.058806884765625,-0.07102759290337562,-0.03633563422858715,-0.05080781169533729
1779213524063799800,10.0687998046875,-0.04264087185263633,-0.03848316765129566,-0.07253273676931858
1779213524073791700,10.078791748046875,-0.02656535084247589,-0.03927694837749004,-0.08296294536888599
1779213524083784700,10.08878466796875,-0.013943189723161048,-0.043701779082417486,-0.06166472127437591
1779213524093776600,10.098776611328125,-0.027903915103012693,-0.040941666719317434,-0.06753332104682921
1779213524103769900,10.108769775390625,-0.024526538491249084,-0.020676877325773238,-0.06885200242996216
1779213524113761500,10.118761474609375,-0.02612928837961517,-0.03114157271683216,-0.037113632863759995
1779213524123754800,10.128754638671875,0.008773664431041106,-0.023783611169457434,-0.01208908172249794
1779213524133747000,10.138746826171875,0.04286766634583473,0.0004278700232505798,-0.011481763479113578
1779213524143739600,10.14873974609375,0.05011223064661026,-0.010281155517697333,-0.002664250773191452
1779213524153731800,10.15873193359375,0.04404488429850898,-0.0027659575819969176,0.004821136546134948
1779213524163724500,10.168724609375,0.031711481559276576,0.0062432783037424085,-0.007149871754646301
1779213524173716700,10.178716796875,-0.0014998831689357758,0.022458500045537948,-0.008163432711362838
1779213524183708700,10.188708740234375,-0.0060170683324337,0.01563011533021927,0.004888941085338592
1779213524193701600,10.19870166015625,-0.0075111154156271365,0.03553191663026809,0.02917641012370586
1779213524203693800,10.20869384765625,0.004340650419658049,0.04067921639084816,0.051989130434393876
1779213524213686800,10.218686767578125,0.021036933676665648,0.040866847917437554,0.055765141841769214
1779213524223678700,10.2286787109375,0.0335971491754055,0.0204214412599802,0.06958791548907757
1779213524233671700,10.238671630859375,0.045860418421030044,-0.001087210714817047,0.04582417806386947
1779213524243664000,10.248663818359375,0.07131283958554267,-0.013682488393783568,0.0353442851036787
1779213524253656800,10.25865673828125,0.06584639087319373,-0.026343817046284673,0.01704874995648861
1779213524263648800,10.268648681640625,0.04369418029785156,-0.03462240056991577,-0.0010363573104143142
1779213524273641000,10.278640869140625,0.023276830691099166,-0.044539398950338364,-0.02997252893745899
1779213524283633700,10.288633544921876,0.01855741008692421,-0.05330079755485057,-0.058304889452457424
1779213524293625900,10.2986259765625,0.0065723732607904815,-0.04786708206832409,-0.06115852531790733
1779213524303618600,10.30861865234375,0.06896189254522324,-0.02536708096861839,-0.07321312024891376
1779213524313610800,10.31861083984375,0.11755670436620712,-0.0041273090630769725,-0.06285363879799842
1779213524323604000,10.32860400390625,0.20540919360863044,0.01996785227358341,-0.055931730580329894
1779213524333595600,10.338595703125,0.28002456360459327,0.03501929093301296,-0.05556874248683452
1779213524343588900,10.3485888671875,0.32104514077901836,0.04962298582494259,-0.04681085101366043
1779213524353580800,10.358580810546876,0.26017887640595433,0.02977905219197273,-0.032519875332713125
1779213524363572700,10.36857275390625,0.11696283012628554,0.03575228138267994,0.01988601920902729
1779213524373565700,10.378565673828126,-0.032920272827148434,0.03145195384025574,0.006368950510025024
1779213524383558000,10.388557861328126,-0.06942366483807563,-0.021750059515237806,-0.03655892159044742
1779213524393550800,10.39855078125,-0.03232170414580032,-0.04373451230823994,-0.025552958929538724
1779213524403542800,10.408542724609376,0.015635960549116135,-0.03478606669902801,-0.004806523498892784
1779213524413535700,10.41853564453125,0.05724458501087501,-0.024597850161790846,-0.01077975268959999
1779213524423527700,10.428527587890626,0.07400867280708626,-0.012587678894400597,-0.023576105898618697
1779213524433521000,10.43852099609375,0.0715337888598442,-0.032221769168972965,0.0005032733470201492
1779213524443512600,10.4485126953125,0.03915127617120743,-0.05759878700971603,0.009758008426427841
1779213524453504800,10.4585048828125,0.0075193261215463275,-0.05805939025878906,-0.013826865300536156
1779213524463498000,10.468498046875,-0.025910668059717864,-0.05264788660407066,-0.028689503389596936
1779213524473489700,10.47848974609375,-0.05340075079798698,-0.04256079235374927,-0.0409299762815237
1779213524483483000,10.48848291015625,-0.05042083993805572,-0.04728197565674781,-0.03264028684198856
1779213524493474800,10.498474853515624,-0.0494435376048088,-0.03445873444080352,-0.04015197764635086
1779213524503467800,10.5084677734375,-0.008527005326747893,-0.03863338977694511,-0.03972586118876934
1779213524513459700,10.518459716796874,0.033248774129152295,-0.03823708393573761,-0.037326398831605906
1779213524523452700,10.52845263671875,0.029648101022373884,-0.04150222321152687,-0.045505029112100595
1779213524533444600,10.538444580078124,0.019988310539722443,-0.042348026385903355,-0.06251695418953895
1779213524543436800,10.548436767578124,0.004181669598817825,-0.05164601608514786,-0.06941781961917877
1779213524553429800,10.5584296875,-0.02669977261079475,-0.06982932302951812,-0.08085457491278648
1779213524563421700,10.568421630859374,-0.07527587973130867,-0.07660451625287533,-0.05748071358799934
1779213524573415000,10.578414794921875,-0.10131866800440474,-0.041675826212763785,-0.005342530071735381
1779213524583406600,10.588406494140624,-0.06171847902191802,-0.04342354666292667,0.04838029228746891
1779213524593399800,10.59839990234375,-0.009636446139682084,-0.039541736793518065,0.06013853462040424
1779213524603391700,10.608391845703125,0.07534370253682136,-0.051802083429694175,0.0615910715162754
1779213524613384700,10.618384765625,0.14411505921231582,-0.06363397552073001,0.03266249867379665
1779213524623377000,10.628376953125,0.2243091061234474,-0.0280114579975605,-0.02636193722486496
1779213524633368800,10.638368896484375,0.21726326099885626,-0.011674655702710151,-0.06794657802283763
1779213524643361800,10.64836181640625,0.12321955243349074,-0.020422025781869888,-0.10285013362169265
1779213524653353700,10.658353759765625,-0.024269330593477932,-0.043133623805642125,-0.1804594430029392
1779213524663346700,10.6683466796875,-0.14147882895721123,-0.0861345611423254,-0.1848608928322792
1779213524673338600,10.678338623046875,-0.2054910084068775,-0.10937573599815369,-0.16088263587355614
1779213524683331800,10.688331787109375,-0.21821838803291319,-0.12446107692718505,-0.09152268392145634
1779213524693323800,10.69832373046875,-0.1659293978691101,-0.07963643129467964,-0.031124621582031248
1779213524703315700,10.708315673828125,0.0006079027652740478,-0.0352133522003889,0.031580548655986786
1779213524713309000,10.718308837890625,0.18723169535053893,-0.021836568754911422,0.0872626883894205
1779213524723300600,10.728300537109375,0.30112812364352864,0.0021925416082143783,0.061331543797254556
1779213524733293800,10.7382939453125,0.34035189879536626,0.014514263042807578,-0.04803133271932602
1779213524743285800,10.74828564453125,0.22385785522460935,-0.003909282398223877,-0.11650631853044033
1779213524753278700,10.75827880859375,0.06425181515812874,-0.05160509955286979,-0.1543698929786682
1779213524763271000,10.76827099609375,-0.05890345813380554,-0.10611761098504066,-0.15889584597051143
1779213524773262800,10.778262939453125,-0.16499184302436187,-0.1392640937834978,-0.13889759855866432
1779213524783255800,10.788255859375,-0.1617839868937619,-0.12301555429399012,-0.09010989451408385
1779213524793247700,10.798247802734375,-0.08761513682259246,-0.07859130615592003,-0.05171323610246181
1779213524803240700,10.80824072265625,0.00848607052816078,-0.03829027542769909,-0.01928162357509136
1779213524813232600,10.818232666015625,0.09939093307852745,-0.019040216034650802,-0.006545476120710373
1779213524823225900,10.828225830078125,0.11961655950546264,-0.015228548792004585,-0.004549333867430686
1779213524833217800,10.8382177734375,0.06778817259073257,-0.04264087185263633,-0.043830373898148534
1779213524843210800,10.848210693359375,0.033481395574938504,-0.06760171010792256,-0.07941489749848842
1779213524853203000,10.858202880859375,0.04919686936736106,-0.0767407098531723,-0.04397533532679081
1779213524863194600,10.868194580078125,0.03899579334855079,-0.05674830766022205,-0.014952654460072516
1779213524873187800,10.878187744140625,-0.033551574734319,-0.07009060431420802,0.009644611179828642
1779213524883179800,10.8881796875,-0.06204232241511345,-0.06152677410840988,0.007197218027710914
1779213524893172700,10.8981728515625,-0.04067335290564224,-0.045836453023552895,0.017407646396756172
1779213524903165000,10.9081650390625,0.03973114015208557,-0.004561024305224418,0.008607669347524643
1779213524913157600,10.91815771484375,0.10998833320485428,0.02609481072127819,0.01246025312244892
1779213524923149800,10.92814990234375,0.1417383749425411,0.0273404268682003,-0.00386252064704895
1779213524933141800,10.938141845703125,0.0972901431406848,0.03137421242892742,-0.015191139391064644
1779213524943134700,10.948134765625,0.06894552593231201,0.012743161717057227,-0.004319616764783859
1779213524953126700,10.958126708984375,0.0358802916765213,-0.015565817922353743,-0.032711598512530325
1779213524963119900,10.968119873046875,0.08759292499078437,-0.050641222956776616,-0.017391864305734632
1779213524973111800,10.97811181640625,0.14155251524792983,-0.05009001881480217,-0.00596738397181034
1779213524983104800,10.988104736328125,0.17899463114738462,-0.03583703705668449,0.014021511089801788
1779213524993096700,10.9980966796875,0.17505846074223516,-0.012180851659178734,-0.012259762114286423
1779213525003088600,11.008088623046875,0.07625557495104149,-0.005562310302257538,-0.04582417806386947
1779213525013081900,11.018081787109375,-0.005639485458005219,-0.005201075774431229,-0.06273322728872299
1779213525023076000,11.028076171875,-0.030046763217449188,-0.003038344782590866,-0.07957388745248317
1779213525033069000,11.038069091796874,-0.042490083471406245,0.0018885902255773544,-0.044833997982740396
1779213525043061000,11.04806103515625,-0.013106131544243544,0.005541852036118507,0.005871522381901741
1779213525053053200,11.05805322265625,0.033226562297344206,-0.0064507835745811455,0.03951134165525436
1779213525063046000,11.0680458984375,0.05198502051485702,0.000006429740786552429,0.07334756028354167
1779213525073038000,11.0780380859375,0.04802079305900261,0.010229133069515228,0.06950432885885238
1779213525083031000,11.088031005859374,0.020551789641380307,0.02737842079102993,0.056314592418074606
1779213525093023000,11.09802294921875,0.02308392020119354,0.027072715842723846,0.040161329996585844
1779213525103016200,11.10801611328125,0.02665067277206108,0.026197686573863028,0.03363514309823513
1779213525113008000,11.118008056640624,0.0007212817455641925,0.02256254494190216,0.021987959924340248
1779213525123000000,11.128,-0.015661679512262345,0.015365911436080931,-0.00024316110610961912
1779213525132993000,11.137992919921874,-0.027998616782296447,-0.0027507600128650663,0.009012743017077446
1779213525142985200,11.147985107421874,-0.012868852189648896,-0.02566168000102043,0.01974748752117157
1779213525152978000,11.15797802734375,0.0068611179411411285,-0.011901450195908546,0.03707973059415817
1779213525162970000,11.16797021484375,-0.010669862574338912,0.015773907715082167,0.07066285124421119
1779213525172963000,11.177963134765625,-0.04121230035424232,0.03269406285583973,0.05917874967753887
1779213525182955000,11.187955078125,-0.03587910436643287,0.05486906978487968,0.055226212659478184
1779213525192947200,11.197947265625,-0.041697435256373136,0.010921206986904144,0.04749824875593185
1779213525202940000,11.20793994140625,-0.04537528351889923,-0.009319032487273216,0.01286766487956047
1779213525212932000,11.21793212890625,-0.04736263967752456,-0.03637129006385803,0.0009381576329469681
1779213525222925000,11.227925048828125,-0.02028055321825668,-0.07535013227760791,-0.03480360235571861
1779213525232917000,11.2379169921875,-0.007310030752420425,-0.09145137225091457,-0.08816635923087596
1779213525242909000,11.247908935546874,0.011214655241835863,-0.09278583572506904,-0.10712357315719127
1779213525252902100,11.257902099609375,0.011608604729175567,-0.09679331780076027,-0.09507540796697139
1779213525262894000,11.26789404296875,0.0698176325917244,-0.08606441851556301,-0.07476736395359039
1779213525272887000,11.277886962890625,0.1318611240506172,-0.057711599734425544,-0.06968494612276553
1779213525282879200,11.287879150390625,0.13681554985390976,-0.026738953843712804,-0.09199731569588183
1779213525292872000,11.297871826171875,0.07178513327240943,-0.028931495451927185,-0.12176876910328864
1779213525302864100,11.307864013671875,-0.015820669466257094,-0.0561971035182476,-0.1239186406135559
1779213525312856000,11.31785595703125,-0.04784311667084694,-0.07273907299637794,-0.1377566118299961
1779213525322849000,11.32784912109375,-0.05300561400055885,-0.06374445015788079,-0.10476619637608528
1779213525332841200,11.33784130859375,0.027836119696963577,-0.07314180857837199,-0.06646364598870277
1779213525342834000,11.347833984375,0.11543020459837279,-0.05460018971562385,-0.050773909425735474
1779213525352826000,11.357826171875,0.17004677006006239,-0.049019759234786034,-0.07378302909135818
1779213525362818000,11.367818115234375,0.15144844344086014,-0.04617664476335048,-0.11101005920171737
1779213525372811000,11.37781103515625,0.0368821621954441,-0.05278174211680889,-0.14564765734076499
1779213525382803000,11.387802978515625,-0.06416879478348418,-0.05159224007129669,-0.14673486805558203
1779213525392796200,11.397796142578125,-0.07205286256419495,-0.05993921265602112,-0.10336685097217559
1779213525402788000,11.4077880859375,-0.04795417582988739,-0.08172434348464011,-0.06758709706068039
1779213525412781000,11.417781005859375,0.0293839153945446,-0.09337795639932155,-0.014665654212236404
1779213525422773200,11.427773193359375,0.0831915116940625,-0.10095336008965969,0.029101006799936293
1779213525432765000,11.437764892578125,0.11567571292519568,-0.07762801408171653,0.03064005293548107
1779213525442758100,11.447758056640625,0.07556348276734352,-0.08063070302903652,0.011325111612677574
1779213525452750000,11.45775,0.03714636608958244,-0.07693009494543075,-0.025142040041089057
1779213525462743000,11.467742919921875,-0.004015656248992309,-0.07985913413465022,-0.07923778736591339
1779213525472735200,11.4777353515625,-0.011225158369541167,-0.07940320706069469,-0.11476736590862273
1779213525482727200,11.48772705078125,-0.01758241844177246,-0.07720365118980407,-0.14318682018518447
1779213525492720000,11.49772021484375,-0.0478852113800589,-0.05216974769830703,-0.16450608706772327
1779213525502712000,11.507712158203125,-0.08326281423144974,-0.02552490187883377,-0.15750585291683672
1779213525512705000,11.517705078125,-0.08495792771154083,-0.03485854741334915,-0.1107078613847494
1779213525522697000,11.527697021484375,-0.02793663006252609,-0.033059973558783526,-0.04279869276285171
1779213525532689200,11.537689208984375,0.037931972642475734,-0.026540800923109054,0.003747369834780693
1779213525542682000,11.54768212890625,0.045043256819248194,-0.05313245525062084,0.02223579720556736
1779213525552674000,11.557674072265625,-0.02411971125602722,-0.053309565383195874,-0.0030120412975549694
1779213525562667000,11.5676669921875,-0.1039198086798191,-0.07023439669907093,-0.019044307687878608
1779213525572659000,11.577658935546875,-0.1553109732210636,-0.08099953634142876,-0.04139057953059673
1779213525582651100,11.587651123046875,-0.1575847633719444,-0.05161912807822227,-0.028279753544926643
1779213525592644000,11.59764404296875,-0.10891863988041878,-0.03545066808760166,-0.01651098981797695
1779213525602636000,11.607635986328125,-0.016909049224853513,-0.03103343616724014,-0.0018044190734624861
1779213525612629000,11.61762890625,0.05395253489527385,-0.00895195274055004,0.026129882034659383
1779213525622621200,11.62762109375,0.09420622391700743,0.002687047126889229,0.07002046168744563
1779213525632612900,11.63761279296875,0.04754735316124279,0.06751403182446956,0.07628419825732707
1779213525642606000,11.647606201171875,-0.016216975307464597,0.1076888058245182,0.07406886029541492
1779213525652598000,11.657597900390625,-0.0818599525630474,0.13970365424454212,0.07771744593083858
1779213525662591000,11.667591064453125,-0.14424480480551718,0.12470073090195655,0.061869303935766215
1779213525672583200,11.677583251953125,-0.16712649869918822,0.08655074072778224,0.04091653227806091
1779213525682576000,11.687575927734375,-0.1646305902302265,0.03976736224293709,0.02988718874156475
1779213525692568000,11.697568115234375,-0.10942951201200485,0.01246376025378704,0.034593758997321124
1779213525702560000,11.70756005859375,-0.05466331351313274,0.04076923276185989,0.0656172582924366
1779213525712553000,11.717552978515625,0.00407178405013401,0.033498949497938156,0.08239771270155906
1779213525722545200,11.727545166015625,0.039293904078868215,0.06656885992884636,0.09331833516657352
1779213525732538000,11.7375380859375,0.020448918355372735,0.09973346290588378,0.14575754745602607
1779213525742530000,11.747530029296875,-0.005014028769731521,0.13145020516216754,0.19625673159360885
1779213525752522000,11.75752197265625,0.011266072618530597,0.1547796428233385,0.21944471495747564
1779213525762515000,11.767514892578125,0.05169862305521965,0.1789215659111738,0.2311322301417589
1779213525772507000,11.7775068359375,0.0832850169301033,0.18480653229653835,0.2482861940383911
1779213525782500000,11.7875,0.059789575052261346,0.1837362727165222,0.21714695940911768
1779213525792492000,11.797491943359375,0.0017710990424617192,0.16363690301775932,0.16696458613574505
1779213525802484000,11.80748388671875,-0.06560790594220162,0.16475509339272976,0.13753683159947394
1779213525812477200,11.817477294921876,-0.09335048387050628,0.13472528131008146,0.13995032248198985
1779213525822469000,11.82746923828125,-0.06424830802679062,0.10932663615942001,0.12245207519233225
1779213525832462000,11.837462158203126,-0.006441431224346161,0.09484802895188331,0.1278448741465807
1779213525842454000,11.8474541015625,0.05887888994812965,0.06632336073517799,0.11785305696427821
1779213525852446000,11.857446044921875,0.09753566060066222,0.043591888967156406,0.0851192466199398
1779213525862439200,11.867439208984376,0.07470189750194549,0.03742810564041137,0.05097673852145672
1779213525872431000,11.87743115234375,0.03950432739257812,0.05526888275742531,0.04978139125704765
1779213525882424000,11.887424072265626,0.008684826236963272,0.04767886601984501,0.08279752567410469
1779213525892416000,11.897416015625,0.010042084923171204,0.039566871234774585,0.08661153100430966
1779213525902408200,11.907408203125,0.04090717992782592,0.0174935711145401,0.08939502424299717
1779213525912401000,11.91740087890625,0.042725043004751204,0.00509644635617733,0.07378069100379943
1779213525922393000,11.92739306640625,0.022789339435100555,-0.007196633505821228,0.015086509972810745
1779213525932386000,11.937385986328126,0.0039455216137401295,-0.051179567617177964,-0.05200783513486385
1779213525942378000,11.9473779296875,-0.0011807342171669005,-0.09922551338374615,-0.14269640631973743
1779213525952370200,11.9573701171875,-0.00691489509663661,-0.13981062175035475,-0.2069979058384895
1779213525962363000,11.96736279296875,-0.01288403263411601,-0.1569154858082533,-0.24205869782567022
1779213525972355000,11.97735498046875,-0.003101473146677017,-0.20963643764853476,-0.25384733529686926
1779213525982348000,11.98734814453125,-0.0004383914172649383,-0.23288579581081867,-0.22890286365449428
1779213525992340000,11.997340087890626,-0.0004383925589092541,-0.2469219199478626,-0.2097398980230093
1779213526002332000,12.007331787109376,0.016726677253626983,-0.2504372345924377,-0.2156517524152994
1779213526012325000,12.0173251953125,0.013490765213966369,-0.21847207053303716,-0.2360591651499271
1779213526022315800,12.027315673828125,0.0352396556854248,-0.15107903473973272,-0.24448329462409019
1779213526032308700,12.037308837890626,0.07673369559049606,-0.08983516922593117,-0.27598902447819706
1779213526042300700,12.04730078125,0.12274492065906524,-0.033894086295366284,-0.2443085225790739
1779213526052292900,12.05729296875,0.13222118953466414,0.01106558389365673,-0.18781974263787268
1779213526062285600,12.06728564453125,0.10167407557964324,0.041108255457878114,-0.10194354017078876
1779213526072277800,12.07727783203125,0.035357729107141495,0.09774082778394222,-0.006270750832557678
1779213526082269700,12.087269775390626,-0.0041653029859066,0.13113047168850897,0.11116612654626369
1779213526092262700,12.0972626953125,-0.007089666000008582,0.1043815809726715,0.1707049417078495
1779213526102254800,12.1072548828125,0.0237982242166996,0.07181903554201126,0.21342647758126257
1779213526112247800,12.117247802734376,0.05778349592685699,0.07763152121305465,0.22196868047714233
1779213526122239700,12.12723974609375,0.07247837623357772,0.09624795887768268,0.22456804932057856
1779213526132231700,12.137231689453126,0.03922317236363888,0.08783902697265147,0.19089140516817568
1779213526142225000,12.147224853515626,0.015777999368309974,0.0759954444438219,0.15519874501824377
1779213526152216600,12.157216552734376,-0.012272621595859528,0.06516542287170887,0.12910101168751717
1779213526162209800,12.167209716796876,-0.04791092121005058,0.0738210230141878,0.09646598554253577
1779213526172202000,12.177201904296876,-0.05304536148905754,0.07871405575275421,0.07771335427761078
1779213526182193700,12.187193603515626,-0.05765490111112594,0.08097381737828255,0.06182312670648098
1779213526192187000,12.197186767578126,-0.05066285026669502,0.0924608415544033,0.05977379296123981
1779213526202178800,12.2071787109375,-0.05717793124914169,0.09393500576019287,0.05976911678612232
1779213526212171800,12.217171875,-0.07628010660409927,0.0969745195865631,0.03764788587093353
1779213526222163700,12.227163818359376,-0.06480827999711036,0.06507716006636619,0.038084523722529406
1779213526232156000,12.237156005859376,-0.07254734981656075,0.04347323102355003,0.008315992924571037
1779213526242148900,12.24714892578125,-0.07543605699539184,0.028516484910249707,0.024426585248112677
1779213526252140800,12.257140869140626,-0.08300678451061248,0.017896891218423843,0.0349959100574255
1779213526262132700,12.2671328125,-0.08508534435033797,-0.0036029929280281064,0.05409048662781715
1779213526272125700,12.277125732421876,-0.06950199077129364,-0.008123685222864151,0.08377543079555035
1779213526282118000,12.287117919921876,-0.050119249475863756,-0.016664134553074837,0.09450082294940948
1779213526292110600,12.297110595703124,-0.01995441055340925,-0.03501461475789547,0.09718962364196777
