time,seconds_elapsed,z,y,x
1779213514071325400,0.076325439453125,-0.08418546617031097,-0.22898045182228088,0.28856131434440613
1779213514081317400,0.0863173828125,-0.14235983788967133,-0.3707048296928406,0.4002026319503784
1779213514091310600,0.096310546875,-0.17242686450481415,-0.3887541890144348,0.4847961664199829
1779213514101302500,0.106302490234375,-0.14823444187641144,-0.2989127039909363,0.5342772006988525
1779213514111295500,0.11629541015625,-0.06818129867315292,-0.1928711235523224,0.5303813219070435
1779213514121287700,0.12628759765625,0.012911693193018436,-0.2314174622297287,0.46837010979652405
1779213514131280400,0.1362802734375,0.08455104380846024,-0.5268852114677429,0.39498624205589294
1779213514141272600,0.1462724609375,0.16082318127155304,-1.025632619857788,0.36758577823638916
1779213514151265500,0.156265625,0.24611738324165344,-1.4585446119308472,0.3914441168308258
1779213514161257500,0.166257568359375,0.31285834312438965,-1.6900372505187988,0.4394414722919464
1779213514171250700,0.176250732421875,0.391757071018219,-1.7083617448806763,0.4594351053237915
1779213514181242400,0.186242431640625,0.5138041377067566,-1.6107672452926636,0.43635454773902893
1779213514191235600,0.196235595703125,0.6796127557754517,-1.4370143413543701,0.4055771827697754
1779213514201227500,0.2062275390625,0.8133971691131592,-1.1624865531921387,0.3749990165233612
1779213514211220500,0.216220458984375,0.861943244934082,-0.9119318127632141,0.2911328077316284
1779213514221212700,0.226212646484375,0.6227226257324219,-0.6887205243110657,0.23269769549369812
1779213514231205400,0.236205322265625,0.2593810260295868,-0.0467061772942543,0.12007424235343933
1779213514241197600,0.246197509765625,-0.1380765736103058,0.8779979348182678,-0.22890852391719818
1779213514251190500,0.2561904296875,-0.23978766798973083,1.2218176126480103,-0.7894264459609985
1779213514261182500,0.266182373046875,-0.036355189979076385,1.2717969417572021,-1.1398981809616089
1779213514271175700,0.27617578125,0.1378350853919983,1.4121657609939575,-1.1975996494293213
1779213514281167600,0.286167724609375,0.18572725355625153,1.2821558713912964,-1.1158781051635742
1779213514291160600,0.29616064453125,0.17469969391822815,1.1442053318023682,-0.8631200194358826
1779213514301152500,0.306152587890625,0.12313982844352722,0.9210084676742554,-0.4816405475139618
1779213514311145500,0.3161455078125,0.05077701434493065,0.5242346525192261,-0.08214949816465378
1779213514321137400,0.326137451171875,0.000732756219804287,0.04910732060670853,0.3112475872039795
1779213514331130600,0.336130615234375,-0.01385278720408678,-0.3338603675365448,0.6215147376060486
1779213514341122600,0.34612255859375,0.0011365488171577454,-0.58009272813797,0.754700779914856
1779213514351115500,0.356115478515625,0.00645940937101841,-0.632845401763916,0.7351595759391785
1779213514361107700,0.366107666015625,0.016116149723529816,-0.4817834198474884,0.5681809782981873
1779213514371100400,0.376100341796875,0.035247765481472015,-0.212986022233963,0.2868957817554474
1779213514381092600,0.386092529296875,0.04197772219777107,0.05468189716339111,0.017516793683171272
1779213514391085600,0.39608544921875,0.07748277485370636,0.2673962414264679,-0.11038592457771301
1779213514401077500,0.406077392578125,0.14791540801525116,0.33256781101226807,-0.10664577782154083
1779213514411070500,0.416070556640625,0.1970754861831665,0.2620401084423065,0.016258832067251205
1779213514421062400,0.4260625,0.21600715816020966,0.14286856353282928,0.19193406403064728
1779213514431055600,0.4360556640625,0.23447127640247345,0.0390281043946743,0.3439819812774658
1779213514441047600,0.446047607421875,0.2720242440700531,0.009498975239694118,0.45286133885383606
1779213514451040500,0.45604052734375,0.3243999481201172,-0.11359023302793503,0.5421380996704102
1779213514461033500,0.466033447265625,0.3461281359195709,-0.27619725465774536,0.6234095096588135
1779213514471025400,0.476025390625,0.3201688528060913,-0.42853280901908875,0.6564179062843323
1779213514481017600,0.486017578125,0.2577475607395172,-0.5204634666442871,0.6188539862632751
1779213514491010300,0.49601025390625,0.1652708649635315,-0.5412600040435791,0.5200552940368652
1779213514501002500,0.50600244140625,0.09724733978509903,-0.45078179240226746,0.38507965207099915
1779213514510995700,0.51599560546875,0.11122236400842667,-0.27347269654273987,0.24898603558540344
1779213514520987400,0.5259873046875,0.16575512290000916,-0.08377332985401154,0.141347736120224
1779213514530980600,0.535980712890625,0.22311019897460938,0.05279605835676193,0.07950861752033234
1779213514540972500,0.54597265625,0.2878449857234955,0.10646354407072067,0.06554113328456879
1779213514550965500,0.555965576171875,0.3623201847076416,0.06312669068574905,0.133888378739357
1779213514560958700,0.565958740234375,0.4340875744819641,-0.06253909319639206,0.31573647260665894
1779213514570950400,0.575950439453125,0.45230573415756226,-0.2771519720554352,0.5684869885444641
1779213514580943600,0.585943603515625,0.3691522479057312,-0.47204262018203735,0.7668826580047607
1779213514590935600,0.595935546875,0.25687578320503235,-0.5662781596183777,0.8031743168830872
1779213514600928500,0.605928466796875,0.2037598192691803,-0.5434032082557678,0.6672130227088928
1779213514610920400,0.61592041015625,0.2164558470249176,-0.40566349029541016,0.4251168668270111
1779213514620913400,0.625913330078125,0.23627136647701263,-0.21699343621730804,0.16849066317081451
1779213514630905600,0.635905517578125,0.24816419184207916,-0.04839957877993584,-0.0159906055778265
1779213514640898600,0.645898681640625,0.27131742238998413,0.0390157550573349,-0.08257709443569183
1779213514650890500,0.655890380859375,0.30401116609573364,0.058690395206213,-0.04130047187209129
1779213514660883500,0.665883544921875,0.36282601952552795,0.056562796235084534,0.1004481390118599
1779213514670875600,0.675875732421875,0.42882952094078064,0.04536581039428711,0.2859288156032562
1779213514680867300,0.685867431640625,0.4411109387874603,0.01960931159555912,0.42484354972839355
1779213514690860500,0.695860595703125,0.3936856687068939,-0.02631956897675991,0.46943095326423645
1779213514700853500,0.705853515625,0.3154670298099518,-0.014568371698260307,0.429941862821579
1779213514710845400,0.715845458984375,0.2302858531475067,0.06095387414097786,0.3127991855144501
1779213514720838700,0.725838623046875,0.1651289463043213,0.16777406632900238,0.13884682953357697
1779213514730830300,0.735830322265625,0.1530524641275406,0.2809220850467682,-0.03597535565495491
1779213514740823600,0.745823486328125,0.17785634100437164,0.3843717873096466,-0.16162942349910736
1779213514750815700,0.755815673828125,0.22979938983917236,0.4879191517829895,-0.21330316364765167
1779213514760808400,0.765808349609375,0.30030521750450134,0.5606055855751038,-0.19938041269779205
1779213514770800600,0.775800537109375,0.3774975538253784,0.5582398772239685,-0.11790141463279724
1779213514780793300,0.78579345703125,0.42371004819869995,0.45525437593460083,0.02097603864967823
1779213514790785500,0.79578564453125,0.4195364713668823,0.24162209033966064,0.1659199595451355
1779213514800777500,0.805777587890625,0.36492064595222473,0.01034093089401722,0.2674979865550995
1779213514810770400,0.8157705078125,0.2960962653160095,-0.1899063140153885,0.27733734250068665
1779213514820762400,0.825762451171875,0.2464967519044876,-0.30492475628852844,0.21814939379692078
1779213514830755600,0.835755615234375,0.2290630042552948,-0.2993367314338684,0.14253035187721252
1779213514840747500,0.84574755859375,0.25879961252212524,-0.23369379341602325,0.07628928124904633
1779213514850740500,0.855740478515625,0.29273808002471924,-0.17535586655139923,0.056852348148822784
1779213514860732700,0.865732666015625,0.3063524067401886,-0.1534510999917984,0.09685808420181274
1779213514870725400,0.875725341796875,0.29346194863319397,-0.1448112279176712,0.17363241314888
1779213514880717600,0.885717529296875,0.2556602358818054,-0.13703852891921997,0.2293958067893982
1779213514890710500,0.89571044921875,0.21094141900539398,-0.13246750831604004,0.20775055885314941
1779213514900702500,0.905702392578125,0.19193710386753082,-0.06183622032403946,0.1104373186826706
1779213514910695700,0.91569580078125,0.19073930382728577,0.050992440432310104,-0.030649974942207336
1779213514920687400,0.925687255859375,0.18567103147506714,0.06187251955270767,-0.13742488622665405
1779213514930680600,0.9356806640625,0.18366894125938416,-0.09229303151369095,-0.1319868117570877
1779213514940672500,0.945672607421875,0.18450969457626343,-0.3171703517436981,-0.007820135913789272
1779213514950665500,0.95566552734375,0.1778838038444519,-0.4913957118988037,0.15915165841579437
1779213514960657700,0.96565771484375,0.17267386615276337,-0.5430688261985779,0.29712390899658203
1779213514970650400,0.975650390625,0.1734432578086853,-0.4778587818145752,0.3587084710597992
1779213514980642600,0.985642578125,0.15828001499176025,-0.3271627426147461,0.3068769872188568
1779213514990635500,0.995635498046875,0.13034772872924805,-0.14325736463069916,0.15392497181892395
1779213515000627500,1.00562744140625,0.09812825918197632,0.01523347944021225,-0.042550262063741684
1779213515010620700,1.01562060546875,0.07010336965322495,0.11469237506389618,-0.21532593667507172
1779213515020612900,1.02561279296875,0.04830513149499893,0.12723106145858765,-0.3079211115837097
1779213515030606000,1.035606201171875,0.034270599484443665,0.09269753843545914,-0.3209199011325836
1779213515040598300,1.045598388671875,0.04296901822090149,0.04439419135451317,-0.26767319440841675
1779213515050591000,1.055591064453125,0.05624067783355713,-0.010856863111257553,-0.16673658788204193
1779213515060583200,1.065583251953125,0.07735368609428406,-0.03800060227513313,-0.02785326912999153
1779213515070575900,1.075575927734375,0.12656240165233612,-0.06654196232557297,0.12879544496536255
1779213515080568000,1.085568115234375,0.15133991837501526,-0.14725439250469208,0.26835280656814575
1779213515090561000,1.09556103515625,0.14699724316596985,-0.22241352498531342,0.37307143211364746
1779213515100553000,1.105552978515625,0.13155730068683624,-0.31032660603523254,0.4305485486984253
1779213515110546200,1.115546142578125,0.10124115645885468,-0.395684152841568,0.4174898564815521
1779213515120538000,1.1255380859375,0.0701679214835167,-0.41764378547668457,0.3239183723926544
1779213515130531000,1.135531005859375,0.06114228069782257,-0.35385799407958984,0.18112729489803314
1779213515140523000,1.14552294921875,0.06299157440662384,-0.2174716740846634,0.03817441314458847
1779213515150516000,1.155515869140625,0.04436720535159111,-0.05653999000787735,-0.07998322695493698
1779213515160508200,1.165508056640625,0.023697081953287125,0.08687656372785568,-0.16825848817825317
1779213515170501000,1.175501220703125,0.0031934957951307297,0.15986140072345734,-0.20450058579444885
1779213515180493000,1.1854931640625,-0.02701740339398384,0.15730316936969757,-0.19309747219085693
1779213515190485000,1.195485107421875,-0.06227770820260048,0.14535661041736603,-0.15791091322898865
1779213515200478000,1.20547802734375,-0.0486907921731472,0.19310708343982697,-0.10134856402873993
1779213515210470000,1.215469970703125,0.03394019231200218,0.2315371036529541,0.005293917842209339
1779213515220463000,1.225463134765625,0.12611059844493866,0.16525234282016754,0.15701046586036682
1779213515230455000,1.235455078125,0.20266510546207428,-0.014754023402929306,0.3205159604549408
1779213515240448000,1.245447998046875,0.2443169504404068,-0.22577545046806335,0.42643892765045166
1779213515250440200,1.255440185546875,0.22407647967338562,-0.3828967809677124,0.41082459688186646
1779213515260433000,1.265432861328125,0.14485569298267365,-0.42502453923225403,0.294931024312973
1779213515270425000,1.275425048828125,0.05474667251110077,-0.3537951409816742,0.11153092980384827
1779213515280418000,1.28541796875,-0.030404172837734222,-0.21921683847904205,-0.09788034856319427
1779213515290410000,1.295409912109375,-0.10898135602474213,-0.026829591020941734,-0.2753271758556366
1779213515300403200,1.3054033203125,-0.13974006474018097,0.21358834207057953,-0.36566612124443054
1779213515310395000,1.315394775390625,-0.08519846200942993,0.410173624753952,-0.32698196172714233
1779213515320388000,1.32538818359375,0.02906898409128189,0.47208571434020996,-0.16085663437843323
1779213515330380000,1.335380126953125,0.19013582170009613,0.355872243642807,0.10807216167449951
1779213515340373000,1.345373046875,0.3222123682498932,0.09283795952796936,0.40055808424949646
1779213515350365200,1.355365234375,0.3802001178264618,-0.3020302951335907,0.5854335427284241
1779213515360358000,1.36535791015625,0.3639116883277893,-0.7493873238563538,0.6072877049446106
1779213515370350000,1.37535009765625,0.29171884059906006,-1.0645183324813843,0.503334105014801
1779213515380343000,1.385343017578125,0.2026425004005432,-1.2475427389144897,0.30856916308403015
1779213515390335000,1.3953349609375,0.13224317133426666,-1.3155344724655151,0.09134920686483383
1779213515400327000,1.405326904296875,0.10739428550004959,-1.302100419998169,-0.10368259996175766
1779213515410320100,1.415320068359375,0.17736651003360748,-1.306899905204773,-0.18893155455589294
1779213515420312000,1.42531201171875,0.35219183564186096,-1.4425461292266846,-0.14817772805690765
1779213515430305000,1.435304931640625,0.6476070880889893,-1.8673311471939087,0.07639387249946594
1779213515440297200,1.445297119140625,1.0000090599060059,-2.447754383087158,0.3335646688938141
1779213515450290000,1.4552900390625,1.523789644241333,-3.2657575607299805,0.6879796385765076
1779213515460282000,1.4652822265625,2.1668591499328613,-4.131434917449951,1.0349255800247192
1779213515470275000,1.475275146484375,2.71736478805542,-4.898732662200928,1.3241417407989502
1779213515480267000,1.48526708984375,2.9298808574676514,-5.2844977378845215,1.5580506324768066
1779213515490260200,1.49526025390625,2.690882682800293,-4.987580299377441,1.6587799787521362
1779213515500252000,1.505251953125,2.2329888343811035,-4.096590518951416,1.5883021354675293
1779213515510245000,1.5152451171875,1.7499401569366455,-2.9820168018341064,1.3910555839538574
1779213515520237000,1.525237060546875,1.438462734222412,-2.1032590866088867,1.145269751548767
1779213515530230000,1.53522998046875,1.4576376676559448,-1.8681774139404297,0.9644497632980347
1779213515540222200,1.54522216796875,1.7840725183486938,-2.1724836826324463,0.8671119809150696
1779213515550214100,1.555214111328125,2.0877997875213623,-2.596160411834717,0.8050093650817871
1779213515560207000,1.56520703125,2.203084945678711,-3.0401949882507324,0.8104917407035828
1779213515570199000,1.575198974609375,2.1079981327056885,-3.557961940765381,0.9131194353103638
1779213515580192000,1.58519189453125,1.9581971168518066,-4.312005043029785,1.131234884262085
1779213515590184000,1.595183837890625,1.9636895656585693,-5.2680792808532715,1.4245396852493286
1779213515600177200,1.60517724609375,2.054124593734741,-6.06293249130249,1.7477701902389526
1779213515610168800,1.6151689453125,2.058258295059204,-6.481962203979492,2.097959280014038
1779213515620162000,1.625162109375,1.976098895072937,-6.507339954376221,2.4685304164886475
1779213515630154200,1.635154296875,1.8517245054244995,-6.2505412101745605,2.8398122787475586
1779213515640147000,1.64514697265625,1.7480982542037964,-5.815813064575195,3.1943674087524414
1779213515650139100,1.65513916015625,1.715718150138855,-5.2938456535339355,3.4796359539031982
1779213515660132000,1.665132080078125,1.7165530920028687,-4.86167049407959,3.5768978595733643
1779213515670124000,1.6751240234375,1.6845853328704834,-4.619275093078613,3.3654348850250244
1779213515680117200,1.6851171875,1.6138544082641602,-4.545205116271973,2.938563346862793
1779213515690109000,1.69510888671875,1.5789110660552979,-4.609189510345459,2.4533753395080566
1779213515700101000,1.70510107421875,1.599739909172058,-4.706664085388184,1.948824405670166
1779213515710094000,1.715093994140625,1.6398978233337402,-4.4451375007629395,1.4632562398910522
1779213515720086000,1.7250859375,1.636328101158142,-3.9160428047180176,0.8897868394851685
1779213515730079000,1.735078857421875,1.5939635038375854,-3.3201372623443604,0.1648271083831787
1779213515740071200,1.7450712890625,1.5064733028411865,-2.636199951171875,-0.5527989268302917
1779213515750064000,1.755064208984375,1.4004212617874146,-1.7493146657943726,-0.799056887626648
1779213515760056000,1.76505615234375,1.2643630504608154,-0.9052963256835938,-0.6153379082679749
1779213515770049000,1.775049072265625,1.1529687643051147,-0.11594799160957336,-0.07271220535039902
1779213515780041000,1.785041015625,1.222158670425415,0.4675450026988983,0.5623419880867004
1779213515790034200,1.7950341796875,1.4256924390792847,0.7318059802055359,1.0529924631118774
1779213515800025900,1.80502587890625,1.5936976671218872,0.32594797015190125,1.4460686445236206
1779213515810018000,1.81501806640625,1.7010732889175415,-0.764663577079773,1.908767580986023
1779213515820011300,1.82501123046875,1.7607009410858154,-1.6223134994506836,2.3401200771331787
1779213515830003000,1.8350029296875,1.802423119544983,-1.572035312652588,2.3816821575164795
1779213515839996200,1.84499609375,1.863838791847229,-1.1625127792358398,2.1327385902404785
1779213515849988000,1.854988037109375,2.069089889526367,-1.0888217687606812,2.1848955154418945
1779213515859981000,1.86498095703125,2.386584997177124,-0.4998173117637634,2.304457664489746
1779213515869973000,1.874972900390625,2.755221366882324,0.649922251701355,2.2963621616363525
1779213515879966000,1.884966064453125,3.0184810161590576,1.53734290599823,2.544743299484253
1779213515889958100,1.894958251953125,2.99851393699646,2.266974687576294,2.924410581588745
1779213515899951000,1.904951171875,2.5406570434570312,2.876458168029785,3.098372220993042
1779213515909943000,1.914943115234375,1.6870508193969727,2.9575936794281006,2.9666271209716797
1779213515919935000,1.92493505859375,0.5883762836456299,2.760056495666504,2.3256144523620605
1779213515929928200,1.93492822265625,-0.7728714346885681,2.4013781547546387,0.5141490697860718
1779213515939920000,1.944919921875,-1.5656298398971558,1.7364414930343628,-1.4313122034072876
1779213515949913000,1.9549130859375,-1.3986327648162842,1.057403802871704,-1.9970659017562866
1779213515959905000,1.964905029296875,-0.4464793801307678,0.2286616414785385,-1.683362603187561
1779213515969898000,1.97489794921875,0.5369861125946045,-0.7885646224021912,-1.4337162971496582
1779213515979890200,1.98489013671875,0.9399053454399109,-2.075411081314087,-1.5445640087127686
1779213515989883000,1.9948828125,0.7089023590087891,-2.1577529907226562,-1.669643759727478
1779213515999875000,2.004875,0.16123448312282562,-1.0559251308441162,-1.5082955360412598
1779213516009868000,2.014867919921875,-0.1173071339726448,-0.3464896082878113,-1.0309391021728516
1779213516019863800,2.02486376953125,-0.2787591218948364,0.37031564116477966,-0.5591225624084473
1779213516029855700,2.034855712890625,-0.4247034788131714,0.8348672986030579,-0.40444180369377136
1779213516039848700,2.0448486328125,-0.44929856061935425,0.7641630172729492,-0.6492385268211365
1779213516049840600,2.054840576171875,-0.5294244885444641,0.46486711502075195,-1.0151358842849731
1779213516059833900,2.064833740234375,-0.6318286061286926,0.6414229869842529,-1.331399917602539
1779213516069825500,2.074825439453125,-0.6611919403076172,1.4261146783828735,-1.697422742843628
1779213516079818800,2.08481884765625,-0.6086201071739197,2.4598474502563477,-2.070024013519287
1779213516089811000,2.09481103515625,-0.6383314728736877,3.37648344039917,-2.5154213905334473
1779213516099803600,2.1048037109375,-0.7077131867408752,4.076211929321289,-3.0169565677642822
1779213516109795800,2.1147958984375,-0.8650939464569092,4.49557638168335,-3.4135429859161377
1779213516119787800,2.124787841796875,-1.0989112854003906,4.5255937576293945,-3.4859328269958496
1779213516129780700,2.13478076171875,-1.2454769611358643,4.028200626373291,-2.659968137741089
1779213516139772700,2.144772705078125,-1.4743332862854004,2.570991277694702,-1.5650382041931152
1779213516149765600,2.154765625,-1.436144471168518,0.8951968550682068,-0.7232765555381775
1779213516159757800,2.1647578125,-1.4954129457473755,0.0011105717858299613,-0.46475306153297424
1779213516169750800,2.174750732421875,-1.6606318950653076,-0.4678986370563507,-0.4862242639064789
1779213516179742700,2.18474267578125,-1.799952507019043,-0.7166240215301514,-0.5270334482192993
1779213516189734700,2.194734619140625,-1.7172311544418335,-0.8329339027404785,-0.45066964626312256
1779213516199727900,2.204727783203125,-1.3365343809127808,-0.7800243496894836,-0.3848339021205902
1779213516209719600,2.214719482421875,-0.9395720958709717,-0.8843641877174377,-0.3895321488380432
1779213516219712800,2.224712646484375,-0.8759055137634277,-1.0096931457519531,-0.3436344265937805
1779213516229705000,2.234705078125,-1.1065782308578491,-0.9127829074859619,-0.23843401670455933
1779213516239697700,2.24469775390625,-1.5196322202682495,-0.7788584232330322,-0.06458553671836853
1779213516249689900,2.25468994140625,-1.7534619569778442,-0.5031571984291077,0.1777876317501068
1779213516259682600,2.2646826171875,-1.8298707008361816,-0.41297081112861633,0.4493299424648285
1779213516269674800,2.2746748046875,-2.033200740814209,-0.4872269034385681,0.6218488216400146
1779213516279666700,2.284666748046875,-2.4371907711029053,-0.951766848564148,0.6662306785583496
1779213516289659600,2.29465966796875,-2.9487452507019043,-1.198774814605713,0.68267422914505
1779213516299651800,2.30465185546875,-3.2911629676818848,-0.6653285026550293,0.6857179403305054
1779213516309644800,2.314644775390625,-3.204331874847412,-0.1968805342912674,0.6785723567008972
1779213516319636700,2.32463671875,-2.785863161087036,0.1243097260594368,0.5650867819786072
1779213516329629700,2.334629638671875,-2.2144429683685303,0.295553594827652,0.2983981966972351
1779213516339622000,2.344621826171875,-1.6490572690963745,0.36434996128082275,0.03160110488533974
1779213516349613600,2.354613525390625,-1.1344001293182373,0.32688865065574646,-0.1554490178823471
1779213516359606800,2.364606689453125,-0.6435645818710327,0.25043970346450806,-0.43568387627601624
1779213516369599000,2.374598876953125,-0.333793580532074,0.038559891283512115,-0.7337990403175354
1779213516379591700,2.384591796875,-0.19503888487815857,-0.19163602590560913,-0.6486575603485107
1779213516389584000,2.394583984375,-0.32039016485214233,-0.27539288997650146,-0.5205793976783752
1779213516399576600,2.40457666015625,-0.43929657340049744,-0.03324761241674423,-0.2689615786075592
1779213516409568800,2.41456884765625,-0.3893052935600281,0.9937079548835754,-0.2966444194316864
1779213516419562000,2.42456201171875,-0.3026966452598572,0.7595534920692444,-0.03173019737005234
1779213516429553700,2.4345537109375,-0.41584745049476624,-0.04018685221672058,-0.10304321348667145
1779213516439545900,2.4445458984375,-0.6546647548675537,-0.037678156048059464,-0.24800360202789307
1779213516449538800,2.454538818359375,-0.6284320950508118,0.3600327670574188,-0.2844940423965454
1779213516459530800,2.46453076171875,-0.28699246048927307,0.6243451237678528,-0.2269338220357895
1779213516469523700,2.474523681640625,0.041657935827970505,0.46551626920700073,-0.13506588339805603
1779213516479516000,2.484515869140625,0.10710698366165161,0.2885819971561432,-0.000732831540517509
1779213516489508900,2.4945087890625,0.08499735593795776,-0.1119748130440712,0.13202370703220367
1779213516499500800,2.504500732421875,-0.006780227180570364,-0.28175878524780273,0.16233022511005402
1779213516509493000,2.514492919921875,0.05319272354245186,-0.387095183134079,0.17353489995002747
1779213516519485700,2.524485595703125,0.2412491887807846,-0.17126888036727905,0.23351940512657166
1779213516529478000,2.534477783203125,0.5259400606155396,-0.07236843556165695,0.3292662799358368
1779213516539470600,2.544470703125,0.820878267288208,0.025317108258605003,0.4152514934539795
1779213516549462800,2.554462890625,0.9118782877922058,-0.07430264353752136,0.49097147583961487
1779213516559455700,2.564455810546875,0.8591775298118591,-0.3196641802787781,0.5102090835571289
1779213516569447700,2.57444775390625,0.6680085062980652,-0.40165093541145325,0.47262391448020935
1779213516579439900,2.58443994140625,0.377487450838089,-0.1736161708831787,0.39712968468666077
1779213516589432800,2.594432861328125,0.27059176564216614,0.10663774609565735,0.22599351406097412
1779213516599424800,2.6044248046875,0.3467528522014618,0.24544836580753326,-0.018158959224820137
1779213516609417700,2.614417724609375,0.34884679317474365,0.5484477877616882,-0.2828138470649719
1779213516619410000,2.624409912109375,0.3872983157634735,0.8445960879325867,-0.46954697370529175
1779213516629403000,2.63440283203125,0.07645879685878754,1.05366849899292,-0.5074977278709412
1779213516639394800,2.644394775390625,-0.1710820198059082,1.3009512424468994,-0.5509600043296814
1779213516649386800,2.65438671875,-0.4307750463485718,1.6054035425186157,-0.6940855383872986
1779213516659379700,2.664379638671875,-0.6640602350234985,1.8332973718643188,-0.6926341652870178
1779213516669372000,2.674371826171875,-0.7860975861549377,1.6417186260223389,-0.49299076199531555
1779213516679364600,2.684364501953125,-0.6763855218887329,0.9471707344055176,-0.04083528742194176
1779213516689356800,2.694356689453125,-0.21475209295749664,0.025518443435430527,0.3967864513397217
1779213516699349800,2.704349853515625,0.4181164503097534,-0.19978152215480804,0.6774088144302368
1779213516709341700,2.714341796875,0.4711235761642456,0.26243922114372253,0.746648371219635
1779213516719333600,2.724333740234375,0.08847979456186295,0.4156343638896942,0.789540708065033
1779213516729326800,2.734326904296875,-0.3504273295402527,0.3732905685901642,0.7779536843299866
1779213516739318800,2.74431884765625,-0.6853129267692566,0.45524856448173523,0.719875156879425
1779213516749311700,2.754311767578125,-0.8187482357025146,0.1577339619398117,0.7290300130844116
1779213516759304000,2.764303955078125,-0.6599913835525513,-0.26112616062164307,0.6331634521484375
1779213516769296600,2.774296630859375,-0.6286182999610901,-0.47532302141189575,0.5315788984298706
1779213516779288800,2.784288818359375,-0.6504106521606445,-0.6701859831809998,0.5326694250106812
1779213516789280800,2.79428076171875,-0.7540248036384583,-1.2108584642410278,0.9557997584342957
1779213516799273700,2.804273681640625,-0.8137634992599487,-2.0788962841033936,1.1396961212158203
1779213516809266000,2.814265869140625,-0.8092511296272278,-2.445089817047119,1.4444248676300049
1779213516819258600,2.824258544921875,-0.8340685963630676,-2.5982248783111572,1.6868635416030884
1779213516829250800,2.834250732421875,-1.0451875925064087,-2.5963900089263916,2.057464122772217
1779213516839243800,2.844243896484375,-1.350153923034668,-2.237846612930298,2.667178153991699
1779213516849235700,2.854235595703125,-1.2888453006744385,-1.7595199346542358,2.645474910736084
1779213516859227600,2.8642275390625,-1.1359604597091675,-1.2877596616744995,2.443606376647949
1779213516869220600,2.874220703125,-0.8474152088165283,-0.9122577905654907,2.242725133895874
1779213516879212800,2.884212890625,-0.457373708486557,-0.757732093334198,1.7718867063522339
1779213516889205800,2.894205810546875,0.07648854702711105,-1.198909878730774,0.5749857425689697
1779213516899197700,2.90419775390625,0.3986671268939972,-1.493359088897705,-0.632917046546936
1779213516909189600,2.914189697265625,0.441287636756897,-1.8244715929031372,-1.2782905101776123
1779213516919182800,2.924182861328125,0.5724400281906128,-2.1537039279937744,-1.4128984212875366
1779213516929174800,2.9341748046875,0.8311378955841064,-1.721468210220337,-1.4352930784225464
1779213516939167700,2.944167724609375,0.9328147172927856,-1.0952872037887573,-1.4841465950012207
1779213516949160000,2.954159912109375,0.7925441265106201,-0.572634220123291,-1.534519076347351
1779213516959152600,2.964152587890625,0.45337989926338196,0.005362254101783037,-1.5147312879562378
1779213516969144800,2.974144775390625,0.1193331927061081,0.6647410988807678,-1.4135740995407104
1779213516979136800,2.98413671875,-0.1537153720855713,1.2071532011032104,-1.4334548711776733
1779213516989129700,2.994129638671875,-0.3424261212348938,1.5589045286178589,-1.1828333139419556
1779213516999121700,3.00412158203125,-0.4095063805580139,1.3441147804260254,-0.7882554531097412
1779213517009114600,3.014114501953125,-0.4185444712638855,1.2495003938674927,-0.36759719252586365
1779213517019102000,3.02410205078125,-0.30096298456192017,1.3056496381759644,-0.19833865761756897
1779213517029094000,3.034093994140625,0.01209449302405119,1.3946009874343872,-0.27117684483528137
1779213517039086800,3.0440869140625,0.347543865442276,1.4727495908737183,-0.47526979446411133
1779213517049079000,3.0540791015625,0.45887044072151184,1.4549840688705444,-0.8151294589042664
1779213517059071700,3.06407177734375,0.26788637042045593,1.4078834056854248,-1.1273725032806396
1779213517069064000,3.07406396484375,-0.10706110298633575,1.341469168663025,-1.2382773160934448
1779213517079057000,3.084056884765625,-0.283395916223526,1.379806399345398,-1.1262034177780151
1779213517089048800,3.094048828125,-0.23875558376312256,1.4962546825408936,-0.7992331385612488
1779213517099041000,3.104041015625,-0.028244152665138245,1.5102397203445435,-0.26248791813850403
1779213517109033700,3.11403369140625,0.4929445683956146,1.503096342086792,0.505715012550354
1779213517119026000,3.12402587890625,1.26248300075531,1.4195979833602905,1.280715823173523
1779213517129019000,3.134018798828125,0.8729004263877869,0.8852695226669312,1.345633864402771
1779213517139010800,3.1440107421875,0.5573208928108215,0.41718173027038574,1.0937392711639404
1779213517149002800,3.154002685546875,0.6042870879173279,0.25708991289138794,0.311480313539505
1779213517158996000,3.163995849609375,1.0128841400146484,0.1926044225692749,-0.44148269295692444
1779213517168988000,3.17398779296875,1.4224247932434082,0.07147027552127838,-0.8270362019538879
1779213517178980900,3.18398095703125,1.5167337656021118,-0.28730839490890503,-0.6214609146118164
1779213517188973000,3.19397314453125,1.5646013021469116,-1.3815333843231201,0.07240508496761322
1779213517198965800,3.2039658203125,1.4773279428482056,-2.6752493381500244,0.9812538027763367
1779213517208958000,3.2139580078125,1.3291844129562378,-3.5523459911346436,1.8143737316131592
1779213517218950000,3.223949951171875,1.3434988260269165,-4.043158531188965,2.524979829788208
1779213517228942800,3.23394287109375,1.5016289949417114,-4.219622611999512,2.9189646244049072
1779213517238935000,3.24393505859375,1.663140892982483,-4.215031147003174,2.865980625152588
1779213517248927700,3.253927734375,1.9238868951797485,-4.024868011474609,2.34344220161438
1779213517258920000,3.263919921875,2.0986979007720947,-3.223618507385254,1.5079971551895142
1779213517268911900,3.273911865234375,2.123115062713623,-2.4232609272003174,0.49386972188949585
1779213517278904800,3.28390478515625,1.9994385242462158,-2.0278396606445312,-0.5733404159545898
1779213517288896800,3.293896728515625,1.6385624408721924,-2.0803370475769043,-1.6750320196151733
1779213517298890000,3.303889892578125,1.2085423469543457,-2.4153337478637695,-2.6084845066070557
1779213517308882000,3.3138818359375,0.9240883588790894,-2.8794147968292236,-3.0408127307891846
1779213517318873900,3.323873779296875,0.8992389440536499,-3.271233558654785,-2.8908541202545166
1779213517328867000,3.3338671875,1.145220160484314,-3.3753767013549805,-2.3455822467803955
1779213517338858800,3.343858642578125,1.5134474039077759,-2.955329418182373,-1.538680076599121
1779213517348852000,3.35385205078125,1.65357506275177,-1.9252568483352661,-0.7598534226417542
1779213517358844000,3.363843994140625,1.526183009147644,-0.6094875335693359,-0.42131903767585754
1779213517368835800,3.3738359375,1.5410791635513306,0.3180041015148163,-0.39710745215415955
1779213517378829000,3.3838291015625,1.681657075881958,1.1978960037231445,-0.5728849172592163
1779213517388821000,3.393821044921875,1.8811883926391602,1.8057249784469604,-0.8231158256530762
1779213517398814000,3.40381396484375,2.102293014526367,2.0063552856445312,-1.1448228359222412
1779213517408806000,3.413805908203125,2.420353651046753,1.7627524137496948,-1.3504234552383423
1779213517418798800,3.423798828125,2.8067307472229004,1.1702808141708374,-1.32771897315979
1779213517428790800,3.433790771484375,3.0017130374908447,0.11767446994781494,-0.730808675289154
1779213517438783000,3.443782958984375,3.042346715927124,-0.5211044549942017,-0.04265209659934044
1779213517448775700,3.453775634765625,2.955378770828247,-0.7226031422615051,0.44415298104286194
1779213517458768000,3.463767822265625,2.660792112350464,-0.6814554929733276,0.8111720085144043
1779213517468761000,3.473760986328125,1.9696102142333984,-0.33678385615348816,0.9215413331985474
1779213517478752800,3.483752685546875,0.16046467423439026,0.7043007016181946,1.2551592588424683
1779213517488745000,3.493744873046875,-2.6050913333892822,2.6056642532348633,1.5148682594299316
1779213517498738000,3.503738037109375,-4.960522651672363,3.61155104637146,1.6168265342712402
1779213517508729900,3.513729736328125,-5.766404628753662,2.895247459411621,1.5106076002120972
1779213517518722800,3.523722900390625,-4.7935709953308105,1.1027553081512451,0.904789924621582
1779213517528715000,3.533715087890625,-2.924445867538452,-0.26854652166366577,0.03276785835623741
1779213517538708000,3.5437080078125,-1.6561007499694824,-0.2774824798107147,-0.5222151875495911
1779213517548700000,3.553699951171875,-1.2620512247085571,0.6115825772285461,-0.7064096331596375
1779213517558692000,3.563692138671875,-1.2510132789611816,1.5591111183166504,-0.5509824752807617
1779213517568684800,3.573684814453125,-1.3621175289154053,1.510852575302124,-0.20740966498851776
1779213517578677000,3.583677001953125,-1.431384801864624,0.5155126452445984,-0.09523466974496841
1779213517588669700,3.593669677734375,-1.4535729885101318,-0.862306535243988,-0.2593478560447693
1779213517598662000,3.603661865234375,-1.4652632474899292,-1.6288803815841675,-0.5773234963417053
1779213517608653800,3.61365380859375,-1.453772783279419,-1.7845027446746826,-0.864686131477356
1779213517618646800,3.623646728515625,-1.5852434635162354,-1.6639883518218994,-0.945762038230896
1779213517628639000,3.633638916015625,-1.5503796339035034,-0.3940827250480652,-0.3596487045288086
1779213517638632000,3.6436318359375,-0.878939688205719,0.47720104455947876,0.6833325028419495
1779213517648623900,3.653623779296875,0.48600730299949646,-0.29101839661598206,1.4991376399993896
1779213517658616800,3.663616943359375,2.3660454750061035,-0.355766236782074,1.871361255645752
1779213517668609000,3.673609130859375,4.648989200592041,-0.16836026310920715,1.7268056869506836
1779213517678600700,3.6836005859375,6.680264472961426,-0.1585766077041626,1.1773403882980347
1779213517688594000,3.693593994140625,7.761251449584961,-0.9997045397758484,0.7122161984443665
1779213517698586000,3.703586181640625,7.400096416473389,-1.4921884536743164,0.8595539927482605
1779213517708578800,3.713578857421875,6.271504878997803,-1.0360124111175537,1.1134898662567139
1779213517718571000,3.723571044921875,4.7058539390563965,-0.1927170604467392,0.8857795596122742
1779213517728563700,3.733563720703125,3.015859365463257,-0.13353022933006287,0.306012898683548
1779213517738556000,3.743555908203125,1.3548696041107178,-0.5994496941566467,-0.04223909601569176
1779213517748547800,3.7535478515625,-0.12926113605499268,-0.8620559573173523,-0.047461386770009995
1779213517758540800,3.763540771484375,-0.4660032093524933,-1.5816872119903564,-0.0253536868840456
1779213517768533000,3.773532958984375,-0.04334116727113724,-2.6224026679992676,0.14520156383514404
1779213517778526000,3.78352587890625,0.7995982766151428,-3.2874255180358887,0.5005082488059998
1779213517788518000,3.793517822265625,1.5216957330703735,-3.638111114501953,0.7212043404579163
1779213517798510800,3.8035107421875,2.0404281616210938,-3.384943723678589,0.7993286848068237
1779213517808503000,3.8135029296875,2.419450521469116,-2.499069929122925,0.5064657926559448
1779213517818494700,3.82349462890625,2.4509003162384033,-1.4439172744750977,0.08986534178256989
1779213517828488000,3.833488037109375,2.2925150394439697,-0.28747862577438354,-0.31428080797195435
1779213517838480000,3.84347998046875,1.8622246980667114,0.6452552080154419,-0.5903858542442322
1779213517848472800,3.853472900390625,1.0908106565475464,1.2384452819824219,-0.7038106918334961
1779213517858465000,3.863465087890625,0.2717328667640686,1.6515746116638184,-0.781757652759552
1779213517868457700,3.873457763671875,-0.31929197907447815,1.920864462852478,-0.9137492179870605
1779213517878450000,3.883449951171875,-0.5732656717300415,2.170698642730713,-0.9636904001235962
1779213517888441900,3.89344189453125,-0.5578563809394836,2.410611867904663,-0.8250190019607544
1779213517898434800,3.903434814453125,-0.4024108648300171,2.469834566116333,-0.5765926837921143
1779213517908427000,3.913427001953125,-0.16115109622478485,2.378450393676758,-0.31832680106163025
1779213517918419700,3.923419677734375,0.13035477697849274,2.210872173309326,-0.13626939058303833
1779213517928412000,3.933411865234375,0.40161433815956116,2.042297124862671,-0.04770566150546074
1779213517938404900,3.94340478515625,0.6470749974250793,1.911503553390503,0.0019268696196377277
1779213517948396800,3.953396728515625,0.8248711824417114,1.7455865144729614,0.08886917680501938
1779213517958390000,3.96339013671875,0.8908798098564148,1.4097304344177246,0.2205987125635147
1779213517968382000,3.9733818359375,0.9281184077262878,1.0161715745925903,0.4460951089859009
1779213517978374000,3.983373779296875,0.9934609532356262,0.7506948709487915,0.7860268950462341
1779213517988366800,3.993366943359375,1.0509897470474243,0.7614887952804565,1.225762128829956
1779213517998359000,4.003359130859375,0.992460310459137,0.8212653398513794,1.7145742177963257
1779213518008351700,4.013351806640625,0.6894368529319763,0.6712712049484253,2.1974849700927734
1779213518018344400,4.023344482421875,0.20818503201007843,0.37804993987083435,2.569917678833008
1779213518028337400,4.03333740234375,-0.28552430868148804,0.010551574639976025,2.766965627670288
1779213518038329300,4.043329345703125,-0.7242939472198486,-0.3257361650466919,2.885606288909912
1779213518048321500,4.053321533203125,-1.11495041847229,-0.6450353860855103,2.985050678253174
1779213518058314200,4.063314208984375,-1.4164620637893677,-0.8752440810203552,3.0541646480560303
1779213518068306400,4.073306396484375,-1.5939029455184937,-0.8551015853881836,3.1363680362701416
1779213518078299400,4.08329931640625,-1.6159813404083252,-0.6001837849617004,3.0567705631256104
1779213518088291300,4.093291259765625,-1.5635929107666016,0.6982625126838684,2.6039319038391113
1779213518098284500,4.103284423828125,-1.6364327669143677,3.5594449043273926,1.1555641889572144
1779213518108276500,4.1132763671875,-1.6916574239730835,4.171215057373047,-0.5277499556541443
1779213518118269400,4.12326953125,-1.5936988592147827,3.2033803462982178,-1.407318115234375
1779213518128261400,4.133261474609375,-1.2828480005264282,1.7939269542694092,-1.5699137449264526
1779213518138253600,4.143253662109375,-0.9153597950935364,0.7531047463417053,-1.525944471359253
1779213518148246300,4.153246337890625,-0.5239690542221069,-0.06374247372150421,-1.3499425649642944
1779213518158238500,4.163238525390625,-0.19503721594810486,-0.6578494906425476,-1.0844800472259521
1779213518168231400,4.1732314453125,-0.03735411539673805,-0.9858031272888184,-0.7809194326400757
1779213518178223400,4.183223388671875,-0.09253428131341934,-1.0790386199951172,-0.48127782344818115
1779213518188216300,4.19321630859375,-0.3264598250389099,-0.789919912815094,-0.19361568987369537
1779213518198208300,4.203208251953125,-0.5596004128456116,-0.08852825313806534,0.12040723115205765
1779213518208201500,4.213201416015625,-0.697155773639679,0.6995493769645691,0.4209519326686859
1779213518218193400,4.223193359375,-0.7390187978744507,1.1586296558380127,0.6246520280838013
1779213518228185300,4.233185302734375,-0.7218923568725586,1.1500236988067627,0.7195765972137451
1779213518238178600,4.243178466796875,-0.6415093541145325,0.8155495524406433,0.6622834801673889
1779213518248170500,4.25317041015625,-0.42720574140548706,0.23309026658535004,0.4312623143196106
1779213518258163500,4.26316357421875,-0.1769849807024002,-0.3641699552536011,0.16676779091358185
1779213518268155400,4.2731552734375,-0.013484003022313118,-0.6355314254760742,0.02744038961827755
1779213518278148400,4.2831484375,0.0475577786564827,-0.5787411332130432,-0.013251112774014473
1779213518288140300,4.293140380859375,0.04677826538681984,-0.3307408392429352,-0.027253463864326477
1779213518298133200,4.30313330078125,0.015939127653837204,-0.022751053795218468,-0.07335358113050461
1779213518308125400,4.31312548828125,-0.02032192423939705,0.21543104946613312,-0.17250603437423706
1779213518318118400,4.323118408203125,-0.06815949082374573,0.3571290671825409,-0.32521194219589233
1779213518328110300,4.3331103515625,-0.1320890337228775,0.43063709139823914,-0.492768257856369
1779213518338102300,4.343102294921875,-0.19087618589401245,0.46709710359573364,-0.6397252082824707
1779213518348095500,4.353095458984375,-0.24047239124774933,0.49574899673461914,-0.7364485263824463
1779213518358087400,4.36308740234375,-0.27539417147636414,0.5287016034126282,-0.7810530066490173
1779213518368080400,4.373080322265625,-0.2998005747795105,0.5164377689361572,-0.782435953617096
1779213518378072600,4.383072509765625,-0.3075178861618042,0.4815330505371094,-0.7600065469741821
1779213518388065300,4.393065185546875,-0.29255473613739014,0.48636895418167114,-0.7034453749656677
1779213518398057500,4.403057373046875,-0.25737276673316956,0.4947635233402252,-0.6115367412567139
1779213518408050200,4.41305029296875,-0.20275619626045227,0.4227803349494934,-0.4928898811340332
1779213518418042400,4.42304248046875,-0.126472607254982,0.3264194428920746,-0.3570827543735504
1779213518428035600,4.43303564453125,-0.05120455473661423,0.1823377013206482,-0.21410389244556427
1779213518438027300,4.44302734375,0.0024578729644417763,0.022936321794986725,-0.07900519669055939
1779213518448019500,4.45301953125,0.014703071676194668,-0.11707589775323868,0.04812001809477806
1779213518458012400,4.463012451171875,0.012505964376032352,-0.1913195103406906,0.1413799226284027
1779213518468004400,4.47300439453125,0.014633549377322197,-0.2086981236934662,0.19127508997917175
1779213518477997300,4.482997314453125,0.016138235107064247,-0.2071225941181183,0.19905124604701996
1779213518487989500,4.492989501953125,0.0052305301651358604,-0.19190028309822083,0.1779567450284958
1779213518497982500,4.502982421875,-0.01501481980085373,-0.1673123836517334,0.13333681225776672
1779213518507974400,4.512974365234375,-0.038448773324489594,-0.13520824909210205,0.07681147009134293
1779213518517967400,4.52296728515625,-0.06166461482644081,-0.10986454784870148,0.014136907644569874
1779213518527959300,4.532959228515625,-0.08442481607198715,-0.08844347298145294,-0.03939308598637581
1779213518537952500,4.542952392578125,-0.10803920030593872,-0.04920188710093498,-0.07734793424606323
1779213518547944200,4.552944091796875,-0.12310503423213959,0.006555963307619095,-0.10148031264543533
1779213518557937400,4.5629375,-0.12580867111682892,0.048856548964977264,-0.11740601062774658
1779213518567929300,4.572929443359375,-0.12179776281118393,0.05727272480726242,-0.12749603390693665
1779213518577921300,4.58292138671875,-0.11842566728591919,0.037333905696868896,-0.13416191935539246
1779213518587914500,4.59291455078125,-0.11696787178516388,0.008114505559206009,-0.1340942680835724
1779213518597906400,4.602906494140625,-0.11731221526861191,-0.01842495985329151,-0.12687017023563385
1779213518607899400,4.6128994140625,-0.1214267909526825,-0.03630762919783592,-0.11428935825824738
1779213518617891300,4.622891357421875,-0.12321696430444717,-0.049749668687582016,-0.0967433899641037
1779213518627884300,4.63288427734375,-0.11767252534627914,-0.05481945723295212,-0.08256823569536209
1779213518637876200,4.642876220703125,-0.10681215673685074,-0.054190684109926224,-0.07914634048938751
1779213518647869400,4.652869384765625,-0.09061038494110107,-0.05703824758529663,-0.0890757367014885
1779213518657861400,4.662861328125,-0.07725197076797485,-0.041117873042821884,-0.10092893242835999
1779213518667854300,4.672854248046875,-0.06469172984361649,-0.006005849223583937,-0.11516907066106796
1779213518677846500,4.682846435546875,-0.05231308937072754,0.02289477549493313,-0.12462515383958817
1779213518687839200,4.692839111328125,-0.05099083110690117,0.03546649217605591,-0.12131164968013763
1779213518697831400,4.70283154296875,-0.047426190227270126,0.04756523296236992,-0.1057145819067955
1779213518707824400,4.712824462890625,-0.04049256443977356,0.05859306454658508,-0.08521665632724762
1779213518717816300,4.72281640625,-0.02906787022948265,0.05410430580377579,-0.06605787575244904
1779213518727808500,4.73280859375,-0.015264648012816906,0.016058703884482384,-0.051234032958745956
1779213518737801200,4.74280126953125,-0.006869032979011536,-0.027267998084425926,-0.04215318709611893
1779213518747793400,4.75279345703125,0.007265808992087841,-0.06368901580572128,-0.03341131657361984
1779213518757786400,4.762786376953125,0.023905236274003983,-0.08368482440710068,-0.022668657824397087
1779213518767778300,4.7727783203125,0.04435580596327782,-0.08185134828090668,-0.00805780291557312
1779213518777771500,4.782771484375,0.059144873172044754,-0.055247701704502106,0.005769062787294388
1779213518787763500,4.792763427734375,0.071159228682518,-0.035165347158908844,0.007259599398821592
1779213518797756400,4.80275634765625,0.08085686713457108,-0.03833024576306343,0.0014879967784509063
1779213518807748400,4.812748291015625,0.07834398001432419,-0.04555981606245041,-0.007820469327270985
1779213518817741300,4.8227412109375,0.0730845034122467,-0.038732003420591354,-0.009404250420629978
1779213518827733200,4.832733154296875,0.06795524805784225,-0.042995356023311615,-0.0015566768124699593
1779213518837726500,4.8427265625,0.06330297142267227,-0.07372503727674484,0.018710777163505554
1779213518847718400,4.852718505859375,0.06968509405851364,-0.10100406408309937,0.041185468435287476
1779213518857711400,4.86271142578125,0.08033560961484909,-0.08488687872886658,0.055984921753406525
1779213518867703600,4.87270361328125,0.09487126022577286,-0.02488984912633896,0.05315638706088066
1779213518877696300,4.8826962890625,0.11038310825824738,0.022677669301629066,0.03196028620004654
1779213518887688400,4.8926884765625,0.12149392068386078,0.03169544041156769,-0.0007426753873005509
1779213518897680400,4.902680419921875,0.1269049197435379,0.027296163141727448,-0.02796497568488121
1779213518907673300,4.91267333984375,0.12072541564702988,0.024792470037937164,-0.038932837545871735
1779213518917665500,4.92266552734375,0.11006664484739304,0.011872144415974617,-0.02879071980714798
1779213518927658200,4.932658203125,0.09877579659223557,-0.014492821879684925,-0.007450894918292761
1779213518937650400,4.942650390625,0.0928899496793747,-0.048889946192502975,0.02129180356860161
1779213518947643400,4.952643310546875,0.09480206668376923,-0.07554994523525238,0.04531383886933327
1779213518957635300,4.96263525390625,0.0993771106004715,-0.0749661773443222,0.06078574061393738
1779213518967628500,4.972628662109375,0.09989327937364578,-0.04699430987238884,0.06048419699072838
1779213518977620500,4.982620361328125,0.09431902319192886,-0.015189778059720993,0.04376673698425293
1779213518987613400,4.992613525390625,0.09227442741394043,0.00509317871183157,0.018284175544977188
1779213518997605400,5.00260546875,0.08487191051244736,0.02149319089949131,-0.007473117671906948
1779213519007598300,5.012598388671875,0.07986119389533997,0.0318695567548275,-0.022504320368170738
1779213519017590800,5.0225908203125,0.06874542683362961,0.020644066855311394,-0.02124571055173874
1779213519027583500,5.03258349609375,0.05782477557659149,-0.012416689656674862,-0.005477424245327711
1779213519037575700,5.04257568359375,0.05120442062616348,-0.05616177245974541,0.01732269674539566
1779213519047568600,5.052568603515625,0.05391549691557884,-0.09972735494375229,0.045679785311222076
1779213519057560600,5.062560546875,0.05852462723851204,-0.11849145591259003,0.07065331190824509
1779213519067553800,5.0725537109375,0.06459899991750717,-0.11262084543704987,0.08571971207857132
1779213519077545700,5.082545654296875,0.072007916867733,-0.10608118027448654,0.09040820598602295
1779213519087538700,5.09253857421875,0.08055448532104492,-0.10645454376935959,0.08647608011960983
1779213519097530600,5.102530517578125,0.08059123158454895,-0.10235300660133362,0.08141660690307617
1779213519107523600,5.112523681640625,0.0758213996887207,-0.09272950887680054,0.07925859838724136
1779213519117515500,5.122515625,0.0699043869972229,-0.08658746629953384,0.08208022266626358
1779213519127507700,5.1325078125,0.06372246891260147,-0.09211178123950958,0.08525488525629044
1779213519137500700,5.142500732421875,0.06177783012390137,-0.10933338105678558,0.08926054835319519
1779213519147492600,5.15249267578125,0.06081743165850639,-0.1310267448425293,0.09636330604553223
1779213519157485800,5.16248583984375,0.05878463760018349,-0.15077568590641022,0.10745697468519211
1779213519167477500,5.1724775390625,0.05643470957875252,-0.17208713293075562,0.12285123765468597
1779213519177470700,5.182470703125,0.05439871922135353,-0.19177348911762238,0.1394677609205246
1779213519187462700,5.192462646484375,0.0538916289806366,-0.1992398202419281,0.15505076944828033
1779213519197455600,5.20245556640625,0.054422661662101746,-0.1963023543357849,0.16339419782161713
1779213519207447800,5.21244775390625,0.0498691201210022,-0.19507458806037903,0.16577333211898804
1779213519217440500,5.2224404296875,0.04368526488542557,-0.1898617148399353,0.16263799369335175
1779213519227432700,5.2324326171875,0.036558762192726135,-0.17978671193122864,0.1545310914516449
1779213519237425700,5.24242578125,0.030902210623025894,-0.17054660618305206,0.14151862263679504
1779213519247417600,5.25241748046875,0.023143291473388672,-0.16204814612865448,0.12404230237007141
1779213519257410800,5.262410888671875,0.01718953251838684,-0.15277820825576782,0.10593733191490173
1779213519267402800,5.27240283203125,0.01764972135424614,-0.14215849339962006,0.08887556195259094
1779213519277395700,5.282395751953125,0.02432573214173317,-0.12824960052967072,0.07572860270738602
1779213519287387600,5.2923876953125,0.029802490025758743,-0.11382827162742615,0.06291306763887405
1779213519297380600,5.302380615234375,0.037937115877866745,-0.10891420394182205,0.056784071028232574
1779213519307372500,5.31237255859375,0.04512736201286316,-0.1119096651673317,0.05367423593997955
1779213519317365800,5.32236572265625,0.044153712689876556,-0.11781788617372513,0.06292898952960968
1779213519327357700,5.332357666015625,0.03744775056838989,-0.11978942900896072,0.07456459850072861
1779213519337350700,5.3423505859375,0.03194326534867287,-0.1213870570063591,0.08783166855573654
1779213519347342800,5.3523427734375,0.02921976149082184,-0.12071386724710464,0.09730541706085205
1779213519357335600,5.36233544921875,0.02514219656586647,-0.11899000406265259,0.10329965502023697
1779213519367327700,5.37232763671875,0.019165556877851486,-0.10780978947877884,0.10319098085165024
1779213519377320700,5.38232080078125,0.013946560211479664,-0.09306546300649643,0.10019572079181671
1779213519387312600,5.392312744140625,0.009141596965491772,-0.08783762902021408,0.09477955102920532
1779213519397305600,5.4023056640625,-0.0015467330813407898,-0.08724161982536316,0.09109293669462204
1779213519407297500,5.412297607421875,-0.008718178607523441,-0.08648665249347687,0.08280264586210251
1779213519417290800,5.422290771484375,-0.009083298034965992,-0.07116042822599411,0.06887617707252502
1779213519427282700,5.43228271484375,-0.0004227571189403534,-0.04924586042761803,0.04686525836586952
1779213519437275600,5.442275634765625,0.010896743275225163,-0.02676531672477722,0.02128187008202076
1779213519447267800,5.452267822265625,0.020340554416179657,0.00013288175978232175,-0.00492601515725255
1779213519457259800,5.462259765625,0.01814424619078636,0.029627922922372818,-0.03373875841498375
1779213519467252700,5.472252685546875,0.015577391721308231,0.05196953937411308,-0.06250620633363724
1779213519477245700,5.48224560546875,0.014772851951420307,0.07471426576375961,-0.08385570347309113
1779213519487237600,5.492237548828125,0.0107839684933424,0.086900994181633,-0.09001395851373672
1779213519497229600,5.5022294921875,0.0043321941047906876,0.08389721810817719,-0.08118318021297455
1779213519507222500,5.512222412109375,0.005241457372903824,0.06565078347921371,-0.06223840266466141
1779213519517214700,5.522214599609375,0.008255090564489365,0.05166146159172058,-0.0375911146402359
1779213519527207700,5.532207763671875,0.012069270014762878,0.043500203639268875,-0.011545930989086628
1779213519537199600,5.54219970703125,0.016935285180807114,0.04156538099050522,0.0047040218487381935
1779213519547192600,5.552192626953125,0.017347507178783417,0.04544221982359886,0.010222607292234898
1779213519557184800,5.562184814453125,0.01586252823472023,0.05326366052031517,0.0016376411076635122
1779213519567177700,5.572177734375,0.01587001606822014,0.06094690039753914,-0.01985827460885048
1779213519577169700,5.582169677734375,0.020228013396263123,0.0700293481349945,-0.04557109251618385
1779213519587162600,5.59216259765625,0.021432705223560333,0.0861329436302185,-0.06306593865156174
1779213519597154600,5.602154541015625,0.02821764349937439,0.09916725009679794,-0.0758693516254425
1779213519607147800,5.612147705078125,0.038488149642944336,0.11146333068609238,-0.07975465804338455
1779213519617139500,5.622139404296875,0.0507967472076416,0.12867559492588043,-0.07721080631017685
1779213519627132700,5.632132568359375,0.06332805007696152,0.1439639776945114,-0.07018660008907318
1779213519637124900,5.642124755859375,0.07688700407743454,0.14948976039886475,-0.05975313112139702
1779213519647117600,5.65211767578125,0.08831805735826492,0.14469431340694427,-0.0453493706882
1779213519657109800,5.66210986328125,0.09369604289531708,0.11637851595878601,-0.026226278394460678
1779213519667102500,5.6721025390625,0.09804628789424896,0.07286037504673004,0.0022675488144159317
1779213519677094700,5.6820947265625,0.1008620485663414,0.02802393026649952,0.03877042979001999
1779213519687087900,5.692087890625,0.11130530387163162,-0.011321562342345715,0.08530585467815399
1779213519697079600,5.70207958984375,0.11751499772071838,-0.04291357845067978,0.13530564308166504
1779213519707072800,5.71207275390625,0.12302514910697937,-0.08081670105457306,0.18799510598182678
1779213519717064700,5.722064697265625,0.12144562602043152,-0.13945843279361725,0.2278176248073578
1779213519727057700,5.7320576171875,0.1099797934293747,-0.19378536939620972,0.25146612524986267
1779213519737049600,5.742049560546875,0.0990603044629097,-0.21850216388702393,0.2570667564868927
1779213519747042600,5.75204248046875,0.0858519971370697,-0.21568311750888824,0.25416895747184753
1779213519757034800,5.76203466796875,0.07276096194982529,-0.19582445919513702,0.24134717881679535
1779213519767027700,5.77202783203125,0.06014459207653999,-0.16343630850315094,0.22016391158103943
1779213519777019600,5.78201953125,0.04711693897843361,-0.1237964928150177,0.19581356644630432
1779213519787012600,5.7920126953125,0.037922441959381104,-0.08458538353443146,0.17046043276786804
1779213519797004800,5.8020048828125,0.02392433024942875,-0.048958953469991684,0.1446104645729065
1779213519806997800,5.811997802734375,0.017151352018117905,-0.019680887460708618,0.12103582918643951
1779213519816989700,5.82198974609375,0.019186008721590042,0.0011096125235781074,0.1007675752043724
1779213519826982700,5.831982666015625,0.026013817638158798,0.021041177213191986,0.08425658941268921
1779213519836974600,5.841974609375,0.03245600312948227,0.04927148297429085,0.07086461782455444
1779213519846967800,5.8519677734375,0.037773892283439636,0.08184811472892761,0.058398500084877014
1779213519856959500,5.86195947265625,0.04864171892404556,0.11354372650384903,0.041081029921770096
1779213519866952700,5.87195263671875,0.058057382702827454,0.1367201954126358,0.020027566701173782
1779213519876945000,5.88194482421875,0.06996331363916397,0.1564161479473114,-0.007811254821717739
1779213519886937600,5.8919375,0.07624499499797821,0.18105758726596832,-0.03559066355228424
1779213519896929800,5.9019296875,0.07492353767156601,0.20336954295635223,-0.06281349807977676
1779213519906922500,5.911922607421875,0.07729632407426834,0.22695988416671753,-0.0907839834690094
1779213519916914700,5.921914794921875,0.08671992272138596,0.24778899550437927,-0.11647283285856247
1779213519926908000,5.931907958984375,0.09650754183530807,0.26138144731521606,-0.1330069750547409
1779213519936899600,5.941899658203125,0.10007165372371674,0.26255935430526733,-0.14101429283618927
1779213519946892800,5.951892822265625,0.10100659728050232,0.24573276937007904,-0.13804124295711517
1779213519956884700,5.961884765625,0.10630255937576294,0.2185903638601303,-0.12432916462421417
1779213519966877700,5.971877685546875,0.11177621781826019,0.197579026222229,-0.0994977355003357
1779213519976869600,5.98186962890625,0.1157752200961113,0.18167303502559662,-0.06573311239480972
1779213519986862600,5.991862548828125,0.12452767789363861,0.17206956446170807,-0.03262239322066307
1779213519996854800,6.001854736328125,0.13365192711353302,0.17185890674591064,-0.013543771579861641
1779213520006847700,6.01184765625,0.1328774392604828,0.16936129331588745,-0.011487835086882114
1779213520016839700,6.021839599609375,0.12145967036485672,0.1591973453760147,-0.012925143353641033
1779213520026833000,6.0318330078125,0.10284116119146347,0.1391335129737854,-0.013506839983165264
1779213520036824800,6.041824951171875,0.08252017945051193,0.11207898706197739,-0.007017515134066343
1779213520046818000,6.051818115234375,0.0615532249212265,0.0905822291970253,0.003937139641493559
1779213520056810000,6.06181005859375,0.04548531025648117,0.07670369744300842,0.017346421256661415
1779213520066803000,6.071802978515625,0.030212469398975372,0.06037978455424309,0.031172044575214386
1779213520076795000,6.081794921875,0.01587161421775818,0.032328978180885315,0.040907494723796844
1779213520086787800,6.091787841796875,0.00927741825580597,0.01570184715092182,0.041722044348716736
1779213520096779800,6.10177978515625,0.004962565377354622,0.024026889353990555,0.031261146068573
1779213520106773000,6.11177294921875,0.0005853623151779175,0.045767344534397125,0.014273392036557198
1779213520116765000,6.121764892578125,-0.012743758037686348,0.0756104588508606,-0.0072899567894637585
1779213520126758000,6.1317578125,-0.029431302100419998,0.11041595041751862,-0.028083322569727898
1779213520136750000,6.14175,-0.04485606774687767,0.14173153042793274,-0.04927888885140419
1779213520146742800,6.15174267578125,-0.060926467180252075,0.16057658195495605,-0.07418958842754364
1779213520156735000,6.16173486328125,-0.07008533924818039,0.17142310738563538,-0.09878574311733246
1779213520166728000,6.17172802734375,-0.07729712128639221,0.18432208895683289,-0.11986134946346283
1779213520176720000,6.181719970703125,-0.08228309452533722,0.19812844693660736,-0.13752636313438416
1779213520186713000,6.191713134765625,-0.09007932245731354,0.2172103226184845,-0.15473608672618866
1779213520196704800,6.201704833984375,-0.08803801238536835,0.22839826345443726,-0.17429514229297638
1779213520206698000,6.211697998046875,-0.07971926778554916,0.23923896253108978,-0.1975180208683014
1779213520216690000,6.22168994140625,-0.06794783473014832,0.24856401979923248,-0.2163873165845871
1779213520226683000,6.231682861328125,-0.05880732834339142,0.25992485880851746,-0.2287343442440033
1779213520236675000,6.241675048828125,-0.05112810432910919,0.2625619173049927,-0.2322089821100235
1779213520246667800,6.251667724609375,-0.04185334965586662,0.254006952047348,-0.23162712156772614
1779213520256660000,6.261659912109375,-0.03017432615160942,0.2365749478340149,-0.22598308324813843
1779213520266653000,6.27165283203125,-0.01970788836479187,0.21717195212841034,-0.21781228482723236
1779213520276644900,6.281644775390625,-0.008896786719560623,0.2006627470254898,-0.20539341866970062
1779213520286638000,6.29163818359375,-0.0078015802428126335,0.17795974016189575,-0.18356166779994965
1779213520296630000,6.301630126953125,-0.012067165225744247,0.14470697939395905,-0.154263436794281
1779213520306623000,6.311623046875,-0.014716213569045067,0.10596693307161331,-0.11324626207351685
1779213520316615000,6.321614990234375,-0.01960045099258423,0.07038071006536484,-0.061793725937604904
1779213520326608000,6.33160791015625,-0.022258730605244637,0.04026669263839722,-0.00574846426025033
1779213520336599800,6.341599853515625,-0.020737532526254654,0.005831487476825714,0.04049759358167648
1779213520346593000,6.351593017578125,-0.0155087411403656,-0.03314419090747833,0.06838446110486984
1779213520356585000,6.3615849609375,-0.008364012464880943,-0.06631147116422653,0.07524609565734863
1779213520366578000,6.371577880859375,-0.006236826069653034,-0.0798896923661232,0.06580009311437607
1779213520376570000,6.381570068359375,-0.0031286505982279778,-0.07308478653430939,0.050464555621147156
1779213520386562800,6.391562744140625,-0.0020639197900891304,-0.05196714773774147,0.03214870020747185
1779213520396555000,6.401554931640625,-0.002426908351480961,-0.02457520179450512,0.014239209704101086
1779213520406548000,6.4115478515625,-0.003929225727915764,-0.005439549684524536,-0.0015215103048831224
1779213520416540000,6.421539794921875,-0.00581474369391799,0.0006492357351817191,-0.016280483454465866
1779213520426532900,6.431532958984375,-0.009834162890911102,-0.012136922217905521,-0.019565656781196594
1779213520436524800,6.44152490234375,-0.017439885064959526,-0.025309182703495026,-0.015185555443167686
1779213520446518000,6.45151806640625,-0.020966265350580215,-0.031024804338812828,0.002612781012430787
1779213520456510000,6.461510009765625,-0.023569505661725998,-0.03514231741428375,0.0211931224912405
1779213520466503000,6.4715029296875,-0.025320742279291153,-0.0442553348839283,0.03775148466229439
1779213520476495000,6.4814951171875,-0.029138382524251938,-0.058558907359838486,0.04768640547990799
1779213520486487800,6.49148779296875,-0.030704056844115257,-0.06099030748009682,0.05373942852020264
1779213520496480000,6.50147998046875,-0.03831963241100311,-0.05277871713042259,0.052158575505018234
1779213520506472700,6.51147265625,-0.047594889998435974,-0.04188522696495056,0.042509447783231735
1779213520516465000,6.52146484375,-0.05127644166350365,-0.03368934616446495,0.030666103586554527
1779213520526458000,6.5314580078125,-0.05640089884400368,-0.027166465297341347,0.012197881005704403
1779213520536449800,6.54144970703125,-0.05704052746295929,-0.016410071402788162,-0.005318331532180309
1779213520546443000,6.551443115234375,-0.055771857500076294,-0.0034257154911756516,-0.022421881556510925
1779213520556435000,6.56143505859375,-0.05480087175965309,0.014284306205809116,-0.034517694264650345
1779213520566428000,6.571427978515625,-0.05179182440042496,0.041499361395835876,-0.045720167458057404
1779213520576419800,6.581419921875,-0.0463150329887867,0.07135658711194992,-0.05936327576637268
1779213520586412800,6.591412841796875,-0.040713489055633545,0.09702344238758087,-0.07379703223705292
1779213520596406000,6.601406005859375,-0.03899974375963211,0.11051395535469055,-0.0877290889620781
1779213520606398000,6.61139794921875,-0.03707117214798927,0.11590957641601562,-0.0956835225224495
1779213520616391000,6.621390869140625,-0.03213446959853172,0.11746006458997726,-0.09915149211883545
1779213520626382800,6.6313828125,-0.03003302961587906,0.11198774725198746,-0.09650366753339767
1779213520636375800,6.641375732421875,-0.028372015804052353,0.09468332678079605,-0.08787768334150314
1779213520646368000,6.651367919921875,-0.029216237366199493,0.07466770708560944,-0.07328413426876068
1779213520656361000,6.66136083984375,-0.029513979330658913,0.055525705218315125,-0.056156814098358154
1779213520666353000,6.671352783203125,-0.027979053556919098,0.04827301576733589,-0.03657091036438942
1779213520676345900,6.681345947265625,-0.02557954378426075,0.049012310802936554,-0.022825805470347404
1779213520686338000,6.691338134765625,-0.02165495976805687,0.05225277319550514,-0.01545942947268486
1779213520696331000,6.7013310546875,-0.018843993544578552,0.057032082229852676,-0.018216600641608238
1779213520706323000,6.711322998046875,-0.014718903228640556,0.060831718146800995,-0.026680078357458115
1779213520716316000,6.72131591796875,-0.011356662958860397,0.06639453023672104,-0.03846856206655502
1779213520726307800,6.731307861328125,-0.006470089312642813,0.0759335532784462,-0.04838211089372635
1779213520736301000,6.741301025390625,-0.0005184570327401161,0.08575822412967682,-0.052276983857154846
1779213520746292700,6.751292724609375,0.008103645406663418,0.08549680560827255,-0.04996957257390022
1779213520756286000,6.761285888671875,0.010634447447955608,0.07414082437753677,-0.0428386926651001
1779213520766278100,6.771278076171875,0.013679060153663158,0.05549640581011772,-0.03426564484834671
1779213520776270800,6.781270751953125,0.015575763769447803,0.03272504732012749,-0.018550867214798927
1779213520786263000,6.791262939453125,0.018637865781784058,0.01186290755867958,-0.0020909334998577833
1779213520796255700,6.801255859375,0.01902615651488304,-0.005399702582508326,0.01627848669886589
1779213520806248000,6.811248046875,0.018484409898519516,-0.017238203436136246,0.032265592366456985
1779213520816241200,6.8212412109375,0.016322456300258636,-0.030113788321614265,0.041237782686948776
1779213520826232800,6.83123291015625,0.013630799017846584,-0.03869795426726341,0.05101451277732849
1779213520836226000,6.84122607421875,0.00999478530138731,-0.04825204610824585,0.0584588460624218
1779213520846218000,6.851218017578125,0.005779653787612915,-0.05832774564623833,0.06391038000583649
1779213520856211000,6.8612109375,0.005213465541601181,-0.06771006435155869,0.06893549859523773
1779213520866203000,6.871202880859375,0.005188106559216976,-0.0731903612613678,0.0716477707028389
1779213520876195800,6.88119580078125,0.004496217705309391,-0.06851544976234436,0.07417591661214828
1779213520886188000,6.89118798828125,0.005114365369081497,-0.06375595927238464,0.0720386728644371
1779213520896181000,6.901180908203125,0.00543074868619442,-0.06048879399895668,0.0689651221036911
1779213520906173000,6.9111728515625,0.0034561632201075554,-0.059579163789749146,0.06473756581544876
1779213520916166000,6.921165771484375,0.002207939513027668,-0.05864039808511734,0.06014814227819443
1779213520926157800,6.93115771484375,0.0031142458319664,-0.059040945023298264,0.058604560792446136
1779213520936151000,6.941151123046875,0.003988295793533325,-0.05996266379952431,0.056782692670822144
1779213520946143000,6.95114306640625,0.00486923661082983,-0.061249230057001114,0.05235253646969795
1779213520956136000,6.961135986328125,0.0015906188637018204,-0.05949261039495468,0.04543790593743324
1779213520966127900,6.9711279296875,-0.003676814492791891,-0.056051015853881836,0.03438657149672508
1779213520976120800,6.981120849609375,-0.008148528635501862,-0.05247039347887039,0.02432062104344368
1779213520986112800,6.99111279296875,-0.01240520179271698,-0.05151144787669182,0.019046584144234657
1779213520996106000,7.00110595703125,-0.014463825151324272,-0.0471196286380291,0.019403448328375816
1779213521006098000,7.011097900390625,-0.0207054540514946,-0.0423763170838356,0.021729320287704468
1779213521016091000,7.0210908203125,-0.022310806438326836,-0.040699589997529984,0.02583964169025421
1779213521026085400,7.03108544921875,-0.020930107682943344,-0.04344157874584198,0.0291622094810009
1779213521036078300,7.041078369140625,-0.022129859775304794,-0.04402853921055794,0.030216554179787636
1779213521046070300,7.0510703125,-0.02424130216240883,-0.04190557822585106,0.025259552523493767
1779213521056063500,7.0610634765625,-0.025553174316883087,-0.03666927292943001,0.017232785001397133
1779213521066055400,7.071055419921875,-0.02562641352415085,-0.029917890205979347,0.009109077043831348
1779213521076048400,7.08104833984375,-0.02412225678563118,-0.02739151567220688,-0.0009437835542485118
1779213521086040600,7.09104052734375,-0.020350096747279167,-0.023512404412031174,-0.008662305772304535
1779213521096033300,7.101033203125,-0.017685338854789734,-0.020672408863902092,-0.011652503162622452
1779213521106025500,7.111025390625,-0.015346968546509743,-0.016012506559491158,-0.012547624297440052
1779213521116018400,7.121018310546875,-0.01003982126712799,-0.011128002777695656,-0.010446922853589058
1779213521126010400,7.13101025390625,-0.0038000037893652916,-0.0050869956612586975,-0.008260522037744522
1779213521136003600,7.141003662109375,-0.00312755536288023,-0.006469708867371082,-0.004822647199034691
1779213521145995300,7.150995361328125,-0.0020069582387804985,-0.009769417345523834,-0.0011899860110133886
1779213521155988500,7.160988525390625,-0.0005696499720215797,-0.012609944678843021,0.00434486148878932
1779213521165980400,7.17098046875,0.0011525573208928108,-0.016965331509709358,0.01122125331312418
1779213521175973400,7.180973388671875,0.0013408428058028221,-0.02197526954114437,0.016220806166529655
1779213521185965600,7.190965576171875,-0.0005041360855102539,-0.023665525019168854,0.01795175112783909
1779213521195958300,7.200958251953125,-0.00007803086191415787,-0.02050967887043953,0.014934655278921127
1779213521205950500,7.210950439453125,-0.003066539764404297,-0.022724686190485954,0.011919526383280754
1779213521215943400,7.220943359375,-0.0035826601088047028,-0.029892317950725555,0.01030325423926115
1779213521225935400,7.230935302734375,-0.004929716698825359,-0.03445527330040932,0.014112959615886211
1779213521235928600,7.240928466796875,-0.00506846746429801,-0.0404156930744648,0.020301880314946175
1779213521245921300,7.25092138671875,-0.003003513440489769,-0.04474790766835213,0.03058898262679577
1779213521255913500,7.26091357421875,-0.0038666436448693275,-0.05204763263463974,0.03844557702541351
1779213521265906400,7.270906494140625,-0.005035710521042347,-0.052586235105991364,0.03853285685181618
1779213521275898400,7.2808984375,-0.00648393714800477,-0.05225147679448128,0.03697863593697548
1779213521285891600,7.2908916015625,-0.008130954578518867,-0.047449368983507156,0.03030763566493988
1779213521295883500,7.300883544921875,-0.01172782015055418,-0.04204022139310837,0.023765580728650093
1779213521305876500,7.31087646484375,-0.012484808452427387,-0.03817448392510414,0.01568949781358242
1779213521315868400,7.320868408203125,-0.017725376412272453,-0.03365323320031166,0.009691792540252209
1779213521325861400,7.330861328125,-0.019734732806682587,-0.02679106779396534,0.004615806974470615
1779213521335853300,7.340853271484375,-0.023929743096232414,-0.01801089197397232,0.0017134938389062881
1779213521345846500,7.350846435546875,-0.02524537406861782,-0.011561039835214615,-0.00014955915685277432
1779213521355838500,7.36083837890625,-0.02638360857963562,-0.009983383119106293,-0.002349330112338066
1779213521365831400,7.37083154296875,-0.027849676087498665,-0.006839953362941742,-0.0070343236438930035
1779213521375823600,7.38082373046875,-0.026496522128582,-0.001012157998047769,-0.012015233747661114
1779213521385816300,7.39081640625,-0.027248039841651917,0.007221063133329153,-0.018306780606508255
1779213521395808500,7.40080859375,-0.029149271547794342,0.011709554120898247,-0.025168681517243385
1779213521405801500,7.410801513671875,-0.029758572578430176,0.015749197453260422,-0.03146285191178322
1779213521415793400,7.42079345703125,-0.030545804649591446,0.021604422479867935,-0.033598173409700394
1779213521425786400,7.430786376953125,-0.03434838354587555,0.02926846407353878,-0.03627865016460419
1779213521435778300,7.4407783203125,-0.03547649830579758,0.031184077262878418,-0.036689575761556625
1779213521445771500,7.450771484375,-0.03602031618356705,0.02901722863316536,-0.0368744395673275
1779213521455763500,7.460763427734375,-0.03755296394228935,0.029185805469751358,-0.039852652698755264
1779213521465756400,7.47075634765625,-0.03915363922715187,0.032840024679899216,-0.04218049347400665
1779213521475748600,7.48074853515625,-0.03946176543831825,0.03872028365731239,-0.04528520628809929
1779213521485741300,7.4907412109375,-0.03864344209432602,0.043458860367536545,-0.04835846275091171
1779213521495733500,7.5007333984375,-0.03810228779911995,0.04890396073460579,-0.05609095096588135
1779213521505726500,7.5107265625,-0.03554985672235489,0.060004234313964844,-0.06858238577842712
1779213521515718400,7.520718505859375,-0.03450882434844971,0.06579048186540604,-0.08354109525680542
1779213521525711600,7.530711669921875,-0.03714296221733093,0.06905817985534668,-0.0962158814072609
1779213521535703300,7.540703369140625,-0.03721335530281067,0.0690908282995224,-0.10585924983024597
1779213521545696500,7.550696533203125,-0.03676842898130417,0.06291714310646057,-0.10578850656747818
1779213521555688400,7.5606884765625,-0.034160397946834564,0.05811439827084541,-0.09861448407173157
1779213521565681400,7.570681396484375,-0.03630853071808815,0.05748103931546211,-0.08382745832204819
1779213521575673300,7.58067333984375,-0.03515351563692093,0.06859094649553299,-0.06797312945127487
1779213521585666300,7.590666259765625,-0.03551168367266655,0.08133130520582199,-0.05844709649682045
1779213521595658500,7.600658447265625,-0.03441739082336426,0.08773594349622726,-0.05740926414728165
1779213521605651500,7.6106513671875,-0.03309761732816696,0.08920828998088837,-0.06394685804843903
1779213521615643400,7.620643310546875,-0.03122887574136257,0.08865968137979507,-0.07483572512865067
1779213521625636400,7.63063623046875,-0.029820743948221207,0.09377172589302063,-0.08350825309753418
1779213521635628500,7.640628662109375,-0.027404192835092545,0.09459197521209717,-0.08815387636423111
1779213521645621500,7.65062158203125,-0.02414356730878353,0.09203604608774185,-0.08545638620853424
1779213521655613400,7.660613525390625,-0.024353425949811935,0.08758111298084259,-0.07913617789745331
1779213521665606400,7.6706064453125,-0.01837613806128502,0.08128151297569275,-0.06831435859203339
1779213521675598300,7.680598388671875,-0.01717744767665863,0.07187602669000626,-0.05698314309120178
1779213521685591600,7.690591552734375,-0.012261341325938702,0.05264353007078171,-0.04444774240255356
1779213521695583200,7.700583251953125,-0.008274588733911514,0.028211690485477448,-0.030754301697015762
1779213521705576400,7.710576416015625,-0.0034403903409838676,0.012846309691667557,-0.01741214655339718
1779213521715568600,7.720568603515625,-0.00015032105147838593,0.006357250735163689,-0.005476923659443855
1779213521725561300,7.730561279296875,0.0029460182413458824,0.007919457741081715,-0.0002102639846270904
1779213521735553500,7.740553466796875,0.0037167370319366455,0.011363990604877472,-0.0011354461312294006
1779213521745546200,7.750546142578125,0.0018739793449640274,0.011742422357201576,-0.00573713006451726
1779213521755538400,7.760538330078125,-0.002125023864209652,0.011385558173060417,-0.008445831015706062
1779213521765531600,7.77053173828125,-0.0035951193422079086,0.012008212506771088,-0.008646352216601372
1779213521775523300,7.7805234375,-0.0041935318149626255,0.011011658236384392,-0.0017042895779013634
1779213521785516500,7.7905166015625,-0.005836553871631622,0.005641390103846788,0.006038576830178499
1779213521795508500,7.800508544921875,-0.005364908371120691,-0.00018427507893647999,0.01297744270414114
1779213521805501400,7.81050146484375,-0.0068543520756065845,-0.0018520604353398085,0.013848759233951569
1779213521815493400,7.820493408203125,-0.006037827115505934,-0.003989247139543295,0.013186964206397533
1779213521825486300,7.830486328125,-0.007872214540839195,-0.003507948713377118,0.007295972667634487
1779213521835478500,7.840478515625,-0.008339333347976208,0.0010702915024012327,0.0013810921227559447
1779213521845471500,7.850471435546875,-0.0076375314965844154,0.0047793276607990265,-0.00446652015671134
1779213521855463400,7.86046337890625,-0.0040129697881639,0.0035292399115860462,-0.009920140728354454
1779213521865456400,7.870456298828125,-0.004192405845969915,0.0008222892647609115,-0.010605975985527039
1779213521875448600,7.880448486328125,-0.0019446974620223045,-0.0012387310853227973,-0.008912738412618637
1779213521885441500,7.890441650390625,-0.001954612322151661,-0.0036296031903475523,-0.0031128355767577887
1779213521895433500,7.90043359375,-0.0019588731229305267,-0.007440320681780577,-0.0005154545069672167
1779213521905426400,7.910426513671875,-0.004568386357277632,-0.010079675354063511,0.007089781574904919
1779213521915418400,7.92041845703125,-0.006899185013025999,-0.003156788181513548,0.012322360649704933
1779213521925411600,7.93041162109375,-0.006997277028858662,0.004150779917836189,0.014131532981991768
1779213521935403300,7.9404033203125,-0.006441475357860327,0.0023446243721991777,0.012798620387911797
1779213521945396500,7.950396484375,-0.002747376449406147,-0.004975346848368645,0.012272097170352936
1779213521955388700,7.960388671875,-0.0013223187997937202,-0.008302699774503708,0.009636633098125458
1779213521965381400,7.97038134765625,0.004858197644352913,-0.0093244519084692,0.008787664584815502
1779213521975373600,7.98037353515625,0.004941022023558617,-0.007995800115168095,0.005908520892262459
1779213521985366300,7.9903662109375,0.007377310656011105,-0.004090648144483566,0.008771097287535667
1779213521995358500,8.0003583984375,0.007278508506715298,0.0012844096636399627,0.010564737021923065
1779213522005351400,8.010351318359374,0.007124696858227253,0.003773338161408901,0.013953429646790028
1779213522015343400,8.02034326171875,0.007633893750607967,0.0017056597862392664,0.017204616218805313
1779213522025333200,8.030333251953126,0.008546349592506886,-0.0020736807491630316,0.019747519865632057
1779213522035325200,8.0403251953125,0.011124822311103344,-0.0059315357357263565,0.021736102178692818
1779213522045318400,8.050318359375,0.011629846878349781,-0.007580987177789211,0.0240070428699255
1779213522055310300,8.060310302734376,0.015771061182022095,-0.007347694132477045,0.02593410573899746
1779213522065303300,8.07030322265625,0.017674632370471954,-0.0106393126770854,0.02890660986304283
1779213522075295200,8.080295166015626,0.016842924058437347,-0.01094317901879549,0.030354304239153862
1779213522085288200,8.0902880859375,0.01926290988922119,-0.013860565610229969,0.03065449558198452
1779213522095280000,8.100280029296876,0.020986776798963547,-0.015148203819990158,0.03452353924512863
1779213522105273300,8.1102734375,0.018973128870129585,-0.01651919260621071,0.036989640444517136
1779213522115265300,8.120265380859376,0.021740952506661415,-0.020273717120289803,0.039813123643398285
1779213522125258200,8.13025830078125,0.021890947595238686,-0.02192668803036213,0.04098959639668465
1779213522135250400,8.14025048828125,0.02155485562980175,-0.02669507823884487,0.04275554046034813
1779213522145243100,8.1502431640625,0.02098352089524269,-0.029644640162587166,0.04322179779410362
1779213522155235300,8.1602353515625,0.020339034497737885,-0.025968413800001144,0.043779995292425156
1779213522165228300,8.170228271484374,0.017205528914928436,-0.0224935133010149,0.040454521775245667
1779213522175220200,8.18022021484375,0.013289617374539375,-0.014449701644480228,0.03330952674150467
1779213522185213400,8.19021337890625,0.01200665533542633,-0.0066657173447310925,0.02598479948937893
1779213522195205000,8.200205078125,0.0077064502984285355,-0.000753233500290662,0.016401147469878197
1779213522205198300,8.2101982421875,0.004877343773841858,0.001163450418971479,0.011488697491586208
1779213522215190300,8.220190185546874,-0.0006953207775950432,0.0026343143545091152,0.008740581572055817
1779213522225183200,8.230183349609375,-0.005034379195421934,0.0027930971700698137,0.007498921360820532
1779213522235175400,8.240175537109375,-0.008677316829562187,0.0017850907752290368,0.00876818411052227
1779213522245168000,8.250168212890625,-0.007876475341618061,-0.00541433971375227,0.014206570573151112
1779213522255160300,8.260160400390625,-0.004850858356803656,-0.014069879427552223,0.019011447206139565
1779213522265153300,8.2701533203125,-0.0022047702223062515,-0.021357310935854912,0.024135500192642212
1779213522275145200,8.280145263671875,-0.00011232495307922363,-0.022328566759824753,0.02640877477824688
1779213522285138400,8.290138427734375,0.0016461601480841637,-0.01913909986615181,0.025712812319397926
1779213522295130400,8.30013037109375,0.0031393952667713165,-0.021625693887472153,0.02303420566022396
1779213522305123300,8.310123291015625,0.0059349434450268745,-0.019448300823569298,0.018879393115639687
1779213522315115300,8.320115234375,0.0075927609577775,-0.014463926665484905,0.0144753223285079
1779213522325108200,8.330108154296875,0.011437389999628067,-0.013030403293669224,0.013940662145614624
1779213522335100200,8.34010009765625,0.014020122587680817,-0.018291743472218513,0.01752367801964283
1779213522345093400,8.35009326171875,0.012791221961379051,-0.024583032354712486,0.026283834129571915
1779213522355085300,8.360085205078125,0.012575507164001465,-0.02744113653898239,0.04000018164515495
1779213522365078300,8.370078369140625,0.010993026196956635,-0.026616781949996948,0.05165955051779747
1779213522375070200,8.3800703125,0.010536294430494308,-0.03071831539273262,0.05781757831573486
1779213522385063200,8.390063232421875,0.011739717796444893,-0.03578593209385872,0.05543651804327965
1779213522395055400,8.400055419921875,0.014396222308278084,-0.03890316188335419,0.04664835333824158
1779213522405048300,8.41004833984375,0.012818948365747929,-0.04173789173364639,0.033851683139801025
1779213522415040300,8.420040283203125,0.0121001610532403,-0.04376082867383957,0.02472636289894581
1779213522425033200,8.430033203125,0.014134815894067287,-0.045963793992996216,0.019716957584023476
1779213522435025200,8.440025146484375,0.015555080957710743,-0.05094150826334953,0.022903695702552795
1779213522445018400,8.450018310546875,0.018985792994499207,-0.053151607513427734,0.02960491180419922
1779213522455010000,8.460010009765625,0.016567643731832504,-0.0588851273059845,0.041738543659448624
1779213522465003300,8.470003173828125,0.017364703118801117,-0.06731891632080078,0.052868667989969254
1779213522474995500,8.479995361328125,0.014421111904084682,-0.07433528453111649,0.06479083746671677
1779213522484988200,8.48998828125,0.009782234206795692,-0.07709008455276489,0.07319439202547073
1779213522494980400,8.49998046875,0.0077744778245687485,-0.07316271960735321,0.08074898272752762
1779213522504973000,8.50997314453125,0.009466445073485374,-0.07010555267333984,0.0787210687994957
1779213522514965200,8.51996533203125,0.007340708747506142,-0.06872709840536118,0.06909853219985962
1779213522524958500,8.52995849609375,0.006846958771348,-0.06744079291820526,0.056381940841674805
1779213522534950100,8.5399501953125,0.004912203177809715,-0.06595911830663681,0.0446474626660347
1779213522544943400,8.549943359375,0.0011318735778331757,-0.059335049241781235,0.037484075874090195
1779213522554935300,8.559935302734376,0.001861846074461937,-0.05743035674095154,0.03545022010803223
1779213522564928300,8.56992822265625,0.002811410464346409,-0.055014707148075104,0.03746618703007698
1779213522574920200,8.579920166015626,0.006661541759967804,-0.05245833843946457,0.03932880237698555
1779213522584913200,8.5899130859375,0.007945897057652473,-0.045426204800605774,0.03611000254750252
1779213522594905300,8.5999052734375,0.005851320922374725,-0.039427969604730606,0.031581033021211624
1779213522604898300,8.609898193359374,0.0034243548288941383,-0.03420363739132881,0.023087162524461746
1779213522614890200,8.61989013671875,0.0020645447075366974,-0.026107627898454666,0.014982897788286209
1779213522624883200,8.62988330078125,0.003984300419688225,-0.01796458289027214,0.010587836615741253
1779213522634875400,8.63987548828125,0.0060117654502391815,-0.015464408323168755,0.008715634234249592
1779213522644868400,8.649868408203124,0.007446703501045704,-0.012929849326610565,0.008320788852870464
1779213522654860300,8.6598603515625,0.00633856188505888,-0.009898106567561626,0.008758079260587692
1779213522664853200,8.669853271484374,0.005245925858616829,-0.006393269170075655,0.008976005017757416
1779213522674845200,8.67984521484375,0.004683731123805046,-0.006803129334002733,0.007272913120687008
1779213522684838400,8.68983837890625,0.002691451460123062,-0.01161140762269497,0.01264308299869299
1779213522694830000,8.699830078125,0.0001864815130829811,-0.013038596138358116,0.013778921216726303
1779213522704823300,8.7098232421875,0.00032017286866903305,-0.009776489809155464,0.01369662955403328
1779213522714815500,8.7198154296875,0.001991572789847851,-0.006585490889847279,0.009422522969543934
1779213522724808200,8.72980810546875,0.0022080587223172188,-0.0016426572110503912,-0.0015193246072158217
1779213522734800400,8.73980029296875,0.001680486835539341,0.002739840419963002,-0.012060648761689663
1779213522744793000,8.74979296875,0.0006396956741809845,0.009986941702663898,-0.01928282156586647
1779213522754785300,8.759785400390625,-0.003780619241297245,0.017559640109539032,-0.0239177867770195
1779213522764778500,8.769778564453125,-0.002976873889565468,0.021672790870070457,-0.020548924803733826
1779213522774770200,8.779770263671875,-0.0021877791732549667,0.020946547389030457,-0.01743515580892563
1779213522784763400,8.789763427734375,-0.006378712598234415,0.015268734656274319,-0.014186494052410126
1779213522794755300,8.79975537109375,-0.007781665772199631,0.006680039223283529,-0.012034926563501358
1779213522804748300,8.809748291015625,-0.0071905627846717834,0.000176596746314317,-0.01158645749092102
1779213522814740200,8.819740234375,-0.009492865763604641,-0.004320949781686068,-0.010464201681315899
1779213522824733200,8.829733154296875,-0.007944533601403236,-0.004169574938714504,-0.008543474599719048
1779213522834725400,8.839725341796875,-0.008766651153564453,-0.000025962603103835136,-0.00798740703612566
1779213522844718300,8.84971826171875,-0.00798684824258089,0.005730619188398123,-0.009981636889278889
1779213522854710300,8.859710205078125,-0.00828032847493887,0.009210571646690369,-0.014020053669810295
1779213522864703200,8.869703125,-0.007992671802639961,0.012986625544726849,-0.016886811703443527
1779213522874695400,8.8796953125,-0.009170055389404297,0.013828717172145844,-0.018993105739355087
1779213522884687000,8.88968701171875,-0.005975658539682627,0.015096531249582767,-0.018621942028403282
1779213522894680300,8.899680419921875,-0.006260084453970194,0.014375879429280758,-0.01776600070297718
1779213522904672300,8.90967236328125,-0.005349958781152964,0.012634341605007648,-0.015217919833958149
1779213522914665200,8.919665283203125,-0.004242883063852787,0.01313075516372919,-0.014939885586500168
1779213522924657400,8.929657470703125,-0.002574949525296688,0.013859330676496029,-0.014078009873628616
1779213522934650000,8.939650146484375,-0.0023621628060936928,0.013642283156514168,-0.014890274032950401
1779213522944642300,8.949642333984375,-0.0012246351689100266,0.015400511212646961,-0.014860687777400017
1779213522954635300,8.95963525390625,0.0025834189727902412,0.01806500554084778,-0.014349360950291157
1779213522964627200,8.969627197265625,0.0034134062007069588,0.018525196239352226,-0.013934449292719364
1779213522974620400,8.979620361328125,0.0074728624895215034,0.018105747178196907,-0.010786592960357666
1779213522984612400,8.9896123046875,0.010079743340611458,0.014787503518164158,-0.011012529954314232
1779213522994605300,8.999605224609375,0.011822516098618507,0.008971692994236946,-0.011055140756070614
1779213523004597200,9.00959716796875,0.012295844033360481,0.003130461322143674,-0.010964414104819298
1779213523014590200,9.019590087890625,0.01048409566283226,-0.0012573630083352327,-0.010807819664478302
1779213523024585500,9.02958544921875,0.010282027535140514,-0.0011960939737036824,-0.0057991729117929935
1779213523034578400,9.039578369140624,0.0077357785776257515,0.0004129879816900939,-0.0038382872007787228
1779213523044570400,9.0495703125,0.006955972872674465,-0.0014065421419218183,-0.0015742406249046326
1779213523054563300,9.059563232421874,0.00475646834820509,-0.0018068152712658048,0.0027427435852587223
1779213523064555500,9.069555419921874,0.0017065312713384628,-0.003157083410769701,0.007000199053436518
1779213523074548500,9.079548583984375,-0.0005630142986774445,-0.00171418278478086,0.008912349119782448
1779213523084540400,9.08954052734375,-0.0017909714952111244,-0.0010710356291383505,0.00897678080946207
1779213523094533400,9.099533447265625,-0.004865590948611498,-0.0006915352423675358,0.0063567631877958775
1779213523104525300,9.109525390625,-0.005223516374826431,0.0015243802918121219,-0.0012886783806607127
1779213523114518500,9.1195185546875,-0.005802221596240997,0.002509483601897955,-0.009106653742492199
1779213523124510200,9.12951025390625,-0.005478830076754093,0.0025846301577985287,-0.01451432891190052
1779213523134503400,9.13950341796875,-0.003618079237639904,0.0025417532306164503,-0.01680704392492771
1779213523144495400,9.149495361328125,-0.003191821277141571,0.006139745470136404,-0.014521604403853416
1779213523154488300,9.15948828125,-0.003089022822678089,0.009202913381159306,-0.012720508500933647
1779213523164480500,9.16948046875,-0.0026053963229060173,0.008949747309088707,-0.010225354693830013
1779213523174473200,9.17947314453125,-0.005368958227336407,0.010581466369330883,-0.010890878736972809
1779213523184465400,9.18946533203125,-0.006292775738984346,0.012196465395390987,-0.012245189398527145
1779213523194458400,9.199458251953125,-0.0062749325297772884,0.013377045281231403,-0.01118658296763897
1779213523204450300,9.2094501953125,-0.0072832051664590836,0.012008978985249996,-0.010781249962747097
1779213523214443500,9.219443603515625,-0.007509931456297636,0.013365749269723892,-0.00990220345556736
1779213523224435500,9.229435546875,-0.008502965793013573,0.0093558793887496,-0.010555586777627468
1779213523234428400,9.239428466796875,-0.00833731796592474,0.008033353835344315,-0.008169394917786121
1779213523244420400,9.24942041015625,-0.007962874136865139,0.008758697658777237,-0.007813101634383202
1779213523254413300,9.259413330078125,-0.007201476022601128,0.011371525004506111,-0.011440061032772064
1779213523264405500,9.269405517578125,-0.004961936268955469,0.01381492055952549,-0.0158552136272192
1779213523274397400,9.2793974609375,-0.0031262198463082314,0.02020437642931938,-0.02578241191804409
1779213523284390400,9.289390380859375,-0.0007548481225967407,0.028919415548443794,-0.034682631492614746
1779213523294382300,9.29938232421875,-0.0003311391919851303,0.038977108895778656,-0.04420316591858864
1779213523304375300,9.309375244140625,-0.0011344710364937782,0.0415172278881073,-0.050049349665641785
1779213523314367200,9.3193671875,-0.0005136886611580849,0.041678883135318756,-0.04707086831331253
1779213523324360400,9.3293603515625,-0.0018944432958960533,0.041592177003622055,-0.0403018519282341
1779213523334352400,9.339352294921875,-0.0033091148361563683,0.0422678180038929,-0.034848496317863464
1779213523344345300,9.349345458984375,-0.00895281508564949,0.03870542347431183,-0.02631244994699955
1779213523354337500,9.359337646484375,-0.009704625234007835,0.031464021652936935,-0.02107028290629387
1779213523364330200,9.369330322265625,-0.010593271814286709,0.022716224193572998,-0.01854114979505539
1779213523374322400,9.379322509765625,-0.010080613195896149,0.02146800048649311,-0.019544895738363266
1779213523384315400,9.3893154296875,-0.00916118361055851,0.02301773428916931,-0.02377360686659813
1779213523394307300,9.399307373046875,-0.00792734045535326,0.02305794693529606,-0.029461853206157684
1779213523404300500,9.409300537109376,-0.0067365397699177265,0.02632369101047516,-0.03573387488722801
1779213523414292200,9.419292236328126,-0.006314162630587816,0.029611095786094666,-0.036588482558727264
1779213523424285400,9.429285400390626,-0.006692998111248016,0.03379269316792488,-0.035883840173482895
1779213523434277400,9.43927734375,-0.00569005124270916,0.03396286815404892,-0.033838264644145966
1779213523444270300,9.449270263671876,-0.006992087699472904,0.03294121474027634,-0.029684459790587425
1779213523454262500,9.459262451171876,-0.0064072576351463795,0.03628747910261154,-0.02821199782192707
1779213523464255200,9.469255126953126,-0.008087416179478168,0.03620241582393646,-0.029032839462161064
1779213523474247400,9.479247314453126,-0.008604335598647594,0.035133957862854004,-0.032173771411180496
1779213523484240400,9.489240478515624,-0.008784682489931583,0.03543740510940552,-0.03629015013575554
1779213523494232300,9.499232421875,-0.00987285003066063,0.0360611155629158,-0.038243845105171204
1779213523504225500,9.5092255859375,-0.008385603316128254,0.03797496110200882,-0.039743438363075256
1779213523514217500,9.519217529296874,-0.0071464343927800655,0.03762555494904518,-0.0396994948387146
1779213523524210400,9.52921044921875,-0.0031615467742085457,0.03886179253458977,-0.040806837379932404
1779213523534202400,9.539202392578124,-0.0046120877377688885,0.04108424857258797,-0.04277850314974785
1779213523544195300,9.5491953125,-0.005263230763375759,0.04500788450241089,-0.04373724013566971
1779213523554187300,9.559187255859374,-0.005568000953644514,0.045004382729530334,-0.042463574558496475
1779213523564180500,9.569180419921874,-0.002934488467872143,0.04384489730000496,-0.04251214489340782
1779213523574172400,9.57917236328125,-0.002093462273478508,0.042382288724184036,-0.039875879883766174
1779213523584164400,9.589164306640624,-0.0016709696501493454,0.03845582902431488,-0.03486216813325882
1779213523594157600,9.599157470703124,0.00021534785628318787,0.037879787385463715,-0.03304935246706009
1779213523604149200,9.609149169921874,-0.0008989851921796799,0.03683221712708473,-0.0304377693682909
1779213523614142500,9.619142578125,-0.0019003339111804962,0.03255251795053482,-0.028474753722548485
1779213523624134400,9.629134521484374,0.0006088968366384506,0.023017600178718567,-0.025654200464487076
1779213523634127400,9.63912744140625,0.002533942461013794,0.015106253325939178,-0.024213915690779686
1779213523644119600,9.64911962890625,0.005324975587427616,0.005877658724784851,-0.02206164039671421
1779213523654112300,9.6591123046875,0.005086622200906277,-0.005610152613371611,-0.016297761350870132
1779213523664104400,9.6691044921875,0.0012975633144378662,-0.0078076510690152645,-0.009203741326928139
1779213523674097400,9.679097412109375,-0.004146470222622156,-0.009314999915659428,-0.0027708755806088448
1779213523684089300,9.68908935546875,-0.006929027382284403,-0.009340975433588028,0.0016338345594704151
1779213523694082600,9.69908251953125,-0.00851653702557087,-0.010527679696679115,0.0021840434055775404
1779213523704074500,9.709074462890625,-0.011699188500642776,-0.018267052248120308,-0.00019989762222394347
1779213523714067500,9.7190673828125,-0.009352410212159157,-0.02340056002140045,-0.0002065555308945477
1779213523724059400,9.729059326171875,-0.01022307574748993,-0.028273658826947212,0.0032895037438720465
1779213523734052400,9.73905224609375,-0.009912018664181232,-0.03156452625989914,0.007295163813978434
1779213523744044300,9.749044189453125,-0.008674226701259613,-0.02923654578626156,0.011889190413057804
1779213523754037500,9.75903759765625,-0.010714207775890827,-0.025768578052520752,0.011484390124678612
1779213523764029400,9.769029541015625,-0.012388605624437332,-0.02466288022696972,0.006039951927959919
1779213523774021400,9.779021484375,-0.014165466651320457,-0.023317983373999596,-0.0031977547332644463
1779213523784014300,9.789014404296875,-0.014196863397955894,-0.018213512375950813,-0.01089113112539053
1779213523794006300,9.79900634765625,-0.01621580496430397,-0.011702883057296276,-0.018542125821113586
1779213523803999500,9.80899951171875,-0.01611156202852726,-0.0018743829568848014,-0.023420192301273346
1779213523813991400,9.818991455078125,-0.015726201236248016,0.0012753376504406333,-0.025829020887613297
1779213523823984400,9.828984375,-0.013606371358036995,0.002400369616225362,-0.026432154700160027
1779213523833976300,9.838976318359375,-0.011661464348435402,-0.0018556280992925167,-0.02170238085091114
1779213523843969300,9.84896923828125,-0.010469265282154083,-0.0047212992794811726,-0.014755056239664555
1779213523853961500,9.85896142578125,-0.009986966848373413,-0.005971387028694153,-0.007895552553236485
1779213523863954400,9.868954345703125,-0.009717638604342937,-0.005765942391008139,-0.0009597995667718351
1779213523873946400,9.8789462890625,-0.009706187061965466,0.0011396341724321246,0.001931860693730414
1779213523883939600,9.888939697265625,-0.010608716867864132,0.0076590473763644695,0.0017249146476387978
1779213523893931300,9.89893115234375,-0.01053840946406126,0.016872785985469818,-0.0006413040100596845
1779213523903924500,9.908924560546875,-0.012911609373986721,0.02481800876557827,-0.002053468022495508
1779213523913916400,9.91891650390625,-0.016087695956230164,0.03156805783510208,-0.0031522882636636496
1779213523923908400,9.928908447265625,-0.01979454979300499,0.03287620097398758,-0.005382153205573559
1779213523933901300,9.9389013671875,-0.018794000148773193,0.03142451122403145,-0.0026169929187744856
1779213523943893500,9.9488935546875,-0.019221730530261993,0.028470108285546303,0.0012435803655534983
1779213523953886200,9.95888623046875,-0.02324390411376953,0.030523404479026794,0.0029195076785981655
1779213523963878400,9.96887841796875,-0.020381242036819458,0.030582686886191368,0.001332474872469902
1779213523973871400,9.978871337890626,-0.013791250996291637,0.03072410076856613,-0.005983494687825441
1779213523983863300,9.98886328125,-0.009871385991573334,0.022419145330786705,-0.016347112134099007
1779213523993856500,9.9988564453125,-0.003708032425493002,0.00890466757118702,-0.029705261811614037
1779213524003848200,10.00884814453125,-0.0008575394749641418,-0.0006932602263987064,-0.03750348463654518
1779213524013841400,10.01884130859375,0.0019627483561635017,-0.0017228382639586926,-0.03822733089327812
1779213524023829800,10.028829833984375,0.004467367194592953,0.0013774021062999964,-0.03354506567120552
1779213524033822700,10.03882275390625,0.0036151548847556114,0.00536335539072752,-0.02655373141169548
1779213524043814700,10.048814697265625,0.004524768330156803,0.006809351500123739,-0.02186126820743084
1779213524053806800,10.058806884765625,0.00125920120626688,0.0029722689650952816,-0.019203700125217438
1779213524063799800,10.0687998046875,-0.003121504560112953,-0.0006724829436279833,-0.01449189055711031
1779213524073791700,10.078791748046875,-0.005101565271615982,-0.006462994497269392,-0.011193032376468182
1779213524083784700,10.08878466796875,-0.0064300596714019775,-0.01090498548001051,-0.009290780872106552
1779213524093776600,10.098776611328125,-0.010357690043747425,-0.006961908657103777,-0.00885828398168087
1779213524103769900,10.108769775390625,-0.013238192535936832,-0.0022080594208091497,-0.009161029942333698
1779213524113761500,10.118761474609375,-0.014313310384750366,-0.001120158238336444,-0.01122284960001707
1779213524123754800,10.128754638671875,-0.014141932129859924,-0.0023742427583783865,-0.016075672581791878
1779213524133747000,10.138746826171875,-0.016021057963371277,-0.004299975000321865,-0.02169014886021614
1779213524143739600,10.14873974609375,-0.01766369491815567,-0.004072274547070265,-0.022918663918972015
1779213524153731800,10.15873193359375,-0.0184426698833704,-0.004061089362949133,-0.02222517691552639
1779213524163724500,10.168724609375,-0.01863642781972885,-0.007387371268123388,-0.0199809018522501
1779213524173716700,10.178716796875,-0.01918104477226734,-0.008583396673202515,-0.017953170463442802
1779213524183708700,10.188708740234375,-0.019320281222462654,-0.008354746736586094,-0.015925798565149307
1779213524193701600,10.19870166015625,-0.013774514198303223,-0.003893153043463826,-0.01672448217868805
1779213524203693800,10.20869384765625,-0.013224904425442219,-0.00003880783333443105,-0.02030870132148266
1779213524213686800,10.218686767578125,-0.013208392076194286,0.005336782895028591,-0.025256322696805
1779213524223678700,10.2286787109375,-0.013141212984919548,0.011875862255692482,-0.03313221409916878
1779213524233671700,10.238671630859375,-0.012457579374313354,0.017469564452767372,-0.038773056119680405
1779213524243664000,10.248663818359375,-0.01635134406387806,0.021788299083709717,-0.044420916587114334
1779213524253656800,10.25865673828125,-0.01582110859453678,0.021296679973602295,-0.04445766657590866
1779213524263648800,10.268648681640625,-0.01849822886288166,0.020451020449399948,-0.042966343462467194
1779213524273641000,10.278640869140625,-0.02198963239789009,0.022308841347694397,-0.041040077805519104
1779213524283633700,10.288633544921876,-0.02245897240936756,0.027259184047579765,-0.03905823454260826
1779213524293625900,10.2986259765625,-0.025784462690353394,0.03275248780846596,-0.03885450214147568
1779213524303618600,10.30861865234375,-0.027720866724848747,0.03891514241695404,-0.042185284197330475
1779213524313610800,10.31861083984375,-0.02851848304271698,0.04361695423722267,-0.046886030584573746
1779213524323604000,10.32860400390625,-0.026297984644770622,0.03785088658332825,-0.058258168399333954
1779213524333595600,10.338595703125,-0.028470858931541443,0.023164886981248856,-0.06963572651147842
1779213524343588900,10.3485888671875,-0.028725923970341682,-0.005276388488709927,-0.07630254328250885
1779213524353580800,10.358580810546876,-0.0204115342348814,-0.022616229951381683,-0.07715049386024475
1779213524363572700,10.36857275390625,-0.00796516053378582,-0.006892452947795391,-0.07309655100107193
1779213524373565700,10.378565673828126,-0.006484176963567734,0.011120104230940342,-0.06829193979501724
1779213524383558000,10.388557861328126,-0.0077082011848688126,0.016431622207164764,-0.062041956931352615
1779213524393550800,10.39855078125,-0.004808817524462938,0.003802646417170763,-0.062402550131082535
1779213524403542800,10.408542724609376,-0.002422547899186611,0.002411093795672059,-0.06264903396368027
1779213524413535700,10.41853564453125,-0.0030262870714068413,0.020583439618349075,-0.06446424871683121
1779213524423527700,10.428527587890626,-0.005673708859831095,0.038683775812387466,-0.06780310720205307
1779213524433521000,10.43852099609375,-0.0002025105059146881,0.041867583990097046,-0.06934002041816711
1779213524443512600,10.4485126953125,0.0012294165790081024,0.02816077508032322,-0.07113086432218552
1779213524453504800,10.4585048828125,0.000052832067012786865,0.019397377967834473,-0.07224725931882858
1779213524463498000,10.468498046875,-0.0009094486013054848,0.024178335443139076,-0.07135123014450073
1779213524473489700,10.47848974609375,-0.0015797661617398262,0.04106517508625984,-0.07041779160499573
1779213524483483000,10.48848291015625,-0.002473839558660984,0.04971053823828697,-0.06855162233114243
1779213524493474800,10.498474853515624,-0.0020013954490423203,0.0458068773150444,-0.06631243973970413
1779213524503467800,10.5084677734375,-0.0011862842366099358,0.02865617536008358,-0.06524991989135742
1779213524513459700,10.518459716796874,0.0006547588855028152,0.015155547298491001,-0.06113399937748909
1779213524523452700,10.52845263671875,0.002526533789932728,0.010826418176293373,-0.05458790808916092
1779213524533444600,10.538444580078124,0.0032202880829572678,0.012538830749690533,-0.04319916293025017
1779213524543436800,10.548436767578124,0.0031741922721266747,0.019288990646600723,-0.034034594893455505
1779213524553429800,10.5584296875,0.005658122710883617,0.018084175884723663,-0.024665862321853638
1779213524563421700,10.568421630859374,0.010964123532176018,0.009618032723665237,-0.016398241743445396
1779213524573415000,10.578414794921875,0.0135098397731781,0.010869719088077545,-0.013194724917411804
1779213524583406600,10.588406494140624,0.017365243285894394,0.024411844089627266,-0.015080910176038742
1779213524593399800,10.59839990234375,0.01710691675543785,0.03033578023314476,-0.017344065010547638
1779213524603391700,10.608391845703125,0.015912966802716255,0.031436674296855927,-0.024804821237921715
1779213524613384700,10.618384765625,0.014433581382036209,0.019928090274333954,-0.03283451497554779
1779213524623377000,10.628376953125,0.015480843372642994,0.007509347517043352,-0.03947262838482857
1779213524633368800,10.638368896484375,0.017574887722730637,0.005433147307485342,-0.03816261887550354
1779213524643361800,10.64836181640625,0.01259674597531557,0.0063544404692947865,-0.02890915237367153
1779213524653353700,10.658353759765625,0.007634743116796017,0.00795420166105032,-0.015403729863464832
1779213524663346700,10.6683466796875,0.005143626593053341,0.007855134084820747,-0.005165718495845795
1779213524673338600,10.678338623046875,0.0004008030518889427,0.0063898623920977116,0.003103130031377077
1779213524683331800,10.688331787109375,-0.0031346268951892853,0.017182372510433197,0.007274828851222992
1779213524693323800,10.69832373046875,-0.005582604091614485,0.029399624094367027,0.0033112464006990194
1779213524703315700,10.708315673828125,-0.004017996601760387,0.032106731086969376,-0.00775549840182066
1779213524713309000,10.718308837890625,-0.0017678914591670036,0.03189633786678314,-0.019746381789445877
1779213524723300600,10.728300537109375,0.00041065365076065063,0.02827305532991886,-0.032590173184871674
1779213524733293800,10.7382939453125,0.001561937853693962,0.020823661237955093,-0.03605334833264351
1779213524743285800,10.74828564453125,0.002247941680252552,0.010815073736011982,-0.03026280365884304
1779213524753278700,10.75827880859375,-0.0007933881133794785,0.0014660463202744722,-0.017698543146252632
1779213524763271000,10.76827099609375,0.00017512310296297073,-0.002742757322266698,-0.005355136003345251
1779213524773262800,10.778262939453125,-0.0019266428425908089,0.0023635877296328545,0.0040657962672412395
1779213524783255800,10.788255859375,-0.003315376117825508,0.008689231239259243,0.00967523641884327
1779213524793247700,10.798247802734375,-0.0028850091621279716,0.014282934367656708,0.009392408654093742
1779213524803240700,10.80824072265625,0.0007636034861207008,0.005472078919410706,0.004197214264422655
1779213524813232600,10.818232666015625,0.005941322073340416,-0.008245331235229969,0.0025649629533290863
1779213524823225900,10.828225830078125,0.007614624686539173,-0.014300926588475704,0.00481616472825408
1779213524833217800,10.8382177734375,0.008469500578939915,-0.007053133565932512,0.008784539997577667
1779213524843210800,10.848210693359375,0.008090358227491379,-0.004385610576719046,0.011096409521996975
1779213524853203000,10.858202880859375,0.00959770753979683,-0.008248526602983475,0.012283647432923317
1779213524863194600,10.868194580078125,0.011452607810497284,-0.011072004213929176,0.015666192397475243
1779213524873187800,10.878187744140625,0.010697603225708008,-0.008148119784891605,0.019541358575224876
1779213524883179800,10.8881796875,0.012458582408726215,-0.002061894629150629,0.02424556575715542
1779213524893172700,10.8981728515625,0.012687346898019314,0.00043401989387348294,0.025495387613773346
1779213524903165000,10.9081650390625,0.01476742047816515,-0.0014549563638865948,0.021527599543333054
1779213524913157600,10.91815771484375,0.016164779663085938,0.00043162694782949984,0.017495840787887573
1779213524923149800,10.92814990234375,0.017190303653478622,-0.0011977489339187741,0.016077794134616852
1779213524933141800,10.938141845703125,0.018843062222003937,-0.00778907211497426,0.014590953476727009
1779213524943134700,10.948134765625,0.018594559282064438,-0.0026429416611790657,0.016706068068742752
1779213524953126700,10.958126708984375,0.017973244190216064,0.003612291067838669,0.021429451182484627
1779213524963119900,10.968119873046875,0.01583872362971306,-0.002570235403254628,0.021424679085612297
1779213524973111800,10.97811181640625,0.017637424170970917,-0.01397415716201067,0.019135426729917526
1779213524983104800,10.988104736328125,0.016629360616207123,-0.01654655858874321,0.017674772068858147
1779213524993096700,10.9980966796875,0.017771856859326363,-0.017051227390766144,0.0225685965269804
1779213525003088600,11.008088623046875,0.016877632588148117,-0.018557989969849586,0.029898880049586296
1779213525013081900,11.018081787109375,0.014245097525417805,-0.022718114778399467,0.03259533271193504
1779213525023076000,11.028076171875,0.013503422960639,-0.024409327656030655,0.03417104482650757
1779213525033069000,11.038069091796874,0.012227237224578857,-0.01620039902627468,0.031089767813682556
1779213525043061000,11.04806103515625,0.008891650475561619,-0.009787616319954395,0.025490662083029747
1779213525053053200,11.05805322265625,0.007027969695627689,-0.013826034031808376,0.019456204026937485
1779213525063046000,11.0680458984375,0.006626654416322708,-0.014672118239104748,0.01724371686577797
1779213525073038000,11.0780380859375,0.005462320521473885,-0.009529820643365383,0.0163520909845829
1779213525083031000,11.088031005859374,0.006450258195400238,-0.002062530256807804,0.017162078991532326
1779213525093023000,11.09802294921875,0.0074673183262348175,0.0019705607555806637,0.022155772894620895
1779213525103016200,11.10801611328125,0.006089482456445694,0.00021069118520244956,0.022450707852840424
1779213525113008000,11.118008056640624,0.004798382520675659,0.0051998570561409,0.02115880884230137
1779213525123000000,11.128,0.002816244028508663,0.00990198738873005,0.015451809391379356
1779213525132993000,11.137992919921874,0.002796003594994545,0.013149445876479149,0.012234443798661232
1779213525142985200,11.147985107421874,0.001584772951900959,0.01642870344221592,0.0066586388275027275
1779213525152978000,11.15797802734375,0.00417815987020731,0.020261524245142937,0.00444821547716856
1779213525162970000,11.16797021484375,0.004931541159749031,0.026536837220191956,0.0028692828491330147
1779213525172963000,11.177963134765625,0.010009922087192535,0.029857000336050987,0.0036173646803945303
1779213525182955000,11.187955078125,0.014086575247347355,0.029718780890107155,0.00510956859216094
1779213525192947200,11.197947265625,0.016214974224567413,0.02968495897948742,0.0066187819465994835
1779213525202940000,11.20793994140625,0.01583092473447323,0.0357670858502388,0.004527089186012745
1779213525212932000,11.21793212890625,0.012940062209963799,0.04094427078962326,0.0034881900064647198
1779213525222925000,11.227925048828125,0.011665190570056438,0.04207702353596687,0.00446591479703784
1779213525232917000,11.2379169921875,0.008541836403310299,0.03683885186910629,0.006159685086458921
1779213525242909000,11.247908935546874,0.006016867235302925,0.027315227314829826,0.01147620938718319
1779213525252902100,11.257902099609375,0.00833088904619217,0.01354987919330597,0.02115892991423607
1779213525262894000,11.26789404296875,0.009061838500201702,-0.0030073667876422405,0.028792595490813255
1779213525272887000,11.277886962890625,0.014140221290290356,-0.010948913171887398,0.035228922963142395
1779213525282879200,11.287879150390625,0.016713541001081467,-0.011441010981798172,0.042928531765937805
1779213525292872000,11.297871826171875,0.016569197177886963,-0.01725948601961136,0.04781436547636986
1779213525302864100,11.307864013671875,0.015762945637106895,-0.023888731375336647,0.047944795340299606
1779213525312856000,11.31785595703125,0.013240665197372437,-0.018508881330490112,0.044684018939733505
1779213525322849000,11.32784912109375,0.011471802368760109,-0.006286731455475092,0.03703711926937103
1779213525332841200,11.33784130859375,0.007916215807199478,0.00007582668331451714,0.02704334445297718
1779213525342834000,11.347833984375,0.008621578104794025,-0.0051934486255049706,0.017128247767686844
1779213525352826000,11.357826171875,0.006478265859186649,-0.014694541692733765,0.014256028458476067
1779213525362818000,11.367818115234375,0.00407393928617239,-0.02078321948647499,0.023574218153953552
1779213525372811000,11.37781103515625,0.0023210467770695686,-0.02889174595475197,0.036352064460515976
1779213525382803000,11.387802978515625,0.004432388581335545,-0.036332353949546814,0.05034003034234047
1779213525392796200,11.397796142578125,0.004224927164614201,-0.037660207599401474,0.05713535100221634
1779213525402788000,11.4077880859375,0.003646225668489933,-0.03873415291309357,0.058082208037376404
1779213525412781000,11.417781005859375,0.005237731151282787,-0.03975334390997887,0.0537942536175251
1779213525422773200,11.427773193359375,0.008249282836914062,-0.0442148856818676,0.04597483575344086
1779213525432765000,11.437764892578125,0.011201130226254463,-0.046946488320827484,0.0446120947599411
1779213525442758100,11.447758056640625,0.013327782042324543,-0.04683452844619751,0.048473212867975235
1779213525452750000,11.45775,0.017053011804819107,-0.04582279175519943,0.05842331424355507
1779213525462743000,11.467742919921875,0.020472366362810135,-0.05212889611721039,0.06621517986059189
1779213525472735200,11.4777353515625,0.022530458867549896,-0.06237274408340454,0.07760445028543472
1779213525482727200,11.48772705078125,0.023186488077044487,-0.07376180589199066,0.0863189771771431
1779213525492720000,11.49772021484375,0.025117812678217888,-0.08112490922212601,0.0966419205069542
1779213525502712000,11.507712158203125,0.03001512587070465,-0.08060730248689651,0.10175593197345734
1779213525512705000,11.517705078125,0.03337071090936661,-0.08072687685489655,0.10477834939956665
1779213525522697000,11.527697021484375,0.032877180725336075,-0.0872776135802269,0.10067791491746902
1779213525532689200,11.537689208984375,0.03465084731578827,-0.09559307247400284,0.09484346210956573
1779213525542682000,11.54768212890625,0.03493734821677208,-0.10274866968393326,0.09234028309583664
1779213525552674000,11.557674072265625,0.03341694921255112,-0.1047859862446785,0.09461701661348343
1779213525562667000,11.5676669921875,0.02964460663497448,-0.09308309108018875,0.10236462950706482
1779213525572659000,11.577658935546875,0.0254924725741148,-0.07843197882175446,0.11186918616294861
1779213525582651100,11.587651123046875,0.02352100983262062,-0.06607390195131302,0.11694446951150894
1779213525592644000,11.59764404296875,0.021788887679576874,-0.05554588884115219,0.11637348681688309
1779213525602636000,11.607635986328125,0.020295629277825356,-0.04929720610380173,0.10487028956413269
1779213525612629000,11.61762890625,0.018115831539034843,-0.04656879976391792,0.0890154242515564
1779213525622621200,11.62762109375,0.015600715763866901,-0.04597790166735649,0.07271542400121689
1779213525632612900,11.63761279296875,0.014654227532446384,-0.04204068332910538,0.06092959642410278
1779213525642606000,11.647606201171875,0.014662948437035084,-0.039118554443120956,0.05230602249503136
1779213525652598000,11.657597900390625,0.017661400139331818,-0.0347411148250103,0.04830702021718025
1779213525662591000,11.667591064453125,0.014987923204898834,-0.026697784662246704,0.04537505656480789
1779213525672583200,11.677583251953125,0.010082647204399109,-0.018562093377113342,0.039859384298324585
1779213525682576000,11.687575927734375,0.0038317712023854256,-0.012015565298497677,0.03720966354012489
1779213525692568000,11.697568115234375,0.0006237272173166275,-0.011349243111908436,0.03862966224551201
1779213525702560000,11.70756005859375,-0.0030906805768609047,-0.015276181511580944,0.04082592576742172
1779213525712553000,11.717552978515625,-0.005162353161722422,-0.027221791446208954,0.046565838158130646
1779213525722545200,11.727545166015625,-0.005395860876888037,-0.037329066544771194,0.053361497819423676
1779213525732538000,11.7375380859375,-0.0037801209837198257,-0.03912829980254173,0.0613350048661232
1779213525742530000,11.747530029296875,-0.00030498113483190536,-0.03068607859313488,0.06049022451043129
1779213525752522000,11.75752197265625,0.0009685428813099861,-0.02232455089688301,0.05297372117638588
1779213525762515000,11.767514892578125,0.003929072991013527,-0.012381909415125847,0.035772133618593216
1779213525772507000,11.7775068359375,0.005277696996927261,-0.003983630798757076,0.012857496738433838
1779213525782500000,11.7875,0.006730429828166962,0.006174673791974783,-0.007381059229373932
1779213525792492000,11.797491943359375,0.006751468405127525,0.016973791643977165,-0.020921101793646812
1779213525802484000,11.80748388671875,0.006748490035533905,0.03425632044672966,-0.026504574343562126
1779213525812477200,11.817477294921876,0.007208151742815971,0.05000785365700722,-0.029206883162260056
1779213525822469000,11.82746923828125,0.006554926745593548,0.05797012522816658,-0.030465155839920044
1779213525832462000,11.837462158203126,0.007235364057123661,0.05945670232176781,-0.031070491299033165
1779213525842454000,11.8474541015625,0.005474003031849861,0.05288636311888695,-0.03392266109585762
1779213525852446000,11.857446044921875,0.005891852080821991,0.04509555175900459,-0.032694678753614426
1779213525862439200,11.867439208984376,0.006126813590526581,0.04536692053079605,-0.028088398277759552
1779213525872431000,11.87743115234375,0.008692769333720207,0.05017898604273796,-0.026427386328577995
1779213525882424000,11.887424072265626,0.01285969465970993,0.05808447673916817,-0.027375806123018265
1779213525892416000,11.897416015625,0.016155090183019638,0.0639258548617363,-0.036045461893081665
1779213525902408200,11.907408203125,0.019019715487957,0.07106892019510269,-0.04647398367524147
1779213525912401000,11.91740087890625,0.02268635481595993,0.07900061458349228,-0.05553991347551346
1779213525922393000,11.92739306640625,0.025280531495809555,0.08301353454589844,-0.05935212969779968
1779213525932386000,11.937385986328126,0.02790107950568199,0.07630956172943115,-0.058216821402311325
1779213525942378000,11.9473779296875,0.03179777041077614,0.06316627562046051,-0.048380058258771896
1779213525952370200,11.9573701171875,0.03463510051369667,0.050000399351119995,-0.03681235387921333
1779213525962363000,11.96736279296875,0.03747403249144554,0.032722875475883484,-0.01939527876675129
1779213525972355000,11.97735498046875,0.039422132074832916,0.015389957465231419,0.001651150407269597
1779213525982348000,11.98734814453125,0.04130518436431885,-0.0012836118694394827,0.01927044242620468
1779213525992340000,11.997340087890626,0.04178322106599808,-0.01409474853426218,0.038432687520980835
1779213526002332000,12.007331787109376,0.04156923294067383,-0.027152717113494873,0.05346086993813515
1779213526012325000,12.0173251953125,0.03977346420288086,-0.036977652460336685,0.0659865140914917
1779213526022315800,12.027315673828125,0.03884212300181389,-0.04723427817225456,0.0742793083190918
1779213526032308700,12.037308837890626,0.03269980847835541,-0.05624561756849289,0.078476183116436
1779213526042300700,12.04730078125,0.02659793570637703,-0.0632169246673584,0.07432664185762405
1779213526052292900,12.05729296875,0.01997705176472664,-0.06902101635932922,0.06828685849905014
1779213526062285600,12.06728564453125,0.014008204452693462,-0.06870639324188232,0.05750668793916702
1779213526072277800,12.07727783203125,0.010289366357028484,-0.05614133179187775,0.04688094183802605
1779213526082269700,12.087269775390626,0.004963037557899952,-0.038450054824352264,0.02931837923824787
1779213526092262700,12.0972626953125,-0.0008879285305738449,-0.01723398081958294,0.011943649500608444
1779213526102254800,12.1072548828125,-0.010600167326629162,-0.0007766149938106537,-0.006451492663472891
1779213526112247800,12.117247802734376,-0.01531129889190197,0.01831052638590336,-0.022749772295355797
1779213526122239700,12.12723974609375,-0.01812751591205597,0.030742067843675613,-0.03452453017234802
1779213526132231700,12.137231689453126,-0.01867399737238884,0.03326381370425224,-0.03641617298126221
1779213526142225000,12.147224853515626,-0.023126773536205292,0.030523153021931648,-0.03449920192360878
1779213526152216600,12.157216552734376,-0.024172864854335785,0.02674412727355957,-0.031207002699375153
1779213526162209800,12.167209716796876,-0.024285292252898216,0.021497419103980064,-0.02777545154094696
1779213526172202000,12.177201904296876,-0.022350240498781204,0.01756606064736843,-0.0293259434401989
1779213526182193700,12.187193603515626,-0.021450623869895935,0.011390190571546555,-0.030690014362335205
