time,seconds_elapsed,z,y,x
1779964766801916000,0.128916015625,-1.073290228843689,-2.4086415767669678,0.6745479702949524
1779964766818171100,0.145171142578125,-1.0592403411865234,-2.7811167240142822,0.7770205736160278
1779964766834491000,0.161490966796875,-0.8859072923660278,-2.7992899417877197,0.7049384713172913
1779964766850835500,0.17783544921875,-0.6933320760726929,-2.087937355041504,0.2687807083129883
1779964766867164700,0.19416455078125,0.4046982228755951,-1.2385293245315552,-0.4723515510559082
1779964766883485000,0.21048486328125,0.5238169431686401,-1.2489140033721924,-0.821461021900177
1779964766899826000,0.226825927734375,0.6214026808738708,-1.948660135269165,-0.8976664543151855
1779964766916151600,0.243151611328125,0.9665415287017822,-2.3486242294311523,-0.969443142414093
1779964766932481500,0.2594814453125,1.5737415552139282,-2.0254764556884766,-0.8072584271430969
1779964766948825600,0.27582568359375,1.901012659072876,-1.0590876340866089,-0.4537201523780823
1779964766965154600,0.292154541015625,1.5066990852355957,-0.3494149148464203,0.4964807331562042
1779964766981484000,0.308484130859375,1.0199922323226929,-0.33169981837272644,1.8697057962417603
1779964766997798400,0.32479833984375,0.6139195561408997,-1.370781660079956,1.7661641836166382
1779964767014142500,0.341142578125,0.3862195611000061,-1.958128571510315,0.5725334286689758
1779964767030473700,0.3574736328125,0.5348125100135803,-2.431701898574829,0.25045475363731384
1779964767046803500,0.373803466796875,0.8784242272377014,-3.302031993865967,0.5108360648155212
1779964767063133700,0.3901337890625,1.1977540254592896,-4.589277744293213,1.2512047290802002
1779964767079460600,0.406460693359375,1.404073715209961,-6.1178154945373535,2.412001371383667
1779964767095793700,0.422793701171875,1.5210545063018799,-7.567093372344971,3.5576791763305664
1779964767112122600,0.43912255859375,1.6949983835220337,-8.426122665405273,4.309654235839844
1779964767128452000,0.4554521484375,2.1502456665039062,-8.644353866577148,4.617225170135498
1779964767144780300,0.4717802734375,2.9991955757141113,-7.342752933502197,4.21588659286499
1779964767161108200,0.488108154296875,4.382041931152344,-4.693583011627197,3.0772337913513184
1779964767177445600,0.504445556640625,5.652946949005127,-2.0857994556427,1.5723671913146973
1779964767193768700,0.520768798828125,5.130657196044922,-1.4679092168807983,0.06536258012056351
1779964767210104300,0.537104248046875,3.827528953552246,-2.4156665802001953,-0.5693264007568359
1779964767226432300,0.553432373046875,3.121521472930908,-2.5616633892059326,-0.05390885844826698
1779964767242744600,0.56974462890625,3.064710855484009,-1.6391041278839111,0.6760751008987427
1779964767259091200,0.58609130859375,3.1984903812408447,-0.7298312783241272,0.9372199773788452
1779964767275418000,0.602418212890625,3.1780264377593994,-0.35262197256088257,1.062294602394104
1779964767291750700,0.618750732421875,3.3095152378082275,-0.1033889427781105,1.2753338813781738
1779964767308082400,0.63508251953125,3.4405457973480225,0.17440202832221985,1.5856534242630005
1779964767324392400,0.651392333984375,3.464980363845825,0.07467827945947647,2.026850938796997
1779964767340726000,0.66772607421875,3.124575614929199,-0.9082038998603821,2.725375175476074
1779964767357055700,0.6840556640625,1.7869335412979126,-3.060129404067993,2.7685940265655518
1779964767373394400,0.70039453125,-0.5114469528198242,-5.41333532333374,0.47968193888664246
1779964767389715700,0.7167158203125,-0.8211556077003479,-1.4173600673675537,-1.2594513893127441
1779964767406044700,0.733044677734375,-0.050243668258190155,0.3793473243713379,-0.8130616545677185
1779964767422374400,0.74937451171875,0.30604347586631775,0.154396191239357,0.0429132841527462
1779964767438722300,0.765722412109375,0.2454151064157486,0.5068654417991638,0.6029239892959595
1779964767455017000,0.782016845703125,0.15653422474861145,0.6772968173027039,0.765566885471344
1779964767471373600,0.79837353515625,0.036041051149368286,0.20265454053878784,0.5992587804794312
1779964767487695400,0.8146953125,-0.02535090781748295,-0.14538592100143433,0.5951354503631592
1779964767504020500,0.8310205078125,0.42348232865333557,-0.7327328324317932,0.7692320346832275
1779964767520351000,0.84735107421875,0.5865833759307861,-0.6991352438926697,0.5662720799446106
1779964767536696800,0.86369677734375,-0.08536841720342636,-0.39477166533470154,0.05925392732024193
1779964767553010700,0.8800107421875,-0.22647829353809357,-0.23640485107898712,-0.07819075137376785
1779964767569352700,0.896352783203125,0.15332718193531036,-0.09193521738052368,0.06230825558304787
1779964767585690000,0.912690185546875,0.4066835343837738,0.32986724376678467,0.15943582355976105
1779964767602016500,0.9290166015625,0.4538728892803192,0.31810808181762695,0.2324342280626297
1779964767618344400,0.945344482421875,0.6282749176025391,0.40622538328170776,0.12919799983501434
1779964767634676000,0.961676025390625,1.2486085891723633,1.240820050239563,-0.10461067408323288
1779964767650999300,0.977999267578125,1.6074918508529663,1.4182764291763306,-0.4983133375644684
1779964767667340000,0.994340087890625,1.1456778049468994,1.5598443746566772,-0.6113234162330627
1779964767683665400,1.01066552734375,0.3387247920036316,1.6006196737289429,-0.531758189201355
1779964767699995000,1.026994873046875,-0.33246341347694397,1.08718740940094,-0.35964691638946533
1779964767716324900,1.043324951171875,-0.6785185933113098,0.5300782918930054,-0.18280142545700073
1779964767732654800,1.05965478515625,-0.8151996731758118,0.528245747089386,-0.07192938029766083
1779964767748979700,1.075979736328125,-1.067945122718811,0.8732318878173828,-0.043676864355802536
1779964767765297200,1.092297119140625,-1.7548631429672241,1.3081679344177246,0.2099849283695221
1779964767781642200,1.108642333984375,-1.829999566078186,1.0632109642028809,0.20815233886241913
1779964767797963500,1.124963623046875,-1.0231993198394775,0.5745187401771545,-0.07223481684923172
1779964767814288000,1.141287841796875,-0.2542726695537567,0.38377609848976135,-0.09804387390613556
1779964767830617900,1.157617919921875,0.09056077152490616,-0.12431107461452484,0.005345070734620094
1779964767846947600,1.173947509765625,0.10293079167604446,-0.26282477378845215,0.14737124741077423
1779964767863279000,1.190279052734375,0.4755585789680481,-0.02168571576476097,0.11911872029304504
1779964767879609000,1.206609130859375,0.8762862086296082,0.22052235901355743,0.16890424489974976
1779964767895916500,1.22291650390625,1.4706580638885498,-0.20906862616539001,-0.0682641938328743
1779964767912268800,1.239268798828125,2.0080668926239014,-0.7081455588340759,-0.3901901841163635
1779964767928604200,1.255604248046875,2.122145891189575,-1.514182209968567,-0.8500189781188965
1779964767944941600,1.271941650390625,2.1821634769439697,-2.0786216259002686,-1.1279627084732056
1779964767961271800,1.288271728515625,2.356107234954834,-1.940413475036621,-1.2724323272705078
1779964767977601800,1.304601806640625,2.995224952697754,-1.26067316532135,-1.3629931211471558
1779964767993931300,1.32093115234375,3.645796537399292,-0.5499314665794373,-1.7270687818527222
1779964768010255600,1.337255615234375,4.287205219268799,-0.14798210561275482,-2.0257818698883057
1779964768026590700,1.3535908203125,4.2586469650268555,-0.18784105777740479,-2.121535062789917
1779964768042919000,1.3699189453125,3.612809658050537,-0.21868975460529327,-1.810451865196228
1779964768059246000,1.38624609375,2.204918146133423,-0.10094548016786575,-1.0080803632736206
1779964768075567400,1.4025673828125,1.0512990951538086,-0.07712173461914062,-0.45326200127601624
1779964768091906000,1.418906005859375,1.244027018547058,0.10613783448934555,-0.08185594528913498
1779964768108227000,1.43522705078125,1.879937767982483,-0.0959058403968811,-0.015577063895761967
1779964768124565200,1.451565185546875,2.222327709197998,-0.727998673915863,-0.5772676467895508
1779964768140888600,1.467888671875,1.8057177066802979,0.036041051149368286,-0.6429356932640076
1779964768157224700,1.484224609375,1.6088663339614868,0.2539672255516052,-0.19975294172763824
1779964768173547000,1.500547119140625,1.45004141330719,0.29504790902137756,0.2669481039047241
1779964768189888500,1.516888427734375,1.2394455671310425,0.41263946890830994,0.4466952085494995
1779964768206219800,1.5332197265625,0.9810495972633362,0.7515169382095337,0.17119498550891876
1779964768222548200,1.54954833984375,0.9083566069602966,0.9456194043159485,-0.16279558837413788
1779964768238851800,1.565851806640625,1.1756101846694946,0.6826419234275818,-0.17058411240577698
1779964768255208000,1.5822080078125,1.4430164098739624,0.19822576642036438,0.19715675711631775
1779964768271538000,1.598537841796875,1.1820242404937744,0.09025534242391586,0.3933972120285034
1779964768287864800,1.61486474609375,0.34666603803634644,0.36682456731796265,0.12171489745378494
1779964768304180700,1.6311806640625,-0.1362229436635971,0.7383833527565002,-0.11774427443742752
1779964768320513300,1.64751318359375,-0.3465133011341095,1.1032226085662842,-0.29733866453170776
1779964768336842800,1.6638427734375,-0.18219055235385895,0.8923214077949524,-0.22159136831760406
1779964768353151200,1.680151123046875,0.10797043144702911,0.6102544069290161,-0.06444628536701202
1779964768369503200,1.696503173828125,0.05619960278272629,1.0954340696334839,-0.09987647086381912
1779964768385832000,1.71283203125,0.044745877385139465,0.661719799041748,-0.09453139454126358
1779964768402151200,1.729151123046875,0.012217304669320583,0.35659259557724,-0.14294247329235077
1779964768418493400,1.745493408203125,-0.004123340360820293,0.7733554244041443,-0.11071932315826416
1779964768434842400,1.76184228515625,0.1915062516927719,-0.06276640295982361,-0.17837265133857727
1779964768451159300,1.7781591796875,-0.4060726761817932,-0.7101308703422546,-0.09605856239795685
1779964768467494000,1.794493896484375,-0.5807801485061646,-0.09834930300712585,-0.05772676691412926
1779964768483808800,1.810808837890625,-0.6896668672561646,-0.10476338863372803,0.04459316283464432
1779964768500155400,1.8271552734375,-0.7422012686729431,-0.2997821271419525,0.19379699230194092
1779964768516469500,1.843469482421875,-0.626747727394104,-0.44318273663520813,0.31062498688697815
1779964768532814000,1.85981396484375,-0.31612277030944824,-0.2785545587539673,0.4691445231437683
1779964768549133300,1.87613330078125,-0.25076019763946533,-0.14492778480052948,0.2886338233947754
1779964768565483000,1.89248291015625,-0.4688390791416168,0.09514226019382477,0.17577648162841797
1779964768581787000,1.908786865234375,-0.22372940182685852,0.3562871515750885,0.21670444309711456
1779964768598133000,1.925133056640625,0.299018532037735,0.13439035415649414,0.24373523890972137
1779964768614462000,1.9414619140625,0.21762074530124664,-0.42989641427993774,0.21090123057365417
1779964768630793000,1.95779296875,0.01664607785642147,-0.633009135723114,0.1339322030544281
1779964768647122400,1.974122314453125,-0.007941247895359993,-0.4008803069591522,0.08048149943351746
1779964768663435800,1.990435791015625,-0.06551529467105865,-0.5239696502685547,0.052839845418930054
1779964768679780400,2.0067802734375,-0.058184914290905,-0.7945829629898071,0.08460483700037003
1779964768696094000,2.023093994140625,0.019394971430301666,-1.2350168228149414,-0.11453723162412643
1779964768712437800,2.039437744140625,-0.1892155110836029,-0.4386012554168701,-0.5416847467422485
1779964768728775700,2.055775634765625,-0.32650747895240784,0.3978259861469269,-0.27641651034355164
1779964768745106200,2.072106201171875,-0.7344127297401428,-0.21991148591041565,-0.00809396430850029
1779964768761408500,2.088408447265625,-0.7525860071182251,0.014508049935102463,-0.07788532227277756
1779964768777760000,2.104760009765625,-0.1667662113904953,-0.045204028487205505,0.012675453908741474
1779964768794057700,2.1210576171875,0.4628831446170807,0.22892175614833832,-0.15256360173225403
1779964768810402300,2.13740234375,0.8151996731758118,0.4934264123439789,-0.055283304303884506
1779964768826719000,2.153718994140625,0.6678284406661987,-0.7626652717590332,0.25854870676994324
1779964768843065900,2.17006591796875,0.4108068645000458,-0.35903605818748474,0.1693623960018158
1779964768859384800,2.186384765625,0.6534730792045593,0.2941316068172455,0.10980302840471268
1779964768875726000,2.20272607421875,0.9384417533874512,0.5120577812194824,0.012828170321881771
1779964768892052700,2.219052734375,1.0160216093063354,1.4185818433761597,-0.07712173461914062
1779964768908392200,2.23539208984375,1.0839803218841553,1.6936239004135132,-0.3168863356113434
1779964768924728300,2.251728271484375,1.2599095106124878,1.920865774154663,-0.3854559659957886
1779964768941059600,2.2680595703125,1.5358679294586182,1.966986060142517,-0.3430008292198181
1779964768957372400,2.284372314453125,1.9100228548049927,1.7400496006011963,-0.44745880365371704
1779964768973703400,2.300703369140625,1.77975594997406,1.6676621437072754,-0.9689850211143494
1779964768990027500,2.317027587890625,0.59803706407547,1.4705053567886353,-0.8614727258682251
1779964769006382300,2.33338232421875,0.30283644795417786,0.3367394804954529,-0.09865473955869675
1779964769022690300,2.349690185546875,-0.1794416606426239,0.5032002329826355,-0.14217889308929443
1779964769039026000,2.36602587890625,-0.22632557153701782,0.536797821521759,-0.4715879559516907
1779964769055370200,2.382370361328125,-0.09682214260101318,0.4596760869026184,-0.5074763298034668
1779964769071678500,2.398678466796875,0.048716504126787186,0.07880161702632904,-0.3000875413417816
1779964769088027400,2.41502734375,0.10903944820165634,-0.3257438838481903,0.06154467165470123
1779964769104383700,2.4313837890625,0.1722639948129654,-0.2828305959701538,0.41920626163482666
1779964769120686800,2.447686767578125,0.009621127508580685,0.14477506279945374,0.6319400668144226
1779964769137029600,2.464029541015625,-0.7680103182792664,0.5433646440505981,0.6556110978126526
1779964769153330000,2.480329833984375,-1.24647057056427,0.48166725039482117,0.5960517525672913
1779964769169669600,2.496669677734375,-1.3823879957199097,0.5775730609893799,0.2915354371070862
1779964769186009600,2.513009521484375,-1.1892019510269165,1.1882855892181396,-0.023518312722444534
1779964769202337000,2.5293369140625,-0.4105014503002167,1.0798569917678833,-0.06704246252775192
1779964769218665000,2.5456650390625,-0.1270599663257599,0.007635815534740686,-0.042760565876960754
1779964769234995200,2.5619951171875,0.055894169956445694,-0.3142901659011841,-0.10231992602348328
1779964769251323100,2.5783232421875,0.164170041680336,-0.2538145184516907,-0.11850785464048386
1779964769267655200,2.5946552734375,0.08994990587234497,0.03955352306365967,-0.048716504126787186
1779964769283967700,2.6109677734375,-0.012217304669320583,0.2148718535900116,0.1258382350206375
1779964769300300300,2.62730029296875,-0.012828170321881771,0.2952006161212921,0.38438695669174194
1779964769316628700,2.643628662109375,-0.012064588256180286,0.5516113042831421,0.6214026808738708
1779964769332961000,2.6599609375,-0.03695734590291977,0.7909177541732788,0.7026477456092834
1779964769349287400,2.676287353515625,-0.11545353382825851,0.9046914577484131,0.7800748944282532
1779964769365617000,2.692616943359375,-0.14065171778202057,0.6911939978599548,0.8660541772842407
1779964769381955300,2.708955322265625,-0.16661348938941956,0.29168814420700073,0.8181012868881226
1779964769398276900,2.72527685546875,-0.2837468981742859,0.007177666760981083,0.6568328738212585
1779964769414613000,2.741613037109375,-0.4456261992454529,0.17470745742321014,0.584750771522522
1779964769430949000,2.75794921875,-0.6140722632408142,0.5574145317077637,0.6349944472312927
1779964769447266000,2.77426611328125,-0.6148358583450317,0.5929974317550659,0.7005097270011902
1779964769463597300,2.790597412109375,-0.48059824109077454,0.31520646810531616,0.7796167731285095
1779964769479923500,2.80692333984375,-0.3582724630832672,0.1362229436635971,0.7896960377693176
1779964769496256800,2.8232568359375,-0.23609942197799683,0.16523905098438263,0.7286095023155212
1779964769512573700,2.83957373046875,-0.098502017557621,0.012675453908741474,0.7165449261665344
1779964769528905500,2.855905517578125,0.06948592513799667,-0.29474249482154846,0.6835582256317139
1779964769545235000,2.87223486328125,0.22770002484321594,-0.4098905920982361,0.5619960427284241
1779964769561566000,2.88856591796875,0.3228422701358795,-0.3923282027244568,0.4389066696166992
1779964769577895200,2.904895263671875,0.35246923565864563,-0.36010506749153137,0.2926044464111328
1779964769594229500,2.9212294921875,0.3758348524570465,-0.4105014503002167,0.11331550031900406
1779964769610567000,2.93756689453125,0.3572034537792206,-0.45326200127601624,-0.04795292019844055
1779964769626896100,2.953896240234375,0.29917123913764954,-0.33857205510139465,-0.07040221989154816
1779964769643229400,2.9702294921875,0.2431243658065796,-0.1963931769132614,-0.01970040425658226
1779964769659556000,2.98655615234375,0.13439035415649414,-0.10781771689653397,-0.10705413669347763
1779964769675884300,3.00288427734375,0.010842857882380486,-0.004581489134579897,-0.29504790902137756
1779964769692217900,3.0192177734375,-0.08720101416110992,0.18249599635601044,-0.35185837745666504
1779964769708559400,3.035559326171875,-0.11423180252313614,0.24144448339939117,-0.30833423137664795
1779964769724876300,3.051876220703125,-0.0835358202457428,0.08048149943351746,-0.22678372263908386
1779964769741218800,3.06821875,-0.0679587572813034,-0.023365596309304237,-0.21762074530124664
1779964769757553200,3.08455322265625,-0.028557950630784035,0.05543602257966995,-0.2428189367055893
1779964769773861400,3.100861328125,0.05467243865132332,0.144622340798378,-0.21930062770843506
1779964769790199000,3.117198974609375,0.1440114825963974,0.1615738570690155,-0.21792617440223694
1779964769806533400,3.133533447265625,0.2102903574705124,0.10155634582042694,-0.20494529604911804
1779964769822853400,3.149853271484375,0.266642689704895,0.02321287989616394,-0.17837265133857727
1779964769839184400,3.166184326171875,0.29993483424186707,0.016340645030140877,-0.13148874044418335
1779964769855514000,3.18251416015625,0.29733866453170776,-0.005803219974040985,-0.11026117950677872
1779964769871844000,3.198843994140625,0.3465133011341095,-0.07971791177988052,-0.12446379661560059
1779964769888171800,3.215171875,0.4628831446170807,-0.17806722223758698,-0.1498146951198578
1779964769904520400,3.2315205078125,0.6059783101081848,-0.22937989234924316,-0.14706580340862274
1779964769920846600,3.2478466796875,0.6953173875808716,-0.08078692853450775,-0.11010845750570297
1779964769937147000,3.26414697265625,0.740368664264679,0.013133603148162365,-0.08429940044879913
1779964769953485300,3.2804853515625,0.675616979598999,-0.2275473028421402,-0.1391245573759079
1779964769969819100,3.296819091796875,0.5787948369979858,-0.44516804814338684,-0.2984076738357544
1779964769986170600,3.313170654296875,0.5206099152565002,-0.22571471333503723,-0.380721777677536
1779964770002480000,3.329480224609375,0.4086688458919525,0.13973543047904968,-0.3510948121547699
1779964770018804700,3.3458046875,0.24434609711170197,0.25503623485565186,-0.25992316007614136
1779964770035136500,3.362136474609375,0.03695734590291977,-0.010231993161141872,-0.1696678251028061
1779964770051461000,3.378461181640625,-0.17623461782932281,-0.14049901068210602,-0.12751811742782593
1779964770067784700,3.39478466796875,-0.3520110845565796,0.10064005106687546,-0.07987063378095627
1779964770084130000,3.411130126953125,-0.4386012554168701,0.21853704750537872,-0.04688390716910362
1779964770100460800,3.427460693359375,-0.42149701714515686,0.1547016203403473,-0.033139441162347794
1779964770116790300,3.443790283203125,-0.32879820466041565,0.016798794269561768,-0.023365596309304237
1779964770133098000,3.460097900390625,-0.18707747757434845,-0.09666942805051804,0.030543262138962746
1779964770149461200,3.476461181640625,-0.04948008432984352,-0.1281289905309677,0.11331550031900406
1779964770165798000,3.4927978515625,0.044135015457868576,-0.1469130963087082,0.13301590085029602
1779964770182123500,3.50912353515625,0.08307767659425735,-0.16600263118743896,0.07849618047475815
1779964770198453800,3.525453857421875,0.09392052888870239,-0.19715675711631775,-0.007024950347840786
1779964770214770400,3.5417705078125,0.08796459436416626,-0.23167064785957336,-0.09040805697441101
1779964770231108600,3.558108642578125,0.07666359096765518,-0.2635883390903473,-0.14355333149433136
1779964770247430700,3.5744306640625,0.0633772686123848,-0.2974913716316223,-0.1463022232055664
1779964770263755800,3.590755859375,0.04199698567390442,-0.31184670329093933,-0.1235474944114685
1779964770280077300,3.607077392578125,0.010079276748001575,-0.30314189195632935,-0.11682797968387604
1779964770296415500,3.62341552734375,-0.024587325751781464,-0.2961169183254242,-0.1258382350206375
1779964770312752400,3.63975244140625,-0.058184914290905,-0.26083946228027344,-0.13973543047904968
1779964770329060600,3.656060546875,-0.08338310569524765,-0.1944078654050827,-0.14187344908714294
1779964770345394000,3.672393798828125,-0.09392052888870239,-0.10934487730264664,-0.13240504264831543
1779964770361724700,3.688724609375,-0.08506298810243607,-0.014202617108821869,-0.1033889427781105
1779964770378049300,3.70504931640625,-0.05955936014652252,0.05711590126156807,-0.06352998316287994
1779964770394385200,3.72138525390625,-0.024587325751781464,0.10323622822761536,-0.027030786499381065
1779964770410714400,3.73771435546875,0.010537425056099892,0.12797626852989197,-0.005039638374000788
1779964770427045000,3.754045166015625,0.036041051149368286,0.1371392458677292,0.0029016099870204926
1779964770443374000,3.7703740234375,0.05207626149058342,0.12767083942890167,-0.001679879380390048
1779964770459705000,3.786705078125,0.05849034711718559,0.11178833991289139,-0.005955935921519995
1779964770476032800,3.80303271484375,0.04932736977934837,0.09529497474431992,-0.0032070425804704428
1779964770492364800,3.81936474609375,0.03298672288656235,0.08720101416110992,0.0039706239476799965
1779964770508693500,3.835693603515625,0.012064588256180286,0.07528914511203766,0.010537425056099892
1779964770525024000,3.85202392578125,-0.009621127508580685,0.0555887371301651,0.019853120669722557
1779964770541353200,3.868353271484375,-0.024434609338641167,0.021838432177901268,0.02428189292550087
1779964770557681400,3.884681396484375,-0.03420845419168472,-0.012675453908741474,0.025045474991202354
1779964770574012700,3.9010126953125,-0.037110064178705215,-0.04230241850018501,0.018325956538319588
1779964770590342400,3.91734228515625,-0.03634648025035858,-0.0607810914516449,0.00855211354792118
1779964770606672100,3.933672119140625,-0.034666601568460464,-0.07284568250179291,-0.0019853119738399982
1779964770623002600,3.950002685546875,-0.032528575509786606,-0.07941248267889023,-0.005650503560900688
1779964770639333400,3.96633349609375,-0.026114489883184433,-0.08765916526317596,-0.005039638374000788
1779964770655660800,3.982660888671875,-0.013897184282541275,-0.09789115190505981,-0.00015271631127689034
1779964770671991000,3.998990966796875,0.0003054326225537807,-0.10873401165008545,0.006261368747800589
1779964770688323000,4.015322998046875,0.014508049935102463,-0.11056660860776901,0.013744467869400978
1779964770704663000,4.0316630859375,0.024892758578062057,-0.11041389405727386,0.016798794269561768
1779964770720991000,4.047990966796875,0.025656340643763542,-0.10430523753166199,0.012675453908741474
1779964770737322500,4.064322509765625,0.022143865004181862,-0.09010262042284012,0.00733038317412138
1779964770753652700,4.08065283203125,0.014202617108821869,-0.06994406878948212,-0.0003054326225537807
1779964770769982700,4.096982666015625,0.003512475173920393,-0.052839845418930054,-0.005955935921519995
1779964770786312200,4.113312255859375,-0.006261368747800589,-0.03451388701796532,-0.010842857882380486
1779964770802642200,4.12964208984375,-0.01237002108246088,-0.019547687843441963,-0.012217304669320583
1779964770818972200,4.14597216796875,-0.014049900695681572,-0.00931569468230009,-0.012522737495601177
1779964770835282200,4.1622822265625,-0.010995574295520782,-0.0024434609804302454,-0.009773843921720982
1779964770851632000,4.178632080078125,-0.00855211354792118,0.00045814894838258624,-0.005650503560900688
1779964770867961000,4.194961181640625,-0.005650503560900688,0.005497787147760391,0.0003054326225537807
1779964770884290000,4.2112900390625,-0.0013744467869400978,0.011453723534941673,0.008399397134780884
1779964770900638700,4.227638671875,0.00045814894838258624,0.018478672951459885,0.01466076634824276
1779964770916959200,4.243959228515625,0,0.029626963660120964,0.019089538604021072
1779964770933279200,4.260279296875,-0.00045814894838258624,0.038026362657547,0.019547687843441963
1779964770949615000,4.276614990234375,-0.0013744467869400978,0.046273041516542435,0.016035212203860283
1779964770965953800,4.292953857421875,-0.001679879380390048,0.05253441259264946,0.009926560334861279
1779964770982278000,4.30927783203125,-0.0009162978967651725,0.051770828664302826,0.005345070734620094
1779964770998617600,4.32561767578125,0.001527163083665073,0.048716504126787186,0.0013744467869400978
1779964771014944000,4.341944091796875,0.005039638374000788,0.040164388716220856,0.00045814894838258624
1779964771031256600,4.358256591796875,0.006719517521560192,0.030237829312682152,-0.00366519158706069
1779964771047607300,4.374607177734375,0.00733038317412138,0.02275473065674305,-0.009926560334861279
1779964771063936500,4.3909365234375,0.005650503560900688,0.010231993161141872,-0.013286318629980087
1779964771080258300,4.40725830078125,0.004886921960860491,-0.005039638374000788,-0.015271631069481373
1779964771096597200,4.42359716796875,0.0032070425804704428,-0.017867809161543846,-0.01542434748262167
1779964771112921600,4.439921630859375,0.0007635815418325365,-0.03084869496524334,-0.013591751456260681
1779964771129248300,4.456248291015625,-0.00015271631127689034,-0.0403171069920063,-0.012980886735022068
1779964771145581000,4.4725810546875,-0.001679879380390048,-0.04505131021142006,-0.010079276748001575
1779964771161915400,4.488915283203125,-0.00366519158706069,-0.04749477282166481,-0.00427605677396059
1779964771178242300,4.5052421875,-0.005497787147760391,-0.046731192618608475,0.0007635815418325365
1779964771194571300,4.5215712890625,-0.0074830991216003895,-0.04230241850018501,0.0039706239476799965
1779964771210901200,4.5379013671875,-0.00733038317412138,-0.036193765699863434,0.005955935921519995
1779964771227230700,4.554230712890625,-0.005955935921519995,-0.027947084978222847,0.007635815534740686
1779964771243539000,4.5705390625,-0.004123340360820293,-0.020616702735424042,0.00855211354792118
1779964771259881500,4.586881591796875,-0.001832595793530345,-0.01038470957428217,0.00855211354792118
1779964771276206600,4.60320654296875,0.0003054326225537807,-0.0006108652451075613,0.00855211354792118
1779964771292536000,4.6195361328125,0.001679879380390048,0.01160643994808197,0.005955935921519995
1779964771308868900,4.635868896484375,0.0007635815418325365,0.01924225501716137,0.001527163083665073
1779964771325193200,4.652193115234375,0.0003054326225537807,0.025045474991202354,-0.003054326167330146
1779964771341525500,4.668525390625,-0.00015271631127689034,0.025961773470044136,-0.005497787147760391
1779964771357855200,4.684855224609375,0.001832595793530345,0.026114489883184433,-0.007177666760981083
1779964771374185200,4.701185302734375,0.005345070734620094,0.021838432177901268,-0.008857546374201775
1779964771390531800,4.71753173828125,0.004734205547720194,0.017562376335263252,-0.009468411095440388
1779964771406858200,4.733858154296875,0.003359758760780096,0.01618792861700058,-0.005955935921519995
1779964771423167500,4.75016748046875,0.0013744467869400978,0.012217304669320583,-0.0039706239476799965
1779964771439522000,4.76652197265625,-0.0019853119738399982,0.005803219974040985,-0.002138028386980295
1779964771455848400,4.782848388671875,-0.004886921960860491,0.0009162978967651725,0.0029016099870204926
1779964771472178400,4.799178466796875,-0.005497787147760391,-0.005192354787141085,0.005497787147760391
1779964771488505000,4.815505126953125,-0.005803219974040985,-0.01114829070866108,0.009010262787342072
1779964771504837400,4.83183740234375,-0.00366519158706069,-0.011453723534941673,0.00809396430850029
1779964771521162800,4.848162841796875,-0.003054326167330146,-0.00809396430850029,0.00733038317412138
1779964771537484000,4.864484130859375,-0.001832595793530345,-0.005192354787141085,0.003054326167330146
1779964771553810000,4.880809814453125,0.00045814894838258624,-0.0029016099870204926,-0.00015271631127689034
1779964771570157000,4.897156982421875,0.0012217304902151227,-0.0039706239476799965,-0.0010690141934901476
1779964771586486000,4.913486083984375,0.0029016099870204926,-0.004886921960860491,-0.003359758760780096
1779964771602799900,4.9297998046875,0.0027488935738801956,-0.006872233934700489,-0.0039706239476799965
1779964771619143700,4.946143798828125,0.0032070425804704428,-0.008704829961061478,-0.003512475173920393
1779964771635489500,4.962489501953125,0.001679879380390048,-0.005955935921519995,-0.004734205547720194
1779964771651805700,4.9788056640625,-0.00045814894838258624,-0.0024434609804302454,-0.004123340360820293
1779964771668134700,4.995134765625,-0.0012217304902151227,0.0010690141934901476,-0.003359758760780096
1779964771684464400,5.01146435546875,-0.002138028386980295,0.0025961773935705423,-0.002138028386980295
1779964771700779300,5.027779296875,-0.0025961773935705423,0.00366519158706069,0.0009162978967651725
1779964771717124900,5.044124755859375,-0.001832595793530345,0.004428773187100887,0.0025961773935705423
1779964771733437700,5.060437744140625,0.00045814894838258624,0.004734205547720194,0.0039706239476799965
1779964771749769200,5.076769287109375,0.001832595793530345,0.001679879380390048,0.0039706239476799965
1779964771766097200,5.09309716796875,0.0012217304902151227,0.001679879380390048,0.0025961773935705423
1779964771782433500,5.10943359375,0.001679879380390048,0.00045814894838258624,0.0006108652451075613
1779964771798748000,5.125747802734375,-0.0003054326225537807,0.0007635815418325365,0.0006108652451075613
1779964771815090000,5.14208984375,-0.001679879380390048,-0.001679879380390048,-0.0009162978967651725
1779964771831414500,5.15841455078125,-0.0029016099870204926,-0.0013744467869400978,-0.0019853119738399982
1779964771847759000,5.174759033203125,-0.002138028386980295,-0.001832595793530345,0
1779964771864068000,5.191068115234375,0.00015271631127689034,-0.001832595793530345,-0.00045814894838258624
1779964771880424400,5.207424560546875,0.001832595793530345,-0.001832595793530345,-0.00045814894838258624
1779964771896748800,5.223748779296875,0.003817907767370343,-0.0013744467869400978,0.00045814894838258624
1779964771913069600,5.240069580078125,0.0032070425804704428,-0.0013744467869400978,0
1779964771929409000,5.256408935546875,0.0019853119738399982,-0.001527163083665073,0.0003054326225537807
1779964771945711400,5.27271142578125,0,0.0029016099870204926,-0.0006108652451075613
1779964771962072000,5.289072021484375,0.0003054326225537807,0.0019853119738399982,0.0010690141934901476
1779964771978402300,5.30540234375,0.001832595793530345,0.0024434609804302454,0.0006108652451075613
1779964771994728000,5.32172802734375,0.0029016099870204926,0.0032070425804704428,0.0003054326225537807
1779964772011062800,5.338062744140625,0.0019853119738399982,0.0024434609804302454,-0.0012217304902151227
1779964772027391500,5.3543916015625,-0.0012217304902151227,0.0032070425804704428,-0.0019853119738399982
1779964772043721000,5.370720947265625,-0.003512475173920393,0.001832595793530345,-0.0010690141934901476
1779964772060042200,5.387042236328125,-0.005192354787141085,0.0003054326225537807,-0.002138028386980295
1779964772076383500,5.403383544921875,-0.004734205547720194,-0.002138028386980295,0.0003054326225537807
1779964772092711200,5.419711181640625,-0.004581489134579897,-0.006261368747800589,0.004123340360820293
1779964772109038300,5.436038330078125,-0.003054326167330146,-0.005039638374000788,0.003054326167330146
1779964772125366500,5.452366455078125,-0.001527163083665073,-0.0009162978967651725,0.002138028386980295
1779964772141708800,5.468708740234375,-0.0006108652451075613,0.0022907445672899485,0.0012217304902151227
1779964772158048000,5.485048095703125,0.0009162978967651725,0.0025961773935705423,-0.00045814894838258624
1779964772174361300,5.501361328125,0.001832595793530345,0.001679879380390048,-0.001527163083665073
1779964772190689000,5.51768896484375,0.0027488935738801956,0.0006108652451075613,-0.00015271631127689034
1779964772207019500,5.53401953125,0.0019853119738399982,-0.001679879380390048,-0.001832595793530345
1779964772223331800,5.550331787109375,0.001527163083665073,-0.002138028386980295,-0.001527163083665073
1779964772239664600,5.56666455078125,0.0009162978967651725,0,-0.0007635815418325365
1779964772255994400,5.582994384765625,-0.0007635815418325365,0.001679879380390048,-0.0009162978967651725
1779964772272326400,5.599326416015625,-0.001679879380390048,0.0029016099870204926,-0.0003054326225537807
1779964772288651300,5.6156513671875,-0.0019853119738399982,0.00427605677396059,0.0009162978967651725
1779964772304983800,5.63198388671875,-0.0019853119738399982,0.003054326167330146,-0.00045814894838258624
1779964772321313800,5.648313720703125,-0.0006108652451075613,0.0029016099870204926,-0.0007635815418325365
1779964772337643300,5.664643310546875,0.0009162978967651725,0.0025961773935705423,0.002138028386980295
1779964772353973800,5.680973876953125,0.0022907445672899485,-0.0007635815418325365,0.0010690141934901476
1779964772370306800,5.697306884765625,0.0022907445672899485,-0.0006108652451075613,-0.0003054326225537807
1779964772386644500,5.71364453125,0.0009162978967651725,-0.001832595793530345,-0.001679879380390048
1779964772402976500,5.7299765625,-0.0003054326225537807,-0.0025961773935705423,-0.0022907445672899485
1779964772419306200,5.74630615234375,-0.0025961773935705423,-0.0027488935738801956,-0.001832595793530345
1779964772435628000,5.7626279296875,-0.002138028386980295,-0.004581489134579897,-0.0010690141934901476
1779964772451964000,5.7789638671875,-0.001679879380390048,-0.003817907767370343,-0.0006108652451075613
1779964772468296700,5.795296630859375,0.0003054326225537807,-0.004734205547720194,0.0006108652451075613
1779964772484625700,5.811625732421875,0.0007635815418325365,-0.003512475173920393,0.0012217304902151227
1779964772500955000,5.827954833984375,0.0007635815418325365,-0.003359758760780096,0.0013744467869400978
1779964772517282600,5.844282470703125,0.0007635815418325365,-0.003054326167330146,0.001527163083665073
1779964772533587500,5.86058740234375,0,-0.0012217304902151227,0.0010690141934901476
1779964772549944800,5.87694482421875,0.0007635815418325365,0.0009162978967651725,0.002138028386980295
1779964772566258200,5.893258056640625,0.0027488935738801956,0.0009162978967651725,0.0006108652451075613
1779964772582605300,5.909605224609375,0.003512475173920393,0.0029016099870204926,0.00015271631127689034
1779964772598955000,5.925955078125,0.002138028386980295,0.003512475173920393,-0.0012217304902151227
1779964772615264000,5.942263916015625,0.0007635815418325365,0.0064140851609408855,-0.001832595793530345
1779964772631589000,5.958589111328125,-0.0019853119738399982,0.006872233934700489,-0.0022907445672899485
1779964772647921400,5.97492138671875,-0.0032070425804704428,0.005497787147760391,-0.0007635815418325365
1779964772664254200,5.991254150390625,-0.005192354787141085,0.0019853119738399982,-0.0003054326225537807
1779964772680583200,6.007583251953125,-0.004428773187100887,-0.0003054326225537807,0.0006108652451075613
1779964772696892200,6.02389208984375,-0.0022907445672899485,-0.0007635815418325365,0.002138028386980295
1779964772713204200,6.040204345703125,-0.001832595793530345,0,0.0019853119738399982
1779964772729555700,6.0565556640625,0,0.003359758760780096,0.00015271631127689034
1779964772745892400,6.072892333984375,0.0007635815418325365,0.0022907445672899485,0.00045814894838258624
1779964772762218200,6.08921826171875,0.0025961773935705423,-0.0019853119738399982,0.0003054326225537807
1779964772778548200,6.10554833984375,0.0022907445672899485,-0.003054326167330146,0.00015271631127689034
1779964772794865200,6.121865234375,0.0012217304902151227,-0.00733038317412138,-0.00045814894838258624
1779964772811208000,6.1382080078125,-0.0012217304902151227,-0.007177666760981083,-0.0022907445672899485
1779964772827535400,6.154535400390625,-0.0024434609804302454,-0.003817907767370343,-0.0019853119738399982
1779964772843870200,6.1708701171875,-0.0029016099870204926,-0.0013744467869400978,-0.0013744467869400978
1779964772860200700,6.18720068359375,-0.002138028386980295,0.0009162978967651725,-0.001832595793530345
1779964772876540400,6.20354052734375,-0.001679879380390048,0.0027488935738801956,0.0010690141934901476
1779964772892871400,6.219871337890625,-0.0006108652451075613,0.003817907767370343,0.0012217304902151227
1779964772909201700,6.23620166015625,0.00015271631127689034,0.0022907445672899485,0.0007635815418325365
1779964772925525500,6.252525390625,0.0010690141934901476,0.0025961773935705423,0.001832595793530345
1779964772941864700,6.26886474609375,0.0007635815418325365,0.0013744467869400978,-0.00015271631127689034
1779964772958171000,6.2851708984375,0.001527163083665073,0.00045814894838258624,0.0010690141934901476
1779964772974503700,6.301503662109375,0.0007635815418325365,0.0003054326225537807,-0.0013744467869400978
1779964772990833700,6.317833740234375,-0.001832595793530345,-0.0007635815418325365,-0.0010690141934901476
1779964773007161000,6.3341611328125,-0.0019853119738399982,-0.0009162978967651725,-0.0012217304902151227
1779964773023483400,6.3504833984375,-0.0024434609804302454,-0.0010690141934901476,0.0009162978967651725
1779964773039812600,6.3668125,-0.001527163083665073,-0.0012217304902151227,0.001527163083665073
1779964773056145400,6.3831455078125,0.00015271631127689034,-0.0012217304902151227,0.0025961773935705423
1779964773072484900,6.39948486328125,-0.00015271631127689034,-0.0009162978967651725,0.001832595793530345
1779964773088813000,6.41581298828125,0,0.0003054326225537807,0.0022907445672899485
1779964773105144600,6.43214453125,0.0007635815418325365,0.00045814894838258624,0.0009162978967651725
1779964773121474600,6.448474609375,0.001679879380390048,0.0029016099870204926,0
1779964773137804500,6.464804443359375,0.0029016099870204926,0.003054326167330146,-0.001527163083665073
1779964773154136600,6.481136474609375,0.0039706239476799965,0.003817907767370343,-0.0007635815418325365
1779964773170477600,6.4974775390625,0.0032070425804704428,0.004734205547720194,-0.0013744467869400978
1779964773186807000,6.51380712890625,0.002138028386980295,0.004581489134579897,-0.00427605677396059
1779964773203120400,6.530120361328125,-0.0013744467869400978,0.002138028386980295,-0.00366519158706069
1779964773219439400,6.546439453125,-0.0027488935738801956,0.003512475173920393,-0.0006108652451075613
1779964773235768600,6.5627685546875,-0.003359758760780096,-0.0006108652451075613,0.00045814894838258624
1779964773252115700,6.57911572265625,-0.00427605677396059,-0.003359758760780096,0.001679879380390048
1779964773268439600,6.595439453125,-0.004123340360820293,-0.005803219974040985,0.001832595793530345
1779964773284771800,6.611771728515625,-0.003054326167330146,-0.006108652334660292,-0.0009162978967651725
1779964773301102600,6.6281025390625,-0.001832595793530345,-0.004581489134579897,-0.0007635815418325365
1779964773317431800,6.644431884765625,0.0003054326225537807,-0.005192354787141085,-0.0006108652451075613
1779964773333768700,6.660768798828125,0.0013744467869400978,-0.004123340360820293,0
1779964773350090000,6.677090087890625,0.0022907445672899485,-0.005803219974040985,0
1779964773366424300,6.69342431640625,0.0019853119738399982,-0.0065668015740811825,-0.0003054326225537807
1779964773382765300,6.709765380859375,0.0009162978967651725,-0.00427605677396059,-0.0010690141934901476
1779964773399094500,6.726094482421875,-0.00015271631127689034,-0.00366519158706069,-0.00045814894838258624
1779964773415427800,6.742427734375,-0.001527163083665073,0.00045814894838258624,0
1779964773431757600,6.758757568359375,-0.001679879380390048,0.005345070734620094,-0.0003054326225537807
1779964773448068600,6.775068603515625,-0.001679879380390048,0.007177666760981083,-0.0007635815418325365
1779964773464394500,6.79139453125,-0.0009162978967651725,0.00855211354792118,-0.0009162978967651725
1779964773480742000,6.807741943359375,0.00015271631127689034,0.008857546374201775,0.0009162978967651725
1779964773497057500,6.8240576171875,0.0013744467869400978,0.006872233934700489,0
1779964773513383000,6.8403828125,0.0012217304902151227,0.005345070734620094,0.0009162978967651725
1779964773529721300,6.856721435546875,0.0019853119738399982,0.004123340360820293,0.00015271631127689034
1779964773546061300,6.873061279296875,0.0007635815418325365,0.00045814894838258624,-0.001527163083665073
1779964773562390500,6.889390625,0.00045814894838258624,-0.0010690141934901476,-0.0027488935738801956
1779964773578709800,6.905709716796875,-0.00045814894838258624,-0.004734205547720194,-0.0019853119738399982
1779964773595043600,6.922043701171875,-0.0012217304902151227,-0.005497787147760391,-0.0012217304902151227
1779964773611379700,6.938379638671875,-0.001527163083665073,-0.006108652334660292,0.0007635815418325365
1779964773627695900,6.95469580078125,-0.0006108652451075613,-0.00855211354792118,0.0019853119738399982
1779964773644041700,6.971041748046875,-0.0012217304902151227,-0.0074830991216003895,0.001832595793530345
1779964773660371000,6.987370849609375,0.00015271631127689034,-0.007024950347840786,0.0006108652451075613
1779964773676700700,7.00370068359375,0.0012217304902151227,-0.00366519158706069,0.0007635815418325365
1779964773693002200,7.020002197265625,0.004428773187100887,-0.0019853119738399982,-0.0003054326225537807
1779964773709348000,7.03634814453125,0.005803219974040985,-0.00015271631127689034,0.0006108652451075613
1779964773725663000,7.0526630859375,0.005650503560900688,0.003359758760780096,-0.001527163083665073
1779964773742008000,7.069008056640625,0.0025961773935705423,0.005192354787141085,-0.001679879380390048
1779964773758336800,7.085336669921875,-0.0010690141934901476,0.004123340360820293,-0.003512475173920393
1779964773774649900,7.10164990234375,-0.0024434609804302454,0.00366519158706069,-0.0012217304902151227
1779964773790996500,7.11799658203125,-0.004123340360820293,0.0022907445672899485,0.0012217304902151227
1779964773807326200,7.134326171875,-0.004123340360820293,0.0025961773935705423,0.0010690141934901476
1779964773823639800,7.150639892578125,-0.003054326167330146,0.002138028386980295,0.001832595793530345
1779964773839989500,7.166989501953125,-0.0007635815418325365,0.0039706239476799965,0.001679879380390048
1779964773856333000,7.1833330078125,0.0006108652451075613,0.004886921960860491,0
1779964773872639000,7.199638916015625,0.001832595793530345,0.0064140851609408855,-0.0009162978967651725
1779964773888973000,7.21597314453125,0.004123340360820293,0.003512475173920393,-0.0009162978967651725
1779964773905303800,7.2323037109375,0.00427605677396059,0.0007635815418325365,0
1779964773921633300,7.24863330078125,0.0032070425804704428,-0.0006108652451075613,-0.0012217304902151227
1779964773937958700,7.264958740234375,0.0022907445672899485,-0.003817907767370343,-0.0009162978967651725
1779964773954281500,7.281281494140625,0.0006108652451075613,-0.0027488935738801956,0.0003054326225537807
1779964773970612700,7.29761279296875,-0.00015271631127689034,-0.0010690141934901476,-0.00045814894838258624
1779964773986942700,7.313942626953125,-0.0012217304902151227,0,-0.001527163083665073
1779964774003272000,7.33027197265625,-0.0012217304902151227,0.0009162978967651725,-0.0022907445672899485
1779964774019601000,7.346600830078125,-0.001679879380390048,0,-0.0029016099870204926
1779964774035931100,7.36293115234375,0.00015271631127689034,0.00015271631127689034,-0.0010690141934901476
1779964774052261400,7.379261474609375,0.0006108652451075613,0.00015271631127689034,0.00045814894838258624
1779964774068590300,7.39559033203125,0.001832595793530345,-0.0009162978967651725,0.00045814894838258624
1779964774084920000,7.411920166015625,0.003054326167330146,-0.003054326167330146,0.0022907445672899485
1779964774101250800,7.428250732421875,0.002138028386980295,-0.0027488935738801956,-0.0006108652451075613
1779964774117581600,7.44458154296875,0.0019853119738399982,-0.001527163083665073,-0.003054326167330146
1779964774133908700,7.46090869140625,0.0010690141934901476,-0.0006108652451075613,-0.00366519158706069
1779964774150239700,7.47723974609375,0.001832595793530345,-0.00015271631127689034,-0.0032070425804704428
1779964774166581500,7.49358154296875,0.0019853119738399982,-0.00015271631127689034,-0.0019853119738399982
1779964774182908400,7.509908447265625,0.0029016099870204926,-0.0012217304902151227,-0.0019853119738399982
1779964774199241200,7.5262412109375,0.0012217304902151227,-0.0013744467869400978,-0.00366519158706069
1779964774215571700,7.54257177734375,0.001527163083665073,-0.0019853119738399982,-0.0010690141934901476
1779964774231901000,7.55890087890625,0.001832595793530345,-0.0039706239476799965,0.0009162978967651725
1779964774248230000,7.57522998046875,0.0019853119738399982,-0.0019853119738399982,0.0006108652451075613
1779964774264568600,7.591568603515625,0.003054326167330146,0.0019853119738399982,0.001832595793530345
1779964774280890600,7.607890625,0.005803219974040985,0.0027488935738801956,0
1779964774297220400,7.624220458984375,0.006719517521560192,0.0022907445672899485,0.0009162978967651725
1779964774313550600,7.640550537109375,0.003359758760780096,0.004123340360820293,-0.001679879380390048
1779964774329879600,7.656879638671875,-0.0009162978967651725,0.005955935921519995,-0.0009162978967651725
1779964774346212900,7.673212890625,-0.0024434609804302454,0.005955935921519995,-0.0003054326225537807
1779964774362536400,7.689536376953125,-0.0029016099870204926,0.0027488935738801956,0.00045814894838258624
1779964774378883800,7.7058837890625,-0.0024434609804302454,-0.0003054326225537807,0.002138028386980295
1779964774395196000,7.72219580078125,0.0009162978967651725,-0.0012217304902151227,0.0024434609804302454
1779964774411542500,7.73854248046875,0.001832595793530345,0.00015271631127689034,0.0009162978967651725
1779964774427895800,7.754895751953125,0.0029016099870204926,0.00366519158706069,-0.0006108652451075613
1779964774444201200,7.771201171875,0.003359758760780096,0.0064140851609408855,-0.003054326167330146
1779964774460530400,7.787530517578125,0.005039638374000788,0.006719517521560192,-0.0039706239476799965
1779964774476863700,7.80386376953125,0.005497787147760391,0.002138028386980295,-0.0024434609804302454
1779964774493162000,7.820161865234375,0.004428773187100887,0.0003054326225537807,-0.001832595793530345
1779964774509525200,7.836525146484375,0.00366519158706069,-0.003817907767370343,-0.0024434609804302454
1779964774525831000,7.852830810546875,0.002138028386980295,-0.004428773187100887,-0.003359758760780096
1779964774542186200,7.869186279296875,0.001527163083665073,-0.0025961773935705423,-0.001527163083665073
1779964774558506800,7.8855068359375,0.001679879380390048,-0.0007635815418325365,-0.001679879380390048
1779964774574844000,7.901843994140625,0.0007635815418325365,0.00015271631127689034,-0.0010690141934901476
1779964774591166500,7.91816650390625,0.001527163083665073,0.00045814894838258624,-0.0010690141934901476
1779964774607504600,7.934504638671875,0.0010690141934901476,-0.0003054326225537807,-0.0009162978967651725
1779964774623829500,7.95082958984375,0.001679879380390048,0,0.0013744467869400978
1779964774640160300,7.96716015625,0.001832595793530345,0.0006108652451075613,0
1779964774656489200,7.9834892578125,0.0009162978967651725,-0.002138028386980295,0.0022907445672899485
1779964774672802600,7.999802490234375,0.0009162978967651725,-0.0022907445672899485,0.0010690141934901476
1779964774689130800,8.016130859375,0.0003054326225537807,-0.001527163083665073,-0.001679879380390048
1779964774705469700,8.0324697265625,-0.0009162978967651725,0.0003054326225537807,0.0003054326225537807
1779964774721794800,8.048794921875,-0.001527163083665073,0.0006108652451075613,-0.0003054326225537807
1779964774738125300,8.065125244140624,-0.0027488935738801956,0.0003054326225537807,0.00015271631127689034
1779964774754454800,8.081454833984376,-0.0029016099870204926,0.00015271631127689034,-0.0006108652451075613
1779964774770787000,8.097787109375,-0.0039706239476799965,0.00045814894838258624,-0.00045814894838258624
1779964774787113000,8.114113037109375,-0.002138028386980295,-0.0029016099870204926,0.001527163083665073
1779964774803444500,8.130444580078125,-0.0010690141934901476,-0.002138028386980295,0.00045814894838258624
1779964774819773000,8.14677294921875,-0.0024434609804302454,-0.002138028386980295,0.0010690141934901476
1779964774836103400,8.163103515625,-0.0029016099870204926,-0.001527163083665073,0.00045814894838258624
1779964774852451800,8.179451904296876,-0.0029016099870204926,-0.0012217304902151227,0.0022907445672899485
1779964774868778000,8.195778076171875,-0.0029016099870204926,0.0003054326225537807,0.0029016099870204926
1779964774885107000,8.21210693359375,-0.0019853119738399982,0.0027488935738801956,0.003054326167330146
1779964774901421000,8.228421142578124,0.0013744467869400978,0.003359758760780096,0.003512475173920393
1779964774917762000,8.244761962890625,0.003054326167330146,0.0029016099870204926,0.003054326167330146
1779964774934101200,8.261101318359374,0.0012217304902151227,0.005039638374000788,0.00045814894838258624
1779964774950420500,8.27742041015625,-0.0010690141934901476,0.005803219974040985,-0.0009162978967651725
1779964774966764000,8.293763916015624,-0.0039706239476799965,0.005192354787141085,-0.0019853119738399982
1779964774983082800,8.310082763671875,-0.005345070734620094,0.001679879380390048,-0.00015271631127689034
1779964774999415800,8.326415771484376,-0.004886921960860491,-0.001679879380390048,0.001679879380390048
1779964775015733500,8.3427333984375,-0.004123340360820293,-0.003512475173920393,0.0027488935738801956
1779964775032076300,8.359076171875,-0.0022907445672899485,-0.0029016099870204926,0.0029016099870204926
1779964775048404700,8.37540478515625,-0.001679879380390048,-0.0012217304902151227,0.0022907445672899485
1779964775064735200,8.3917353515625,-0.0013744467869400978,0.0032070425804704428,-0.0012217304902151227
1779964775081062400,8.4080625,-0.0006108652451075613,0.003359758760780096,0.0007635815418325365
1779964775097378600,8.424378662109374,0.00015271631127689034,0.00366519158706069,0
1779964775113706200,8.440706298828125,0.0007635815418325365,0,0
1779964775130058000,8.45705810546875,0.0006108652451075613,-0.003512475173920393,0.0003054326225537807
1779964775146382600,8.473382568359375,-0.0012217304902151227,-0.005039638374000788,-0.0013744467869400978
1779964775162697000,8.489697021484375,-0.001679879380390048,-0.005039638374000788,-0.0022907445672899485
1779964775179029500,8.506029541015625,-0.0012217304902151227,-0.001527163083665073,0.001679879380390048
1779964775195359500,8.522359375,-0.0012217304902151227,0.0006108652451075613,0.00045814894838258624
1779964775211689700,8.538689697265625,-0.0027488935738801956,0.0024434609804302454,-0.00015271631127689034
1779964775228019700,8.555019775390624,-0.0027488935738801956,0.004428773187100887,-0.0009162978967651725
1779964775244348700,8.5713486328125,-0.003054326167330146,0.003817907767370343,-0.0006108652451075613
1779964775260678700,8.5876787109375,-0.0012217304902151227,0.0009162978967651725,0.0003054326225537807
1779964775277008600,8.604008544921875,0.00015271631127689034,-0.002138028386980295,0
1779964775293327600,8.62032763671875,0.0013744467869400978,-0.005650503560900688,0
1779964775309668400,8.63666845703125,0.0010690141934901476,-0.00733038317412138,0.00045814894838258624
1779964775325997800,8.652997802734374,-0.00045814894838258624,-0.004734205547720194,0.0007635815418325365
1779964775342344000,8.669343994140625,-0.0009162978967651725,-0.0064140851609408855,0.00015271631127689034
1779964775358670000,8.685670166015624,-0.0027488935738801956,-0.0065668015740811825,0.0003054326225537807
1779964775374989800,8.70198974609375,-0.0029016099870204926,-0.006261368747800589,0.0003054326225537807
1779964775391330800,8.718330810546876,-0.002138028386980295,-0.005039638374000788,0.0007635815418325365
1779964775407657500,8.734657470703125,-0.0025961773935705423,-0.0012217304902151227,0.001679879380390048
1779964775423995000,8.750994873046874,-0.001832595793530345,0.0010690141934901476,0.0010690141934901476
1779964775440303400,8.767303466796875,-0.0003054326225537807,0.0019853119738399982,0.00045814894838258624
1779964775456633000,8.783633056640625,0.0006108652451075613,0.002138028386980295,0.0007635815418325365
1779964775472998400,8.799998291015624,0.0012217304902151227,0.0024434609804302454,-0.0027488935738801956
1779964775489310700,8.816310791015624,0.001527163083665073,0.0029016099870204926,-0.003817907767370343
1779964775505616000,8.832615966796874,0.0019853119738399982,0.0025961773935705423,-0.0025961773935705423
1779964775521965800,8.8489658203125,0.0029016099870204926,0.001527163083665073,0
1779964775538305500,8.865305419921874,0.003054326167330146,0.00015271631127689034,0.0019853119738399982
1779964775554629600,8.881629638671875,0.002138028386980295,0.00015271631127689034,0.0022907445672899485
1779964775570955000,8.897955078125,0.0007635815418325365,-0.0012217304902151227,0.005192354787141085
1779964775587290600,8.91429052734375,-0.002138028386980295,0,0.007788531947880983
1779964775603603000,8.93060302734375,-0.003359758760780096,0.00366519158706069,0.009010262787342072
1779964775619948300,8.9469482421875,-0.004123340360820293,0.006872233934700489,0.007024950347840786
1779964775636278300,8.9632783203125,-0.007177666760981083,0.008246680721640587,0.005650503560900688
1779964775652591000,8.979591064453125,-0.007635815534740686,0.013744467869400978,0.0027488935738801956
1779964775668925400,8.995925537109375,-0.008857546374201775,0.013897184282541275,0.0010690141934901476
1779964775685253400,9.01225341796875,-0.0074830991216003895,0.01572977937757969,-0.0010690141934901476
1779964775701583000,9.0285830078125,-0.004886921960860491,0.01237002108246088,-0.001832595793530345
1779964775717912000,9.044912109375,-0.0012217304902151227,0.006108652334660292,-0.0010690141934901476
1779964775734243300,9.061243408203126,0.001679879380390048,0.001832595793530345,-0.0009162978967651725
1779964775750570200,9.0775703125,0.003054326167330146,-0.0012217304902151227,0.0007635815418325365
1779964775766906000,9.093906005859376,0.004886921960860491,-0.001832595793530345,-0.0025961773935705423
1779964775783233000,9.11023291015625,0.004581489134579897,-0.0027488935738801956,-0.0029016099870204926
1779964775799562500,9.1265625,0.005192354787141085,-0.005955935921519995,-0.00366519158706069
1779964775815892700,9.142892822265624,0.004581489134579897,-0.011301007121801376,-0.0039706239476799965
1779964775832234800,9.15923486328125,0.0019853119738399982,-0.016035212203860283,-0.005039638374000788
1779964775848567600,9.175567626953125,-0.0003054326225537807,-0.023518312722444534,-0.005192354787141085
1779964775864896300,9.191896240234374,-0.0003054326225537807,-0.027641652151942253,-0.0022907445672899485
1779964775881225500,9.2082255859375,0.0006108652451075613,-0.026419922709465027,-0.0019853119738399982
1779964775897555500,9.224555419921876,-0.00015271631127689034,-0.021838432177901268,-0.00045814894838258624
1779964775913868300,9.240868408203125,0.0006108652451075613,-0.014355333521962166,0.0003054326225537807
1779964775930214400,9.25721435546875,0.0010690141934901476,-0.00931569468230009,-0.0003054326225537807
1779964775946543000,9.273543212890624,0.002138028386980295,-0.001527163083665073,0.0006108652451075613
1779964775962873900,9.289873779296874,0.004886921960860491,0.0065668015740811825,0.003817907767370343
1779964775979200300,9.3062001953125,0.010231993161141872,-0.020463986322283745,0.00427605677396059
1779964775995538200,9.3225380859375,0.004734205547720194,-0.01466076634824276,-0.014966198243200779
1779964776011863600,9.338863525390625,0.00809396430850029,0.030695978552103043,0.00855211354792118
1779964776028176600,9.3551767578125,0.0025961773935705423,0.03329215571284294,0.018020525574684143
1779964776044522200,9.371522216796874,-0.003359758760780096,0.02076941914856434,0.00427605677396059
1779964776060852700,9.387852783203124,-0.009162978269159794,0.03497203439474106,-0.0012217304902151227
1779964776077184000,9.40418408203125,-0.013744467869400978,0.024587325751781464,-0.010537425056099892
1779964776093495600,9.42049560546875,-0.007941247895359993,-0.003359758760780096,-0.014355333521962166
1779964776109819000,9.43681884765625,-0.004428773187100887,0.0003054326225537807,-0.003817907767370343
1779964776126163200,9.4531630859375,-0.00045814894838258624,-0.019089538604021072,-0.012828170321881771
1779964776142485500,9.469485595703125,0.007177666760981083,-0.01466076634824276,-0.004123340360820293
1779964776158817800,9.48581787109375,0.013133603148162365,-0.020463986322283745,-0.004123340360820293
1779964776175148300,9.502148193359375,0.025503624230623245,-0.02076941914856434,-0.005650503560900688
1779964776191477500,9.5184775390625,0.024587325751781464,-0.014813481830060482,-0.0074830991216003895
1779964776207804200,9.53480419921875,0.024129176512360573,-0.02519819140434265,-0.012217304669320583
1779964776232292600,9.559292724609374,0.01038470957428217,-0.07651086896657944,-0.038026362657547
1779964776248628500,9.57562841796875,0.02886338345706463,-0.0027488935738801956,-0.013591751456260681
1779964776264962000,9.591962158203126,0.019853120669722557,0.012675453908741474,0.002138028386980295
1779964776281288400,9.608288330078125,0.023365596309304237,0.01618792861700058,0.00733038317412138
1779964776297625300,9.624625244140624,0.02367102913558483,0.045204028487205505,0.013439035043120384
1779964776313951200,9.640951171875,0.03787364438176155,0.05360342562198639,0.009010262787342072
1779964776330285000,9.65728515625,0.05696318298578262,0.07620543986558914,0.008857546374201775
1779964776346628000,9.673628173828124,0.05253441259264946,0.08048149943351746,0.02321287989616394
1779964776362938000,9.689938232421875,0.06520986557006836,0.08994990587234497,0.020616702735424042
1779964776379284500,9.706284423828125,0.09422596544027328,0.1492038369178772,0.029168816283345222
1779964776395614000,9.722614013671874,0.11743884533643723,0.206777885556221,0.05314527451992035
1779964776411926300,9.73892626953125,0.20326541364192963,0.22403483092784882,0.056810468435287476
1779964776428257500,9.755257568359376,0.3119994103908539,0.2799290120601654,0.03726277872920036
1779964776444586200,9.771586181640625,0.3776674270629883,0.36193767189979553,-0.002138028386980295
1779964776460916500,9.78791650390625,0.25732699036598206,0.32498031854629517,-0.016035212203860283
1779964776477234700,9.804234619140624,0.05925392732024193,0.14614951610565186,0.009468411095440388
1779964776493567700,9.820567626953125,0.022907447069883347,-0.03634648025035858,0.0328340083360672
1779964776509896700,9.836896728515624,0.020311269909143448,-0.03176499158143997,0.03145955875515938
1779964776526228000,9.85322802734375,-0.0007635815418325365,-0.025656340643763542,0.031154127791523933
1779964776542557000,9.869556884765625,-0.006261368747800589,-0.02733621932566166,0.020463986322283745
1779964776558886100,9.88588623046875,-0.005345070734620094,-0.06536258012056351,0.01191187184303999
1779964776575215600,9.902215576171875,-0.014813481830060482,-0.08414668589830399,0.016340645030140877
1779964776591545600,9.918545654296874,-0.043676864355802536,-0.03191770985722542,0.03756821155548096
1779964776607889700,9.9348896484375,-0.10064005106687546,0.019394971430301666,0.06001751124858856
1779964776624218000,9.951218017578125,-0.22617286443710327,-0.08765916526317596,-0.04963280260562897
1779964776640546800,9.967546875,-0.16371189057826996,-0.42760565876960754,-0.11820242553949356
1779964776656868000,9.9838681640625,-0.2171625941991806,-0.5209153294563293,-0.15073099732398987
1779964776673203000,10.000202880859375,-0.08460483700037003,-0.11927144229412079,0.04688390716910362
1779964776689537800,10.016537841796875,0.017409659922122955,-0.032528575509786606,0.044745877385139465
1779964776705866200,10.0328662109375,-0.007788531947880983,0.052839845418930054,0.01542434748262167
1779964776722213400,10.04921337890625,-0.035582900047302246,0.05971207842230797,-0.020311269909143448
1779964776738517500,10.065517578125,-0.024129176512360573,0.07238753139972687,-0.01160643994808197
1779964776754856200,10.081856201171876,-0.00366519158706069,0.03878994286060333,0.022143865004181862
1779964776771185400,10.098185302734375,-0.0003054326225537807,0.009621127508580685,0.02672535367310047
1779964776787515600,10.114515625,-0.004886921960860491,-0.004123340360820293,-0.0029016099870204926
1779964776803827500,10.130827392578125,-0.007635815534740686,0.014355333521962166,-0.01664607785642147
1779964776820184600,10.1471845703125,-0.013133603148162365,0.018020525574684143,-0.015271631069481373
1779964776836495400,10.163495361328126,-0.009926560334861279,0.007177666760981083,-0.020922135561704636
1779964776852851200,10.179851318359376,-0.005192354787141085,0.0022907445672899485,-0.020616702735424042
1779964776869159000,10.196158935546874,0.003054326167330146,-0.0006108652451075613,-0.012522737495601177
1779964776885512200,10.21251220703125,0.00427605677396059,-0.004734205547720194,-0.00809396430850029
1779964776901841700,10.228841552734375,0.0039706239476799965,-0.015271631069481373,-0.013286318629980087
1779964776918157300,10.2451572265625,-0.0013744467869400978,-0.013133603148162365,-0.006719517521560192
1779964776934496300,10.261496337890625,-0.009926560334861279,-0.009621127508580685,-0.006261368747800589
1779964776950818000,10.277818115234375,-0.01191187184303999,-0.00855211354792118,-0.0039706239476799965
1779964776967161600,10.29416162109375,-0.006719517521560192,0.0010690141934901476,0.01237002108246088
1779964776983487500,10.310487548828124,-0.0025961773935705423,0.009621127508580685,0.025045474991202354
1779964776999814100,10.326814208984375,-0.01725694350898266,0.02886338345706463,0.06108652427792549
1779964777016147700,10.343147705078126,-0.0022907445672899485,0.0025961773935705423,-0.0064140851609408855
1779964777032469500,10.359469482421876,-0.007635815534740686,0.03634648025035858,-0.030543262138962746
1779964777048809500,10.3758095703125,-0.0007635815418325365,0.034666601568460464,0.004123340360820293
1779964777065137000,10.392136962890625,0.00809396430850029,0.022602014243602753,0.023976460099220276
1779964777081468200,10.40846826171875,0.0032070425804704428,0.012064588256180286,0.02733621932566166
1779964777097796400,10.42479638671875,0.00045814894838258624,0.01771509274840355,0.015118914656341076
1779964777114108700,10.441108642578126,-0.003359758760780096,0.024587325751781464,0.001527163083665073
1779964777130440000,10.45743994140625,-0.004123340360820293,0.019089538604021072,-0.004886921960860491
1779964777146771500,10.473771484375,-0.005345070734620094,0.013133603148162365,-0.005039638374000788
1779964777163101000,10.490100830078125,-0.001832595793530345,0.013439035043120384,0.003054326167330146
1779964777179431200,10.50643115234375,0.0010690141934901476,0.011453723534941673,0.007635815534740686
1779964777195749600,10.52274951171875,0.0029016099870204926,0.0025961773935705423,0.00931569468230009
1779964777212090400,10.53909033203125,-0.00015271631127689034,-0.001679879380390048,0.007024950347840786
1779964777228420900,10.5554208984375,-0.0012217304902151227,-0.006719517521560192,-0.00045814894838258624
1779964777244750000,10.57175,-0.0024434609804302454,-0.007635815534740686,-0.007635815534740686
1779964777261080000,10.588080078125,-0.002138028386980295,-0.005497787147760391,-0.004734205547720194
1779964777277410000,10.60441015625,0.0010690141934901476,-0.015882495790719986,-0.006872233934700489
1779964777293739300,10.6207392578125,0.0025961773935705423,-0.019394971430301666,-0.014355333521962166
1779964777310069200,10.6370693359375,0.006261368747800589,-0.02229658141732216,-0.010079276748001575
1779964777326397700,10.653397705078126,0.010995574295520782,-0.027641652151942253,-0.008704829961061478
1779964777342727200,10.66972705078125,0.013591751456260681,-0.030543262138962746,-0.00733038317412138
1779964777367224000,10.69422412109375,0.014508049935102463,-0.022449297830462456,0.0003054326225537807
1779964777383554800,10.710554931640624,0.009010262787342072,-0.022907447069883347,-0.003054326167330146
1779964777399883300,10.72688330078125,0.005955935921519995,-0.025656340643763542,-0.013439035043120384
1779964777416212700,10.743212646484375,0.00855211354792118,-0.02626720629632473,-0.01114829070866108
1779964777432524000,10.75952392578125,0.010231993161141872,-0.024892758578062057,-0.0003054326225537807
1779964777448858400,10.7758583984375,0.009162978269159794,-0.02687807008624077,0.0022907445672899485
1779964777465202200,10.7922021484375,0.005803219974040985,-0.020922135561704636,-0.001527163083665073
1779964777481522200,10.808522216796876,0.004428773187100887,-0.014508049935102463,-0.001679879380390048
1779964777497847300,10.824847412109374,0.006719517521560192,-0.011759156361222267,0.003054326167330146
1779964777514179300,10.841179443359374,0.010842857882380486,-0.01038470957428217,0.009926560334861279
1779964777530509800,10.857509765625,0.011759156361222267,-0.003817907767370343,0.01114829070866108
1779964777546839600,10.873839599609376,0.01160643994808197,0.004886921960860491,0.01237002108246088
1779964777563170300,10.89017041015625,0.00855211354792118,0.012217304669320583,0.01237002108246088
1779964777579500300,10.906500244140625,0.003054326167330146,0.02076941914856434,0.012980886735022068
1779964777595828200,10.922828125,-0.0032070425804704428,0.028405234217643738,0.008246680721640587
1779964777612158700,10.93915869140625,-0.00931569468230009,0.03176499158143997,0.0064140851609408855
1779964777628489200,10.9554892578125,-0.012217304669320583,0.02825251780450344,0.0024434609804302454
1779964777644819000,10.97181884765625,-0.01038470957428217,0.023060163483023643,0.0010690141934901476
1779964777661149000,10.98814892578125,-0.007024950347840786,0.01710422709584236,0.0027488935738801956
1779964777677478700,11.004478759765625,-0.0032070425804704428,0.014202617108821869,0.0003054326225537807
1779964777693808400,11.020808349609375,-0.001832595793530345,0.011301007121801376,-0.004123340360820293
1779964777710137600,11.0371376953125,-0.0024434609804302454,0.010995574295520782,-0.006719517521560192
1779964777726467300,11.05346728515625,-0.004581489134579897,0.007177666760981083,-0.009773843921720982
1779964777742796800,11.069796875,-0.0074830991216003895,-0.0006108652451075613,-0.010537425056099892
1779964777759127000,11.086126953125,-0.01114829070866108,-0.01114829070866108,-0.012064588256180286
1779964777775456500,11.10245654296875,-0.013744467869400978,-0.02382374368607998,-0.013744467869400978
1779964777791785200,11.11878515625,-0.015118914656341076,-0.035582900047302246,-0.01466076634824276
1779964777808118000,11.135117919921875,-0.017562376335263252,-0.044287730008363724,-0.014508049935102463
1779964777824457700,11.151457763671875,-0.017867809161543846,-0.05115996301174164,-0.013744467869400978
1779964777840788500,11.16778857421875,-0.01878410577774048,-0.054825156927108765,-0.015271631069481373
1779964777857117400,11.184117431640624,-0.016951510682702065,-0.059864792972803116,-0.014966198243200779
1779964777873447700,11.20044775390625,-0.01237002108246088,-0.06001751124858856,-0.013133603148162365
1779964777889775900,11.21677587890625,-0.0065668015740811825,-0.06123924255371094,-0.011453723534941673
1779964777906119700,11.23311962890625,-0.0022907445672899485,-0.058337632566690445,-0.009773843921720982
1779964777922437600,11.249437744140625,0.0027488935738801956,-0.05192354694008827,-0.005650503560900688
1779964777938780700,11.26578076171875,0.0074830991216003895,-0.04077525436878204,-0.005955935921519995
1779964777955110100,11.282110107421875,0.009162978269159794,-0.029626963660120964,-0.004581489134579897
1779964777971439400,11.298439453125,0.00855211354792118,-0.01618792861700058,-0.003512475173920393
1779964777987770000,11.31477001953125,0.008399397134780884,-0.005345070734620094,-0.004581489134579897
1779964778004076800,11.331076904296875,0.005803219974040985,0.007177666760981083,-0.00366519158706069
1779964778020434000,11.347433837890625,0.004428773187100887,0.015882495790719986,-0.0019853119738399982
1779964778036760300,11.36376025390625,0.0012217304902151227,0.02367102913558483,-0.0010690141934901476
1779964778053072600,11.38007275390625,-0.0027488935738801956,0.027488935738801956,0.0012217304902151227
1779964778069414100,11.3964140625,-0.004886921960860491,0.03130684420466423,0.0003054326225537807
1779964778085736400,11.412736328125,-0.006108652334660292,0.03145955875515938,0.0007635815418325365
1779964778102061800,11.429061767578125,-0.008857546374201775,0.031612277030944824,0.003054326167330146
1779964778118394400,11.445394287109375,-0.009773843921720982,0.031001411378383636,0.003817907767370343
1779964778134724400,11.461724365234375,-0.008246680721640587,0.028557950630784035,0.004886921960860491
1779964778151052500,11.478052490234376,-0.007941247895359993,0.023365596309304237,0.0039706239476799965
1779964778167383800,11.4943837890625,-0.005650503560900688,0.016951510682702065,0.004123340360820293
1779964778183712500,11.51071240234375,-0.004734205547720194,0.007635815534740686,0.003054326167330146
1779964778200061000,11.52706103515625,-0.005955935921519995,0.001527163083665073,0.0025961773935705423
1779964778216368600,11.54336865234375,-0.005497787147760391,0.00015271631127689034,-0.0003054326225537807
1779964778232704800,11.559704833984375,-0.004734205547720194,-0.0074830991216003895,-0.0039706239476799965
1779964778249014500,11.5760146484375,-0.0012217304902151227,-0.014813481830060482,-0.005192354787141085
1779964778265367300,11.5923671875,0.004428773187100887,-0.02122756652534008,-0.005650503560900688
1779964778281689600,11.608689697265625,0.009621127508580685,-0.02122756652534008,-0.007941247895359993
1779964778298026000,11.62502587890625,0.014966198243200779,-0.021532999351620674,-0.009010262787342072
1779964778314374700,11.641374755859376,0.019089538604021072,-0.02626720629632473,-0.009926560334861279
1779964778330695200,11.657695068359375,0.020311269909143448,-0.03084869496524334,-0.0064140851609408855
1779964778347008500,11.674008544921875,0.01725694350898266,-0.03405573591589928,-0.0039706239476799965
1779964778363356000,11.69035595703125,0.00931569468230009,-0.03634648025035858,-0.0074830991216003895
1779964778379687400,11.7066875,0.001832595793530345,-0.03298672288656235,-0.013286318629980087
1779964778396013000,11.723012939453126,-0.001679879380390048,-0.020463986322283745,-0.012064588256180286
1779964778412345000,11.739344970703126,0.00045814894838258624,-0.009621127508580685,-0.009162978269159794
1779964778428673300,11.75567333984375,0.004734205547720194,-0.001679879380390048,-0.005039638374000788
1779964778445004300,11.77200439453125,0.007788531947880983,0.0032070425804704428,-0.0039706239476799965
1779964778461334300,11.788334228515625,0.007024950347840786,0.00855211354792118,-0.0013744467869400978
1779964778477663700,11.804663818359375,0.005955935921519995,0.013439035043120384,0.003512475173920393
1779964778493994500,11.820994384765624,0.003817907767370343,0.01710422709584236,0.0074830991216003895
1779964778510319600,11.837319580078125,0.0003054326225537807,0.01970040425658226,0.01038470957428217
1779964778526632700,11.8536328125,-0.0024434609804302454,0.016798794269561768,0.007941247895359993
1779964778542976000,11.86997607421875,-0.0039706239476799965,0.012217304669320583,0.005345070734620094
1779964778559321300,11.8863212890625,-0.005955935921519995,0.010690141469240189,-0.0010690141934901476
1779964778575642600,11.902642578125,-0.005497787147760391,0.009773843921720982,-0.005192354787141085
1779964778591955200,11.918955078125,-0.004581489134579897,0.0064140851609408855,-0.00931569468230009
1779964778608288500,11.93528857421875,-0.0012217304902151227,0.003817907767370343,-0.007635815534740686
1779964778624618500,11.951618408203124,0.00366519158706069,-0.001832595793530345,-0.0074830991216003895
1779964778640947700,11.96794775390625,0.0065668015740811825,-0.008246680721640587,-0.005039638374000788
1779964778657276400,11.9842763671875,0.009162978269159794,-0.01237002108246088,-0.00366519158706069
1779964778673608200,12.000608154296875,0.00809396430850029,-0.012828170321881771,-0.0009162978967651725
1779964778689955000,12.016955078125,0.006261368747800589,-0.011759156361222267,0.001679879380390048
1779964778706264000,12.03326416015625,0.004428773187100887,-0.010690141469240189,0.00366519158706069
1779964778722596600,12.0495966796875,0.00045814894838258624,-0.007941247895359993,0.0039706239476799965
1779964778738927400,12.06592724609375,-0.0013744467869400978,-0.0064140851609408855,0.0010690141934901476
1779964778755256800,12.0822568359375,-0.005039638374000788,-0.00427605677396059,-0.0006108652451075613
1779964778771586300,12.09858642578125,-0.005192354787141085,-0.0039706239476799965,-0.0009162978967651725
1779964778787915300,12.114915283203125,-0.005345070734620094,-0.003817907767370343,-0.0022907445672899485
1779964778804249300,12.131249267578125,-0.005192354787141085,-0.0024434609804302454,-0.001679879380390048
1779964778820577000,12.147576904296875,-0.0039706239476799965,-0.001679879380390048,0.00045814894838258624
1779964778836916500,12.16391650390625,-0.0019853119738399982,-0.0003054326225537807,-0.0007635815418325365
1779964778853236000,12.180236083984376,-0.001832595793530345,0.003054326167330146,-0.0009162978967651725
1779964778869579300,12.196579345703125,-0.0010690141934901476,0.0039706239476799965,0.0010690141934901476
1779964778885892400,12.212892333984374,-0.001679879380390048,0.003817907767370343,0.0025961773935705423
1779964778902238000,12.229238037109376,-0.001527163083665073,0.003817907767370343,0.0012217304902151227
1779964778918563600,12.2455634765625,-0.0024434609804302454,0.003359758760780096,0.0027488935738801956
1779964778934899200,12.261899169921875,-0.0032070425804704428,0.0013744467869400978,0.003817907767370343
1779964778951228000,12.278227783203125,-0.005192354787141085,-0.00045814894838258624,0.0024434609804302454
1779964778967556900,12.294556884765624,-0.004581489134579897,0.00045814894838258624,0.0022907445672899485
1779964778983861800,12.31086181640625,-0.005497787147760391,-0.0013744467869400978,0.0009162978967651725
1779964779000191700,12.327191650390626,-0.005039638374000788,0.00045814894838258624,0.001679879380390048
1779964779016542200,12.343542236328124,-0.00427605677396059,-0.0006108652451075613,0.00045814894838258624
1779964779032881200,12.359881103515624,-0.003359758760780096,-0.001832595793530345,0.0012217304902151227
1779964779049200600,12.37620068359375,-0.0029016099870204926,-0.0027488935738801956,0.0009162978967651725
1779964779065541400,12.392541259765625,-0.001832595793530345,-0.0025961773935705423,0.002138028386980295
1779964779081849000,12.40884912109375,-0.002138028386980295,-0.004734205547720194,0.0027488935738801956
1779964779098182000,12.425181884765625,-0.0029016099870204926,-0.004886921960860491,0.0013744467869400978
1779964779114512100,12.44151220703125,-0.0029016099870204926,-0.00366519158706069,0.001832595793530345
1779964779130842400,12.45784228515625,-0.0029016099870204926,-0.003512475173920393,0.00045814894838258624
1779964779147168800,12.474168701171875,-0.0019853119738399982,-0.0019853119738399982,0.00015271631127689034
1779964779163504400,12.49050439453125,-0.0019853119738399982,-0.001832595793530345,0
1779964779179832600,12.50683251953125,-0.0029016099870204926,-0.0003054326225537807,-0.0003054326225537807
1779964779196171500,12.523171630859375,-0.0009162978967651725,0.0006108652451075613,0.0009162978967651725
1779964779212490000,12.539489990234374,0.00045814894838258624,0.0006108652451075613,0.0009162978967651725
1779964779228822300,12.555822265625,0.0029016099870204926,-0.0007635815418325365,0.0012217304902151227
1779964779245150500,12.572150390625,0.003054326167330146,0.0010690141934901476,0.0007635815418325365
1779964779261478700,12.588478759765625,0.0012217304902151227,0.0019853119738399982,0
1779964779277813500,12.6048134765625,-0.0003054326225537807,0.003054326167330146,0.00015271631127689034
1779964779294139600,12.6211396484375,-0.0027488935738801956,0.002138028386980295,0.0006108652451075613
1779964779310485500,12.637485595703126,-0.0029016099870204926,0.0013744467869400978,0.0012217304902151227
1779964779326815200,12.653815185546875,-0.003054326167330146,-0.00015271631127689034,0.0012217304902151227
1779964779343143400,12.670143310546875,-0.0025961773935705423,0.0012217304902151227,0.001679879380390048
1779964779359473000,12.686472900390624,-0.0032070425804704428,0.005039638374000788,0.001527163083665073
1779964779375796700,12.702796630859375,-0.0029016099870204926,0.00855211354792118,0.0013744467869400978
1779964779392137200,12.71913720703125,-0.0019853119738399982,0.009468411095440388,0.0007635815418325365
1779964779408462800,12.735462890625,-0.001527163083665073,0.010231993161141872,0.001527163083665073
1779964779424770000,12.75177001953125,0.00045814894838258624,0.00809396430850029,0.002138028386980295
1779964779441122800,12.768122802734375,0.001679879380390048,0.006719517521560192,0.0012217304902151227
1779964779457451800,12.78445166015625,0.002138028386980295,0.006719517521560192,0.0010690141934901476
1779964779473778700,12.80077880859375,0.0010690141934901476,0.005803219974040985,0.0006108652451075613
1779964779490110200,12.817110107421875,-0.00045814894838258624,0.00733038317412138,0.0003054326225537807
1779964779506444300,12.8334443359375,-0.0013744467869400978,0.0065668015740811825,-0.0006108652451075613
1779964779522771200,12.849771240234375,-0.00366519158706069,0.005955935921519995,-0.00045814894838258624
1779964779539101000,12.866100830078125,-0.0029016099870204926,0.00427605677396059,-0.00045814894838258624
1779964779555429600,12.8824296875,-0.0019853119738399982,0.001832595793530345,0.0007635815418325365
1779964779571743700,12.89874365234375,-0.0029016099870204926,-0.0012217304902151227,-0.0007635815418325365
1779964779588076300,12.915076171875,-0.002138028386980295,-0.003817907767370343,0
1779964779604406500,12.931406494140624,-0.0006108652451075613,-0.005650503560900688,0.0003054326225537807
1779964779620723700,12.9477236328125,0.0006108652451075613,-0.010079276748001575,-0.0009162978967651725
1779964779637050600,12.964050537109374,0.001679879380390048,-0.007635815534740686,-0.0012217304902151227
1779964779653385700,12.9803857421875,0.0025961773935705423,-0.009162978269159794,-0.001679879380390048
1779964779669744600,12.99674462890625,0.0019853119738399982,-0.009773843921720982,-0.0019853119738399982
1779964779686066700,13.013066650390625,0.00015271631127689034,-0.012828170321881771,0.0010690141934901476
1779964779702382300,13.02938232421875,-0.001527163083665073,-0.01038470957428217,0.004428773187100887
1779964779718714400,13.04571435546875,-0.0027488935738801956,-0.008704829961061478,0.00427605677396059
1779964779735040000,13.0620400390625,-0.0022907445672899485,-0.0024434609804302454,0.005803219974040985
1779964779751377400,13.07837744140625,-0.002138028386980295,0.003512475173920393,0.00427605677396059
1779964779767704000,13.0947041015625,-0.003359758760780096,0.004886921960860491,-0.0010690141934901476
1779964779784033800,13.11103369140625,-0.0032070425804704428,0.005345070734620094,-0.010995574295520782
1779964779800381400,13.12738134765625,-0.0006108652451075613,0.0022907445672899485,-0.010537425056099892
1779964779816692500,13.1436923828125,0.0003054326225537807,-0.001832595793530345,-0.008704829961061478
1779964779833020400,13.1600205078125,0.0010690141934901476,-0.005650503560900688,-0.0039706239476799965
1779964779849358800,13.17635888671875,-0.0003054326225537807,-0.0027488935738801956,0.001832595793530345
1779964779865701000,13.192701171875,-0.003054326167330146,-0.0012217304902151227,0.003817907767370343
1779964779882023700,13.209023681640625,-0.0064140851609408855,-0.001679879380390048,0.00931569468230009
1779964779898352000,13.22535205078125,-0.008857546374201775,-0.0003054326225537807,0.012064588256180286
1779964779914702800,13.241702880859375,-0.00809396430850029,0.0010690141934901476,0.010995574295520782
1779964779931016700,13.2580166015625,-0.003054326167330146,-0.00015271631127689034,0.008704829961061478
1779964779947316200,13.274316162109375,0.0009162978967651725,0.00015271631127689034,0.0019853119738399982
1779964779963660300,13.290660400390625,0.005039638374000788,-0.001832595793530345,-0.0024434609804302454
1779964779979976700,13.306976806640625,0.005192354787141085,-0.005497787147760391,-0.005039638374000788
1779964779996319000,13.323319091796876,0.0012217304902151227,-0.006872233934700489,-0.006719517521560192
1779964780012637400,13.339637451171875,-0.0022907445672899485,-0.00855211354792118,-0.009010262787342072
1779964780028968000,13.355968017578125,-0.004123340360820293,-0.00809396430850029,-0.005650503560900688
1779964780045302300,13.37230224609375,-0.0012217304902151227,-0.009773843921720982,-0.004886921960860491
1779964780061642500,13.388642578125,0.003512475173920393,-0.012828170321881771,-0.0025961773935705423
1779964780077970000,13.404969970703124,0.0065668015740811825,-0.013133603148162365,-0.0003054326225537807
1779964780094300200,13.421300048828124,0.009926560334861279,-0.01160643994808197,-0.001527163083665073
1779964780110630000,13.4376298828125,0.00931569468230009,-0.007635815534740686,-0.0010690141934901476
1779964780126958600,13.45395849609375,0.005192354787141085,-0.005039638374000788,-0.0010690141934901476
1779964780143289900,13.470289794921875,0.0029016099870204926,-0.004734205547720194,-0.0012217304902151227
1779964780159619800,13.486619873046875,0.0006108652451075613,-0.002138028386980295,0.00015271631127689034
1779964780175946200,13.5029462890625,-0.0019853119738399982,-0.0012217304902151227,0.0022907445672899485
1779964780192276000,13.51927587890625,-0.003817907767370343,-0.0012217304902151227,-0.00366519158706069
1779964780208594000,13.535593994140624,-0.003359758760780096,0.002138028386980295,-0.004123340360820293
1779964780224941800,13.55194189453125,-0.0003054326225537807,0.004734205547720194,0
1779964780241268500,13.5682685546875,0.001527163083665073,0.00427605677396059,0.0009162978967651725
1779964780257597000,13.584596923828125,0.0022907445672899485,0.004581489134579897,-0.0006108652451075613
1779964780273928000,13.600927978515625,0.0027488935738801956,0.00931569468230009,0.00015271631127689034
1779964780290274800,13.61727490234375,0.001679879380390048,0.007788531947880983,-0.002138028386980295
1779964780306602200,13.633602294921875,0,0.009162978269159794,-0.00015271631127689034
1779964780322931200,13.64993115234375,-0.0012217304902151227,0.007788531947880983,-0.00015271631127689034
1779964780339261200,13.66626123046875,-0.0019853119738399982,0.005345070734620094,-0.001527163083665073
1779964780355590400,13.68259033203125,-0.0022907445672899485,0.0032070425804704428,0.0003054326225537807
1779964780371918300,13.69891845703125,-0.001832595793530345,0,0.0012217304902151227
1779964780388251100,13.715251220703125,-0.0010690141934901476,-0.0007635815418325365,0.0019853119738399982
1779964780404567800,13.73156787109375,0.0003054326225537807,-0.001832595793530345,-0.0003054326225537807
1779964780420909800,13.747909912109375,0.001679879380390048,-0.0027488935738801956,0.001527163083665073
1779964780437239800,13.76423974609375,0.0029016099870204926,-0.0039706239476799965,-0.00015271631127689034
1779964780453565700,13.780565673828125,0.0032070425804704428,-0.004581489134579897,-0.0012217304902151227
1779964780469899300,13.796899169921875,0.003054326167330146,-0.005039638374000788,-0.001679879380390048
1779964780486231600,13.8132314453125,0.0025961773935705423,-0.007024950347840786,-0.0027488935738801956
1779964780502556700,13.829556640625,0.00045814894838258624,-0.00733038317412138,-0.00366519158706069
1779964780518886700,13.84588671875,0.0007635815418325365,-0.005803219974040985,-0.0027488935738801956
1779964780535218700,13.86221875,0.0010690141934901476,-0.004886921960860491,-0.003512475173920393
1779964780551531000,13.878531005859376,0.0022907445672899485,-0.004581489134579897,-0.001832595793530345
1779964780567864600,13.894864501953125,0.003054326167330146,-0.0010690141934901476,-0.0024434609804302454
1779964780584194600,13.911194580078124,0.0039706239476799965,-0.0022907445672899485,-0.0027488935738801956
1779964780600523800,13.927523681640626,0.005345070734620094,-0.00045814894838258624,0.0012217304902151227
1779964780616840400,13.94384033203125,0.005497787147760391,0.001832595793530345,-0.00015271631127689034
1779964780633174000,13.960174072265625,0.004123340360820293,0.0027488935738801956,0.0007635815418325365
1779964780649513500,13.976513427734375,0.00366519158706069,0.004123340360820293,-0.00015271631127689034
1779964780665841200,13.992841064453126,0.002138028386980295,0.0029016099870204926,0.0007635815418325365
1779964780682169600,14.009169677734375,0.0012217304902151227,0.0032070425804704428,-0.002138028386980295
1779964780698502700,14.025502685546876,0.0009162978967651725,0.0039706239476799965,-0.0013744467869400978
1779964780714832400,14.041832275390625,0.0007635815418325365,0.006108652334660292,-0.0027488935738801956
1779964780731161900,14.058161865234375,0.0009162978967651725,0.004581489134579897,-0.003054326167330146
1779964780747478300,14.074478271484375,0.0025961773935705423,0.0022907445672899485,-0.003359758760780096
1779964780763821600,14.090821533203124,0.0032070425804704428,0.0009162978967651725,-0.003054326167330146
1779964780780156000,14.107156005859375,0.003054326167330146,-0.00015271631127689034,-0.002138028386980295
1779964780796492800,14.123492919921874,0.0032070425804704428,-0.0003054326225537807,0.0007635815418325365
1779964780812808200,14.13980810546875,0.0019853119738399982,-0.0009162978967651725,0.0032070425804704428
1779964780829152800,14.15615283203125,-0.0003054326225537807,-0.004123340360820293,-0.001679879380390048
1779964780845484500,14.172484619140626,0.002138028386980295,-0.0039706239476799965,-0.00366519158706069
1779964780861815300,14.188815185546876,0.004886921960860491,-0.0039706239476799965,-0.0007635815418325365
1779964780878129400,14.20512939453125,0.007635815534740686,-0.006108652334660292,0.0009162978967651725
1779964780894456800,14.221456787109375,0.0064140851609408855,-0.004428773187100887,-0.002138028386980295
1779964780910806800,14.237806884765625,0.003359758760780096,0.0003054326225537807,-0.0025961773935705423
1779964780927133400,14.254133544921874,-0.00015271631127689034,0.0025961773935705423,-0.0027488935738801956
1779964780943459000,14.270458984375,-0.0009162978967651725,0.0029016099870204926,-0.001832595793530345
1779964780959796700,14.286796630859374,-0.0007635815418325365,0.0007635815418325365,0
1779964780976110800,14.30311083984375,0.0006108652451075613,0.0013744467869400978,0.0013744467869400978
1779964780992456000,14.3194560546875,0.0010690141934901476,0.00015271631127689034,0.0006108652451075613
1779964781008779300,14.335779296875,0.001832595793530345,0.0012217304902151227,0
1779964781025116000,14.352115966796875,0.0012217304902151227,0.003817907767370343,-0.0013744467869400978
1779964781041425700,14.36842578125,0.0007635815418325365,0.006261368747800589,-0.0013744467869400978
1779964781057757700,14.3847578125,0.001832595793530345,0.005192354787141085,-0.0022907445672899485
1779964781074075400,14.401075439453125,0.0029016099870204926,0.0022907445672899485,0.00015271631127689034
1779964781090416600,14.417416748046875,0.004123340360820293,0.0009162978967651725,-0.001679879380390048
1779964781106742500,14.433742431640624,0.003359758760780096,-0.001679879380390048,-0.0010690141934901476
1779964781123082200,14.450082275390624,0.00427605677396059,0.0009162978967651725,0.0019853119738399982
1779964781139424500,14.466424560546875,0.0032070425804704428,0.004581489134579897,0.0013744467869400978
1779964781155751000,14.4827509765625,0.001832595793530345,0.0013744467869400978,-0.0019853119738399982
1779964781172074800,14.49907470703125,0.001527163083665073,0.0013744467869400978,-0.004886921960860491
1779964781188399000,14.515399169921874,0.0025961773935705423,-0.0009162978967651725,-0.003054326167330146
1779964781204726300,14.531726318359375,0.0039706239476799965,-0.001832595793530345,-0.0003054326225537807
1779964781221055000,14.548054931640625,0.0032070425804704428,-0.0013744467869400978,-0.0019853119738399982
1779964781237386500,14.564386474609375,0.0039706239476799965,0.001527163083665073,-0.001679879380390048
1779964781253715200,14.580715087890624,0.003054326167330146,0.001832595793530345,-0.00015271631127689034
1779964781270045400,14.59704541015625,0.0019853119738399982,-0.0012217304902151227,-0.00015271631127689034
1779964781286392800,14.613392822265626,0.001832595793530345,-0.0013744467869400978,-0.0024434609804302454
1779964781302719200,14.62971923828125,0.001527163083665073,-0.0025961773935705423,-0.0027488935738801956
1779964781319049200,14.64604931640625,0.0025961773935705423,-0.0032070425804704428,-0.0022907445672899485
1779964781335378000,14.6623779296875,0.003054326167330146,-0.003512475173920393,-0.0019853119738399982
1779964781351705600,14.67870556640625,0.003817907767370343,-0.003359758760780096,-0.001679879380390048
1779964781368035000,14.69503515625,0.0032070425804704428,-0.001527163083665073,-0.001679879380390048
1779964781384371200,14.71137109375,0.0027488935738801956,0,-0.002138028386980295
1779964781400697900,14.72769775390625,0.0024434609804302454,0,-0.0019853119738399982
1779964781417028000,14.744028076171874,0.0027488935738801956,0.0019853119738399982,-0.001527163083665073
1779964781433336300,14.76033642578125,0.0032070425804704428,0.0019853119738399982,-0.0012217304902151227
1779964781449674200,14.77667431640625,0.002138028386980295,0.00045814894838258624,-0.0019853119738399982
1779964781466015700,14.793015625,0.003054326167330146,0.0003054326225537807,-0.0019853119738399982
1779964781482346500,14.809346435546875,0.0022907445672899485,-0.0006108652451075613,-0.0006108652451075613
1779964781498675500,14.825675537109374,0.003054326167330146,0.0006108652451075613,-0.0013744467869400978
1779964781515005700,14.842005615234376,0.0022907445672899485,0.0012217304902151227,-0.0013744467869400978
1779964781531318500,14.858318603515626,0.001527163083665073,0.0003054326225537807,-0.0022907445672899485
1779964781547656400,14.874656494140625,0.0010690141934901476,-0.0006108652451075613,-0.0019853119738399982
1779964781563982000,14.890982177734376,0,-0.0007635815418325365,-0.0006108652451075613
1779964781580311000,14.90731103515625,0.0003054326225537807,0,0.0024434609804302454
1779964781596641500,14.9236416015625,-0.0022907445672899485,0.0003054326225537807,0.0032070425804704428
1779964781612959000,14.939958984375,-0.005192354787141085,-0.002138028386980295,0.0003054326225537807
1779964781629313800,14.956313720703125,-0.0065668015740811825,-0.003054326167330146,-0.0019853119738399982
1779964781645634300,14.97263427734375,-0.0039706239476799965,-0.003359758760780096,0.0003054326225537807
1779964781661978600,14.988978515625,-0.0007635815418325365,-0.00366519158706069,0.003359758760780096
1779964781678286800,15.005286865234375,0.0010690141934901476,-0.004428773187100887,0.0007635815418325365
1779964781694620700,15.02162060546875,-0.0003054326225537807,-0.0007635815418325365,0
1779964781710936300,15.037936279296876,-0.004734205547720194,0.0029016099870204926,0.00045814894838258624
1779964781727278600,15.054278564453124,-0.006872233934700489,0.0029016099870204926,0.0006108652451075613
1779964781743609300,15.070609375,-0.0065668015740811825,0.002138028386980295,0.0029016099870204926
1779964781759939600,15.086939697265626,-0.0065668015740811825,0.0012217304902151227,0.0025961773935705423
1779964781776265200,15.10326513671875,-0.004734205547720194,0.00045814894838258624,0.0027488935738801956
1779964781792608300,15.119608154296875,-0.003512475173920393,-0.0010690141934901476,0.0024434609804302454
1779964781808925200,15.13592529296875,-0.0022907445672899485,0.003054326167330146,0.0012217304902151227
1779964781825277000,15.15227685546875,-0.0029016099870204926,0.006719517521560192,0.00045814894838258624
1779964781841598200,15.16859814453125,-0.0024434609804302454,0.005803219974040985,0.001527163083665073
1779964781857933300,15.184933349609375,-0.0024434609804302454,0.004123340360820293,0.0010690141934901476
1779964781874257000,15.2012568359375,-0.001832595793530345,0.0006108652451075613,0.0003054326225537807
1779964781890592000,15.217592041015624,-0.0025961773935705423,-0.0019853119738399982,-0.0009162978967651725
1779964781906915800,15.233915771484375,-0.003512475173920393,-0.004428773187100887,-0.0010690141934901476
1779964781923252500,15.25025244140625,-0.003359758760780096,-0.00427605677396059,0.00045814894838258624
1779964781939585300,15.266585205078124,-0.004123340360820293,-0.003512475173920393,0.002138028386980295
1779964781955910100,15.28291015625,-0.003359758760780096,-0.0013744467869400978,0.0027488935738801956
1779964781972223500,15.299223388671875,-0.0029016099870204926,-0.00015271631127689034,0.0027488935738801956
1779964781988568300,15.315568359375,-0.0019853119738399982,-0.00015271631127689034,0.0027488935738801956
1779964782004892700,15.331892578125,-0.001679879380390048,0.0010690141934901476,0.0006108652451075613
1779964782021220900,15.348220947265625,-0.0013744467869400978,0.0012217304902151227,0.0007635815418325365
1779964782037545700,15.364545654296874,-0.0006108652451075613,0.0006108652451075613,0.0007635815418325365
1779964782053875700,15.380875732421876,-0.0012217304902151227,0.0006108652451075613,0.00045814894838258624
1779964782070205200,15.397205078125,-0.0009162978967651725,-0.00015271631127689034,0.0013744467869400978
1779964782086535700,15.41353564453125,-0.002138028386980295,-0.002138028386980295,-0.0003054326225537807
1779964782102865000,15.429864990234375,-0.001527163083665073,-0.0024434609804302454,0
1779964782119209500,15.44620947265625,-0.0029016099870204926,-0.0022907445672899485,-0.00045814894838258624
1779964782135533800,15.462533935546874,-0.0032070425804704428,-0.0013744467869400978,-0.00045814894838258624
1779964782151873000,15.478873046875,-0.0029016099870204926,-0.0013744467869400978,0.0010690141934901476
1779964782168180700,15.4951806640625,-0.00366519158706069,0.0003054326225537807,0.0010690141934901476
1779964782184514000,15.51151416015625,-0.0029016099870204926,0.00015271631127689034,0.0013744467869400978
1779964782200843300,15.52784326171875,-0.001832595793530345,0.002138028386980295,0.001679879380390048
1779964782217174000,15.544174072265625,-0.0006108652451075613,-0.00015271631127689034,0.0027488935738801956
1779964782233503200,15.560503173828126,0.0006108652451075613,0.0019853119738399982,0.003359758760780096
1779964782249831700,15.576831787109375,0.00045814894838258624,0.0029016099870204926,0.0039706239476799965
1779964782266166300,15.593166259765624,-0.0024434609804302454,0.0007635815418325365,0.0013744467869400978
1779964782282507000,15.609507080078124,-0.002138028386980295,-0.0027488935738801956,-0.003817907767370343
1779964782298835700,15.625835693359376,-0.0025961773935705423,-0.0027488935738801956,-0.001679879380390048
1779964782315164700,15.64216455078125,-0.0024434609804302454,-0.004581489134579897,0.0003054326225537807
1779964782331495400,15.658495361328125,-0.001679879380390048,-0.00366519158706069,-0.00045814894838258624
1779964782347826000,15.674825927734375,-0.001679879380390048,-0.0024434609804302454,-0.00015271631127689034
1779964782364139300,15.69113916015625,-0.0013744467869400978,-0.0006108652451075613,-0.0003054326225537807
1779964782380485400,15.7074853515625,-0.0006108652451075613,-0.0010690141934901476,0.0003054326225537807
1779964782396812300,15.723812255859375,-0.0006108652451075613,-0.0027488935738801956,0.00045814894838258624
1779964782413148200,15.740148193359374,-0.0009162978967651725,-0.002138028386980295,0.0007635815418325365
1779964782429477400,15.756477294921876,-0.001679879380390048,-0.003359758760780096,0.0007635815418325365
1779964782445798700,15.772798583984375,-0.0027488935738801956,-0.00366519158706069,0.0007635815418325365
1779964782462117000,15.7891171875,-0.0022907445672899485,-0.001527163083665073,0.0019853119738399982
1779964782478464500,15.805464599609374,0.00015271631127689034,-0.0010690141934901476,0.0013744467869400978
1779964782494793500,15.82179345703125,0.0025961773935705423,0,0.0010690141934901476
1779964782511106600,15.8381064453125,-0.00015271631127689034,0.0013744467869400978,0.0006108652451075613
1779964782527439000,15.854439208984376,0,0.003512475173920393,-0.0010690141934901476
1779964782543769300,15.870769287109376,-0.001527163083665073,0.003359758760780096,-0.001679879380390048
1779964782560080000,15.887079833984375,-0.001679879380390048,0.0003054326225537807,-0.0007635815418325365
1779964782576441000,15.903441162109376,-0.0024434609804302454,-0.0003054326225537807,0.0006108652451075613
1779964782592759000,15.919759033203125,-0.002138028386980295,-0.0010690141934901476,0.003359758760780096
1779964782609098200,15.93609814453125,-0.0027488935738801956,0.00045814894838258624,0.001679879380390048
1779964782625405700,15.95240576171875,-0.0027488935738801956,0.0019853119738399982,-0.0003054326225537807
1779964782641762600,15.968762451171875,-0.002138028386980295,0.0032070425804704428,0.0003054326225537807
1779964782658088200,15.985088134765626,-0.0019853119738399982,0.003054326167330146,-0.00045814894838258624
1779964782674408200,16.001408203125,0.0006108652451075613,0.0010690141934901476,-0.0006108652451075613
1779964782690736000,16.017736083984374,0.0012217304902151227,-0.003512475173920393,-0.00015271631127689034
1779964782707067100,16.034067138671876,0.0019853119738399982,-0.006108652334660292,-0.0006108652451075613
1779964782723396900,16.05039697265625,0.001679879380390048,-0.007941247895359993,-0.0003054326225537807
1779964782739726800,16.066726806640624,-0.00015271631127689034,-0.00427605677396059,-0.00015271631127689034
1779964782756040700,16.083040771484374,-0.001679879380390048,-0.00366519158706069,0.0006108652451075613
1779964782772406300,16.09940625,-0.001832595793530345,0.00015271631127689034,0.0003054326225537807
1779964782788712400,16.11571240234375,-0.001679879380390048,0.0027488935738801956,0.003512475173920393
1779964782805043200,16.132043212890625,-0.0019853119738399982,0.005039638374000788,0.003817907767370343
1779964782821373400,16.14837353515625,-0.001832595793530345,0.0029016099870204926,-0.0010690141934901476
1779964782837702400,16.164702392578125,-0.0003054326225537807,0.003054326167330146,-0.0024434609804302454
1779964782854029300,16.181029296875,0.0006108652451075613,-0.00045814894838258624,-0.00015271631127689034
1779964782870354000,16.19735400390625,0.0022907445672899485,-0.001679879380390048,0.00045814894838258624
1779964782886692900,16.21369287109375,0.001527163083665073,-0.0025961773935705423,0.0006108652451075613
1779964782903025200,16.230025146484376,0.00015271631127689034,0.0009162978967651725,0.00015271631127689034
1779964782919351600,16.2463515625,-0.0010690141934901476,-0.00015271631127689034,0.0003054326225537807
1779964782935687700,16.262687744140624,-0.0024434609804302454,-0.001679879380390048,0.0009162978967651725
1779964782952014000,16.27901416015625,-0.0019853119738399982,-0.0012217304902151227,0.0006108652451075613
1779964782968347400,16.295347412109376,-0.002138028386980295,0,0
1779964782984683000,16.31168310546875,-0.0019853119738399982,-0.0006108652451075613,-0.0003054326225537807
1779964783001004500,16.328004638671874,-0.0007635815418325365,-0.003054326167330146,-0.00015271631127689034
1779964783017333200,16.344333251953124,0.00045814894838258624,-0.001679879380390048,0.001832595793530345
1779964783033663000,16.3606630859375,0.0013744467869400978,-0.0013744467869400978,0.0019853119738399982
1779964783049993000,16.376992919921875,0.001527163083665073,-0.0010690141934901476,0.0006108652451075613
1779964783066319600,16.393319580078124,0.0010690141934901476,-0.0010690141934901476,0.0007635815418325365
1779964783082658300,16.409658203125,0.001527163083665073,-0.0013744467869400978,-0.0007635815418325365
1779964783098988000,16.425988037109374,0.00045814894838258624,-0.00045814894838258624,-0.0007635815418325365
1779964783115326000,16.442325927734377,0,-0.00045814894838258624,-0.0006108652451075613
1779964783131656200,16.45865625,-0.00045814894838258624,0.0013744467869400978,-0.00045814894838258624
1779964783147984600,16.474984619140624,0.0003054326225537807,0.0010690141934901476,0.00045814894838258624
1779964783164297700,16.491297607421874,-0.00045814894838258624,0.0019853119738399982,-0.001679879380390048
1779964783180631300,16.50763134765625,-0.00045814894838258624,0.0024434609804302454,-0.0007635815418325365
1779964783196961300,16.523961181640626,0.0003054326225537807,0.0006108652451075613,0.0003054326225537807
1779964783213277200,16.540277099609376,-0.00045814894838258624,-0.00015271631127689034,-0.0007635815418325365
1779964783229620700,16.556620849609374,0.00045814894838258624,-0.0022907445672899485,0.0003054326225537807
1779964783245950200,16.5729501953125,-0.00045814894838258624,-0.0025961773935705423,-0.00015271631127689034
1779964783262312200,16.589312255859376,0.0006108652451075613,-0.003817907767370343,0.00015271631127689034
1779964783278624300,16.605624267578126,-0.0003054326225537807,-0.004581489134579897,0.00015271631127689034
1779964783294953200,16.621953125,-0.0012217304902151227,-0.004734205547720194,0.0012217304902151227
1779964783311283500,16.638283447265625,-0.001527163083665073,-0.004581489134579897,-0.00015271631127689034
1779964783327610600,16.654610595703126,-0.0013744467869400978,-0.0024434609804302454,0.0006108652451075613
1779964783343942000,16.67094189453125,0.00045814894838258624,-0.00015271631127689034,0.00045814894838258624
1779964783360256800,16.6872568359375,0.00366519158706069,0.0012217304902151227,0.0003054326225537807
1779964783376603100,16.70360302734375,0.0032070425804704428,0.0029016099870204926,-0.00015271631127689034
1779964783392931800,16.719931884765625,0.0032070425804704428,0.004428773187100887,-0.0003054326225537807
1779964783409258200,16.73625830078125,0.0012217304902151227,0.003817907767370343,-0.0009162978967651725
1779964783425579300,16.752579345703126,-0.0003054326225537807,0.004734205547720194,-0.0006108652451075613
1779964783441921000,16.768921142578126,-0.0007635815418325365,0.003359758760780096,-0.00015271631127689034
1779964783458239500,16.785239501953125,-0.00366519158706069,0.0010690141934901476,0.002138028386980295
1779964783474581800,16.801581787109374,-0.0024434609804302454,0.0009162978967651725,0.00045814894838258624
1779964783490893800,16.817893798828123,-0.003054326167330146,0.0027488935738801956,-0.0009162978967651725
1779964783507205400,16.834205322265625,-0.0029016099870204926,0.00427605677396059,-0.00045814894838258624
1779964783523552300,16.85055224609375,-0.0010690141934901476,0.0019853119738399982,-0.0006108652451075613
1779964783539886600,16.866886474609377,0.0006108652451075613,0.0006108652451075613,-0.00045814894838258624
1779964783556216000,16.883216064453126,0.0029016099870204926,-0.0029016099870204926,0.0003054326225537807
1779964783572546300,16.89954638671875,0.0039706239476799965,-0.005039638374000788,-0.0007635815418325365
1779964783588903700,16.915903564453124,0.0032070425804704428,-0.005192354787141085,0.0012217304902151227
1779964783605213200,16.932213134765625,0.00045814894838258624,-0.0032070425804704428,0.00015271631127689034
1779964783621548800,16.948548828125,-0.001679879380390048,-0.0006108652451075613,-0.0007635815418325365
1779964783637879000,16.964879150390626,-0.00366519158706069,0.0012217304902151227,-0.0009162978967651725
1779964783654188800,16.981188720703123,-0.0029016099870204926,0.0007635815418325365,0.0009162978967651725
1779964783670527500,16.997527587890627,-0.0025961773935705423,0.0029016099870204926,-0.0003054326225537807
1779964783686841300,17.01384130859375,-0.0003054326225537807,0.003817907767370343,-0.0009162978967651725
1779964783703184400,17.030184326171874,0.0003054326225537807,0.00366519158706069,-0.0009162978967651725
1779964783719513300,17.046513427734375,0.0013744467869400978,0.003512475173920393,-0.001679879380390048
1779964783735827700,17.06282763671875,0.0019853119738399982,0.0029016099870204926,-0.0007635815418325365
1779964783752177200,17.07917724609375,0.0019853119738399982,0.00045814894838258624,0.001527163083665073
1779964783768503300,17.09550341796875,0.0012217304902151227,-0.001832595793530345,-0.00015271631127689034
1779964783784833300,17.111833251953126,-0.00045814894838258624,-0.0022907445672899485,-0.0003054326225537807
1779964783801163000,17.1281630859375,-0.00045814894838258624,-0.003359758760780096,-0.00015271631127689034
1779964783817490400,17.144490478515625,-0.0009162978967651725,-0.003359758760780096,0.0013744467869400978
1779964783833825000,17.160824951171875,-0.0013744467869400978,-0.003054326167330146,0.0010690141934901476
1779964783850168000,17.17716796875,-0.0007635815418325365,-0.0025961773935705423,0.0003054326225537807
1779964783866494500,17.193494384765625,-0.0009162978967651725,-0.0032070425804704428,-0.001527163083665073
1779964783882825500,17.209825439453127,0.0013744467869400978,-0.0022907445672899485,0.00015271631127689034
1779964783899152400,17.22615234375,0.0010690141934901476,-0.0012217304902151227,0
1779964783915488500,17.242488525390623,0.001832595793530345,-0.001527163083665073,0.0003054326225537807
1779964783931815000,17.25881494140625,0.0019853119738399982,-0.0010690141934901476,-0.0012217304902151227
1779964783948145200,17.275145263671874,0.001527163083665073,0.0013744467869400978,-0.0012217304902151227
1779964783964482800,17.29148291015625,0.0007635815418325365,0,-0.0010690141934901476
1779964783980785200,17.30778515625,0.0007635815418325365,0.001679879380390048,-0.0007635815418325365
1779964783997123300,17.324123291015624,-0.0003054326225537807,0.003359758760780096,-0.0009162978967651725
1779964784013450500,17.340450439453125,-0.00045814894838258624,0.003512475173920393,-0.0007635815418325365
1779964784029780200,17.3567802734375,-0.0003054326225537807,0.0039706239476799965,-0.0007635815418325365
1779964784046110200,17.373110107421876,-0.0003054326225537807,0.001679879380390048,-0.001832595793530345
1779964784062439700,17.389439697265626,-0.00015271631127689034,0.001527163083665073,-0.001527163083665073
1779964784078786600,17.40578662109375,0.0003054326225537807,-0.0009162978967651725,-0.0025961773935705423
1779964784095113000,17.422113037109376,0.0010690141934901476,-0.0022907445672899485,-0.001527163083665073
1779964784111443200,17.438443115234374,0.001527163083665073,-0.0025961773935705423,-0.00045814894838258624
1779964784127772700,17.454772705078124,0.001679879380390048,-0.005039638374000788,-0.0010690141934901476
1779964784144085000,17.4710849609375,0.002138028386980295,-0.005497787147760391,-0.00045814894838258624
1779964784160418000,17.48741796875,0.0022907445672899485,-0.004886921960860491,-0.00015271631127689034
1779964784176748500,17.50374853515625,0.0010690141934901476,-0.005955935921519995,-0.0006108652451075613
1779964784193077500,17.520077392578123,-0.0003054326225537807,-0.003817907767370343,0
1779964784209394700,17.536394775390626,0.00045814894838258624,-0.00015271631127689034,-0.00015271631127689034
1779964784225737200,17.5527373046875,0.0024434609804302454,0.002138028386980295,0.0013744467869400978
1779964784242071300,17.5690712890625,0.005039638374000788,0.003054326167330146,-0.00015271631127689034
1779964784258395600,17.585395751953126,0.005497787147760391,0.0032070425804704428,-0.0006108652451075613
1779964784274741200,17.6017412109375,0.002138028386980295,0.005345070734620094,-0.0029016099870204926
1779964784291068200,17.618068115234376,0.00015271631127689034,0.005345070734620094,-0.002138028386980295
1779964784307396900,17.63439697265625,-0.0013744467869400978,0.0029016099870204926,-0.0013744467869400978
1779964784323733500,17.6507333984375,-0.0029016099870204926,0.0007635815418325365,-0.0007635815418325365
1779964784340059400,17.667059326171874,-0.001832595793530345,-0.0012217304902151227,0.0024434609804302454
1779964784356368400,17.683368408203126,-0.001679879380390048,-0.0010690141934901476,0.001832595793530345
1779964784372720400,17.699720458984373,-0.0012217304902151227,0,-0.00045814894838258624
1779964784389048300,17.71604833984375,0.00015271631127689034,0.0025961773935705423,0.0003054326225537807
1779964784405378300,17.73237841796875,0.0013744467869400978,0.003817907767370343,-0.0010690141934901476
1779964784421694500,17.748694580078126,0.003817907767370343,0.003359758760780096,0.0003054326225537807
1779964784438022400,17.7650224609375,0.005345070734620094,-0.0006108652451075613,0
1779964784454364400,17.781364501953124,0.005497787147760391,-0.0013744467869400978,-0.0010690141934901476
1779964784470685200,17.797685302734376,0.00366519158706069,-0.003512475173920393,-0.0007635815418325365
1779964784487012000,17.81401220703125,0.0013744467869400978,-0.002138028386980295,-0.001832595793530345
1779964784503344000,17.83034423828125,-0.0006108652451075613,0.0012217304902151227,-0.0013744467869400978
1779964784519660300,17.846660400390626,-0.001679879380390048,0.003359758760780096,-0.001832595793530345
1779964784535983000,17.862983154296874,-0.0025961773935705423,0.0025961773935705423,-0.0006108652451075613
1779964784552334000,17.879333984375,-0.001832595793530345,0.003054326167330146,0.0006108652451075613
1779964784568679700,17.8956796875,-0.00015271631127689034,0.0025961773935705423,-0.00045814894838258624
1779964784584989200,17.9119892578125,-0.00045814894838258624,0.0012217304902151227,0
1779964784601340200,17.928340087890625,-0.0003054326225537807,0.0013744467869400978,0.00045814894838258624
1779964784617665300,17.944665283203125,-0.00015271631127689034,0.00015271631127689034,0.001832595793530345
1779964784633995500,17.96099560546875,-0.00045814894838258624,-0.002138028386980295,0.001527163083665073
1779964784650306600,17.977306640625,-0.0006108652451075613,-0.003054326167330146,0.001527163083665073
1779964784666644500,17.99364453125,-0.0009162978967651725,-0.0022907445672899485,0.0012217304902151227
1779964784682960000,18.0099599609375,-0.001832595793530345,-0.0012217304902151227,0.001832595793530345
1779964784699301600,18.026301513671875,-0.003054326167330146,-0.002138028386980295,-0.003054326167330146
1779964784715627800,18.042627685546876,-0.0022907445672899485,-0.0027488935738801956,-0.0032070425804704428
1779964784731964200,18.058964111328127,0.00045814894838258624,-0.00366519158706069,-0.0009162978967651725
1779964784748308500,18.07530859375,0.001832595793530345,-0.0039706239476799965,0.0022907445672899485
1779964784764634600,18.091634521484377,0.001527163083665073,-0.0027488935738801956,-0.0003054326225537807
1779964784780963600,18.107963623046874,0.001832595793530345,0,0.00015271631127689034
1779964784797290000,18.1242900390625,0.001527163083665073,0.0022907445672899485,0.002138028386980295
1779964784813625000,18.140625,0.001527163083665073,0.002138028386980295,0.0012217304902151227
1779964784829954800,18.156954833984376,0,0.001832595793530345,-0.00015271631127689034
1779964784846283000,18.173282958984377,-0.0006108652451075613,0.0027488935738801956,-0.0010690141934901476
1779964784862612700,18.18961279296875,-0.00045814894838258624,0.002138028386980295,-0.0013744467869400978
1779964784878939000,18.20593896484375,-0.001679879380390048,-0.0009162978967651725,0.0003054326225537807
1779964784895277600,18.222277587890623,-0.0024434609804302454,-0.0009162978967651725,0.0013744467869400978
1779964784911593500,18.238593505859374,-0.003054326167330146,-0.00045814894838258624,-0.0013744467869400978
1779964784927939000,18.25493896484375,-0.0019853119738399982,0.00015271631127689034,-0.0006108652451075613
1779964784944258600,18.271258544921874,-0.0025961773935705423,-0.0019853119738399982,0
1779964784960579300,18.287579345703126,-0.002138028386980295,-0.0027488935738801956,0.0012217304902151227
1779964784976907300,18.3039072265625,-0.0009162978967651725,-0.003512475173920393,0.0007635815418325365
1779964784993225000,18.320224853515626,0.0003054326225537807,-0.004734205547720194,0.00045814894838258624
1779964785009567700,18.336567626953126,0.0010690141934901476,-0.004886921960860491,0.0003054326225537807
1779964785025897000,18.35289697265625,0.0003054326225537807,-0.004734205547720194,-0.00015271631127689034
1779964785042233900,18.36923388671875,-0.0007635815418325365,-0.003817907767370343,-0.0006108652451075613
1779964785058539000,18.3855390625,-0.0009162978967651725,-0.0029016099870204926,0.00015271631127689034
1779964785074900700,18.401900634765624,0.0007635815418325365,0.001679879380390048,0.0010690141934901476
1779964785091230200,18.418230224609374,0.0022907445672899485,0.0013744467869400978,0.0006108652451075613
1779964785107559700,18.4345595703125,0.0029016099870204926,0.0013744467869400978,-0.00045814894838258624
1779964785123888600,18.450888671875,0.0024434609804302454,0.004428773187100887,-0.001679879380390048
1779964785140202500,18.467202392578123,0.0007635815418325365,0.005955935921519995,-0.00015271631127689034
1779964785156520400,18.4835205078125,-0.0010690141934901476,0.004123340360820293,-0.0007635815418325365
1779964785172864800,18.49986474609375,-0.0019853119738399982,0.0022907445672899485,0.0006108652451075613
1779964785189190400,18.5161904296875,-0.0032070425804704428,0.00015271631127689034,0.0025961773935705423
1779964785205527800,18.53252783203125,-0.00427605677396059,0.0006108652451075613,0.0024434609804302454
1779964785221854200,18.548854248046876,-0.004123340360820293,-0.0010690141934901476,0.001832595793530345
1779964785238200300,18.565200439453125,-0.004581489134579897,0.001679879380390048,0.0007635815418325365
1779964785254511900,18.581511962890627,-0.003054326167330146,0.004734205547720194,-0.0010690141934901476
1779964785270858000,18.59785791015625,-0.0010690141934901476,0.0032070425804704428,0.00015271631127689034
1779964785287187200,18.614187255859374,0.0012217304902151227,0.0003054326225537807,0.0009162978967651725
1779964785303516200,18.63051611328125,0.0025961773935705423,-0.003359758760780096,0.001527163083665073
1779964785319832600,18.64683251953125,0.0024434609804302454,-0.00366519158706069,-0.0003054326225537807
1779964785336192000,18.66319189453125,0.001832595793530345,-0.0027488935738801956,-0.0009162978967651725
1779964785352499500,18.67949951171875,0,-0.0027488935738801956,0.00015271631127689034
1779964785368843000,18.695843017578124,-0.0019853119738399982,0,-0.00015271631127689034
1779964785385163500,18.71216357421875,-0.002138028386980295,0.00015271631127689034,-0.0009162978967651725
1779964785401495300,18.728495361328125,-0.0019853119738399982,0.0007635815418325365,-0.0003054326225537807
1779964785417790500,18.74479052734375,-0.0009162978967651725,0.001832595793530345,-0.00015271631127689034
1779964785434155500,18.761155517578125,-0.00015271631127689034,0.001679879380390048,-0.00015271631127689034
1779964785450463200,18.777463134765625,0.0003054326225537807,0.0025961773935705423,0.0003054326225537807
1779964785466804200,18.79380419921875,0.0010690141934901476,0.001527163083665073,0.001527163083665073
1779964785483131000,18.810130859375,0.0010690141934901476,0.0012217304902151227,0
1779964785499460600,18.826460693359376,0.00045814894838258624,-0.001832595793530345,0.0006108652451075613
1779964785515786200,18.8427861328125,-0.0007635815418325365,-0.0009162978967651725,0.00015271631127689034
1779964785532124400,18.85912451171875,-0.0019853119738399982,-0.0019853119738399982,0.00045814894838258624
1779964785548463900,18.8754638671875,-0.002138028386980295,-0.003359758760780096,-0.0010690141934901476
1779964785564796400,18.89179638671875,-0.002138028386980295,-0.0024434609804302454,0.0013744467869400978
1779964785581091000,18.908091064453124,-0.0010690141934901476,-0.0019853119738399982,0.0007635815418325365
1779964785597453600,18.92445361328125,-0.0010690141934901476,-0.0013744467869400978,0.0022907445672899485
1779964785613779200,18.940779296875,0.0003054326225537807,-0.0010690141934901476,0.0010690141934901476
1779964785630095400,18.957095458984377,0.0007635815418325365,0,0.001679879380390048
1779964785646428700,18.9734287109375,0.0012217304902151227,0.00015271631127689034,0.0003054326225537807
1779964785662758100,18.989758056640625,0.00045814894838258624,-0.0006108652451075613,0.0006108652451075613
1779964785679089000,19.0060888671875,0.001527163083665073,0,0.0003054326225537807
1779964785695417300,19.022417236328124,0.0007635815418325365,0.0006108652451075613,0.0003054326225537807
1779964785711748000,19.038748046875,-0.0003054326225537807,0.0007635815418325365,-0.0013744467869400978
1779964785728095000,19.055094970703124,-0.0007635815418325365,0.00015271631127689034,-0.0010690141934901476
1779964785744417000,19.0714169921875,-0.00015271631127689034,0.0019853119738399982,0.0006108652451075613
1779964785760755200,19.087755126953127,-0.00015271631127689034,0.0029016099870204926,-0.0012217304902151227
1779964785777079300,19.104079345703123,0.00015271631127689034,0.001527163083665073,0.001527163083665073
1779964785793396200,19.120396240234374,-0.0019853119738399982,0.00045814894838258624,0.0003054326225537807
1779964785809740800,19.13674072265625,-0.0009162978967651725,-0.00015271631127689034,0.00045814894838258624
1779964785826069500,19.153069580078125,-0.0010690141934901476,-0.0022907445672899485,-0.0006108652451075613
1779964785842400500,19.169400390625,-0.00015271631127689034,-0.0039706239476799965,0.0003054326225537807
1779964785858733300,19.1857333984375,0.0003054326225537807,-0.004428773187100887,0.0010690141934901476
1779964785875058000,19.202057861328125,0.0003054326225537807,-0.004428773187100887,0.00045814894838258624
1779964785891388700,19.218388671875,0.0012217304902151227,-0.005192354787141085,-0.00015271631127689034
1779964785907719700,19.2347197265625,-0.0003054326225537807,-0.004734205547720194,-0.00045814894838258624
1779964785924049000,19.251048828125,-0.0007635815418325365,-0.005345070734620094,0.0009162978967651725
1779964785940361500,19.267361572265624,-0.0010690141934901476,-0.0027488935738801956,0
1779964785956689200,19.283689208984374,-0.0019853119738399982,0.0006108652451075613,0.0009162978967651725
1779964785973034800,19.30003466796875,0.0003054326225537807,0.001527163083665073,0.002138028386980295
1779964785989354000,19.31635400390625,0.0032070425804704428,0.0024434609804302454,0.0024434609804302454
1779964786005684200,19.332684326171876,0.0029016099870204926,0.00366519158706069,-0.00045814894838258624
1779964786022013400,19.349013427734373,0.0025961773935705423,0.005345070734620094,-0.0006108652451075613
1779964786038340000,19.365340087890626,0.0009162978967651725,0.004734205547720194,-0.0019853119738399982
1779964786054669800,19.381669921875,-0.0013744467869400978,0.004123340360820293,-0.0009162978967651725
1779964786071000600,19.39800048828125,-0.003054326167330146,0.0022907445672899485,0.0006108652451075613
1779964786087329500,19.41432958984375,-0.0032070425804704428,-0.0003054326225537807,0.0019853119738399982
1779964786103680500,19.430680419921874,-0.00366519158706069,-0.00015271631127689034,0.0022907445672899485
1779964786119989200,19.4469892578125,-0.00427605677396059,0.001527163083665073,0.0007635815418325365
1779964786136322600,19.463322509765625,-0.003512475173920393,0.003054326167330146,-0.0006108652451075613
