time,seconds_elapsed,z,y,x
1779037597310783500,0.137783447265625,-2.2125539779663086,-2.607325553894043,1.5471689701080322
1779037597327123200,0.154123291015625,-1.9104810953140259,-1.8944458961486816,1.7886134386062622
1779037597343453200,0.170453125,-1.5496124029159546,-2.2647829055786133,1.8070920705795288
1779037597359788000,0.1867880859375,-0.9502009153366089,-1.8916969299316406,1.5977180004119873
1779037597376115200,0.203115234375,-0.22968533635139465,-1.1552989482879639,1.1766791343688965
1779037597392439800,0.219439697265625,0.11499538272619247,-0.7429648637771606,0.6185010671615601
1779037597408777500,0.235777587890625,0.001527163083665073,-0.7573201656341553,0.07284568250179291
1779037597425106400,0.2521064453125,-0.2021963894367218,-0.9311113357543945,-0.4161519408226013
1779037597441420800,0.2684208984375,-0.12217304855585098,-0.5429064631462097,-0.6933320760726929
1779037597457761800,0.28476171875,0.05253441259264946,0.15286903083324432,-0.749531626701355
1779037597474101200,0.301101318359375,0.11575896292924881,0.3387247920036316,-0.7875580191612244
1779037597490410800,0.31741064453125,0.15714508295059204,-0.001527163083665073,-0.7606799602508545
1779037597506745600,0.33374560546875,0.26221391558647156,-0.3882048726081848,-0.6302602291107178
1779037597523075800,0.350075927734375,0.36590829491615295,-0.8184067010879517,-0.5826127529144287
1779037597539405600,0.366405517578125,0.5343543887138367,-0.9541715383529663,-0.6041457056999207
1779037597555737600,0.382737548828125,0.6824892163276672,-0.6046038866043091,-0.5360342264175415
1779037597572068400,0.399068359375,0.8035932183265686,-0.154396191239357,-0.4917465150356293
1779037597588398800,0.41539892578125,0.9208793640136719,-0.44944411516189575,-0.5818491578102112
1779037597604751000,0.431751220703125,1.6685783863067627,-0.841008722782135,-0.7287622094154358
1779037597621067000,0.44806689453125,2.626567840576172,-0.9385944604873657,-0.9169087409973145
1779037597637409500,0.464409423828125,2.1314616203308105,-1.2495248317718506,-1.3089314699172974
1779037597653730800,0.480730712890625,1.7634152173995972,-0.9783006906509399,-1.4167492389678955
1779037597670063400,0.4970634765625,1.788308024406433,-0.9130908250808716,-1.1995866298675537
1779037597686363000,0.51336279296875,1.4654656648635864,-1.543503761291504,-0.8032878041267395
1779037597702727400,0.5297275390625,1.3536773920059204,-2.0505218505859375,-0.40256020426750183
1779037597719053800,0.5460537109375,1.4610369205474854,-2.8229610919952393,-0.14034628868103027
1779037597735388200,0.56238818359375,1.788002610206604,-3.596163749694824,0.31261029839515686
1779037597751719700,0.5787197265625,1.8159496784210205,-3.9649736881256104,0.7353290319442749
1779037597768020000,0.59502001953125,2.0004310607910156,-4.4176249504089355,0.7802276611328125
1779037597784381200,0.611381103515625,2.1426098346710205,-4.550029754638672,0.30482175946235657
1779037597800720400,0.627720458984375,2.535396099090576,-5.2862749099731445,0.13576480746269226
1779037597817025300,0.644025390625,3.1534390449523926,-6.545879364013672,0.29733866453170776
1779037597833359600,0.660359619140625,3.9709296226501465,-7.120703220367432,-0.1635591685771942
1779037597849688600,0.6766884765625,4.535827159881592,-6.833596706390381,-0.9396634697914124
1779037597866020400,0.693020263671875,5.047884941101074,-6.791599750518799,-0.7359399199485779
1779037597882351400,0.709351318359375,5.5008416175842285,-7.159340858459473,0.5668829679489136
1779037597898677800,0.725677734375,5.731442928314209,-7.5947346687316895,2.437047004699707
1779037597915032000,0.742031982421875,5.771454811096191,-7.157966136932373,3.919769525527954
1779037597931356200,0.758356201171875,5.662568092346191,-5.664706230163574,4.086230278015137
1779037597947692300,0.7746923828125,4.798957347869873,-3.3826663494110107,2.7285823822021484
1779037597964013000,0.791012939453125,3.0949487686157227,-0.9430232048034668,0.911410927772522
1779037597980358000,0.80735791015625,1.4613423347473145,0.7423539757728577,-0.3136793076992035
1779037597996666000,0.823666015625,0.3966042697429657,0.9868528246879578,-0.4619668424129486
1779037598012996400,0.839996337890625,-0.06505715101957321,0.16172657907009125,0.09239336848258972
1779037598029333800,0.856333740234375,-0.17287486791610718,-0.8323038816452026,0.6255260109901428
1779037598045657000,0.872656982421875,-0.4482223689556122,-1.506240963935852,0.9205739498138428
1779037598061973000,0.888972900390625,-1.1530081033706665,-3.140916347503662,1.0325149297714233
1779037598078321400,0.9053212890625,-1.8452712297439575,-5.532606601715088,-0.128434419631958
1779037598094667800,0.921667724609375,-1.4895949363708496,-2.8354837894439697,-2.1537580490112305
1779037598110993000,0.937992919921875,-0.8626944422721863,-0.03741549700498581,-2.950937271118164
1779037598127323000,0.954322998046875,-0.6779077053070068,0.8494081497192383,-2.475836753845215
1779037598143656200,0.97065625,-0.6759223937988281,0.8973610401153564,-1.4914275407791138
1779037598159986400,0.986986328125,-0.5894849896430969,0.7564038634300232,-0.9285151958465576
1779037598176315000,1.00331494140625,-0.5555819272994995,0.48288896679878235,-0.2796235680580139
1779037598192645000,1.01964501953125,-0.5448917746543884,0.8904888033866882,-0.055283304303884506
1779037598208978400,1.035978515625,-0.37888917326927185,1.0891727209091187,0.14767667651176453
1779037598225310000,1.05231005859375,-0.10522153973579407,0.9445503950119019,0.347276896238327
1779037598241621800,1.068621826171875,0.07147123664617538,0.5682573914527893,0.6122397184371948
1779037598257968000,1.084968017578125,0.29856038093566895,0.07101308554410934,1.0404561758041382
1779037598274305300,1.10130517578125,0.6933320760726929,-0.8830057382583618,1.4471397399902344
1779037598290605600,1.11760546875,0.45142942667007446,-1.3167200088500977,1.4398094415664673
1779037598306949400,1.133949462890625,0.17150041460990906,-0.49067750573158264,0.6168211698532104
1779037598323254800,1.1502548828125,-0.11438451707363129,-0.7144069075584412,0.059864792972803116
1779037598339599400,1.166599365234375,-0.608727216720581,-1.1313223838806152,-0.21044307947158813
1779037598355939300,1.182939208984375,-0.7307475209236145,-0.5149593949317932,-0.588874101638794
1779037598372268800,1.199268798828125,-0.6505714654922485,-0.06352998316287994,-0.6626361012458801
1779037598388599800,1.215599853515625,-0.3640756905078888,0.3471241891384125,-0.5444336533546448
1779037598404931000,1.23193115234375,-0.19394971430301666,1.303891897201538,-0.6398813724517822
1779037598421268000,1.24826806640625,0.13836097717285156,2.403907537460327,-0.669355571269989
1779037598437597200,1.26459716796875,0.4280638098716736,2.9016098976135254,-0.5009095072746277
1779037598453943000,1.280943115234375,0.4202753007411957,1.6960673332214355,-0.11728613078594208
1779037598470267600,1.297267578125,0.25854870676994324,-0.22067506611347198,0.4579962193965912
1779037598486580000,1.313580078125,0.5125159621238708,-0.09208793938159943,0.44913867115974426
1779037598502913500,1.32991357421875,1.2961033582687378,1.2909109592437744,0.5245805382728577
1779037598519246800,1.346246826171875,1.4220943450927734,3.093574285507202,0.24434609711170197
1779037598535577000,1.3625771484375,0.8628471493721008,2.7789788246154785,0.7383833527565002
1779037598551907600,1.378907470703125,0.5180137157440186,2.1536054611206055,0.9825767278671265
1779037598568236800,1.39523681640625,0.5198463201522827,1.51158607006073,0.8584184050559998
1779037598584587000,1.4115869140625,0.8546004891395569,1.2767083644866943,0.6734789609909058
1779037598600912600,1.42791259765625,1.0731375217437744,1.093143343925476,0.7408268451690674
1779037598617241900,1.444241943359375,1.4117095470428467,1.036943793296814,1.0506882667541504
1779037598633572400,1.460572265625,1.468672752380371,1.1902709007263184,1.122159481048584
1779037598649905000,1.47690478515625,1.4508049488067627,0.9210320711135864,0.3888157308101654
1779037598666220300,1.49322021484375,1.3092368841171265,1.5117387771606445,-0.18860463798046112
1779037598682566000,1.50956591796875,1.1560624837875366,1.1273517608642578,0.07620543986558914
1779037598698895400,1.525895263671875,1.1856894493103027,0.3949243724346161,0.3637702465057373
1779037598715227000,1.542226806640625,1.1394164562225342,0.49984049797058105,0.3949243724346161
1779037598731552500,1.558552490234375,1.0024298429489136,0.5288565754890442,-0.20631973445415497
1779037598747893200,1.574893310546875,0.8052731156349182,0.7318165898323059,-0.14569136500358582
1779037598764217600,1.591217529296875,0.6914994716644287,0.5778785347938538,-0.4560109078884125
1779037598780543500,1.60754345703125,0.7309002876281738,0.6537785530090332,-0.6246097087860107
1779037598796884700,1.623884765625,0.6640105247497559,0.8655960559844971,-0.7012733221054077
1779037598813200600,1.64020068359375,1.5415184497833252,1.3069461584091187,-0.6276640295982361
1779037598829514500,1.656514404296875,1.5723671913146973,0.355981707572937,-0.3400992155075073
1779037598845858800,1.67285888671875,1.7919732332229614,0.20723603665828705,-0.25335636734962463
1779037598862190800,1.68919091796875,2.196824073791504,0.28130343556404114,-0.4683809280395508
1779037598878521000,1.70552099609375,2.2991440296173096,0.3851505517959595,-0.873842716217041
1779037598894850000,1.72185009765625,2.4358251094818115,0.7521278262138367,-1.4937182664871216
1779037598927533000,1.754532958984375,0.7481572031974792,0.6125451326370239,-2.3681719303131104
1779037598943839000,1.7708388671875,1.4213306903839111,1.2121093273162842,-2.1699459552764893
1779037598960187400,1.7871875,-0.11438451707363129,0.6805039048194885,-1.9407188892364502
1779037598976500500,1.80350048828125,-0.35964691638946533,0.12751811742782593,-1.6016886234283447
1779037598992832800,1.819832763671875,0.5364924073219299,-1.0583239793777466,-1.2557861804962158
1779037599009165300,1.836165283203125,0.741895854473114,-2.601675033569336,-1.0231993198394775
1779037599025494800,1.852494873046875,0.7312057018280029,-3.1425962448120117,-1.2455542087554932
1779037599041812700,1.868812744140625,0.8610145449638367,-3.553250312805176,-1.4370604753494263
1779037599058153700,1.88515380859375,1.0894781351089478,-4.0381245613098145,-1.093143343925476
1779037599074503700,1.901503662109375,1.7525724172592163,-3.858224868774414,-0.40912699699401855
1779037599090834000,1.917833984375,2.1149682998657227,-2.8382327556610107,-0.5969680547714233
1779037599107162400,1.934162353515625,2.537687063217163,-2.378861904144287,-1.7397441864013672
1779037599123493400,1.950493408203125,0.9990701079368591,-2.73301100730896,-1.3200798034667969
1779037599139822000,1.966822021484375,-1.1093312501907349,-2.955976963043213,-1.28128981590271
1779037599156155100,1.983155029296875,-1.2912163734436035,-2.5031731128692627,-0.7353290319442749
1779037599172479700,1.999479736328125,-0.5629123449325562,-0.7206682562828064,-0.9043859839439392
1779037599188860200,2.015860107421875,-0.7568620443344116,0.0507018156349659,-1.053742527961731
1779037599205140700,2.032140625,-1.5390750169754028,0.5174028873443604,-1.0270172357559204
1779037599221465000,2.048465087890625,-1.842674970626831,0.6849326491355896,-0.7197519540786743
1779037599237805600,2.0648056640625,-1.8167132139205933,0.40026944875717163,-0.2393064647912979
1779037599250055200,2.07705517578125,-0.8912523984909058,-0.8839219808578491,-0.0009162978967651725
1779037599266384400,2.09338427734375,0.0633772686123848,-1.8723019361495972,0.23594669997692108
1779037599282710300,2.109710205078125,0.5940664410591125,-2.342057466506958,0.6860016584396362
1779037599299036200,2.1260361328125,0.9327912330627441,-2.778367757797241,1.508989930152893
1779037599315363600,2.142363525390625,1.1623238325119019,-2.592970132827759,2.177581787109375
1779037599331697000,2.15869677734375,1.31748366355896,-1.8188512325286865,2.4356725215911865
1779037599348022500,2.1750224609375,0.8258898258209229,-0.4509712755680084,2.0952677726745605
1779037599364356900,2.19135693359375,0.21365012228488922,-1.3561208248138428,1.6064229011535645
1779037599380686000,2.20768603515625,-0.054825156927108765,-1.133460521697998,1.0520626306533813
1779037599397034800,2.22403466796875,-0.8310821652412415,0.049785517156124115,0.45173484086990356
1779037599413346000,2.240345947265625,-1.9672914743423462,0.3309362530708313,-0.8150469660758972
1779037599429695700,2.25669580078125,-1.7537940740585327,-0.3211624026298523,-1.8425222635269165
1779037599446011000,2.273010986328125,-0.5523748993873596,-1.5215126276016235,-1.5241087675094604
1779037599462331000,2.289330810546875,-0.5455026626586914,-1.1369729042053223,-0.7252497673034668
1779037599478672100,2.305672119140625,-0.3104722499847412,0.01114829070866108,-0.009773843921720982
1779037599495013400,2.322013427734375,0.013744467869400978,1.206153392791748,0.4066835343837738
1779037599511331800,2.338331787109375,0.010995574295520782,1.6139060258865356,1.14873206615448
1779037713231890700,116.058890625,-0.4674646258354187,0.06322455406188965,-0.07208210229873657
1779037713244142800,116.07114282226563,-0.41172316670417786,-0.061391957104206085,0.09162978827953339
1779037713260476200,116.08747607421876,-0.2945897579193115,-0.1518000066280365,0.26083946228027344
1779037713276821800,116.10382177734375,-0.25854870676994324,-0.21960605680942535,0.2099849283695221
1779037713293148000,116.12014794921875,-0.24174992740154266,-0.2428189367055893,0.045204028487205505
1779037713309465300,116.13646533203125,-0.2506074607372284,-0.18417587876319885,-0.14798210561275482
1779037713325809000,116.15280883789063,-0.2967278063297272,-0.06001751124858856,-0.3591887652873993
1779037713342155000,116.16915502929687,-0.3523165285587311,0.04092797264456749,-0.48487427830696106
1779037713358482200,116.18548217773437,-0.33246341347694397,0.08933904021978378,-0.42241331934928894
1779037713374792400,116.20179248046875,-0.20005837082862854,-0.14019356667995453,-0.2093740701675415
1779037713391143000,116.21814282226562,0.005039638374000788,-0.5247332453727722,0.042760565876960754
1779037713407454200,116.2344541015625,0.18005253374576569,-0.8891143798828125,0.168751522898674
1779037713423796700,116.25079663085937,0.2382374405860901,-1.1162035465240479,0.04886921867728233
1779037713440132600,116.26713256835937,0.03329215571284294,-0.9445503950119019,-0.3724750876426697
1779037713456458200,116.28345825195312,-0.1817324161529541,-0.44837507605552673,-0.9257662892341614
1779037713472790800,116.29979077148438,-0.3831652104854584,-0.3020728528499603,-1.2567025423049927
1779037713489123800,116.31612377929687,-0.566119372844696,-0.7483099102973938,-1.2264647483825684
1779037713505449500,116.33244946289062,-0.6061310172080994,-1.2246321439743042,-0.7890852093696594
1779037713521779700,116.34877978515625,-0.5514585971832275,-1.193172574043274,-0.14538592100143433
1779037713538129000,116.36512890625,-0.34208452701568604,-0.8584184050559998,0.32360586524009705
1779037713554429200,116.38142919921874,-0.0039706239476799965,-0.43936482071876526,0.4260784983634949
1779037713570763000,116.39776293945313,0.3344487249851227,0.03787364438176155,0.27351492643356323
1779037713587101200,116.41410107421875,0.5711590051651001,0.39217549562454224,0.0679587572813034
1779037713603428000,116.43042797851562,0.6099489331245422,0.48685958981513977,-0.03237585723400116
1779037713619741200,116.4467412109375,0.5291619896888733,0.30085113644599915,0.04535674303770065
1779037713636078000,116.463078125,0.3930917978286743,-0.01924225501716137,0.1667662113904953
1779037713652406800,116.47940673828126,0.28206703066825867,-0.2765692472457886,0.1927279829978943
1779037713668734200,116.49573413085938,0.2617557644844055,-0.3833179473876953,0.1563815027475357
1779037713685062100,116.51206225585938,0.28527405858039856,-0.3026837408542633,0.20586158335208893
1779037713701397000,116.52839697265625,0.2344195395708084,-0.054367005825042725,0.337044894695282
1779037713717727700,116.54472778320313,0.13316862285137177,0.14416420459747314,0.4567744731903076
1779037713734055200,116.56105517578125,0.08811730891466141,0.17241671681404114,0.5120577812194824
1779037713750381300,116.57738134765626,0.10674870014190674,0.04108068719506264,0.46502116322517395
1779037713766718200,116.59371826171875,0.12797626852989197,-0.16554448008537292,0.3361285924911499
1779037713783045000,116.61004516601562,0.10965031385421753,-0.3000875413417816,0.1540907621383667
1779037713799375000,116.626375,0.07681630551815033,-0.22647829353809357,-0.04963280260562897
1779037713815704300,116.64270434570312,0.12293662875890732,-0.0988074541091919,-0.2428189367055893
1779037713832049200,116.65904907226563,0.25641068816185,-0.1342376321554184,-0.44745880365371704
1779037713848381000,116.675380859375,0.3507893681526184,-0.09300423413515091,-0.5636758804321289
1779037713864707600,116.69170751953125,0.3315471112728119,-0.09957103431224823,-0.6302602291107178
1779037713881040400,116.70804028320312,0.28038713335990906,-0.11789698898792267,-0.6146831512451172
1779037713897361400,116.724361328125,0.20387627184391022,0.0555887371301651,-0.5207626223564148
1779037713913694500,116.74069458007813,0.08597928285598755,0.23915374279022217,-0.37491855025291443
1779037713930028000,116.75702807617188,-0.014202617108821869,0.266642689704895,-0.24923302233219147
1779037713946360600,116.77336059570312,-0.014813481830060482,0.026572637259960175,-0.10094548016786575
1779037713962685200,116.78968530273437,0.01114829070866108,-0.12339477986097336,0.01710422709584236
1779037713979016400,116.80601635742188,0.02015855349600315,-0.026572637259960175,-0.04199698567390442
1779037713995345400,116.82234545898437,-0.014355333521962166,0.05543602257966995,-0.33078351616859436
1779037714011663000,116.8386630859375,-0.05314527451992035,-0.06291911751031876,-0.5786421298980713
1779037714028004900,116.8550048828125,-0.07956519722938538,-0.11728613078594208,-0.526107668876648
1779037714044340700,116.8713408203125,-0.09224065393209457,-0.008399397134780884,-0.24724771082401276
1779037714060663800,116.88766381835937,-0.08949175477027893,-0.03375030308961868,0.006872233934700489
1779037714076995800,116.90399584960937,-0.07757988572120667,-0.08017606288194656,0.08185594528913498
1779037714093327400,116.92032739257813,-0.04245513305068016,-0.11133018881082535,-0.03680463135242462
1779037714109654300,116.936654296875,-0.012522737495601177,-0.251218318939209,-0.2808452844619751
1779037714125972000,116.95297192382813,-0.0780380368232727,-0.29825496673583984,-0.47601673007011414
1779037714142302000,116.96930200195312,-0.16829337179660797,-0.20876319706439972,-0.43875396251678467
1779037714158630400,116.98563037109375,-0.3159700334072113,-0.007788531947880983,0.08857546001672745
1779037714174963700,117.00196362304688,-0.513126790523529,-0.19914206862449646,0.498924195766449
1779037714191290600,117.01829052734375,-0.4466952085494995,-0.39156460762023926,0.508698046207428
1779037714207619800,117.03461987304688,-0.33735033869743347,-0.11591167747974396,0.2834414839744568
