time,seconds_elapsed,z,y,x
1779037597294445300,0.1214453125,-2.539824962615967,-0.925308108329773,1.042441487312317
1779037597310783500,0.137783447265625,-2.2799017429351807,-2.389857530593872,1.4662293195724487
1779037597327123200,0.154123291015625,-1.9117027521133423,-1.8903224468231201,1.7863227128982544
1779037597343453200,0.170453125,-1.5493069887161255,-2.2655465602874756,1.8067866563796997
1779037597359788000,0.1867880859375,-0.949895441532135,-1.8926132917404175,1.5974125862121582
1779037597376115200,0.203115234375,-0.2295326143503189,-1.1560624837875366,1.1763737201690674
1779037597392439800,0.219439697265625,0.11514809727668762,-0.7438811659812927,0.618195652961731
1779037597408777500,0.235777587890625,0.001832595793530345,-0.7582364678382874,0.07254024595022202
1779037597425106400,0.2521064453125,-0.20204368233680725,-0.9320276379585266,-0.4164573848247528
1779037597441420800,0.2684208984375,-0.12186761945486069,-0.5438227653503418,-0.693637490272522
1779037597457761800,0.28476171875,0.05268712714314461,0.15195272862911224,-0.7498371005058289
1779037597474101200,0.301101318359375,0.1160643994808197,0.33796119689941406,-0.7878634333610535
1779037597490410800,0.31741064453125,0.15745051205158234,-0.0024434609804302454,-0.7609853744506836
1779037597506745600,0.33374560546875,0.26251932978630066,-0.3891211748123169,-0.6305656433105469
1779037597523075800,0.350075927734375,0.36621370911598206,-0.8191702961921692,-0.5829181671142578
1779037597539405600,0.366405517578125,0.5345070958137512,-0.9550877809524536,-0.6044511795043945
1779037597555737600,0.382737548828125,0.6827946305274963,-0.6053674817085266,-0.5364924073219299
1779037597572068400,0.399068359375,0.8038986921310425,-0.15531249344348907,-0.49205195903778076
1779037597588398800,0.41539892578125,0.921184778213501,-0.45036038756370544,-0.5821545720100403
1779037597604751000,0.431751220703125,1.6688838005065918,-0.8419250249862671,-0.7292203903198242
1779037597621067000,0.44806689453125,2.626873254776001,-0.9393580555915833,-0.9173668622970581
1779037597637409500,0.464409423828125,2.1317670345306396,-1.250288486480713,-1.3092368841171265
1779037597653730800,0.480730712890625,1.7637206315994263,-0.979216992855072,-1.4170546531677246
1779037597670063400,0.4970634765625,1.7886134386062622,-0.9140071272850037,-1.1998920440673828
1779037597686363000,0.51336279296875,1.465771198272705,-1.5442672967910767,-0.8035932183265686
1779037597702727400,0.5297275390625,1.3539828062057495,-2.0512855052948,-0.40301835536956787
1779037597719053800,0.5460537109375,1.4611896276474,-2.8237245082855225,-0.14065171778202057
1779037597735388200,0.56238818359375,1.788308024406433,-3.5970799922943115,0.31230485439300537
1779037597751719700,0.5787197265625,1.8162550926208496,-3.9658899307250977,0.7350236177444458
1779037597768020000,0.59502001953125,2.0007364749908447,-4.418540954589844,0.7797694802284241
1779037597784381200,0.611381103515625,2.1429152488708496,-4.550946235656738,0.3043636083602905
1779037597800720400,0.627720458984375,2.5357015132904053,-5.287191390991211,0.13545936346054077
1779037597817025300,0.644025390625,3.1537444591522217,-6.546642780303955,0.2970332205295563
1779037597833359600,0.660359619140625,3.9710822105407715,-7.121467113494873,-0.1638645976781845
1779037597849688600,0.6766884765625,4.5361328125,-6.834360599517822,-0.940121591091156
1779037597866020400,0.693020263671875,5.048190593719482,-6.792516231536865,-0.736245334148407
1779037597882351400,0.709351318359375,5.5011467933654785,-7.160256862640381,0.5665774941444397
1779037597898677800,0.725677734375,5.731748580932617,-7.595498561859131,2.436741352081299
1779037597915032000,0.742031982421875,5.771607398986816,-7.1587300300598145,3.919464111328125
1779037597931356200,0.758356201171875,5.662720680236816,-5.665622234344482,4.0857720375061035
1779037597947692300,0.7746923828125,4.799263000488281,-3.383582592010498,2.7282769680023193
1779037597964013000,0.791012939453125,3.0952541828155518,-0.9439395070075989,0.9111055135726929
1779037597980358000,0.80735791015625,1.461495041847229,0.7415903806686401,-0.3139847218990326
1779037597996666000,0.823666015625,0.3969096839427948,0.9859365224838257,-0.4622722864151001
1779037598012996400,0.839996337890625,-0.06490442901849747,0.1609629988670349,0.09193521738052368
1779037598029333800,0.856333740234375,-0.17256943881511688,-0.8332201838493347,0.6252205967903137
1779037598045657000,0.872656982421875,-0.4479169547557831,-1.507157325744629,0.9201157689094543
1779037598061973000,0.888972900390625,-1.1527026891708374,-3.1416800022125244,1.0322095155715942
1779037598078321400,0.9053212890625,-1.8449658155441284,-5.533522605895996,-0.1287398487329483
1779037598094667800,0.921667724609375,-1.489442229270935,-2.836400032043457,-2.1540634632110596
1779037598110993000,0.937992919921875,-0.8623890280723572,-0.03833179548382759,-2.951242685317993
1779037598127323000,0.954322998046875,-0.6776022911071777,0.8484918475151062,-2.476142168045044
1779037598143656200,0.97065625,-0.675616979598999,0.8965974450111389,-1.4917329549789429
1779037598159986400,0.986986328125,-0.589179515838623,0.7554876208305359,-0.9289733171463013
1779037598176315000,1.00331494140625,-0.555429220199585,0.48197266459465027,-0.28008171916007996
1779037598192645000,1.01964501953125,-0.5445863604545593,0.8895725011825562,-0.0555887371301651
1779037598208978400,1.035978515625,-0.3787364661693573,1.088409185409546,0.1472185254096985
1779037598225310000,1.05231005859375,-0.10506882518529892,0.9436340928077698,0.34697145223617554
1779037598241621800,1.068621826171875,0.07162395119667053,0.5673410892486572,0.6117815375328064
1779037598257968000,1.084968017578125,0.29886582493782043,0.07024950534105301,1.040150761604309
1779037598274305300,1.10130517578125,0.6934847831726074,-0.8839219808578491,1.4466816186904907
1779037598290605600,1.11760546875,0.45173484086990356,-1.3176363706588745,1.4395039081573486
1779037598306949400,1.133949462890625,0.17180584371089935,-0.4915938079357147,0.6163630485534668
1779037598323254800,1.1502548828125,-0.11407908797264099,-0.7151705026626587,0.05955936014652252
1779037598339599400,1.166599365234375,-0.608421802520752,-1.1320860385894775,-0.21090123057365417
1779037598355939300,1.182939208984375,-0.7304421067237854,-0.5157229900360107,-0.5893322229385376
1779037598372268800,1.199268798828125,-0.6502660512924194,-0.06444628536701202,-0.6630942225456238
1779037598388599800,1.215599853515625,-0.36392298340797424,0.3462078869342804,-0.5448917746543884
1779037598404931000,1.23193115234375,-0.19379699230194092,1.3029755353927612,-0.6403394937515259
1779037598421268000,1.24826806640625,0.13866640627384186,2.403143882751465,-0.6698137521743774
1779037598437597200,1.26459716796875,0.4283692538738251,2.900846242904663,-0.5012149214744568
1779037598453943000,1.280943115234375,0.4205807149410248,1.6953037977218628,-0.11759155988693237
1779037598470267600,1.297267578125,0.2588541507720947,-0.22159136831760406,0.4576907753944397
1779037598486580000,1.313580078125,0.5128213763237,-0.09300423413515091,0.4486805200576782
1779037598502913500,1.32991357421875,1.296408772468567,1.2901474237442017,0.5242751240730286
1779037598519246800,1.346246826171875,1.422247052192688,3.092658042907715,0.24404066801071167
1779037598535577000,1.3625771484375,0.8629998564720154,2.778215169906616,0.7380779385566711
1779037598551907600,1.378907470703125,0.5183191895484924,2.152841806411743,0.9821186065673828
1779037598568236800,1.39523681640625,0.5201517343521118,1.5108224153518677,0.8581129312515259
1779037598584587000,1.4115869140625,0.8547531962394714,1.275792121887207,0.6730207800865173
1779037598600912600,1.42791259765625,1.0734429359436035,1.0923798084259033,0.7405213713645935
1779037598617241900,1.444241943359375,1.4120149612426758,1.036027431488037,1.0503827333450317
1779037598633572400,1.460572265625,1.4689781665802002,1.189354658126831,1.1218540668487549
1779037598649905000,1.47690478515625,1.4509576559066772,0.9201157689094543,0.38835757970809937
1779037598666220300,1.49322021484375,1.3093897104263306,1.5109752416610718,-0.1889100819826126
1779037598682566000,1.50956591796875,1.1563678979873657,1.126588225364685,0.0757472887635231
1779037598698895400,1.525895263671875,1.1859948635101318,0.394008070230484,0.36331209540367126
1779037598715227000,1.542226806640625,1.1397218704223633,0.4990769028663635,0.39446622133255005
1779037598731552500,1.558552490234375,1.0027352571487427,0.5279402732849121,-0.20662516355514526
1779037598747893200,1.574893310546875,0.8054258227348328,0.7309002876281738,-0.14614951610565186
1779037598764217600,1.591217529296875,0.6918048858642578,0.5769622325897217,-0.4564690589904785
1779037598780543500,1.60754345703125,0.7312057018280029,0.6530149579048157,-0.6249151229858398
1779037598796884700,1.623884765625,0.664315938949585,0.864679753780365,-0.7017314434051514
1779037598813200600,1.64020068359375,1.5418238639831543,1.306182622909546,-0.6279694437980652
1779037598829514500,1.656514404296875,1.5726726055145264,0.35521814227104187,-0.3404046595096588
1779037598845858800,1.67285888671875,1.792125940322876,0.2064724564552307,-0.25366178154945374
1779037598862190800,1.68919091796875,2.197129487991333,0.280539870262146,-0.4688390791416168
1779037598878521000,1.70552099609375,2.2994494438171387,0.3842342495918274,-0.8743008971214294
1779037598894850000,1.72185009765625,2.4359779357910156,0.7513642311096191,-1.4941763877868652
1779037598927533000,1.754532958984375,0.7484626173973083,0.6116288304328918,-2.3684773445129395
1779037598943839000,1.7708388671875,1.4216361045837402,1.2113457918167114,-2.1702516078948975
1779037598960187400,1.7871875,-0.11407908797264099,0.679740309715271,-1.9411770105361938
1779037598976500500,1.80350048828125,-0.35934147238731384,0.1267545372247696,-1.6019941568374634
1779037598992832800,1.819832763671875,0.5366451144218445,-1.0590876340866089,-1.2560917139053345
1779037599009165300,1.836165283203125,0.7422012686729431,-2.6025912761688232,-1.0235047340393066
1779037599025494800,1.852494873046875,0.7313584089279175,-3.143512487411499,-1.2458596229553223
1779037599041812700,1.868812744140625,0.8611672520637512,-3.554166793823242,-1.4373658895492554
1779037599058153700,1.88515380859375,1.0896308422088623,-4.038888454437256,-1.0934487581253052
1779037599074503700,1.901503662109375,1.7527251243591309,-3.8589885234832764,-0.4095851480960846
1779037599090834000,1.917833984375,2.1152737140655518,-2.838996171951294,-0.5972734689712524
1779037599107162400,1.934162353515625,2.537992477416992,-2.3796255588531494,-1.7400496006011963
1779037599123493400,1.950493408203125,0.9993755221366882,-2.7339274883270264,-1.320385217666626
1779037599139822000,1.966822021484375,-1.1090258359909058,-2.956740617752075,-1.281595230102539
1779037599156155100,1.983155029296875,-1.2909109592437744,-2.50408935546875,-0.735634446144104
1779037599172479700,1.999479736328125,-0.5626068711280823,-0.7215845584869385,-0.9048441648483276
1779037599188860200,2.015860107421875,-0.7567093372344971,0.04993823543190956,-1.05404794216156
1779037599205140700,2.032140625,-1.5387696027755737,0.5164865851402283,-1.0273226499557495
1779037599221465000,2.048465087890625,-1.8425222635269165,0.6840163469314575,-0.7202101349830627
1779037599237805600,2.0648056640625,-1.8164077997207642,0.39935314655303955,-0.2396118938922882
1779037599250055200,2.07705517578125,-0.8909469842910767,-0.8848382830619812,-0.0012217304902151227
1779037599266384400,2.09338427734375,0.06352998316287994,-1.873218297958374,0.2356412708759308
1779037599282710300,2.109710205078125,0.5942191481590271,-2.3429737091064453,0.6856962442398071
1779037599299036200,2.1260361328125,0.9329439401626587,-2.7791314125061035,1.5085316896438599
1779037599315363600,2.142363525390625,1.162629246711731,-2.593886613845825,2.177123785018921
1779037599331697000,2.15869677734375,1.317789077758789,-1.8196148872375488,2.4352142810821533
1779037599348022500,2.1750224609375,0.826195240020752,-0.4518875777721405,2.0949623584747314
1779037599364356900,2.19135693359375,0.21395555138587952,-1.3570371866226196,1.6061174869537354
1779037599380686000,2.20768603515625,-0.05451972410082817,-1.1342240571975708,1.0517572164535522
1779037599397034800,2.22403466796875,-0.8309294581413269,0.04902193695306778,0.4512766897678375
1779037599413346000,2.240345947265625,-1.966986060142517,0.3300199508666992,-0.8153523802757263
1779037599429695700,2.25669580078125,-1.7534886598587036,-0.3220787048339844,-1.8429805040359497
1779037599446011000,2.273010986328125,-0.5520694851875305,-1.5224288702011108,-1.524566888809204
1779037599462331000,2.289330810546875,-0.5451972484588623,-1.1378892660140991,-0.7255551815032959
1779037599478672100,2.305672119140625,-0.3101668357849121,0.010231993161141872,-0.010079276748001575
1779037599495013400,2.322013427734375,0.013897184282541275,1.2052371501922607,0.4063780903816223
1779037713223745000,116.0507451171875,-0.48548516631126404,0.11407908797264099,-0.22098049521446228
1779037713240057900,116.06705786132812,-0.4395175576210022,-0.013897184282541275,0.01924225501716137
1779037713256394000,116.08339404296875,-0.34956762194633484,-0.13439035415649414,0.23915374279022217
1779037713272738000,116.09973803710938,-0.2669481039047241,-0.20662516355514526,0.2370157092809677
1779037713289051600,116.1160517578125,-0.24327708780765533,-0.242513507604599,0.08979719132184982
1779037713305379600,116.13237963867188,-0.24587325751781464,-0.20754146575927734,-0.09728029370307922
1779037713321726700,116.14872680664062,-0.28099802136421204,-0.09285151958465576,-0.3119994103908539
1779037713338058000,116.16505810546874,-0.3430008292198181,0.015882495790719986,-0.4683809280395508
1779037713354399500,116.1813994140625,-0.34834590554237366,0.09392052888870239,-0.4584543704986572
1779037713370721800,116.1977216796875,-0.24174992740154266,-0.05360342562198639,-0.27718010544776917
1779037713387061500,116.2140615234375,-0.040622539818286896,-0.43508878350257874,-0.010690141469240189
1779037713403383300,116.23038330078126,0.13958270847797394,-0.7954992651939392,0.15561792254447937
1779037713419722200,116.24672216796876,0.2454151064157486,-1.0968085527420044,0.10537425428628922
1779037713436030700,116.26303076171875,0.09743300825357437,-1.0363328456878662,-0.24098633229732513
1779037713452386600,116.27938647460938,-0.1359175145626068,-0.5681046843528748,-0.7974845767021179
1779037713468708900,116.295708984375,-0.327729195356369,-0.275347501039505,-1.2069170475006104
1779037713485035300,116.31203515625,-0.531147301197052,-0.611934244632721,-1.272737741470337
1779037713501374500,116.32837451171875,-0.6076582074165344,-1.1342240571975708,-0.9320276379585266
1779037713517697800,116.34469775390625,-0.5745187401771545,-1.2530373334884644,-0.3055853247642517
1779037713534032400,116.36103247070312,-0.41111230850219727,-0.9489791393280029,0.23900102078914642
1779037713550317800,116.37731787109375,-0.09056077152490616,-0.5543602108955383,0.43386703729629517
1779037713566683400,116.39368334960938,0.25473082065582275,-0.07773260027170181,0.32131510972976685
1779037713583003100,116.41000317382813,0.5306891798973083,0.3225368559360504,0.11560624837875366
1779037713599347500,116.42634741210938,0.617584764957428,0.49266281723976135,-0.02474004216492176
1779037713615673000,116.44267309570313,0.5555819272994995,0.3637702465057373,0.013897184282541275
1779037713631992000,116.45899194335938,0.43050727248191833,0.06383541971445084,0.14248432219028473
1779037713648329200,116.4753291015625,0.3006984293460846,-0.2252565622329712,0.19608774781227112
1779037713664651300,116.4916513671875,0.2600758671760559,-0.3724750876426697,0.1618792861700058
1779037713680982300,116.50798217773438,0.28237244486808777,-0.3446807265281677,0.18157969415187836
1779037713697311700,116.52431176757813,0.2565633952617645,-0.12186761945486069,0.3019201457500458
1779037713713642800,116.54064282226562,0.1560760736465454,0.10720685124397278,0.4317290186882019
1779037713729971000,116.55697094726563,0.09254608303308487,0.17989981174468994,0.5070181488990784
1779037713746301400,116.57330151367188,0.09957103431224823,0.08399397134780884,0.48258355259895325
1779037713762630100,116.58963012695312,0.12629638612270355,-0.11438451707363129,0.3732386529445648
1779037713778961200,116.60596118164062,0.11743884533643723,-0.28237244486808777,0.20295998454093933
1779037713795291000,116.62229077148437,0.08384125679731369,-0.2649627923965454,0.0010690141934901476
1779037713811620900,116.63862084960938,0.0959058403968811,-0.11591167747974396,-0.1927279829978943
1779037713827966200,116.65496630859376,0.22067506611347198,-0.11698069423437119,-0.40225476026535034
1779037713844295000,116.671294921875,0.3390302062034607,-0.11285735666751862,-0.5404630303382874
1779037713860629200,116.68762915039062,0.34284812211990356,-0.08750644326210022,-0.6189591884613037
1779037713876953600,116.70395361328124,0.2938261926174164,-0.13072516024112701,-0.6281222105026245
1779037713893282800,116.72028271484375,0.22632557153701782,-0.00015271631127689034,-0.5535966157913208
1779037713909614000,116.73661401367187,0.12018773704767227,0.2021963894367218,-0.4103487432003021
1779037713925943300,116.752943359375,0.002138028386980295,0.28557950258255005,-0.28206703066825867
1779037713942272500,116.7692724609375,-0.02015855349600315,0.09728029370307922,-0.1388191282749176
1779037713958600400,116.78560034179688,0.004123340360820293,-0.11621711403131485,-0.003054326167330146
1779037713974934300,116.80193432617187,0.021991148591041565,-0.062460970133543015,-0.0029016099870204926
1779037713991261400,116.81826147460937,-0.001679879380390048,0.052228979766368866,-0.24633140861988068
1779037714007573800,116.83457373046875,-0.046273041516542435,-0.021532999351620674,-0.5419901609420776
1779037714023924700,116.8509248046875,-0.07070764899253845,-0.12919799983501434,-0.5682573914527893
1779037714040252200,116.86725219726563,-0.09422596544027328,-0.027488935738801956,-0.3251330256462097
1779037714056582100,116.88358203125,-0.08781187981367111,-0.01771509274840355,-0.04092797264456749
1779037714072913000,116.89991284179688,-0.08338310569524765,-0.07513642311096191,0.08048149943351746
1779037714089241600,116.91624169921874,-0.05253441259264946,-0.09483683109283447,0.009010262787342072
1779037714105572400,116.932572265625,-0.012675453908741474,-0.21410827338695526,-0.2142609804868698
1779037714121885000,116.94888500976562,-0.05467243865132332,-0.3023782968521118,-0.4456261992454529
1779037714138209000,116.965208984375,-0.14782938361167908,-0.23335053026676178,-0.47708576917648315
1779037714154548000,116.9815478515625,-0.2580905556678772,-0.04077525436878204,-0.060933809727430344
1779037714170878700,116.99787866210937,-0.48426342010498047,-0.12461651116609573,0.4306600093841553
1779037714187195000,117.01419482421875,-0.4804455041885376,-0.3888157308101654,0.5342016816139221
1779037714203536400,117.03053637695312,-0.3546072840690613,-0.20295998454093933,0.35292738676071167
1779037714219868200,117.0468681640625,-0.31322115659713745,0.23884831368923187,0.16401731967926025
