time,seconds_elapsed,z,y,x
1779964936964690700,0.123690673828125,-0.6852380633354187,-3.8568503856658936,0.5061018466949463
1779964936981041200,0.140041259765625,-1.0456485748291016,-4.141360759735107,0.27809640765190125
1779964936997352700,0.156352783203125,-1.4647021293640137,-5.731290340423584,-0.337044894695282
1779964937013687600,0.1726875,-0.6768386960029602,-4.765970706939697,-1.4208725690841675
1779964937029998600,0.18899853515625,-0.25595253705978394,-3.682142972946167,-1.9645426273345947
1779964937046359600,0.205359619140625,0.5152648091316223,-3.760486364364624,-1.633453607559204
1779964937062671000,0.221671142578125,0.3078760802745819,-2.5590672492980957,-1.7919732332229614
1779964937079020300,0.238020263671875,0.47479501366615295,-1.6391041278839111,-2.1896464824676514
1779964937095347200,0.25434716796875,0.6476698517799377,-0.7408268451690674,-3.0162999629974365
1779964937111679700,0.2706796875,0.6893614530563354,-0.7948883771896362,-3.814089775085449
1779964937127994600,0.28699462890625,0.8057312369346619,-1.871996521949768,-3.520263671875
1779964937144341000,0.303341064453125,1.1525499820709229,-2.7210991382598877,-2.496148109436035
1779964937160668700,0.319668701171875,1.2185235023498535,-2.0639610290527344,-1.0965031385421753
1779964937177005600,0.336005615234375,0.6574437022209167,-2.1369593143463135,0.3173444867134094
1779964937193330000,0.352329833984375,0.7186829447746277,-3.0243937969207764,0.6160575747489929
1779964937209662200,0.368662109375,1.1267409324645996,-3.0918943881988525,1.00197172164917
1779964937225989600,0.38498974609375,1.6510159969329834,-3.664733409881592,1.4676038026809692
1779964937242325800,0.40132568359375,2.2731823921203613,-4.189313888549805,1.8981109857559204
1779964937258649300,0.4176494140625,2.5972464084625244,-5.348430633544922,1.905441403388977
1779964937274987500,0.433987548828125,3.2253684997558594,-5.142874717712402,2.791043281555176
1779964937291314200,0.450314208984375,3.871511220932007,-4.790099620819092,3.4268012046813965
1779964937307627500,0.46662744140625,4.22566032409668,-3.545003652572632,3.3982434272766113
1779964937323968800,0.48296875,4.100738525390625,-2.9513955116271973,2.9862146377563477
1779964937340276700,0.49927685546875,3.654043197631836,-3.5020904541015625,2.7589728832244873
1779964937356621800,0.515621826171875,3.0694451332092285,-3.7678167819976807,2.632523775100708
1779964937372950000,0.531949951171875,2.7647759914398193,-3.0187432765960693,2.595566511154175
1779964937389281500,0.548281494140625,2.689028739929199,-2.289217472076416,2.386497735977173
1779964937405621200,0.564621337890625,2.595871925354004,-1.814269781112671,2.0247128009796143
1779964937421942800,0.58094287109375,2.8732047080993652,-0.7148650288581848,1.857793927192688
1779964937438288000,0.597287841796875,3.1726813316345215,0.20555615425109863,1.9201022386550903
1779964937454610200,0.613610107421875,2.3541219234466553,-1.2794572114944458,1.688889741897583
1779964937470932500,0.629932373046875,-1.0114401578903198,-6.318943023681641,-2.8900034427642822
1779964937487263500,0.646263427734375,-1.463938593864441,0.18127426505088806,-2.855642318725586
1779964937503591400,0.66259130859375,-0.34895676374435425,-0.1794416606426239,-1.0138835906982422
1779964937519923500,0.67892333984375,0.7680103182792664,-0.8761335015296936,0.9318749308586121
1779964937536252400,0.69525244140625,0.7904596328735352,-1.016479730606079,1.6074918508529663
1779964937552584700,0.711584716796875,0.7498371005058289,-0.3098613917827606,1.5034921169281006
1779964937568922000,0.727922119140625,0.4847215712070465,-0.058948494493961334,1.0308351516723633
1779964937585263600,0.744263671875,-0.019547687843441963,-0.21868975460529327,0.5160284042358398
1779964937601587000,0.7605869140625,-0.4095851480960846,-0.08704829961061478,-0.42791110277175903
1779964937617936400,0.776936279296875,-0.4761694669723511,-0.24587325751781464,-1.0951286554336548
1779964937634243300,0.793243408203125,-0.4242459237575531,-0.8796459436416626,-0.8234463334083557
1779964937650574000,0.809573974609375,-0.2799290120601654,-1.560302495956421,0.09056077152490616
1779964937666908000,0.825907958984375,0.2255619913339615,-1.3005321025848389,0.7128797173500061
1779964937683234000,0.842234130859375,0.6010913848876953,-0.36300668120384216,0.670577347278595
1779964937699566300,0.85856640625,0.6155994534492493,0.4508185386657715,0.3179553747177124
1779964937715883300,0.87488330078125,0.33719760179519653,0.504574716091156,-0.031612277030944824
1779964937732229400,0.8912294921875,-0.4014911949634552,-0.19043724238872528,-0.02535090781748295
1779964937748561700,0.907561767578125,-0.9934195876121521,-1.1311696767807007,0.0019853119738399982
1779964937764884700,0.923884765625,-1.3750576972961426,-1.5601497888565063,-0.1313360333442688
1779964937781218300,0.94021826171875,-1.7750216722488403,-1.3278683423995972,-0.2148718535900116
1779964937797555000,0.956554931640625,-1.8191566467285156,-0.8759807348251343,-0.14752395451068878
1779964937813877800,0.972877685546875,-1.3081679344177246,-0.4053090810775757,-0.12751811742782593
1779964937830196200,0.9891962890625,-0.9877691268920898,-0.17027868330478668,-0.047800205647945404
1779964937846527500,1.005527587890625,-0.778853178024292,-0.044745877385139465,-0.14523321390151978
1779964937862857200,1.021857177734375,-0.9909761548042297,0.11560624837875366,-0.29367345571517944
1779964937879189200,1.038189208984375,-1.2432634830474854,-0.005345070734620094,-0.35643985867500305
1779964937895517400,1.054517333984375,-0.9665415287017822,-0.3049744665622711,-0.5001459121704102
1779964937911846700,1.0708466796875,-0.2396118938922882,-0.9622654914855957,-0.6835582256317139
1779964937928180700,1.0871806640625,1.0325149297714233,-1.2287554740905762,-0.9737191796302795
1779964937944507100,1.103507080078125,2.0033326148986816,-1.0033462047576904,-1.0644327402114868
1779964937960833800,1.119833740234375,2.062739133834839,-0.9439395070075989,-0.5650503635406494
1779964937977169400,1.13616943359375,3.2739322185516357,-1.1436924934387207,0.3828597962856293
1779964937993483500,1.1524833984375,5.054909706115723,0.770301103591919,1.8445075750350952
1779964938009831200,1.1688310546875,5.704565048217773,3.9289324283599854,2.2269091606140137
1779964938026159400,1.185159423828125,5.536577224731445,4.2583417892456055,-0.4027129113674164
1779964938042491000,1.201490966796875,5.3893585205078125,3.586848020553589,-2.3516783714294434
1779964938058832000,1.217831787109375,5.250539302825928,3.1202995777130127,-2.1227567195892334
1779964938075171300,1.23417138671875,6.741355895996094,2.6082417964935303,-1.8936822414398193
1779964938091492000,1.2504921875,6.097809791564941,1.5654948949813843,-1.0474811792373657
1779964938107796700,1.266796630859375,3.487277030944824,0.6001750826835632,-1.2693779468536377
1779964938124150300,1.283150390625,0.984867513179779,-0.42699480056762695,-1.2292135953903198
1779964938140490800,1.29949072265625,-0.8793405294418335,-1.1823296546936035,-1.3242031335830688
1779964938156812800,1.315812744140625,-2.1920900344848633,-2.149482011795044,-0.4688390791416168
1779964938173147000,1.33214697265625,-2.6033549308776855,-3.325244903564453,0.04535674303770065
1779964938189457000,1.348456787109375,-2.1671972274780273,-4.823850154876709,-0.06841690838336945
1779964938205811700,1.364811767578125,-1.6481144428253174,-3.486818790435791,0.32528573274612427
1779964938222135800,1.3811357421875,-1.24647057056427,-1.755932092666626,-0.12980885803699493
1779964938238467600,1.397467529296875,-1.087492823600769,-0.3214678466320038,-1.1343767642974854
1779964938254790000,1.413789794921875,-1.1921035051345825,-0.5725334286689758,-1.4957035779953003
1779964938271118600,1.43011865234375,-1.3475687503814697,3.168558120727539,-2.2340869903564453
1779964938287455700,1.446455810546875,0.057879481464624405,3.1789426803588867,-1.7812830209732056
1779964938303764200,1.46276416015625,1.374904990196228,-1.0682506561279297,-0.1134682223200798
1779964938320107500,1.479107421875,2.358856201171875,1.2389874458312988,-0.21090123057365417
1779964938336435500,1.495435546875,3.7867536544799805,0.004581489134579897,-0.6349944472312927
1779964938352764700,1.5117646484375,4.944037914276123,-0.5960517525672913,0.09040805697441101
1779964938369095700,1.528095703125,5.723043918609619,0.6644686460494995,0.15836681425571442
1779964938385424600,1.544424560546875,5.044830799102783,3.1274774074554443,0.43707409501075745
1779964938401757000,1.5607568359375,4.616156101226807,3.7163515090942383,0.4899139404296875
1779964938418098700,1.5770986328125,2.948341131210327,3.095559597015381,0.3628539443016052
1779964938434433800,1.593433837890625,0.036041051149368286,0.8097018599510193,-0.164170041680336
1779964938450729200,1.609729248046875,-1.718363881111145,-0.5244278311729431,-0.8753699064254761
1779964938467077600,1.62607763671875,-0.5917757153511047,-0.06276640295982361,-0.18417587876319885
1779964938483406800,1.64240673828125,-0.08659014850854874,-0.3335324227809906,0.631481945514679
1779964938499733800,1.658733642578125,-0.887739896774292,-0.24144448339939117,0.5929974317550659
1779964938516070000,1.67506982421875,-1.6058119535446167,0.4262312352657318,0.5094616413116455
1779964938532407800,1.69140771484375,-2.1177170276641846,1.2649492025375366,0.1670716404914856
1779964938548723700,1.7077236328125,-2.196824073791504,1.0758863687515259,-0.4715879559516907
1779964938565071400,1.7240712890625,-1.5575536489486694,-0.17043140530586243,-0.570853590965271
1779964938581386000,1.740385986328125,-0.12568552792072296,-0.9619600176811218,-0.2964223623275757
1779964938597731300,1.7567314453125,0.12431107461452484,-0.1313360333442688,-0.01160643994808197
1779964938614062000,1.77306201171875,-0.0607810914516449,0.6287330389022827,0.11331550031900406
1779964938630376200,1.789376220703125,-0.24113905429840088,0.48976120352745056,-0.07620543986558914
1779964938646701000,1.805701171875,-0.28557950258255005,0.13240504264831543,-0.22281309962272644
1779964938663049000,1.822049072265625,-0.20799961686134338,0.025656340643763542,-0.1915062516927719
1779964938679387400,1.838387451171875,-0.001527163083665073,-0.1010981947183609,-0.1823432743549347
1779964938695714600,1.854714599609375,0.07192938029766083,-0.003054326167330146,-0.12446379661560059
1779964938712043500,1.87104345703125,0.14309518039226532,0.08002334833145142,-0.01725694350898266
1779964938728374000,1.8873740234375,0.18906278908252716,0.20631973445415497,0.13240504264831543
1779964938744702200,1.9037021484375,0.31031954288482666,0.2535090744495392,0.23060162365436554
1779964938761037000,1.920037109375,0.3920227587223053,0.38835757970809937,0.30146199464797974
1779964938777360100,1.936360107421875,0.4141666293144226,0.5642867684364319,0.3588833212852478
1779964938793698800,1.95269873046875,0.36163222789764404,0.7724391222000122,0.3637702465057373
1779964938810008600,1.969008544921875,0.3066543638706207,0.9723447561264038,0.3484986126422882
1779964938826342700,1.9853427734375,0.32498031854629517,0.9560040831565857,0.26633724570274353
1779964938842673200,2.001673095703125,0.3799581825733185,0.9121745228767395,0.17119498550891876
1779964938859002400,2.01800244140625,0.456163614988327,0.826195240020752,0.03695734590291977
1779964938875332000,2.03433203125,0.5103778839111328,0.7159340381622314,-0.168751522898674
1779964938891666400,2.05066650390625,0.5535966157913208,0.6293439269065857,-0.39645153284072876
1779964938907996200,2.06699609375,0.5497786998748779,0.5352706909179688,-0.5726861953735352
1779964938924330200,2.083330322265625,0.5218316316604614,0.5073235630989075,-0.6632469296455383
1779964938940649500,2.0996494140625,0.49327367544174194,0.4108068645000458,-0.7014260292053223
1779964938956984300,2.115984375,0.3828597962856293,0.38209620118141174,-0.7032586336135864
1779964938973314000,2.13231396484375,0.4411974251270294,0.11789698898792267,-0.8298604488372803
1779964938989645600,2.1486455078125,0.40943244099617004,0.02672535367310047,-0.8341364860534668
1779964939005974300,2.164974365234375,0.36713001132011414,-0.01863138936460018,-0.6989825367927551
1779964939022305500,2.181305419921875,0.32559117674827576,-0.00733038317412138,-0.4834998548030853
1779964939038652000,2.19765185546875,0.21059578657150269,0.19364428520202637,-0.20433442294597626
1779964939054974700,2.213974609375,0.09697485715150833,0.40424007177352905,0.10354165732860565
1779964939071313200,2.230313232421875,0.014202617108821869,0.6679811477661133,0.3816380500793457
1779964939087619600,2.24661962890625,-0.03436116874217987,1.069166898727417,0.5381723046302795
1779964939103969500,2.262969482421875,-0.05513058975338936,1.4404202699661255,0.5526803135871887
1779964939120302000,2.279302001953125,-0.07910704612731934,1.6103935241699219,0.4583016633987427
1779964939136617500,2.295617431640625,-0.13209961354732513,1.6986634731292725,0.3988949954509735
1779964939152961800,2.3119619140625,-0.15225815773010254,1.923767328262329,0.3880521357059479
1779964939169274600,2.328274658203125,-0.2562579810619354,2.3664920330047607,0.4216497242450714
1779964939185617700,2.34461767578125,-0.3378084897994995,2.936123847961426,0.4260784983634949
1779964939201941800,2.360941650390625,-0.1774563491344452,3.3794591426849365,0.3381139039993286
1779964939218282500,2.377282470703125,0.04214970022439957,3.8875463008880615,0.08491026610136032
1779964939234611500,2.393611572265625,0.07757988572120667,3.955047130584717,-0.04886921867728233
1779964939250944800,2.40994482421875,0.12950342893600464,3.8756344318389893,-0.16264286637306213
1779964939267245300,2.426245361328125,0.21242839097976685,3.765984296798706,-0.25014930963516235
1779964939283604500,2.4426044921875,0.2834414839744568,3.7171149253845215,-0.2612976133823395
1779964939299927000,2.458927001953125,0.3546072840690613,3.877772569656372,-0.22052235901355743
1779964939316254500,2.47525439453125,0.3367394804954529,3.9101483821868896,-0.21181751787662506
1779964939332579300,2.491579345703125,0.3695734739303589,3.737884521484375,-0.16569720208644867
1779964939348910600,2.50791064453125,0.29306259751319885,3.5468363761901855,-0.12492194026708603
1779964939365239800,2.52423974609375,0.2863430976867676,3.5772268772125244,-0.055894169956445694
1779964939381572400,2.540572265625,0.20662516355514526,3.380681037902832,-0.015271631069481373
1779964939397900300,2.556900390625,0.23900102078914642,3.1280882358551025,-0.021532999351620674
1779964939414249000,2.5732490234375,0.23396138846874237,2.587472438812256,-0.023518312722444534
1779964939430541000,2.589541015625,0.2275473028421402,1.5905404090881348,-0.058337632566690445
1779964939446896400,2.605896484375,0.20983220636844635,0.28649580478668213,-0.16768251359462738
1779964939463217200,2.622217041015625,0.17348572611808777,-0.28038713335990906,-0.2405281960964203
1779964939479557000,2.63855712890625,0.19975294172763824,-0.1085812970995903,-0.2762638032436371
1779964939495882000,2.654882080078125,0.25076019763946533,0.18738290667533875,-0.25274550914764404
1779964939512201200,2.671201171875,0.23197607696056366,0.2064724564552307,-0.266642689704895
1779964939528560000,2.68756005859375,0.20234911143779755,0.14523321390151978,-0.26221391558647156
1779964939544887300,2.70388720703125,0.14752395451068878,0.24083362519741058,-0.21578814089298248
1779964939561214700,2.720214599609375,0.08002334833145142,0.36163222789764404,-0.21639901399612427
1779964939577520000,2.73652001953125,-0.010995574295520782,0.34513887763023376,-0.266642689704895
1779964939593877200,2.752877197265625,-0.055741455405950546,0.541532039642334,-0.29794952273368835
1779964939610209000,2.769208984375,-0.08078692853450775,0.874453604221344,-0.33887749910354614
1779964939626535700,2.78553564453125,-0.06017022579908371,1.1572842597961426,-0.42012256383895874
1779964939642851300,2.801851318359375,-0.09804387390613556,1.4262176752090454,-0.37522396445274353
1779964939659197200,2.818197265625,-0.10842858254909515,1.6809484958648682,-0.294895201921463
1779964939675528400,2.834528564453125,-0.06352998316287994,1.9992092847824097,-0.1765400618314743
1779964939691858000,2.85085791015625,0.022602014243602753,2.3105978965759277,-0.14538592100143433
1779964939708188000,2.86718798828125,0.1059851199388504,2.581974744796753,-0.20005837082862854
1779964939724531000,2.883531005859375,0.21700987219810486,2.822044610977173,-0.17989981174468994
1779964939740846800,2.899846923828125,0.323147714138031,2.9269607067108154,-0.15790866315364838
1779964939757182500,2.916182373046875,0.40744712948799133,3.000875473022461,-0.18096883594989777
1779964939773495000,2.9324951171875,0.489608496427536,3.0993776321411133,-0.18845193088054657
1779964939789841200,2.948841064453125,0.48517972230911255,3.017674207687378,-0.25534167885780334
1779964939806154500,2.965154541015625,0.5022839307785034,3.001486301422119,-0.24465152621269226
1779964939822487800,2.98148779296875,0.4300491213798523,3.0243937969207764,-0.11285735666751862
1779964939838819800,2.99781982421875,0.38469240069389343,3.3797647953033447,0.001527163083665073
1779964939855126800,3.014126708984375,0.35475999116897583,3.649003505706787,0.07513642311096191
1779964939871463400,3.03046337890625,0.31261029839515686,3.8432586193084717,0.04138612002134323
1779964939887807500,3.046807373046875,0.3449861407279968,4.031710624694824,0.027488935738801956
1779964939904158200,3.063158203125,0.4505131244659424,4.019035339355469,0.08506298810243607
1779964939920465700,3.079465576171875,0.4308127164840698,3.606548309326172,0.14416420459747314
1779964939936800300,3.09580029296875,0.44913867115974426,3.3534975051879883,0.1258382350206375
1779964939953129700,3.112129638671875,0.4967861473560333,3.1700851917266846,0.1241583600640297
1779964939969462000,3.1284619140625,0.5656611919403076,2.9462029933929443,0.12568552792072296
1779964939985790200,3.144790283203125,0.5639813542366028,2.7365236282348633,0.13668109476566315
1779964940002121200,3.161121337890625,0.5467243790626526,2.8493809700012207,0.12064588814973831
1779964940018464000,3.177464111328125,0.5186246037483215,3.0442469120025635,0.18829920887947083
1779964940034801000,3.19380078125,0.5670356750488281,3.081357002258301,0.2591595947742462
1779964940051122000,3.210121826171875,0.6957755088806152,3.0251574516296387,0.29856038093566895
1779964940067457000,3.22645703125,0.7385360598564148,2.791501522064209,0.37598755955696106
1779964940083777000,3.242777099609375,0.8880453705787659,2.4462099075317383,0.4726569950580597
1779964940100126700,3.259126708984375,0.8935431241989136,2.4297165870666504,0.44364088773727417
1779964940116442000,3.275442138671875,0.59803706407547,2.0323486328125,0.3856086730957031
1779964940132764400,3.291764404296875,0.3686571717262268,1.5593862533569336,0.45005497336387634
1779964940149102600,3.3081025390625,0.2102903574705124,1.321606993675232,0.593913733959198
1779964940165422800,3.3244228515625,0.03787364438176155,1.0870347023010254,0.6568328738212585
1779964940181751000,3.3407509765625,-0.11575896292924881,0.5539020895957947,0.5338962078094482
1779964940198081800,3.357081787109375,-0.23411411046981812,0.03680463135242462,0.3423899710178375
1779964940214411000,3.373410888671875,-0.30512720346450806,-0.35781431198120117,0.1820378452539444
1779964940230760200,3.38976025390625,-0.32971450686454773,-0.7015787363052368,-0.003817907767370343
1779964940247093000,3.406093017578125,-0.31062498688697815,-0.8978192210197449,-0.18707747757434845
1779964940263417000,3.4224169921875,-0.28557950258255005,-0.8617781400680542,-0.2715296149253845
1779964940279732500,3.438732421875,-0.1966986060142517,-0.6334672570228577,-0.2099849283695221
1779964940296063700,3.455063720703125,-0.17821992933750153,-0.5699372887611389,-0.052381694316864014
1779964940312395800,3.471395751953125,-0.12263119965791702,-0.3315471112728119,0.08170322328805923
1779964940328725800,3.487725830078125,-0.04077525436878204,0.06490442901849747,0.21762074530124664
1779964940345056300,3.50405615234375,0.11850785464048386,0.4712825417518616,0.3032945990562439
1779964940361388300,3.52038818359375,0.2695443034172058,0.4196644127368927,0.2347249686717987
1779964940377716700,3.536716796875,0.3776674270629883,1.0989465713500977,0.1293507218360901
1779964940394059000,3.55305908203125,0.6018549799919128,1.1403326988220215,0.17669276893138885
1779964940410378200,3.569378173828125,0.7382306456565857,1.562135100364685,0.37522396445274353
1779964940426710000,3.5857099609375,0.6395758986473083,2.249358654022217,0.6817256212234497
1779964940443037400,3.602037353515625,0.7312057018280029,2.447736978530884,0.8585711121559143
1779964940459369000,3.618368896484375,0.3988949954509735,1.8909333944320679,0.825584352016449
1779964940475699000,3.634698974609375,0.016798794269561768,0.8245153427124023,0.4645630121231079
1779964940492030700,3.65103076171875,-0.26481008529663086,-0.11026117950677872,0.06673702597618103
1779964940508401200,3.667401123046875,-0.25366178154945374,-0.3055853247642517,-0.1638645976781845
1779964940524702200,3.6837021484375,-0.08338310569524765,-0.40653082728385925,0.03329215571284294
1779964940541043500,3.70004345703125,-0.12965615093708038,-0.3390302062034607,0.20036379992961884
1779964940557366000,3.716365966796875,-0.1010981947183609,-0.7215845584869385,0.10781771689653397
1779964940573689300,3.732689453125,-0.10399980843067169,-1.3994922637939453,-0.14828753471374512
1779964940590029300,3.749029296875,-0.05513058975338936,-1.662469744682312,-0.4127921760082245
1779964940606354200,3.765354248046875,-0.13148874044418335,-2.057852268218994,-0.8278751373291016
1779964940622686700,3.781686767578125,-0.33567044138908386,-2.9019153118133545,-1.598023533821106
1779964940639015000,3.798014892578125,-0.5253441333770752,-6.378502368927002,-2.054645299911499
1779964940655346200,3.81434619140625,-0.3223841190338135,-10.405325889587402,-0.5923865437507629
1779964940671673600,3.830673583984375,0.05513058975338936,-7.749131202697754,-0.42668938636779785
1779964940687991600,3.846991455078125,-0.06230825558304787,-2.280818223953247,-0.39324450492858887
1779964940704332800,3.863332763671875,-0.3568980097770691,0.8962920308113098,-0.6788240075111389
1779964940720670200,3.879670166015625,-0.43386703729629517,0.9715811610221863,-0.8773552179336548
1779964940736991500,3.895991455078125,-0.2945897579193115,0.1569923609495163,-0.7139487266540527
1779964940753318000,3.91231787109375,-0.09682214260101318,-0.36102136969566345,-0.3194825351238251
1779964940769651500,3.9286513671875,0.023365596309304237,-0.25641068816185,-0.003512475173920393
1779964940785962500,3.94496240234375,0.09193521738052368,-0.19349156320095062,0.144622340798378
1779964940802304000,3.961303955078125,0.1134682223200798,-0.06643159687519073,0.1797471046447754
1779964940818636300,3.97763623046875,0.09972374886274338,0.12538009881973267,0.152105450630188
1779964940834964200,3.993964111328125,0.08704829961061478,0.21502456068992615,0.11988230794668198
1779964940851283200,4.010283203125,0.07284568250179291,0.15195272862911224,0.0913243517279625
1779964940867632600,4.026632568359375,0.04948008432984352,0.04489859566092491,0.03878994286060333
1779964940883957800,4.042957763671875,0.006108652334660292,-0.11835514008998871,-0.06872233748435974
1779964940900284200,4.0592841796875,-0.03588833287358284,-0.2981022298336029,-0.17959438264369965
1779964940916617200,4.0756171875,-0.07208210229873657,-0.4150829315185547,-0.2687807083129883
1779964940932946400,4.091946533203125,-0.1014036312699318,-0.4127921760082245,-0.34025195240974426
1779964940949278700,4.10827880859375,-0.12858712673187256,-0.28069257736206055,-0.36483925580978394
1779964940965606400,4.1246064453125,-0.1443169116973877,-0.14095716178417206,-0.36621370911598206
1779964940981938700,4.140938720703125,-0.14813482761383057,-0.11316278576850891,-0.34773504734039307
1779964940998285000,4.15728515625,-0.12965615093708038,-0.11362093687057495,-0.294895201921463
1779964941014575400,4.173575439453125,-0.0910189226269722,-0.06658431142568588,-0.23121249675750732
1779964941030943500,4.189943603515625,-0.048716504126787186,0.0024434609804302454,-0.1589776873588562
1779964941047270700,4.206270751953125,-0.00733038317412138,0.12064588814973831,-0.031612277030944824
1779964941063585500,4.22258544921875,0.04459316283464432,0.1869247704744339,0.10445795953273773
1779964941079934700,4.238934814453125,0.07819075137376785,0.1992947906255722,0.19532416760921478
1779964941096232000,4.25523193359375,0.08261952549219131,0.21594086289405823,0.23258693516254425
1779964941112594400,4.271594482421875,0.06994406878948212,0.18616119027137756,0.22449298202991486
1779964941128906800,4.28790673828125,0.05009094998240471,0.11911872029304504,0.1820378452539444
1779964941145277200,4.304277099609375,0.030543262138962746,0.0455094613134861,0.12232576310634613
1779964941161582300,4.320582275390625,0.005497787147760391,-0.00045814894838258624,0.04199698567390442
1779964941177913900,4.336913818359375,-0.019547687843441963,0.0024434609804302454,-0.03985895588994026
1779964941194247000,4.353246826171875,-0.03588833287358284,0.038637228310108185,-0.09392052888870239
1779964941210571500,4.369571533203125,-0.03726277872920036,0.058337632566690445,-0.11270463466644287
1779964941226899700,4.385899658203125,-0.025503624230623245,0.06612616032361984,-0.09972374886274338
1779964941243241000,4.402240966796875,-0.004734205547720194,0.07437284290790558,-0.05451972410082817
1779964941259554800,4.418554931640625,0.01618792861700058,0.09056077152490616,-0.0024434609804302454
1779964941275898000,4.434898193359375,0.02886338345706463,0.11468994617462158,0.029932396486401558
1779964941292208000,4.4512080078125,0.023518312722444534,0.1258382350206375,0.0328340083360672
1779964941308544000,4.4675439453125,0.007788531947880983,0.11499538272619247,0.01038470957428217
1779964941324873200,4.483873291015625,-0.011453723534941673,0.07437284290790558,-0.02275473065674305
1779964941341205800,4.500205810546875,-0.01725694350898266,0.047189339995384216,-0.03145955875515938
1779964941357534200,4.5165341796875,-0.01664607785642147,0.060322944074869156,-0.02321287989616394
1779964941373865200,4.532865234375,-0.016951510682702065,0.07788532227277756,-0.02687807008624077
1779964941390194700,4.549194580078125,-0.017562376335263252,0.06123924255371094,-0.04444044828414917
1779964941406526200,4.565526123046875,-0.01878410577774048,-0.001527163083665073,-0.05711590126156807
1779964941422855200,4.581855224609375,-0.02367102913558483,-0.05497787147760391,-0.06475171446800232
1779964941439186200,4.598186279296875,-0.03878994286060333,-0.08735372871160507,-0.08216137439012527
1779964941455515400,4.614515380859375,-0.04993823543190956,-0.12049316614866257,-0.10002918541431427
1779964941471844600,4.6308447265625,-0.05253441259264946,-0.13454307615756989,-0.10399980843067169
1779964941488197000,4.647197021484375,-0.04459316283464432,-0.13286319375038147,-0.08628471940755844
1779964941504528400,4.6635283203125,-0.027030786499381065,-0.12889257073402405,-0.0630718395113945
1779964941520850000,4.679849853515625,0.0006108652451075613,-0.06215553730726242,-0.0025961773935705423
1779964941537183000,4.696182861328125,0.0064140851609408855,-0.03726277872920036,0.01817324012517929
1779964941553512000,4.712511962890625,-0.003512475173920393,-0.06475171446800232,0.007177666760981083
1779964941569842000,4.728842041015625,-0.012522737495601177,-0.09575312584638596,0.00427605677396059
1779964941586171000,4.7451708984375,-0.013591751456260681,-0.09865473955869675,0.010231993161141872
1779964941602508000,4.761508056640625,-0.013897184282541275,-0.06123924255371094,0.012980886735022068
1779964941618836500,4.77783642578125,-0.015577063895761967,-0.057879481464624405,0.005039638374000788
1779964941635145200,4.794145263671875,-0.02626720629632473,-0.07696902006864548,-0.027641652151942253
1779964941651486500,4.810486572265625,-0.04108068719506264,-0.09315694868564606,-0.06551529467105865
1779964941667803100,4.82680322265625,-0.05345070734620094,-0.10720685124397278,-0.09865473955869675
1779964941684133000,4.843133056640625,-0.06108652427792549,-0.12003502249717712,-0.13041973114013672
1779964941700508700,4.8595087890625,-0.06185010448098183,-0.15103642642498016,-0.1362229436635971
1779964941716813800,4.875813720703125,-0.05497787147760391,-0.16111570596694946,-0.11575896292924881
1779964941733142800,4.892142822265625,-0.04184427112340927,-0.15806138515472412,-0.11010845750570297
1779964941749475300,4.908475341796875,-0.03787364438176155,-0.11957687139511108,-0.10384709388017654
1779964941765785900,4.924785888671875,-0.03451388701796532,-0.06704246252775192,-0.09743300825357437
1779964941782118100,4.9411181640625,-0.03573561832308769,-0.0003054326225537807,-0.10064005106687546
1779964941798452500,4.957452392578125,-0.03390302136540413,0.0780380368232727,-0.10659598559141159
1779964941814782200,4.9737822265625,-0.02580905705690384,0.14996741712093353,-0.11010845750570297
1779964941831113700,4.99011376953125,-0.007941247895359993,0.24694228172302246,-0.16065755486488342
1779964941847441400,5.00644140625,-0.006261368747800589,0.28695395588874817,-0.09224065393209457
1779964941863771600,5.022771728515625,-0.004734205547720194,0.3191770911216736,-0.08643743395805359
1779964941880106800,5.039106689453125,0.007941247895359993,0.4317290186882019,-0.08643743395805359
1779964941896434700,5.0554345703125,0.0025961773935705423,0.5132794976234436,-0.14340060949325562
1779964941912764000,5.071763916015625,0.025656340643763542,0.7170031070709229,-0.19624045491218567
1779964941929092000,5.088092041015625,0.02535090781748295,0.7881689071655273,-0.1560760736465454
1779964941945427500,5.104427490234375,0.053297992795705795,0.8078693151473999,-0.1010981947183609
1779964941961756000,5.120755859375,0.046273041516542435,0.8472700715065002,-0.0981965884566307
1779964941978104300,5.137104248046875,0.035124752670526505,0.8906415104866028,-0.12446379661560059
1779964941994423800,5.153423828125,0.005803219974040985,0.9104946255683899,-0.16310101747512817
1779964942010756600,5.169756591796875,0.010995574295520782,0.9002626538276672,-0.1690569519996643
1779964942027091200,5.18609130859375,0.029932396486401558,0.8813258409500122,-0.14156801998615265
1779964942043390700,5.202390625,0.08216137439012527,0.8591819405555725,-0.08964447677135468
1779964942059753000,5.2187529296875,0.061391957104206085,0.8478809595108032,-0.028557950630784035
1779964942076050000,5.2350498046875,0.07819075137376785,0.8651378750801086,-0.025503624230623245
1779964942092412400,5.251412353515625,0.06490442901849747,0.84574294090271,0.01038470957428217
1779964942108741600,5.26774169921875,0.05513058975338936,0.8020660877227783,0.0009162978967651725
1779964942125072100,5.284072021484375,0.058795779943466187,0.6640105247497559,0.030695978552103043
1779964942141401600,5.300401611328125,0.04795292019844055,0.4596760869026184,0.044745877385139465
1779964942157720600,5.316720458984375,0.04230241850018501,0.21960605680942535,0.050243668258190155
1779964942174066000,5.33306591796875,0.04535674303770065,0.016798794269561768,0.05650503560900688
1779964942190391000,5.34939111328125,0.04184427112340927,-0.17150041460990906,0.06108652427792549
1779964942206719200,5.36571923828125,0.03741549700498581,-0.3520110845565796,0.05925392732024193
1779964942223058400,5.382058349609375,0.028099801391363144,-0.5167919993400574,0.060933809727430344
1779964942239383800,5.3983837890625,0.02168571576476097,-0.6905831694602966,0.07238753139972687
1779964942255714300,5.41471435546875,0.007635815534740686,-0.8874344825744629,0.07590000331401825
1779964942272022500,5.4310224609375,-0.008857546374201775,-1.0723739862442017,0.07024950534105301
1779964942288367000,5.4473671875,-0.017409659922122955,-1.2205088138580322,0.06368270516395569
1779964942304690700,5.463690673828125,-0.029474247246980667,-1.2959506511688232,0.06108652427792549
1779964942321010700,5.4800107421875,-0.03222314268350601,-1.2773191928863525,0.07452555745840073
1779964942337352000,5.49635205078125,-0.02733621932566166,-1.1847730875015259,0.09193521738052368
1779964942353696000,5.512696044921875,-0.020311269909143448,-1.0952813625335693,0.0981965884566307
1779964942370011100,5.52901123046875,-0.02871066704392433,-0.9954048991203308,0.08949175477027893
1779964942386344700,5.5453447265625,-0.030695978552103043,-0.8935431241989136,0.07101308554410934
1779964942402673000,5.5616728515625,-0.025503624230623245,-0.7597636580467224,0.06994406878948212
1779964942419004400,5.57800439453125,-0.018478672951459885,-0.6443101167678833,0.07666359096765518
1779964942435333400,5.59433349609375,-0.005345070734620094,-0.566119372844696,0.10033461451530457
1779964942451666400,5.61066650390625,0.004886921960860491,-0.517861008644104,0.11102475970983505
1779964942467995100,5.6269951171875,0.022143865004181862,-0.4867068827152252,0.12660181522369385
1779964942484336600,5.643336669921875,0.02977968007326126,-0.4356996417045593,0.13041973114013672
1779964942500665000,5.6596650390625,0.04902193695306778,-0.3572034537792206,0.15836681425571442
1779964942516996900,5.675996826171875,0.05451972410082817,-0.24236078560352325,0.13790282607078552
1779964942533334000,5.692333984375,0.05696318298578262,-0.11942415684461594,0.10995574295520782
1779964942549656800,5.70865673828125,0.043676864355802536,0.01191187184303999,0.05711590126156807
1779964942565963800,5.7249638671875,0.03436116874217987,0.10965031385421753,0.02672535367310047
1779964942582318600,5.741318603515625,0.03497203439474106,0.2028072625398636,0.01970040425658226
1779964942598639900,5.757639892578125,0.04077525436878204,0.2889392673969269,0.019089538604021072
1779964942614988500,5.773988525390625,0.030543262138962746,0.3735440969467163,-0.0003054326225537807
1779964942631287600,5.79028759765625,0.016340645030140877,0.4288274049758911,-0.032070424407720566
1779964942647627300,5.806627197265625,0.001527163083665073,0.4251621961593628,-0.0503963828086853
1779964942663950600,5.82295068359375,-0.015118914656341076,0.3799581825733185,-0.0633772686123848
1779964942680303900,5.839303955078125,-0.032528575509786606,0.35613444447517395,-0.08429940044879913
1779964942696634000,5.855634033203125,-0.0455094613134861,0.32528573274612427,-0.09269879758358002
1779964942712964600,5.871964599609375,-0.04764748737215996,0.29275718331336975,-0.08292495459318161
1779964942729293600,5.88829345703125,-0.03848451003432274,0.27458393573760986,-0.05406157299876213
1779964942745624600,5.90462451171875,-0.025656340643763542,0.2321287989616394,-0.02871066704392433
1779964942761944800,5.92094482421875,-0.02825251780450344,0.15302173793315887,-0.0403171069920063
1779964942778275800,5.93727587890625,-0.03573561832308769,0.038026362657547,-0.058337632566690445
1779964942794600400,5.953600341796875,-0.03405573591589928,-0.07284568250179291,-0.04657847434282303
1779964942810925300,5.96992529296875,-0.023976460099220276,-0.12690725922584534,-0.013439035043120384
1779964942827261200,5.98626123046875,-0.015118914656341076,-0.13805554807186127,0.01114829070866108
1779964942843593500,6.002593505859375,-0.011301007121801376,-0.1609629988670349,0.018936822190880775
1779964942859921700,6.018921630859375,-0.0065668015740811825,-0.21074850857257843,0.022143865004181862
1779964942876253200,6.035253173828125,-0.00015271631127689034,-0.26083946228027344,0.017867809161543846
1779964942892577800,6.051577880859375,0.00427605677396059,-0.26053401827812195,0.03833179548382759
1779964942908906800,6.06790673828125,-0.0025961773935705423,-0.20845776796340942,0.023365596309304237
1779964942925239300,6.0842392578125,-0.008246680721640587,-0.18845193088054657,0.0019853119738399982
1779964942941578200,6.100578125,-0.00855211354792118,-0.14355333149433136,-0.00855211354792118
1779964942957920800,6.116920654296875,-0.003512475173920393,-0.07513642311096191,0.00045814894838258624
1779964942974224000,6.133223876953125,0.007788531947880983,-0.01542434748262167,0.014966198243200779
1779964942990578200,6.149578125,0.020922135561704636,0.043676864355802536,0.03191770985722542
1779964943006892000,6.16589208984375,0.024892758578062057,0.09468411654233932,0.025961773470044136
1779964943023239200,6.1822392578125,0.01771509274840355,0.09315694868564606,0.008704829961061478
1779964943039571000,6.198571044921875,0.01237002108246088,0.07162395119667053,-0.013439035043120384
1779964943055899400,6.2148994140625,0.01664607785642147,0.056352317333221436,-0.0065668015740811825
1779964943072226600,6.2312265625,0.021991148591041565,0.05451972410082817,0.014966198243200779
1779964943088564700,6.247564697265625,0.02580905705690384,0.057879481464624405,0.03527746722102165
1779964943104889000,6.26388916015625,0.019547687843441963,0.05115996301174164,0.02672535367310047
1779964943121223700,6.2802236328125,0.00733038317412138,0.03497203439474106,0.0032070425804704428
1779964943137546200,6.296546142578125,-0.0029016099870204926,0.029016099870204926,-0.012064588256180286
1779964943153885400,6.312885498046875,-0.008246680721640587,0.03588833287358284,-0.017867809161543846
1779964943170209300,6.329209228515625,-0.010079276748001575,0.03940080851316452,-0.021532999351620674
1779964943186546200,6.345546142578125,-0.013133603148162365,0.03222314268350601,-0.027947084978222847
1779964943202868700,6.36186865234375,-0.012522737495601177,0.02428189292550087,-0.027488935738801956
1779964943219207200,6.378207275390625,-0.006261368747800589,0.01878410577774048,-0.014813481830060482
1779964943235534300,6.394534423828125,0.0025961773935705423,0.01466076634824276,0.00809396430850029
1779964943251863300,6.41086328125,0.008399397134780884,0.009621127508580685,0.020005837082862854
1779964943268176100,6.427176025390625,0.008246680721640587,0.004581489134579897,0.01863138936460018
1779964943284497200,6.4434970703125,0.005039638374000788,-0.0003054326225537807,0.008704829961061478
1779964943300842500,6.459842529296875,0.0019853119738399982,-0.009773843921720982,-0.0019853119738399982
1779964943317170400,6.47617041015625,-0.0022907445672899485,-0.02871066704392433,-0.009162978269159794
1779964943333502000,6.492501953125,-0.004886921960860491,-0.05543602257966995,-0.013744467869400978
1779964943349826300,6.508826416015625,-0.005497787147760391,-0.07483099400997162,-0.010690141469240189
1779964943366150100,6.525150146484375,-0.00366519158706069,-0.08827003091573715,0.0007635815418325365
1779964943382489600,6.541489501953125,0.001832595793530345,-0.09224065393209457,0.01572977937757969
1779964943398825500,6.557825439453125,0.006108652334660292,-0.09086620807647705,0.025503624230623245
1779964943415152600,6.574152587890625,0.0064140851609408855,-0.08552113175392151,0.029474247246980667
1779964943431485200,6.590485107421875,0.0064140851609408855,-0.07941248267889023,0.02871066704392433
1779964943447795000,6.606794921875,0.006261368747800589,-0.0832303911447525,0.02687807008624077
1779964943464157000,6.623156982421875,0.005192354787141085,-0.09468411654233932,0.021380282938480377
1779964943480483300,6.6394833984375,0.004734205547720194,-0.10293079167604446,0.018325956538319588
1779964943496819700,6.65581982421875,0.0024434609804302454,-0.09758572280406952,0.012217304669320583
1779964943513144000,6.67214404296875,-0.0012217304902151227,-0.0861319974064827,0.005039638374000788
1779964943529486000,6.688486083984375,-0.004886921960860491,-0.07666359096765518,-0.0007635815418325365
1779964943545805000,6.70480517578125,-0.00733038317412138,-0.06933320313692093,-0.006719517521560192
1779964943562128600,6.721128662109375,-0.007177666760981083,-0.05513058975338936,-0.004734205547720194
1779964943578465500,6.737465576171875,-0.004734205547720194,-0.03787364438176155,0.0006108652451075613
1779964943594790000,6.753789794921875,-0.0025961773935705423,-0.024129176512360573,0.0027488935738801956
1779964943611130000,6.770130126953125,0.0003054326225537807,-0.01191187184303999,0.005650503560900688
1779964943627446300,6.7864462890625,0.003817907767370343,0.001527163083665073,0.01160643994808197
1779964943643790000,6.8027900390625,0.005345070734620094,0.009162978269159794,0.012828170321881771
1779964943660102700,6.8191025390625,0.005497787147760391,0.013286318629980087,0.009468411095440388
1779964943676451600,6.83545166015625,0.005497787147760391,0.018478672951459885,0.010231993161141872
1779964943692779500,6.851779541015625,0.00427605677396059,0.02229658141732216,0.006108652334660292
1779964943709116200,6.8681162109375,0.0024434609804302454,0.023365596309304237,-0.0006108652451075613
1779964943725437400,6.8844375,-0.0009162978967651725,0.01618792861700058,-0.007024950347840786
1779964943741777200,6.900777099609375,-0.0027488935738801956,0.009773843921720982,-0.010537425056099892
1779964943758088000,6.917087890625,-0.0027488935738801956,0.003817907767370343,-0.011453723534941673
1779964943774419500,6.93341943359375,-0.0007635815418325365,0.001832595793530345,-0.007635815534740686
1779964943790751500,6.94975146484375,0.00015271631127689034,-0.0010690141934901476,-0.004886921960860491
1779964943807080400,6.96608056640625,0.0006108652451075613,-0.006261368747800589,-0.003054326167330146
1779964943823409700,6.98240966796875,-0.0006108652451075613,-0.01114829070866108,-0.00366519158706069
1779964943839744300,6.998744140625,-0.0006108652451075613,-0.01817324012517929,-0.003512475173920393
1779964943856069000,7.015069091796875,-0.0007635815418325365,-0.022449297830462456,0.0013744467869400978
1779964943872402700,7.031402587890625,0.001527163083665073,-0.020616702735424042,0.0024434609804302454
1779964943888724500,7.047724365234375,0.001832595793530345,-0.017409659922122955,0.001832595793530345
1779964943905049000,7.064049072265625,0.0007635815418325365,-0.016340645030140877,0.0003054326225537807
1779964943921391000,7.08039111328125,-0.0007635815418325365,-0.01771509274840355,-0.0029016099870204926
1779964943937713000,7.096712890625,-0.0010690141934901476,-0.019547687843441963,-0.003054326167330146
1779964943954055200,7.11305517578125,-0.0006108652451075613,-0.02321287989616394,0.0009162978967651725
1779964943970382300,7.12938232421875,-0.0006108652451075613,-0.023365596309304237,-0.00015271631127689034
1779964943986718700,7.14571875,-0.0006108652451075613,-0.023365596309304237,0.0010690141934901476
1779964944003058000,7.162057861328125,0.0006108652451075613,-0.01970040425658226,0.003359758760780096
1779964944019391000,7.178390869140625,0.001679879380390048,-0.01710422709584236,0.0039706239476799965
1779964944035718000,7.1947177734375,0.001832595793530345,-0.015577063895761967,0.004734205547720194
1779964944052050700,7.21105078125,0.0007635815418325365,-0.016035212203860283,0.0022907445672899485
1779964944068380000,7.2273798828125,-0.001679879380390048,-0.018478672951459885,-0.003054326167330146
1779964944084712000,7.2437119140625,-0.003054326167330146,-0.023518312722444534,-0.00855211354792118
1779964944101035800,7.260035888671875,-0.0064140851609408855,-0.02367102913558483,-0.012064588256180286
1779964944117374000,7.2763740234375,-0.009010262787342072,-0.02535090781748295,-0.016951510682702065
1779964944133700600,7.29270068359375,-0.010231993161141872,-0.027183502912521362,-0.020463986322283745
1779964944150033400,7.309033447265625,-0.013591751456260681,-0.03344487398862839,-0.026419922709465027
1779964944166360800,7.32536083984375,-0.016035212203860283,-0.042760565876960754,-0.029474247246980667
1779964944182693000,7.341693115234375,-0.015577063895761967,-0.054825156927108765,-0.028405234217643738
1779964944199022000,7.35802197265625,-0.014049900695681572,-0.05619960278272629,-0.024434609338641167
1779964944215328000,7.374327880859375,-0.012828170321881771,-0.055894169956445694,-0.017867809161543846
1779964944231680300,7.39068017578125,-0.008857546374201775,-0.05314527451992035,-0.009773843921720982
1779964944247984000,7.406984130859375,-0.005345070734620094,-0.050243668258190155,-0.001679879380390048
1779964944264329700,7.423329833984375,-0.0022907445672899485,-0.0507018156349659,0.0022907445672899485
1779964944280649000,7.43964892578125,0,-0.05146539583802223,0.0027488935738801956
1779964944296990200,7.455990234375,0.00045814894838258624,-0.05268712714314461,0.005192354787141085
1779964944313323000,7.472322998046875,0.0012217304902151227,-0.05115996301174164,0.0025961773935705423
1779964944329650000,7.48864990234375,-0.00015271631127689034,-0.04902193695306778,-0.0006108652451075613
1779964944345983200,7.504983154296875,-0.00045814894838258624,-0.045204028487205505,-0.005192354787141085
1779964944362313700,7.521313720703125,-0.001527163083665073,-0.0403171069920063,-0.008857546374201775
1779964944378643000,7.537642822265625,-0.001832595793530345,-0.034666601568460464,-0.007788531947880983
1779964944394972400,7.553972412109375,-0.0025961773935705423,-0.021532999351620674,-0.005955935921519995
1779964944411304400,7.570304443359375,-0.0022907445672899485,-0.006108652334660292,-0.005497787147760391
1779964944427633700,7.586633544921875,-0.0013744467869400978,0.0074830991216003895,-0.007024950347840786
1779964944443974000,7.602973876953125,-0.00045814894838258624,0.018478672951459885,-0.008399397134780884
1779964944460311600,7.6193115234375,-0.0007635815418325365,0.027947084978222847,-0.009773843921720982
1779964944476632000,7.635632080078125,-0.0012217304902151227,0.036651913076639175,-0.012217304669320583
1779964944492973600,7.6519736328125,-0.0012217304902151227,0.04642575979232788,-0.012522737495601177
1779964944509291300,7.668291259765625,-0.0027488935738801956,0.05253441259264946,-0.014202617108821869
1779964944525651000,7.68465087890625,-0.003817907767370343,0.05268712714314461,-0.019853120669722557
1779964944541961200,7.700961181640625,-0.005039638374000788,0.04688390716910362,-0.021380282938480377
1779964944558278100,7.717278076171875,-0.005497787147760391,0.04077525436878204,-0.021532999351620674
1779964944574621000,7.733620849609375,-0.005345070734620094,0.03894266113638878,-0.01970040425658226
1779964944590946300,7.7499462890625,-0.004428773187100887,0.04199698567390442,-0.01618792861700058
1779964944607282200,7.7662822265625,-0.002138028386980295,0.04596760869026184,-0.012522737495601177
1779964944623617000,7.782616943359375,-0.001527163083665073,0.04657847434282303,-0.008246680721640587
1779964944639935700,7.798935791015625,0.00045814894838258624,0.04535674303770065,-0.005803219974040985
1779964944656271000,7.81527099609375,0.0010690141934901476,0.039248090237379074,-0.005192354787141085
1779964944672604000,7.83160400390625,0,0.029474247246980667,-0.005955935921519995
1779964944688928300,7.84792822265625,-0.00015271631127689034,0.01878410577774048,-0.006872233934700489
1779964944705263400,7.864263427734375,-0.001679879380390048,0.010079276748001575,-0.007635815534740686
1779964944721597000,7.880596923828125,-0.0039706239476799965,0.0022907445672899485,-0.010995574295520782
1779964944737919700,7.896919677734375,-0.006261368747800589,-0.0012217304902151227,-0.01237002108246088
1779964944754240000,7.913239990234375,-0.0065668015740811825,0.0003054326225537807,-0.00931569468230009
1779964944770571000,7.929571044921875,-0.005497787147760391,0.003817907767370343,-0.0064140851609408855
1779964944786900500,7.945900390625,-0.005955935921519995,0.004734205547720194,-0.007788531947880983
1779964944803232800,7.962232666015625,-0.005650503560900688,-0.0013744467869400978,-0.009162978269159794
1779964944819560000,7.978559814453125,-0.005345070734620094,-0.008246680721640587,-0.013897184282541275
1779964944835880400,7.99488037109375,-0.004734205547720194,-0.012980886735022068,-0.013897184282541275
1779964944852221400,8.011221435546876,-0.0024434609804302454,-0.00733038317412138,-0.009162978269159794
1779964944868541400,8.02754150390625,0,0.0022907445672899485,-0.00427605677396059
1779964944884882000,8.0438818359375,0.0013744467869400978,0.011759156361222267,-0.0025961773935705423
1779964944901203000,8.060202880859375,0.003054326167330146,0.028405234217643738,0.00015271631127689034
1779964944917560300,8.076560302734375,0.003054326167330146,0.044287730008363724,0.00015271631127689034
1779964944933887200,8.09288720703125,0.003054326167330146,0.04749477282166481,-0.0003054326225537807
1779964944950217200,8.10921728515625,0.0024434609804302454,0.03985895588994026,-0.0022907445672899485
1779964944966543600,8.125543701171875,0.0009162978967651725,0.029016099870204926,-0.004581489134579897
1779964944982858200,8.141858154296875,-0.0009162978967651725,0.023518312722444534,-0.008399397134780884
1779964944999204400,8.158204345703124,-0.0009162978967651725,0.02122756652534008,-0.009773843921720982
1779964945015528700,8.17452880859375,-0.0019853119738399982,0.021991148591041565,-0.009926560334861279
1779964945031870200,8.1908701171875,-0.0024434609804302454,0.02168571576476097,-0.010079276748001575
1779964945048200000,8.207199951171875,-0.0029016099870204926,0.023976460099220276,-0.010079276748001575
1779964945064536800,8.223536865234376,-0.0007635815418325365,0.02733621932566166,-0.009773843921720982
1779964945080836400,8.23983642578125,-0.0012217304902151227,0.029016099870204926,-0.00855211354792118
1779964945097176000,8.256176025390625,-0.00015271631127689034,0.03084869496524334,-0.00733038317412138
1779964945113508900,8.2725087890625,0.00045814894838258624,0.029626963660120964,-0.006108652334660292
1779964945129836500,8.28883642578125,0.0010690141934901476,0.026419922709465027,-0.006108652334660292
1779964945146169600,8.305169677734375,0.0007635815418325365,0.024892758578062057,-0.007177666760981083
1779964945162498800,8.321498779296874,-0.0009162978967651725,0.02168571576476097,-0.01038470957428217
1779964945178829000,8.3378291015625,-0.001832595793530345,0.020922135561704636,-0.012522737495601177
1779964945195173000,8.354173095703125,-0.0039706239476799965,0.017409659922122955,-0.014049900695681572
1779964945211489300,8.3704892578125,-0.004123340360820293,0.012828170321881771,-0.011759156361222267
1779964945227836400,8.38683642578125,-0.00427605677396059,0.010995574295520782,-0.012217304669320583
1779964945244146000,8.40314599609375,-0.003359758760780096,0.009621127508580685,-0.010079276748001575
1779964945260482600,8.419482666015625,-0.0009162978967651725,0.01191187184303999,-0.008704829961061478
1779964945276808000,8.435807861328126,-0.00045814894838258624,0.01618792861700058,-0.005192354787141085
1779964945293141000,8.45214111328125,0.0012217304902151227,0.019853120669722557,-0.003359758760780096
1779964945309474600,8.468474609375,0.001527163083665073,0.021074850112199783,-0.0010690141934901476
1779964945325803800,8.4848037109375,0.0010690141934901476,0.01970040425658226,-0.0022907445672899485
1779964945342131700,8.501131591796875,0.0010690141934901476,0.016340645030140877,-0.0024434609804302454
1779964945358463700,8.517463623046876,-0.00045814894838258624,0.015882495790719986,-0.003512475173920393
1779964945374791700,8.533791748046875,-0.001527163083665073,0.013744467869400978,-0.007024950347840786
1779964945391125500,8.55012548828125,-0.00366519158706069,0.013286318629980087,-0.007635815534740686
1779964945407468500,8.566468505859374,-0.003054326167330146,0.010995574295520782,-0.009621127508580685
1779964945423799000,8.582799072265624,-0.002138028386980295,0.01191187184303999,-0.009010262787342072
1779964945440131000,8.599131103515624,-0.001832595793530345,0.010842857882380486,-0.007788531947880983
1779964945456453400,8.615453369140624,0.00015271631127689034,0.012064588256180286,-0.00733038317412138
1779964945472789200,8.631789306640625,0.0006108652451075613,0.019394971430301666,-0.005345070734620094
1779964945489119200,8.648119140625,0.0007635815418325365,0.02626720629632473,-0.005345070734620094
1779964945505448700,8.66444873046875,-0.0012217304902151227,0.03145955875515938,-0.006719517521560192
1779964945521781500,8.680781494140625,-0.001527163083665073,0.034666601568460464,-0.008246680721640587
1779964945538109200,8.697109130859374,-0.003054326167330146,0.031612277030944824,-0.009926560334861279
1779964945554441500,8.71344140625,-0.0039706239476799965,0.02672535367310047,-0.009621127508580685
1779964945570768100,8.72976806640625,-0.005192354787141085,0.020005837082862854,-0.009468411095440388
1779964945587103200,8.746103271484374,-0.003054326167330146,0.01191187184303999,-0.005497787147760391
1779964945603430100,8.76243017578125,-0.0027488935738801956,0.006719517521560192,-0.003054326167330146
1779964945619763000,8.778762939453125,-0.0007635815418325365,-0.0019853119738399982,-0.0003054326225537807
1779964945636075000,8.795074951171875,-0.0006108652451075613,-0.012217304669320583,0.003359758760780096
1779964945652420900,8.8114208984375,0.0012217304902151227,-0.017409659922122955,0.004581489134579897
1779964945668756200,8.827756103515625,0.0013744467869400978,-0.023976460099220276,0.004734205547720194
1779964945685084200,8.844084228515625,0.0006108652451075613,-0.027030786499381065,0.006108652334660292
1779964945701410600,8.86041064453125,0.001527163083665073,-0.03039054572582245,0.006719517521560192
1779964945717741800,8.876741943359375,0.0012217304902151227,-0.03497203439474106,0.0064140851609408855
1779964945734059500,8.8930595703125,0.0006108652451075613,-0.0377209298312664,0.00733038317412138
1779964945750392300,8.909392333984375,-0.0007635815418325365,-0.04138612002134323,0.004123340360820293
1779964945766720500,8.925720458984374,-0.0007635815418325365,-0.04398229718208313,0.003054326167330146
1779964945783053300,8.94205322265625,-0.0007635815418325365,-0.04444044828414917,0.0025961773935705423
1779964945799381200,8.95838134765625,-0.001832595793530345,-0.04108068719506264,0.001832595793530345
1779964945815712800,8.974712646484376,-0.001832595793530345,-0.0354301854968071,0.0019853119738399982
1779964945832040700,8.991040771484375,-0.001832595793530345,-0.03344487398862839,0.0027488935738801956
1779964945848360000,9.00735986328125,-0.0022907445672899485,-0.028099801391363144,0.0013744467869400978
1779964945864702700,9.02370263671875,-0.001527163083665073,-0.025961773470044136,0.001527163083665073
1779964945881034000,9.040033935546875,-0.0010690141934901476,-0.01970040425658226,0.001832595793530345
1779964945897363700,9.05636376953125,-0.0006108652451075613,-0.015118914656341076,0.001527163083665073
1779964945913709600,9.07270947265625,-0.00045814894838258624,-0.011759156361222267,0.0022907445672899485
1779964945930034400,9.089034423828124,0.00045814894838258624,-0.008704829961061478,0.0013744467869400978
1779964945946373400,9.105373291015624,0.0007635815418325365,-0.003817907767370343,0.003512475173920393
1779964945962696200,9.1216962890625,0.0010690141934901476,-0.0019853119738399982,0.0013744467869400978
1779964945979025000,9.13802490234375,0,-0.00366519158706069,0.0007635815418325365
1779964945995340000,9.154340087890626,0.0013744467869400978,-0.007024950347840786,0.00015271631127689034
1779964946011693300,9.170693359375,0.0006108652451075613,-0.007635815534740686,0.0003054326225537807
1779964946028004000,9.187004150390624,0.00045814894838258624,-0.007635815534740686,0.0003054326225537807
1779964946044355000,9.20335498046875,-0.0006108652451075613,-0.009926560334861279,0.0010690141934901476
1779964946060642000,9.21964208984375,0.0013744467869400978,-0.013897184282541275,0.00366519158706069
1779964946077015800,9.236015869140624,0.0010690141934901476,-0.014813481830060482,0.0032070425804704428
1779964946093339600,9.252339599609375,0.0006108652451075613,-0.015577063895761967,0.003512475173920393
1779964946109675000,9.268675048828126,0.0019853119738399982,-0.01618792861700058,0.005192354787141085
1779964946126014000,9.285013916015625,0.0029016099870204926,-0.016340645030140877,0.006719517521560192
1779964946142319000,9.301319091796875,0.0039706239476799965,-0.02076941914856434,0.008246680721640587
1779964946158672000,9.317671875,0.004123340360820293,-0.025045474991202354,0.009010262787342072
1779964946174972700,9.33397265625,0.005192354787141085,-0.02275473065674305,0.009926560334861279
1779964946191322000,9.350322021484375,0.0065668015740811825,-0.009773843921720982,0.008857546374201775
1779964946207639600,9.3666396484375,0.004734205547720194,-0.021991148591041565,0.0025961773935705423
1779964946223967700,9.3829677734375,0.0012217304902151227,-0.05009094998240471,0.0009162978967651725
1779964946240302800,9.399302734375,-0.0007635815418325365,-0.0633772686123848,0.0009162978967651725
1779964946256629000,9.41562890625,0.0003054326225537807,-0.06185010448098183,0.003817907767370343
1779964946272965400,9.43196533203125,0.0027488935738801956,-0.055283304303884506,0.009773843921720982
1779964946289292000,9.4482919921875,0.003817907767370343,-0.04382958263158798,0.010537425056099892
1779964946305624600,9.46462451171875,0.004123340360820293,-0.0354301854968071,0.01191187184303999
1779964946321952500,9.480952392578125,0.004123340360820293,-0.03894266113638878,0.00809396430850029
1779964946338282200,9.4972822265625,0.0029016099870204926,-0.048105638474226,0.006108652334660292
1779964946354609200,9.513609130859376,0.002138028386980295,-0.05543602257966995,0.004123340360820293
1779964946370950400,9.529950439453126,0.001527163083665073,-0.05726861581206322,0.005192354787141085
1779964946387291100,9.546291015625,0.0006108652451075613,-0.055283304303884506,0.00427605677396059
1779964946403622400,9.562622314453124,-0.00045814894838258624,-0.05360342562198639,0.001832595793530345
1779964946419945200,9.5789453125,-0.001527163083665073,-0.05100724846124649,0.001679879380390048
1779964946436270800,9.595270751953125,-0.0006108652451075613,-0.048105638474226,0.0003054326225537807
1779964946452609300,9.611609375,0.00015271631127689034,-0.04459316283464432,0
1779964946468938800,9.627938720703124,0.001679879380390048,-0.04138612002134323,0.004428773187100887
1779964946485270800,9.644270751953124,0.00366519158706069,-0.03573561832308769,0.005345070734620094
1779964946501602000,9.66060205078125,0.005345070734620094,-0.027947084978222847,0.009162978269159794
1779964946517930800,9.6769306640625,0.005803219974040985,-0.019089538604021072,0.009621127508580685
1779964946534248700,9.693248779296875,0.0065668015740811825,-0.015577063895761967,0.009926560334861279
1779964946550591000,9.709591064453125,0.004428773187100887,-0.01114829070866108,0.006261368747800589
1779964946566903800,9.72590380859375,0.00427605677396059,-0.009621127508580685,0.003359758760780096
1779964946583235300,9.7422353515625,0.0012217304902151227,-0.007177666760981083,0.0003054326225537807
1779964946599566600,9.758566650390625,0.0007635815418325365,-0.006872233934700489,0.0007635815418325365
1779964946615917800,9.774917724609375,0.0006108652451075613,-0.008246680721640587,-0.0009162978967651725
1779964946632254700,9.791254638671875,-0.0003054326225537807,-0.012828170321881771,-0.0010690141934901476
1779964946648574000,9.807573974609374,-0.001679879380390048,-0.020922135561704636,-0.0012217304902151227
1779964946664903000,9.82390283203125,-0.001832595793530345,-0.021074850112199783,-0.0009162978967651725
1779964946681234000,9.84023388671875,-0.0007635815418325365,-0.01878410577774048,0.001679879380390048
1779964946697567500,9.8565673828125,-0.0006108652451075613,-0.015882495790719986,0.0022907445672899485
1779964946713888000,9.872887939453125,0.0006108652451075613,-0.013591751456260681,0.0022907445672899485
1779964946730214000,9.8892138671875,0.0013744467869400978,-0.009773843921720982,0.0027488935738801956
1779964946746541800,9.905541748046875,0.0013744467869400978,-0.0064140851609408855,0.001832595793530345
1779964946762873900,9.921873779296876,0.0006108652451075613,-0.005650503560900688,0.00045814894838258624
1779964946779202600,9.93820263671875,-0.00045814894838258624,-0.0064140851609408855,-0.0025961773935705423
1779964946795524000,9.954524169921875,-0.0006108652451075613,-0.009162978269159794,-0.0032070425804704428
1779964946811863300,9.97086328125,-0.0013744467869400978,-0.010079276748001575,-0.004581489134579897
1779964946828195800,9.98719580078125,-0.001679879380390048,-0.008399397134780884,-0.003817907767370343
1779964946844523500,10.0035234375,-0.0010690141934901476,-0.00809396430850029,-0.003512475173920393
1779964946860854500,10.0198544921875,-0.0006108652451075613,-0.0074830991216003895,-0.0013744467869400978
1779964946877203500,10.036203369140624,0.0013744467869400978,-0.004581489134579897,0.001679879380390048
1779964946893509600,10.052509521484374,0.001679879380390048,-0.001832595793530345,0.003359758760780096
1779964946909863000,10.06886279296875,0.001832595793530345,-0.0007635815418325365,0.001527163083665073
1779964946926195200,10.0851953125,0.0019853119738399982,-0.0006108652451075613,0.0012217304902151227
1779964946942513000,10.101512939453125,0.001832595793530345,0,0.001527163083665073
1779964946958835500,10.11783544921875,0.0010690141934901476,-0.0013744467869400978,0.0009162978967651725
1779964946975180300,10.13418017578125,0.00045814894838258624,0,0
1779964946991508000,10.150508056640625,-0.00015271631127689034,0,-0.00015271631127689034
1779964947007839000,10.1668388671875,-0.00045814894838258624,-0.0025961773935705423,-0.002138028386980295
1779964947024173800,10.183173828125,-0.00045814894838258624,-0.003359758760780096,-0.001832595793530345
1779964947040486700,10.199486572265625,-0.0006108652451075613,-0.005955935921519995,-0.001832595793530345
1779964947056816600,10.215816650390625,-0.0013744467869400978,-0.0064140851609408855,-0.001832595793530345
1779964947073162200,10.232162353515625,-0.0007635815418325365,-0.004428773187100887,-0.001832595793530345
1779964947089495600,10.24849560546875,-0.0006108652451075613,-0.004428773187100887,-0.0012217304902151227
1779964947105823200,10.2648232421875,0.0006108652451075613,-0.004123340360820293,-0.0006108652451075613
1779964947122146000,10.28114599609375,0.00045814894838258624,-0.00427605677396059,-0.001679879380390048
1779964947138492400,10.297492431640626,0.00045814894838258624,-0.005803219974040985,-0.00015271631127689034
1779964947154813700,10.313813720703125,0.00045814894838258624,-0.00366519158706069,0.0009162978967651725
1779964947171146200,10.330146240234376,-0.00015271631127689034,-0.00427605677396059,-0.00045814894838258624
1779964947187477500,10.3464775390625,0.0003054326225537807,-0.004123340360820293,-0.0009162978967651725
1779964947203803600,10.3628037109375,0.00015271631127689034,-0.005955935921519995,-0.001527163083665073
1779964947220122400,10.379122314453125,-0.00015271631127689034,-0.004886921960860491,-0.0010690141934901476
1779964947236451800,10.395451904296875,0.00015271631127689034,-0.005039638374000788,-0.0006108652451075613
1779964947252784400,10.411784423828125,-0.0003054326225537807,-0.004428773187100887,0
1779964947269113300,10.42811328125,-0.00045814894838258624,-0.005192354787141085,-0.0012217304902151227
1779964947285445600,10.444445556640625,0.00015271631127689034,-0.003359758760780096,-0.001527163083665073
1779964947301772500,10.4607724609375,0.0013744467869400978,0.00015271631127689034,0.0025961773935705423
1779964947318105300,10.477105224609375,0.0006108652451075613,0.0019853119738399982,0.0012217304902151227
1779964947334434800,10.493434814453124,0.0007635815418325365,0.001527163083665073,-0.0006108652451075613
1779964947350766800,10.509766845703124,0.0010690141934901476,0.0039706239476799965,-0.00015271631127689034
1779964947367112000,10.52611181640625,0.001832595793530345,0.00733038317412138,-0.00045814894838258624
1779964947383440000,10.54243994140625,0.0012217304902151227,0.00931569468230009,-0.0019853119738399982
1779964947399771000,10.55877099609375,0.0013744467869400978,0.010537425056099892,-0.0025961773935705423
1779964947416085800,10.575085693359375,0.0006108652451075613,0.01038470957428217,-0.003817907767370343
1779964947432427800,10.591427734375,0,0.013744467869400978,-0.005803219974040985
1779964947448762600,10.6077626953125,0.0003054326225537807,0.012675453908741474,-0.004734205547720194
1779964947465083600,10.624083740234376,0.0006108652451075613,0.015118914656341076,-0.00366519158706069
1779964947481427700,10.640427734375,0.0003054326225537807,0.015271631069481373,-0.004581489134579897
1779964947497752000,10.656751953125,0.0006108652451075613,0.01618792861700058,-0.0022907445672899485
1779964947514083000,10.6730830078125,-0.00015271631127689034,0.016493361443281174,-0.003512475173920393
1779964947530398200,10.689398193359375,-0.00045814894838258624,0.016798794269561768,-0.005039638374000788
1779964947546745300,10.705745361328125,-0.0013744467869400978,0.01863138936460018,-0.004734205547720194
1779964947563071000,10.722071044921876,-0.0012217304902151227,0.015118914656341076,-0.006261368747800589
1779964947579405300,10.7384052734375,-0.0013744467869400978,0.012980886735022068,-0.009621127508580685
1779964947595733800,10.754733642578126,-0.001679879380390048,0.01160643994808197,-0.008704829961061478
1779964947612066300,10.77106640625,-0.0007635815418325365,0.013286318629980087,-0.005650503560900688
1779964947628376800,10.787376953125,-0.0009162978967651725,0.013591751456260681,-0.004886921960860491
1779964947644730000,10.803730224609374,-0.00045814894838258624,0.013286318629980087,-0.005955935921519995
1779964947661055500,10.820055419921875,-0.0003054326225537807,0.011301007121801376,-0.006261368747800589
1779964947677388800,10.836388916015625,0,0.009162978269159794,-0.005192354787141085
1779964947693714200,10.852714111328124,0,0.010842857882380486,-0.004123340360820293
1779964947710037500,10.86903759765625,-0.0003054326225537807,0.009621127508580685,-0.004581489134579897
1779964947726363100,10.885363037109375,-0.0007635815418325365,0.00855211354792118,-0.006719517521560192
1779964947742690800,10.90169091796875,-0.0013744467869400978,0.008246680721640587,-0.0065668015740811825
1779964947759028700,10.91802880859375,-0.001527163083665073,0.00931569468230009,-0.007635815534740686
1779964947775355100,10.934355224609375,-0.0022907445672899485,0.009468411095440388,-0.00733038317412138
1779964947791684600,10.9506845703125,-0.0010690141934901476,0.01237002108246088,-0.005650503560900688
1779964947808016000,10.967015869140624,-0.0006108652451075613,0.016951510682702065,-0.006261368747800589
1779964947824345900,10.983345947265626,-0.00045814894838258624,0.01863138936460018,-0.006719517521560192
1779964947840679000,10.999678955078124,-0.00015271631127689034,0.020005837082862854,-0.0074830991216003895
1779964947857020700,11.016020751953125,-0.0007635815418325365,0.02015855349600315,-0.008857546374201775
1779964947873325600,11.03232568359375,-0.0022907445672899485,0.02229658141732216,-0.009468411095440388
1779964947889664000,11.0486640625,-0.001527163083665073,0.02428189292550087,-0.00855211354792118
1779964947906018800,11.065018798828126,-0.001679879380390048,0.021991148591041565,-0.0065668015740811825
1779964947922334700,11.081334716796874,-0.0013744467869400978,0.019853120669722557,-0.007941247895359993
1779964947938671400,11.09767138671875,0.0003054326225537807,0.020463986322283745,-0.005955935921519995
1779964947955021300,11.114021240234376,0.0013744467869400978,0.022907447069883347,-0.0027488935738801956
1779964947971311600,11.1303115234375,0.0009162978967651725,0.02367102913558483,-0.00427605677396059
1779964947987651300,11.1466513671875,0.0003054326225537807,0.02122756652534008,-0.004886921960860491
1779964948003991000,11.162990966796874,-0.00015271631127689034,0.018478672951459885,-0.005345070734620094
1779964948020328000,11.179327880859375,-0.0022907445672899485,0.013591751456260681,-0.007024950347840786
1779964948036655400,11.1956552734375,-0.003817907767370343,0.010079276748001575,-0.009621127508580685
1779964948052983800,11.21198388671875,-0.003817907767370343,0.009621127508580685,-0.00931569468230009
1779964948069291800,11.228291748046875,-0.0029016099870204926,0.01038470957428217,-0.00931569468230009
1779964948085648600,11.244648681640625,-0.002138028386980295,0.010079276748001575,-0.007788531947880983
1779964948101976000,11.26097607421875,-0.0019853119738399982,0.012064588256180286,-0.009010262787342072
1779964948118305800,11.277305908203125,-0.0009162978967651725,0.01114829070866108,-0.00809396430850029
1779964948134636300,11.29363623046875,-0.001679879380390048,0.012064588256180286,-0.009468411095440388
1779964948150965800,11.3099658203125,-0.0019853119738399982,0.014355333521962166,-0.009010262787342072
1779964948167298000,11.326298095703125,-0.0024434609804302454,0.017562376335263252,-0.00931569468230009
1779964948183629600,11.342629638671875,-0.0019853119738399982,0.01664607785642147,-0.008246680721640587
1779964948199939000,11.35893896484375,-0.001832595793530345,0.016798794269561768,-0.007635815534740686
1779964948216274200,11.375274169921875,-0.001679879380390048,0.01466076634824276,-0.00931569468230009
1779964948232605700,11.391605712890625,-0.0013744467869400978,0.016493361443281174,-0.006261368747800589
1779964948248935000,11.407934814453125,-0.0013744467869400978,0.01710422709584236,-0.005803219974040985
1779964948265267500,11.424267333984375,-0.0006108652451075613,0.017562376335263252,-0.005497787147760391
1779964948281595600,11.440595703125,-0.00045814894838258624,0.02015855349600315,-0.005345070734620094
1779964948297927000,11.456927001953124,-0.0007635815418325365,0.019394971430301666,-0.007177666760981083
1779964948314256400,11.47325634765625,-0.001679879380390048,0.01878410577774048,-0.00733038317412138
1779964948330587400,11.48958740234375,-0.001527163083665073,0.018020525574684143,-0.009468411095440388
1779964948346933800,11.505933837890625,-0.001679879380390048,0.017409659922122955,-0.009010262787342072
1779964948363262700,11.5222626953125,-0.001832595793530345,0.019089538604021072,-0.008246680721640587
1779964948379591200,11.538591064453126,-0.001679879380390048,0.01771509274840355,-0.007024950347840786
1779964948395922400,11.55492236328125,-0.0007635815418325365,0.01863138936460018,-0.008246680721640587
1779964948412252200,11.571252197265625,-0.001679879380390048,0.01710422709584236,-0.007635815534740686
1779964948428584200,11.587584228515626,-0.0013744467869400978,0.018478672951459885,-0.006261368747800589
1779964948444901000,11.603901123046874,-0.0007635815418325365,0.01771509274840355,-0.005955935921519995
1779964948461245400,11.620245361328125,-0.00045814894838258624,0.019547687843441963,-0.004886921960860491
1779964948477573000,11.636572998046875,-0.0012217304902151227,0.01710422709584236,-0.006872233934700489
1779964948493905400,11.652905517578125,-0.0012217304902151227,0.017409659922122955,-0.008704829961061478
1779964948510217500,11.669217529296875,-0.0027488935738801956,0.016798794269561768,-0.009773843921720982
1779964948526565000,11.685565185546874,-0.0024434609804302454,0.017562376335263252,-0.01038470957428217
1779964948542891300,11.701891357421875,-0.001527163083665073,0.016951510682702065,-0.009468411095440388
1779964948559227000,11.718226806640626,-0.0010690141934901476,0.015118914656341076,-0.007635815534740686
1779964948575555300,11.734555419921875,-0.0006108652451075613,0.01618792861700058,-0.006872233934700489
1779964948591888100,11.75088818359375,0.0022907445672899485,0.022907447069883347,-0.0025961773935705423
1779964948608205300,11.767205322265625,0.0010690141934901476,0.026114489883184433,-0.0022907445672899485
1779964948624547800,11.7835478515625,0.0009162978967651725,0.02367102913558483,-0.005803219974040985
1779964948640873500,11.79987353515625,0,0.026114489883184433,-0.006108652334660292
1779964948657211600,11.816211669921875,-0.0003054326225537807,0.027488935738801956,-0.007635815534740686
1779964948673529600,11.832529541015624,-0.0007635815418325365,0.02886338345706463,-0.00809396430850029
1779964948689870000,11.8488701171875,-0.0007635815418325365,0.029626963660120964,-0.007941247895359993
1779964948706184400,11.865184326171875,-0.001527163083665073,0.029016099870204926,-0.007941247895359993
1779964948722517800,11.881517822265625,-0.00045814894838258624,0.027641652151942253,-0.008246680721640587
1779964948738847700,11.89784765625,-0.00045814894838258624,0.027030786499381065,-0.007635815534740686
1779964948755175200,11.914175048828126,-0.00045814894838258624,0.029932396486401558,-0.005803219974040985
1779964948771505200,11.930505126953125,0.0007635815418325365,0.03298672288656235,-0.005497787147760391
1779964948787827200,11.9468271484375,0.0007635815418325365,0.031154127791523933,-0.005497787147760391
1779964948804164000,11.9631640625,0.00045814894838258624,0.029168816283345222,-0.008857546374201775
1779964948820502300,11.979502197265624,-0.00045814894838258624,0.02626720629632473,-0.0074830991216003895
1779964948836844500,11.995844482421875,-0.0007635815418325365,0.02519819140434265,-0.009468411095440388
1779964948853174300,12.01217431640625,-0.001679879380390048,0.023518312722444534,-0.009010262787342072
1779964948869493000,12.028492919921876,-0.001679879380390048,0.022907447069883347,-0.009010262787342072
1779964948885837800,12.044837890625,-0.00045814894838258624,0.018478672951459885,-0.008246680721640587
1779964948902168600,12.06116845703125,-0.00045814894838258624,0.01466076634824276,-0.006261368747800589
1779964948918489000,12.077489013671874,-0.001527163083665073,0.014813481830060482,-0.007788531947880983
1779964948934824000,12.093823974609375,-0.001679879380390048,0.015882495790719986,-0.0074830991216003895
1779964948951151000,12.110151123046874,-0.001679879380390048,0.013744467869400978,-0.006719517521560192
1779964948967485000,12.12648486328125,-0.0006108652451075613,0.01191187184303999,-0.006872233934700489
1779964948983815700,12.142815673828125,-0.00045814894838258624,0.01114829070866108,-0.006108652334660292
1779964949000149000,12.15914892578125,-0.001679879380390048,0.012675453908741474,-0.006872233934700489
1779964949016477200,12.175477294921874,-0.001679879380390048,0.01191187184303999,-0.0064140851609408855
1779964949032803800,12.191803955078125,-0.0009162978967651725,0.010842857882380486,-0.0064140851609408855
1779964949049139200,12.20813916015625,-0.0007635815418325365,0.013439035043120384,-0.004581489134579897
1779964949065464800,12.22446484375,-0.001527163083665073,0.013133603148162365,-0.004581489134579897
1779964949081800400,12.240800537109376,-0.0012217304902151227,0.018478672951459885,-0.005955935921519995
1779964949098128400,12.25712841796875,-0.0009162978967651725,0.01924225501716137,-0.005345070734620094
1779964949114460200,12.273460205078125,-0.001679879380390048,0.018325956538319588,-0.009926560334861279
1779964949130788000,12.2897880859375,-0.0027488935738801956,0.019089538604021072,-0.009773843921720982
1779964949147119400,12.306119384765625,-0.0029016099870204926,0.017867809161543846,-0.010995574295520782
1779964949163443200,12.322443115234375,-0.003054326167330146,0.017867809161543846,-0.009010262787342072
1779964949179785500,12.338785400390625,-0.001832595793530345,0.016035212203860283,-0.008246680721640587
1779964949196092400,12.355092529296876,0.00045814894838258624,0.01572977937757969,-0.005039638374000788
1779964949212427500,12.371427490234375,0.0024434609804302454,0.01924225501716137,-0.0007635815418325365
1779964949228757200,12.38775732421875,0.001832595793530345,0.020005837082862854,-0.0012217304902151227
1779964949245089000,12.404089111328124,0.001832595793530345,0.021074850112199783,-0.001832595793530345
1779964949261417700,12.420417724609376,0.00045814894838258624,0.01863138936460018,-0.0032070425804704428
1779964949277749000,12.4367490234375,-0.0010690141934901476,0.016798794269561768,-0.005803219974040985
1779964949294078700,12.45307861328125,-0.001527163083665073,0.016493361443281174,-0.005345070734620094
1779964949310411000,12.469410888671876,-0.0027488935738801956,0.014049900695681572,-0.006872233934700489
1779964949326755800,12.485755859375,-0.0027488935738801956,0.011453723534941673,-0.007635815534740686
1779964949343078100,12.502078125,-0.002138028386980295,0.010842857882380486,-0.007024950347840786
1779964949359414300,12.518414306640626,-0.0010690141934901476,0.009926560334861279,-0.007635815534740686
1779964949375745500,12.53474560546875,-0.0013744467869400978,0.009468411095440388,-0.0065668015740811825
1779964949392074000,12.551073974609375,-0.0009162978967651725,0.010537425056099892,-0.007788531947880983
1779964949408420400,12.56742041015625,-0.0010690141934901476,0.011759156361222267,-0.0074830991216003895
1779964949424735200,12.5837353515625,-0.0013744467869400978,0.01191187184303999,-0.007177666760981083
1779964949441051400,12.600051513671875,-0.001679879380390048,0.01160643994808197,-0.00809396430850029
1779964949457397000,12.61639697265625,-0.0006108652451075613,0.011759156361222267,-0.005955935921519995
1779964949473726500,12.6327265625,-0.00045814894838258624,0.011759156361222267,-0.005803219974040985
1779964949490056700,12.649056640625,-0.0013744467869400978,0.011301007121801376,-0.004123340360820293
1779964949506376200,12.665376220703125,-0.0006108652451075613,0.01191187184303999,-0.002138028386980295
1779964949522716700,12.681716552734375,-0.0006108652451075613,0.013133603148162365,-0.00366519158706069
1779964949539046700,12.698046630859375,-0.0006108652451075613,0.012064588256180286,-0.003817907767370343
1779964949555367700,12.71436767578125,0.00045814894838258624,0.012064588256180286,-0.0039706239476799965
1779964949571693300,12.730693359375,-0.002138028386980295,0.00931569468230009,-0.005192354787141085
1779964949588022500,12.7470224609375,-0.002138028386980295,0.003817907767370343,-0.004734205547720194
1779964949604362000,12.763362060546875,-0.0022907445672899485,-0.0027488935738801956,-0.0039706239476799965
1779964949620701200,12.779701171875,-0.002138028386980295,-0.009773843921720982,-0.00366519158706069
1779964949637029400,12.796029296875,-0.0029016099870204926,-0.017409659922122955,0
1779964949653362400,12.812362548828125,-0.001832595793530345,-0.022907447069883347,0.0010690141934901476
1779964949669689600,12.828689697265625,-0.0007635815418325365,-0.025961773470044136,0.005039638374000788
1779964949686004200,12.845004150390626,0.0007635815418325365,-0.02687807008624077,0.004886921960860491
1779964949702339600,12.861339599609375,0.0013744467869400978,-0.028557950630784035,0.007024950347840786
1779964949718668000,12.87766796875,0.0013744467869400978,-0.02932153269648552,0.007177666760981083
1779964949734996200,12.893996337890625,-0.00015271631127689034,-0.03130684420466423,0.005955935921519995
1779964949751329000,12.9103291015625,-0.00015271631127689034,-0.03375030308961868,0.005039638374000788
1779964949767648000,12.92664794921875,-0.0010690141934901476,-0.03451388701796532,0.0039706239476799965
1779964949784004400,12.94300439453125,-0.0007635815418325365,-0.03237585723400116,0.00366519158706069
1779964949800319500,12.959319580078125,-0.0006108652451075613,-0.030237829312682152,0.001832595793530345
1779964949816665900,12.975665771484374,0.00045814894838258624,-0.026419922709465027,0.003817907767370343
1779964949832998000,12.991997802734375,0.0010690141934901476,-0.02382374368607998,0.004734205547720194
1779964949849324800,13.00832470703125,0.0009162978967651725,-0.020922135561704636,0.004886921960860491
1779964949865647400,13.0246474609375,0.0006108652451075613,-0.018936822190880775,0.005497787147760391
1779964949881987800,13.04098779296875,0.001832595793530345,-0.020005837082862854,0.0039706239476799965
1779964949898321700,13.05732177734375,0.0007635815418325365,-0.020311269909143448,0.0032070425804704428
1779964949914646000,13.07364599609375,0.0010690141934901476,-0.019394971430301666,0.0027488935738801956
1779964949930975700,13.089975830078124,-0.0006108652451075613,-0.014966198243200779,0.001527163083665073
1779964949947307800,13.106307861328125,-0.0006108652451075613,-0.012064588256180286,0.0012217304902151227
1779964949963648000,13.12264794921875,-0.0012217304902151227,-0.009468411095440388,0.0022907445672899485
1779964949979962600,13.138962646484375,0.00045814894838258624,-0.009773843921720982,0.0024434609804302454
1779964949996303600,13.1553037109375,0.00045814894838258624,-0.008246680721640587,0.0022907445672899485
1779964950012628500,13.17162841796875,0.0009162978967651725,-0.005650503560900688,0.003359758760780096
1779964950028961300,13.187961181640626,0.0006108652451075613,-0.005497787147760391,0.003054326167330146
1779964950045289000,13.2042890625,-0.00045814894838258624,-0.007788531947880983,0.0007635815418325365
1779964950061620700,13.220620849609375,-0.00045814894838258624,-0.010231993161141872,-0.0007635815418325365
1779964950077950000,13.236949951171875,-0.0006108652451075613,-0.012522737495601177,-0.0009162978967651725
1779964950094282500,13.253282470703125,-0.0006108652451075613,-0.013744467869400978,0.00015271631127689034
1779964950110610400,13.2696103515625,0.00045814894838258624,-0.014049900695681572,-0.00045814894838258624
1779964950126940700,13.285940673828126,0.0006108652451075613,-0.01542434748262167,0.0027488935738801956
1779964950143271700,13.302271728515626,0.00045814894838258624,-0.014813481830060482,0.0022907445672899485
1779964950159603700,13.318603759765624,0.0006108652451075613,-0.01572977937757969,0.003817907767370343
1779964950175915000,13.3349150390625,0.00045814894838258624,-0.015118914656341076,0.0024434609804302454
1779964950192250000,13.35125,0.0003054326225537807,-0.016493361443281174,0.003054326167330146
1779964950208579600,13.36757958984375,0.00015271631127689034,-0.017409659922122955,0.0029016099870204926
1779964950224912000,13.383911865234374,-0.00045814894838258624,-0.019853120669722557,0.0006108652451075613
1779964950241240000,13.400239990234375,-0.0003054326225537807,-0.01878410577774048,0.0010690141934901476
1779964950257571300,13.4165712890625,-0.00045814894838258624,-0.017562376335263252,0.0027488935738801956
1779964950273900800,13.43290087890625,0.0003054326225537807,-0.014049900695681572,0.0029016099870204926
1779964950290233600,13.449233642578125,0.00045814894838258624,-0.015882495790719986,0.001527163083665073
1779964950306578200,13.465578125,0.00045814894838258624,-0.014355333521962166,0.001832595793530345
1779964950322906600,13.48190673828125,-0.00015271631127689034,-0.013744467869400978,0.0025961773935705423
1779964950339235800,13.49823583984375,0.00015271631127689034,-0.010690141469240189,0.0024434609804302454
1779964950355562200,13.514562255859374,0.0006108652451075613,-0.00931569468230009,0.003054326167330146
1779964950371898400,13.5308984375,0.0013744467869400978,-0.009468411095440388,0.001679879380390048
1779964950388212000,13.5472119140625,0.0012217304902151227,-0.008399397134780884,0.001679879380390048
1779964950404557000,13.56355712890625,0.001679879380390048,-0.007941247895359993,0.0025961773935705423
1779964950420876000,13.5798759765625,0.002138028386980295,-0.0039706239476799965,0.006872233934700489
1779964950437218000,13.596218017578124,0.0019853119738399982,-0.003817907767370343,0.005803219974040985
1779964950453553700,13.6125537109375,0.001832595793530345,-0.005497787147760391,0.00366519158706069
1779964950469875500,13.62887548828125,0.0010690141934901476,-0.004428773187100887,0.0032070425804704428
1779964950486196200,13.6451962890625,0.001527163083665073,-0.007177666760981083,0.00366519158706069
1779964950502537500,13.661537353515625,0.0013744467869400978,-0.007177666760981083,0.0032070425804704428
1779964950518845700,13.677845703125,-0.00015271631127689034,-0.010231993161141872,0.0009162978967651725
1779964950535200300,13.6942001953125,-0.00045814894838258624,-0.012217304669320583,0.00015271631127689034
1779964950551529500,13.710529541015624,-0.0007635815418325365,-0.01237002108246088,-0.00015271631127689034
1779964950567862000,13.726862060546875,-0.0013744467869400978,-0.014508049935102463,0
1779964950584177000,13.743177001953125,-0.0006108652451075613,-0.01572977937757969,0.00015271631127689034
1779964950600522000,13.75952197265625,-0.0006108652451075613,-0.016493361443281174,0.001679879380390048
1779964950616850400,13.775850341796875,0.00015271631127689034,-0.016951510682702065,0.001527163083665073
1779964950633181000,13.792180908203125,0.0006108652451075613,-0.017409659922122955,0.0027488935738801956
1779964950649518600,13.8085185546875,0.0006108652451075613,-0.014508049935102463,0.003359758760780096
1779964950665840600,13.824840576171875,0.0006108652451075613,-0.017409659922122955,0.003359758760780096
1779964950682162200,13.841162109375,0.0006108652451075613,-0.017409659922122955,0.001679879380390048
1779964950698490600,13.85749072265625,0.00015271631127689034,-0.01771509274840355,0.001679879380390048
1779964950714809600,13.8738095703125,-0.0006108652451075613,-0.01664607785642147,0.0013744467869400978
1779964950731151600,13.890151611328125,-0.0006108652451075613,-0.016493361443281174,-0.0007635815418325365
1779964950747483600,13.906483642578126,-0.00015271631127689034,-0.013744467869400978,0.0009162978967651725
1779964950763810600,13.922810546875,0.0006108652451075613,-0.010842857882380486,0.0010690141934901476
1779964950780147000,13.93914697265625,-0.0006108652451075613,-0.009773843921720982,0.0009162978967651725
1779964950796489700,13.95548974609375,0.0006108652451075613,-0.008704829961061478,0.0032070425804704428
1779964950812811500,13.9718115234375,0.0006108652451075613,-0.007941247895359993,0.001527163083665073
1779964950829155600,13.988155517578125,0.0006108652451075613,-0.00931569468230009,0.001527163083665073
1779964950845478700,14.004478759765625,0.0003054326225537807,-0.00931569468230009,0.0012217304902151227
1779964950861807900,14.020807861328125,0.0013744467869400978,-0.007788531947880983,0.0027488935738801956
1779964950878140700,14.037140625,0.0013744467869400978,-0.009010262787342072,0.0022907445672899485
1779964950894457300,14.053457275390626,0.0003054326225537807,-0.009926560334861279,0.001832595793530345
1779964950910795300,14.069795166015625,-0.00015271631127689034,-0.010231993161141872,0
1779964950927135000,14.086135009765625,0.00045814894838258624,-0.012980886735022068,-0.00015271631127689034
1779964950943457300,14.102457275390625,0.00015271631127689034,-0.013439035043120384,0.001679879380390048
1779964950959795200,14.118795166015625,-0.00015271631127689034,-0.013286318629980087,0.0032070425804704428
1779964950976121900,14.135121826171876,0.0006108652451075613,-0.012522737495601177,0.004428773187100887
1779964950992451000,14.151451171875,0.00045814894838258624,-0.011453723534941673,0.001679879380390048
1779964951008782000,14.167781982421875,0.0006108652451075613,-0.01191187184303999,0.001527163083665073
1779964951025112300,14.1841123046875,0.00015271631127689034,-0.011301007121801376,0.001527163083665073
1779964951041443000,14.200443115234375,-0.00045814894838258624,-0.010995574295520782,0.0024434609804302454
1779964951057772300,14.216772216796874,0.0003054326225537807,-0.010842857882380486,0.001832595793530345
1779964951074105000,14.23310498046875,-0.0003054326225537807,-0.010690141469240189,0.001679879380390048
1779964951090417400,14.24941748046875,0.0013744467869400978,-0.01038470957428217,0.002138028386980295
1779964951106764500,14.2657646484375,0.001679879380390048,-0.009773843921720982,0.003512475173920393
1779964951123094300,14.28209423828125,0.0010690141934901476,-0.010537425056099892,0.005497787147760391
1779964951139425000,14.298425048828125,0.001679879380390048,-0.009773843921720982,0.005039638374000788
1779964951155739100,14.3147392578125,0.0010690141934901476,-0.01191187184303999,0.004734205547720194
1779964951172069000,14.331069091796875,0.0009162978967651725,-0.008857546374201775,0.0039706239476799965
1779964951188402400,14.34740234375,0.0009162978967651725,-0.010079276748001575,0.0024434609804302454
1779964951204734000,14.36373388671875,0.0003054326225537807,-0.010842857882380486,0.0010690141934901476
1779964951221063200,14.380063232421875,-0.0003054326225537807,-0.010537425056099892,0.0006108652451075613
1779964951237395700,14.396395751953126,-0.0006108652451075613,-0.01191187184303999,0.002138028386980295
1779964951253723600,14.4127236328125,-0.0007635815418325365,-0.008704829961061478,0.001527163083665073
1779964951270054700,14.4290546875,-0.0006108652451075613,-0.010537425056099892,0.0007635815418325365
1779964951286397200,14.445397216796875,0.0003054326225537807,-0.010690141469240189,0.001679879380390048
1779964951302750500,14.46175048828125,-0.00045814894838258624,-0.01038470957428217,0.0003054326225537807
1779964951319057700,14.4780576171875,-0.00015271631127689034,-0.010231993161141872,0
1779964951335389400,14.494389404296875,0.00045814894838258624,-0.009162978269159794,0.0019853119738399982
1779964951351719400,14.510719482421875,0.00045814894838258624,-0.01191187184303999,0.002138028386980295
1779964951368054000,14.527053955078125,-0.00045814894838258624,-0.013897184282541275,0.0010690141934901476
1779964951384380700,14.543380615234375,0.00015271631127689034,-0.014966198243200779,0.00045814894838258624
1779964951400706800,14.559706787109375,0.00045814894838258624,-0.01618792861700058,0.00045814894838258624
1779964951417045000,14.576044921875,0,-0.012828170321881771,0.001832595793530345
1779964951433352000,14.59235205078125,0.0013744467869400978,-0.012064588256180286,0.0032070425804704428
1779964951449706000,14.6087060546875,0.0007635815418325365,-0.013286318629980087,0.003359758760780096
1779964951466002000,14.625001953125,0.0003054326225537807,-0.012675453908741474,0.001527163083665073
1779964951482362600,14.641362548828125,-0.00015271631127689034,-0.014049900695681572,0.001832595793530345
1779964951498690300,14.657690185546874,-0.0006108652451075613,-0.014508049935102463,0.0013744467869400978
1779964951515027700,14.67402783203125,-0.0003054326225537807,-0.01664607785642147,0.001679879380390048
1779964951531338800,14.6903388671875,-0.0012217304902151227,-0.017409659922122955,0.0022907445672899485
1779964951547669200,14.706669189453125,-0.0010690141934901476,-0.021838432177901268,0.0024434609804302454
1779964951564012000,14.723011962890626,-0.003359758760780096,-0.02687807008624077,0.0010690141934901476
1779964951580345000,14.739344970703126,-0.004123340360820293,-0.03237585723400116,0.001832595793530345
1779964951596679400,14.755679443359375,-0.003054326167330146,-0.03588833287358284,0.001832595793530345
1779964951613005300,14.77200537109375,-0.004428773187100887,-0.037110064178705215,0.001832595793530345
1779964951629314600,14.788314453125,-0.003054326167330146,-0.043676864355802536,0.001679879380390048
1779964951645672000,14.804671875,-0.0025961773935705423,-0.04138612002134323,0.0024434609804302454
1779964951661979100,14.820979248046875,-0.001832595793530345,-0.038637228310108185,0.0039706239476799965
1779964951678317000,14.837317138671875,-0.001527163083665073,-0.03894266113638878,0.004428773187100887
1779964951694645200,14.853645263671876,-0.0007635815418325365,-0.03940080851316452,0.005650503560900688
1779964951710974500,14.869974365234375,-0.0007635815418325365,-0.03756821155548096,0.004123340360820293
1779964951727303700,14.8863037109375,-0.00045814894838258624,-0.03588833287358284,0.003054326167330146
1779964951743633700,14.902633544921875,-0.0003054326225537807,-0.03298672288656235,0.0013744467869400978
1779964951759971300,14.918971435546876,-0.0003054326225537807,-0.02733621932566166,0.001679879380390048
1779964951776312800,14.935312744140624,-0.0006108652451075613,-0.019394971430301666,0.0010690141934901476
1779964951792638200,14.95163818359375,-0.0006108652451075613,-0.014049900695681572,0.0013744467869400978
1779964951808974800,14.967974853515624,-0.0006108652451075613,-0.009621127508580685,0.0012217304902151227
1779964951825300700,14.98430078125,-0.0006108652451075613,-0.007024950347840786,0.0024434609804302454
1779964951841632500,15.000632568359375,0.001679879380390048,-0.005345070734620094,0.005039638374000788
1779964951857964300,15.01696435546875,0.001832595793530345,-0.0012217304902151227,0.005955935921519995
1779964951874291700,15.033291748046874,0.001832595793530345,0.0003054326225537807,0.005803219974040985
1779964951890623700,15.049623779296875,0.002138028386980295,0.0019853119738399982,0.005650503560900688
1779964951906952200,15.0659521484375,0.0009162978967651725,0.004428773187100887,0.004428773187100887
1779964951923285500,15.082285400390624,0.0010690141934901476,0.004123340360820293,0.002138028386980295
1779964951939609000,15.098609130859375,-0.0012217304902151227,0.003817907767370343,-0.0019853119738399982
1779964951955949000,15.114948974609375,-0.001679879380390048,0.0032070425804704428,-0.0024434609804302454
1779964951972256800,15.1312568359375,-0.0024434609804302454,0.001527163083665073,-0.0029016099870204926
1779964951988607700,15.147607666015626,-0.001832595793530345,0.001679879380390048,-0.003359758760780096
1779964952004935000,15.163934814453125,-0.001679879380390048,0.00015271631127689034,-0.002138028386980295
1779964952021266400,15.180266357421875,-0.0006108652451075613,0.00015271631127689034,-0.001527163083665073
1779964952037594600,15.1965947265625,0,-0.0006108652451075613,0.001679879380390048
1779964952053937000,15.21293701171875,-0.0006108652451075613,-0.00366519158706069,0.0022907445672899485
1779964952070256000,15.229256103515626,0.00045814894838258624,-0.006872233934700489,0.001679879380390048
1779964952086587600,15.245587646484376,-0.0006108652451075613,-0.008704829961061478,0.0006108652451075613
1779964952102900500,15.261900390625,-0.0024434609804302454,-0.012064588256180286,0.00045814894838258624
1779964952119250400,15.27825048828125,-0.003054326167330146,-0.020922135561704636,0.00045814894838258624
1779964952135577600,15.29457763671875,-0.003512475173920393,-0.023518312722444534,-0.0024434609804302454
1779964952151893000,15.31089306640625,-0.005345070734620094,-0.02825251780450344,-0.0029016099870204926
1779964952168224000,15.32722412109375,-0.005497787147760391,-0.026419922709465027,-0.0013744467869400978
1779964952184555500,15.343555419921875,-0.004581489134579897,-0.02626720629632473,-0.0022907445672899485
1779964952200877600,15.359877685546875,-0.00427605677396059,-0.02428189292550087,-0.0013744467869400978
1779964952217217500,15.376217529296875,-0.0022907445672899485,-0.02168571576476097,0.00045814894838258624
1779964952233547000,15.392547119140625,-0.0010690141934901476,-0.01817324012517929,0.0012217304902151227
1779964952249879300,15.40887939453125,-0.0009162978967651725,-0.012064588256180286,0.0024434609804302454
1779964952266208500,15.42520849609375,-0.0006108652451075613,-0.007177666760981083,0.001679879380390048
1779964952282557700,15.4415576171875,-0.0007635815418325365,-0.005955935921519995,-0.0013744467869400978
1779964952298879000,15.45787890625,-0.0007635815418325365,-0.0032070425804704428,-0.003054326167330146
1779964952315213600,15.474213623046875,-0.001527163083665073,-0.0010690141934901476,-0.001832595793530345
1779964952331543300,15.490543212890625,-0.001832595793530345,0.0009162978967651725,-0.0032070425804704428
1779964952347870000,15.506869873046876,-0.0010690141934901476,0.0009162978967651725,-0.003359758760780096
1779964952364201000,15.523200927734376,-0.0009162978967651725,0.0029016099870204926,-0.0010690141934901476
1779964952380535800,15.539535888671875,0.0003054326225537807,0.0029016099870204926,0.0009162978967651725
1779964952396864500,15.555864501953126,-0.0003054326225537807,0.003817907767370343,0.0022907445672899485
1779964952413196000,15.572196044921874,0.0009162978967651725,0.005039638374000788,0.00427605677396059
1779964952429532700,15.58853271484375,0.001832595793530345,0.0064140851609408855,0.00427605677396059
1779964952445862100,15.604862060546875,0.0010690141934901476,0.005955935921519995,0.0009162978967651725
1779964952462173000,15.6211728515625,0.0007635815418325365,0.0039706239476799965,-0.0007635815418325365
1779964952478503400,15.63750341796875,0.0003054326225537807,0.0013744467869400978,0.0006108652451075613
1779964952494848800,15.653848876953125,-0.0012217304902151227,-0.0013744467869400978,-0.001832595793530345
1779964952511175400,15.670175537109374,-0.0010690141934901476,-0.0025961773935705423,-0.001527163083665073
1779964952527506000,15.686505859375,-0.0006108652451075613,-0.003054326167330146,-0.001832595793530345
1779964952543835600,15.702835693359376,-0.0009162978967651725,-0.0024434609804302454,-0.001832595793530345
1779964952560158500,15.719158447265626,-0.0006108652451075613,-0.0022907445672899485,-0.0009162978967651725
1779964952576496400,15.735496337890625,-0.0003054326225537807,-0.0039706239476799965,-0.00015271631127689034
1779964952592827000,15.751826904296875,-0.0006108652451075613,-0.005803219974040985,-0.0009162978967651725
1779964952609161500,15.768161376953126,-0.0006108652451075613,-0.006108652334660292,-0.0006108652451075613
1779964952625490200,15.784490234375,0.0013744467869400978,-0.0027488935738801956,0.0022907445672899485
1779964952641818600,15.800818603515625,0.001832595793530345,-0.00045814894838258624,0.003054326167330146
1779964952658136600,15.817136474609375,0.0019853119738399982,0.0013744467869400978,0.0013744467869400978
1779964952674467800,15.8334677734375,0.0010690141934901476,0.003512475173920393,0.00045814894838258624
1779964952690797800,15.8497978515625,0.0007635815418325365,0.006719517521560192,-0.0013744467869400978
1779964952707130400,15.86613037109375,0.0006108652451075613,0.009621127508580685,-0.0025961773935705423
1779964952723455000,15.882455078125,0.00015271631127689034,0.011453723534941673,-0.0025961773935705423
1779964952739792000,15.8987919921875,-0.00045814894838258624,0.01237002108246088,-0.0032070425804704428
1779964952756129500,15.915129638671875,-0.00015271631127689034,0.01237002108246088,-0.004581489134579897
1779964952772472300,15.931472412109375,-0.00045814894838258624,0.01466076634824276,-0.004886921960860491
1779964952788794000,15.947794189453125,0.0003054326225537807,0.016493361443281174,-0.0029016099870204926
1779964952805120500,15.96412060546875,0.0007635815418325365,0.01618792861700058,-0.003817907767370343
1779964952821458400,15.98045849609375,0,0.013133603148162365,-0.004886921960860491
1779964952837786600,15.99678662109375,-0.00045814894838258624,0.012217304669320583,-0.003817907767370343
1779964952854115300,16.013115234375,-0.002138028386980295,0.012064588256180286,-0.003512475173920393
1779964952870445000,16.029445068359376,0.00045814894838258624,0.010079276748001575,-0.00366519158706069
1779964952886770700,16.045770751953125,-0.00045814894838258624,0.010842857882380486,-0.005650503560900688
1779964952903113700,16.06211376953125,-0.0013744467869400978,0.0074830991216003895,-0.0027488935738801956
1779964952919435800,16.078435791015625,-0.0013744467869400978,0.005345070734620094,-0.003512475173920393
1779964952935748000,16.094748046875,-0.0012217304902151227,0.0025961773935705423,-0.003512475173920393
1779964952952086500,16.11108642578125,-0.00045814894838258624,0.001527163083665073,-0.0027488935738801956
1779964952968431000,16.12743115234375,-0.0007635815418325365,0.002138028386980295,-0.0025961773935705423
1779964952984741600,16.14374169921875,-0.00045814894838258624,0.0025961773935705423,-0.0022907445672899485
1779964953001076000,16.160075927734376,-0.00015271631127689034,0.0029016099870204926,-0.001527163083665073
1779964953017409800,16.176409912109374,-0.00045814894838258624,0.004428773187100887,-0.001679879380390048
1779964953033737700,16.19273779296875,-0.00045814894838258624,0.005650503560900688,-0.0027488935738801956
1779964953050066200,16.209066162109377,-0.0006108652451075613,0.004734205547720194,-0.003512475173920393
1779964953066385000,16.225385009765624,-0.0006108652451075613,0.004734205547720194,-0.003359758760780096
1779964953082727000,16.241726806640624,-0.0007635815418325365,0.007788531947880983,-0.004886921960860491
1779964953099076400,16.258076416015626,-0.00045814894838258624,0.00733038317412138,-0.005803219974040985
1779964953115401500,16.2744013671875,-0.0009162978967651725,0.010231993161141872,-0.004581489134579897
1779964953131730400,16.29073046875,-0.0012217304902151227,0.016340645030140877,-0.0039706239476799965
1779964953148045800,16.3070458984375,-0.00045814894838258624,0.015577063895761967,-0.004581489134579897
1779964953164386000,16.323385986328127,-0.0003054326225537807,0.015577063895761967,-0.005192354787141085
1779964953180709400,16.33970947265625,-0.00015271631127689034,0.018020525574684143,-0.0039706239476799965
1779964953197040600,16.35604052734375,0.0009162978967651725,0.02122756652534008,-0.001679879380390048
1779964953213369900,16.372369873046875,0.0003054326225537807,0.019547687843441963,-0.003817907767370343
1779964953229689600,16.388689697265626,0,0.01542434748262167,-0.003512475173920393
1779964953246047500,16.405047607421874,0.0009162978967651725,0.014355333521962166,-0.00427605677396059
1779964953262372000,16.4213720703125,0.00015271631127689034,0.015577063895761967,-0.0032070425804704428
1779964953278695700,16.43769580078125,0.001679879380390048,0.019089538604021072,-0.003054326167330146
1779964953295037400,16.454037353515623,0.0010690141934901476,0.017562376335263252,-0.004428773187100887
1779964953311366000,16.470365966796876,-0.0003054326225537807,0.01466076634824276,-0.006261368747800589
1779964953327680800,16.4866806640625,-0.0003054326225537807,0.011301007121801376,-0.007941247895359993
1779964953344025900,16.50302587890625,-0.0012217304902151227,0.009773843921720982,-0.00733038317412138
1779964953360355000,16.51935498046875,-0.0007635815418325365,0.01038470957428217,-0.005345070734620094
1779964953376695800,16.53569580078125,-0.00045814894838258624,0.009162978269159794,-0.005497787147760391
1779964953393015300,16.552015380859373,-0.0003054326225537807,0.008704829961061478,-0.003512475173920393
1779964953409348400,16.568348388671875,0.0013744467869400978,0.012522737495601177,-0.0010690141934901476
1779964953425677000,16.584677001953125,0.002138028386980295,0.013133603148162365,-0.001679879380390048
1779964953442013200,16.60101318359375,0.0007635815418325365,0.012522737495601177,-0.0010690141934901476
1779964953458341000,16.617341064453125,0,0.011301007121801376,-0.003054326167330146
1779964953474653400,16.6336533203125,0.00015271631127689034,0.012980886735022068,-0.003359758760780096
1779964953490995200,16.6499951171875,-0.0012217304902151227,0.013744467869400978,-0.007024950347840786
1779964953507334700,16.666334716796875,-0.0013744467869400978,0.011453723534941673,-0.005803219974040985
1779964953523662600,16.68266259765625,-0.001527163083665073,0.010842857882380486,-0.004886921960860491
1779964953539991600,16.698991455078126,-0.00045814894838258624,0.01160643994808197,-0.00427605677396059
1779964953556324400,16.715324462890624,0.0003054326225537807,0.01191187184303999,-0.003359758760780096
1779964953572650000,16.73164990234375,-0.0010690141934901476,0.012064588256180286,-0.003359758760780096
1779964953588984600,16.747984619140624,0.0006108652451075613,0.012675453908741474,-0.0032070425804704428
1779964953605309400,16.764309326171876,-0.00015271631127689034,0.009773843921720982,-0.004734205547720194
1779964953621633300,16.78063330078125,-0.0009162978967651725,0.010842857882380486,-0.005345070734620094
1779964953637955000,16.796955078125,-0.0009162978967651725,0.011759156361222267,-0.005497787147760391
1779964953654292200,16.813292236328124,-0.0007635815418325365,0.009926560334861279,-0.005650503560900688
1779964953670621000,16.829620849609373,-0.0003054326225537807,0.011453723534941673,-0.0039706239476799965
1779964953686953500,16.845953369140624,0.00015271631127689034,0.010842857882380486,-0.0012217304902151227
1779964953703283000,16.862282958984373,0.00015271631127689034,0.008246680721640587,-0.0022907445672899485
1779964953719599000,16.87859912109375,0.00015271631127689034,0.0074830991216003895,-0.001832595793530345
1779964953735959300,16.894959228515624,0.0009162978967651725,0.0064140851609408855,-0.0010690141934901476
1779964953752289000,16.9112890625,0,0.00366519158706069,-0.001832595793530345
1779964953768615400,16.927615478515627,-0.00015271631127689034,0.0007635815418325365,-0.002138028386980295
1779964953784948700,16.94394873046875,-0.00045814894838258624,-0.0022907445672899485,0
1779964953801278000,16.96027783203125,-0.00045814894838258624,-0.005955935921519995,-0.0013744467869400978
1779964953817619000,16.976618896484375,-0.0003054326225537807,-0.004734205547720194,-0.0006108652451075613
1779964953833942300,16.9929423828125,0.00015271631127689034,-0.006108652334660292,-0.0013744467869400978
1779964953850269000,17.00926904296875,-0.0003054326225537807,-0.007635815534740686,0.0006108652451075613
1779964953866599400,17.025599365234374,0.0007635815418325365,-0.008857546374201775,0.0012217304902151227
1779964953882929000,17.041928955078124,0.0009162978967651725,-0.008399397134780884,0.0012217304902151227
1779964953899245800,17.058245849609374,0.0007635815418325365,-0.005650503560900688,0.0019853119738399982
1779964953915578000,17.074578125,0.0006108652451075613,-0.007024950347840786,0.004123340360820293
1779964953931907300,17.0909072265625,0.00015271631127689034,-0.007024950347840786,0.0022907445672899485
1779964953948226800,17.107226806640625,0.0013744467869400978,-0.0064140851609408855,0.0025961773935705423
1779964953964568000,17.123568115234374,0.0009162978967651725,-0.006872233934700489,0.0007635815418325365
1779964953980899300,17.1398994140625,0.0009162978967651725,-0.004886921960860491,0.0012217304902151227
1779964953997246000,17.156245849609373,0.00015271631127689034,-0.003512475173920393,0.0003054326225537807
1779964954013574400,17.172574462890626,0.00045814894838258624,-0.0022907445672899485,-0.00015271631127689034
1779964954029904400,17.188904296875,-0.00015271631127689034,-0.003817907767370343,-0.0006108652451075613
1779964954046222000,17.20522216796875,-0.0003054326225537807,-0.0039706239476799965,-0.0006108652451075613
1779964954062559500,17.2215595703125,0.00045814894838258624,-0.00366519158706069,0.0013744467869400978
1779964954078915800,17.237915771484374,0.0009162978967651725,-0.005497787147760391,0.002138028386980295
1779964954095228000,17.254227783203124,0.001679879380390048,-0.003817907767370343,0.00366519158706069
1779964954111556000,17.27055615234375,0.0025961773935705423,0.00015271631127689034,0.0074830991216003895
1779964954127855400,17.28685546875,0.0012217304902151227,-0.0009162978967651725,0.004123340360820293
1779964954144204000,17.3032041015625,0.00015271631127689034,-0.004734205547720194,0.0003054326225537807
1779964954160533000,17.319532958984375,-0.0009162978967651725,-0.0074830991216003895,-0.0022907445672899485
1779964954176864500,17.335864501953125,-0.0012217304902151227,-0.006872233934700489,-0.0006108652451075613
1779964954193193700,17.35219384765625,-0.0013744467869400978,-0.005650503560900688,-0.001679879380390048
1779964954209524700,17.368524658203125,-0.0006108652451075613,-0.004123340360820293,0
1779964954225871400,17.384871337890626,-0.00015271631127689034,-0.0039706239476799965,-0.0009162978967651725
1779964954242166800,17.401166748046876,-0.0009162978967651725,-0.00427605677396059,-0.0006108652451075613
1779964954258534400,17.417534423828126,0.0009162978967651725,-0.006261368747800589,-0.00045814894838258624
1779964954274857200,17.433857177734374,0.00015271631127689034,-0.004886921960860491,0.0024434609804302454
1779964954291183400,17.450183349609375,0.0009162978967651725,-0.005039638374000788,0.001527163083665073
1779964954307504400,17.46650439453125,-0.0009162978967651725,-0.004734205547720194,0.00045814894838258624
1779964954323846100,17.48284619140625,-0.0013744467869400978,-0.005345070734620094,-0.0012217304902151227
1779964954340177400,17.499177490234374,-0.001527163083665073,-0.008399397134780884,-0.001832595793530345
1779964954356513500,17.515513427734376,-0.001527163083665073,-0.008399397134780884,-0.0024434609804302454
1779964954372844000,17.531843994140626,-0.001527163083665073,-0.012064588256180286,-0.0009162978967651725
1779964954389171500,17.54817138671875,-0.0003054326225537807,-0.013133603148162365,-0.00366519158706069
1779964954405484500,17.564484619140625,0.0006108652451075613,-0.01542434748262167,0.0006108652451075613
1779964954421818600,17.580818603515624,0.0009162978967651725,-0.007635815534740686,-0.00045814894838258624
1779964954438160400,17.597160400390624,0.001832595793530345,-0.009621127508580685,-0.0010690141934901476
1779964954454489900,17.61348974609375,0.002138028386980295,-0.00427605677396059,0.0027488935738801956
1779964954470811600,17.629811767578126,0.0025961773935705423,0.001832595793530345,0.005039638374000788
1779964954487146200,17.646146240234376,0.0007635815418325365,-0.00366519158706069,0.0007635815418325365
1779964954503498500,17.66249853515625,0,-0.006872233934700489,-0.0029016099870204926
1779964954519790600,17.67879052734375,-0.0003054326225537807,-0.004581489134579897,-0.0013744467869400978
1779964954536146000,17.69514599609375,-0.0012217304902151227,-0.002138028386980295,0.0007635815418325365
1779964954552476200,17.71147607421875,-0.0010690141934901476,-0.005039638374000788,0.00015271631127689034
1779964954568790800,17.727790771484376,-0.00015271631127689034,-0.004123340360820293,-0.0009162978967651725
1779964954585136600,17.74413671875,0.0009162978967651725,-0.0032070425804704428,0.0003054326225537807
1779964954601467100,17.760467041015627,0.0009162978967651725,-0.0024434609804302454,0.001527163083665073
1779964954617781000,17.776781005859377,0.0009162978967651725,-0.003512475173920393,0.001832595793530345
1779964954634113800,17.79311376953125,0.0019853119738399982,-0.005497787147760391,0.0027488935738801956
1779964954650446300,17.8094462890625,0.0003054326225537807,-0.007635815534740686,0.0006108652451075613
1779964954666777000,17.825777099609375,0.0009162978967651725,-0.010842857882380486,-0.00045814894838258624
1779964954683105500,17.84210546875,0.0006108652451075613,-0.008857546374201775,0.0012217304902151227
1779964954699436800,17.858436767578127,-0.00015271631127689034,-0.00809396430850029,0.0009162978967651725
1779964954715766300,17.874766357421876,-0.00015271631127689034,-0.008399397134780884,0.0003054326225537807
1779964954732110300,17.8911103515625,-0.00015271631127689034,-0.007941247895359993,0.0007635815418325365
1779964954748445200,17.907445068359376,0.0006108652451075613,-0.008399397134780884,0.0019853119738399982
1779964954764772400,17.9237724609375,0.0009162978967651725,-0.00931569468230009,0.001527163083665073
1779964954781101000,17.94010107421875,0.001679879380390048,-0.009010262787342072,0.003817907767370343
1779964954797432300,17.956432373046876,0.002138028386980295,-0.0064140851609408855,0.005803219974040985
1779964954813761800,17.97276171875,0.0025961773935705423,-0.007024950347840786,0.004581489134579897
1779964954830093600,17.989093505859376,0.002138028386980295,-0.005650503560900688,0.003817907767370343
1779964954846422500,18.005422607421874,0.001527163083665073,-0.003359758760780096,0.003817907767370343
1779964954862755800,18.021755859375,0.0007635815418325365,-0.002138028386980295,0.0019853119738399982
1779964954879083800,18.038083740234374,0.0006108652451075613,-0.0027488935738801956,0.0009162978967651725
1779964954895415000,18.0544150390625,-0.00045814894838258624,-0.005803219974040985,-0.0007635815418325365
1779964954911725000,18.07072509765625,-0.0003054326225537807,-0.005192354787141085,-0.001527163083665073
1779964954928060400,18.087060302734375,-0.0003054326225537807,-0.00427605677396059,-0.0007635815418325365
1779964954944405200,18.1034052734375,-0.0003054326225537807,-0.0029016099870204926,-0.0009162978967651725
1779964954960736500,18.119736572265627,0,-0.0032070425804704428,0.0009162978967651725
1779964954977055500,18.136055419921874,-0.0003054326225537807,-0.0027488935738801956,-0.0007635815418325365
1779964954993399000,18.15239892578125,0.0010690141934901476,-0.003512475173920393,0.001679879380390048
1779964955009699800,18.168699951171874,0.0009162978967651725,-0.0027488935738801956,-0.0013744467869400978
1779964955026052400,18.18505224609375,0.0009162978967651725,-0.0025961773935705423,0
1779964955042371000,18.20137109375,0,-0.0039706239476799965,-0.001527163083665073
1779964955058717200,18.21771728515625,-0.0003054326225537807,-0.0029016099870204926,-0.002138028386980295
1779964955075035000,18.234034912109376,-0.0003054326225537807,-0.00366519158706069,-0.0022907445672899485
1779964955091380700,18.250380615234373,0.001679879380390048,-0.0022907445672899485,-0.0012217304902151227
1779964955107688700,18.266688720703126,0.0009162978967651725,-0.0010690141934901476,0.0003054326225537807
1779964955124025300,18.283025390625,0.001832595793530345,0.0013744467869400978,0.0006108652451075613
1779964955140356900,18.29935693359375,0.0010690141934901476,0.0024434609804302454,0.00045814894838258624
1779964955156690200,18.315690185546874,0.0019853119738399982,0.003817907767370343,0.0013744467869400978
1779964955173017000,18.33201708984375,0.0007635815418325365,0.003359758760780096,-0.0007635815418325365
1779964955189350000,18.348349853515625,0.0009162978967651725,0.0039706239476799965,-0.001832595793530345
1779964955205674800,18.3646748046875,-0.00015271631127689034,0.004123340360820293,-0.0013744467869400978
1779964955222029300,18.381029296875,0.00015271631127689034,0.003817907767370343,-0.0027488935738801956
1779964955238371300,18.397371337890625,-0.0003054326225537807,0.00015271631127689034,-0.004734205547720194
1779964955254685200,18.413685302734375,0.0006108652451075613,0.006261368747800589,0.0012217304902151227
1779964955271011800,18.43001171875,0.0009162978967651725,0.005650503560900688,0.0029016099870204926
1779964955287346700,18.4463466796875,0,0.0019853119738399982,0.0003054326225537807
1779964955303672300,18.46267236328125,0.0006108652451075613,0.0007635815418325365,0.0009162978967651725
1779964955320006100,18.479006103515626,0.00015271631127689034,0.0022907445672899485,-0.0006108652451075613
1779964955336310300,18.495310302734374,0.0007635815418325365,-0.0025961773935705423,-0.003512475173920393
1779964955352661000,18.511660888671877,0.0006108652451075613,-0.002138028386980295,-0.0027488935738801956
1779964955368987400,18.5279873046875,0.0010690141934901476,0.0029016099870204926,-0.001679879380390048
1779964955385335800,18.544335693359375,0.0009162978967651725,0.006108652334660292,-0.001679879380390048
1779964955401655300,18.5606552734375,0.0003054326225537807,0.006719517521560192,-0.001832595793530345
1779964955417988400,18.57698828125,0.0009162978967651725,0.008704829961061478,-0.003054326167330146
1779964955434302500,18.593302490234375,0.001679879380390048,0.012980886735022068,-0.0025961773935705423
1779964955450653400,18.6096533203125,0.0010690141934901476,0.014202617108821869,-0.001679879380390048
1779964955466978000,18.62597802734375,0.0009162978967651725,0.012675453908741474,-0.00045814894838258624
1779964955483309300,18.642309326171876,0.0009162978967651725,0.01114829070866108,-0.001679879380390048
1779964955499638800,18.658638671875,0.0006108652451075613,0.00855211354792118,-0.001832595793530345
1779964955515968500,18.674968505859376,0.0009162978967651725,0.0074830991216003895,0.0013744467869400978
1779964955532299500,18.691299560546874,0.0013744467869400978,0.00366519158706069,0.0013744467869400978
1779964955548632000,18.707632080078124,0.001679879380390048,-0.0009162978967651725,0.0022907445672899485
1779964955564958700,18.723958740234377,0.002138028386980295,-0.0025961773935705423,0.0019853119738399982
1779964955581292500,18.74029248046875,0.0010690141934901476,-0.003054326167330146,0.001527163083665073
1779964955597603800,18.756603759765625,0.0012217304902151227,-0.0022907445672899485,0.0006108652451075613
1779964955613938700,18.772938720703124,0.0009162978967651725,-0.004734205547720194,-0.0006108652451075613
1779964955630268400,18.789268310546873,0.0009162978967651725,-0.004734205547720194,-0.0013744467869400978
1779964955646603800,18.805603759765624,-0.00015271631127689034,-0.0027488935738801956,-0.00045814894838258624
1779964955662933500,18.82193359375,-0.0003054326225537807,-0.0039706239476799965,-0.0022907445672899485
1779964955679260700,18.8382607421875,-0.0003054326225537807,-0.001832595793530345,-0.002138028386980295
1779964955695590000,18.85458984375,-0.0003054326225537807,-0.0024434609804302454,0
1779964955711939000,18.87093896484375,0.0009162978967651725,-0.0012217304902151227,-0.0007635815418325365
1779964955728268000,18.88726806640625,-0.00045814894838258624,-0.00045814894838258624,-0.0024434609804302454
1779964955744592000,18.903591796875,-0.0012217304902151227,0.0006108652451075613,-0.001832595793530345
1779964955760925400,18.919925537109375,-0.0013744467869400978,0.003054326167330146,-0.0029016099870204926
1779964955777257200,18.93625732421875,-0.0003054326225537807,0.001527163083665073,-0.0027488935738801956
1779964955793585400,18.95258544921875,-0.0009162978967651725,0.003817907767370343,-0.00366519158706069
1779964955809906000,18.968906005859374,-0.0003054326225537807,0.005192354787141085,-0.00366519158706069
1779964955826247200,18.9852470703125,0.001527163083665073,0.007024950347840786,-0.001679879380390048
1779964955842574800,19.001574951171875,0.001832595793530345,0.010231993161141872,-0.0006108652451075613
1779964955858911700,19.017911865234375,0.001679879380390048,0.01160643994808197,0.00015271631127689034
1779964955875238100,19.034238037109375,0.0012217304902151227,0.01160643994808197,-0.0019853119738399982
1779964955891568400,19.050568359375,0.0012217304902151227,0.01114829070866108,-0.0019853119738399982
1779964955907862800,19.06686279296875,0.0003054326225537807,0.00855211354792118,-0.0019853119738399982
1779964955924215000,19.083215087890625,0.0003054326225537807,0.010690141469240189,-0.00045814894838258624
1779964955940557800,19.099557861328126,-0.00015271631127689034,0.011301007121801376,-0.0039706239476799965
1779964955956890000,19.11589013671875,-0.0009162978967651725,0.008246680721640587,-0.005039638374000788
1779964955973201200,19.132201171875,-0.0010690141934901476,0.009773843921720982,-0.005803219974040985
1779964955989554400,19.148554443359377,-0.0010690141934901476,0.007941247895359993,-0.004886921960860491
1779964956005881000,19.164881103515626,-0.0006108652451075613,0.00809396430850029,-0.004581489134579897
1779964956022215700,19.181215576171876,-0.0006108652451075613,0.007024950347840786,-0.004581489134579897
1779964956038544000,19.1975439453125,-0.0003054326225537807,0.00733038317412138,-0.003817907767370343
1779964956054868000,19.213867919921874,-0.00015271631127689034,0.007941247895359993,-0.003054326167330146
1779964956071201300,19.230201171875,0.0007635815418325365,0.006872233934700489,-0.00366519158706069
1779964956087507700,19.2465078125,0.00015271631127689034,0.007024950347840786,-0.003054326167330146
1779964956103848700,19.2628486328125,0.0006108652451075613,0.00855211354792118,-0.0029016099870204926
1779964956120180000,19.279179931640623,-0.00015271631127689034,0.005192354787141085,-0.0029016099870204926
1779964956136511700,19.29551171875,-0.00015271631127689034,0.004734205547720194,-0.0022907445672899485
1779964956152828700,19.31182861328125,0.00015271631127689034,0.0074830991216003895,-0.0024434609804302454
1779964956169176600,19.328176513671874,0.0009162978967651725,0.009773843921720982,-0.0013744467869400978
1779964956185501700,19.344501708984374,-0.00015271631127689034,0.010537425056099892,-0.003512475173920393
1779964956201838300,19.36083837890625,-0.0006108652451075613,0.010690141469240189,-0.00427605677396059
1779964956218176300,19.37717626953125,-0.0006108652451075613,0.010079276748001575,-0.005803219974040985
1779964956234509000,19.393509033203124,-0.0012217304902151227,0.010842857882380486,-0.005039638374000788
1779964956250854700,19.409854736328125,-0.0013744467869400978,0.010842857882380486,-0.004734205547720194
1779964956267156200,19.42615625,0.00015271631127689034,0.00855211354792118,-0.005345070734620094
1779964956283498500,19.44249853515625,0.0009162978967651725,0.01160643994808197,-0.0024434609804302454
1779964956299829200,19.458829345703126,0.001832595793530345,0.016798794269561768,0.00045814894838258624
1779964956316158500,19.475158447265624,0.0022907445672899485,0.01710422709584236,0.00045814894838258624
1779964956332488000,19.491488037109374,0.001527163083665073,0.018020525574684143,-0.0010690141934901476
1779964956348820200,19.5078203125,0.0003054326225537807,0.016493361443281174,-0.003054326167330146
