time,seconds_elapsed,z,y,x
1780001776996922600,0.116922607421875,-3.8953046798706055,0.1264796257019043,0.09084546566009521
1780001777013264000,0.133263916015625,-2.539344310760498,-1.776944875717163,0.2201700210571289
1780001777029576700,0.14957666015625,-2.5710325241088867,-4.770514965057373,1.6196835041046143
1780001777045922300,0.16592236328125,-3.1886682510375977,-2.801649808883667,1.2540161609649658
1780001777062252300,0.182252197265625,-6.0365166664123535,0.07090950012207031,0.768857479095459
1780001777078591700,0.198591796875,-6.601423263549805,0.013258695602416992,1.2677421569824219
1780001777094921700,0.214921630859375,-3.1658315658569336,-0.09680914878845215,-1.2753655910491943
1780001777111253500,0.23125341796875,-2.434593677520752,-1.9959501028060913,-1.6916706562042236
1780001777127592000,0.247592041015625,-3.5085606575012207,-5.251119136810303,-0.9363255500793457
1780001777143911000,0.263910888671875,-5.64616060256958,-4.805822372436523,-0.1471695899963379
1780001777160266000,0.280265869140625,-7.651606559753418,-4.592084884643555,0.07298755645751953
1780001777176597500,0.296597412109375,-8.075138092041016,-3.3705406188964844,-0.12326192855834961
1780001777192915500,0.31291552734375,-6.047802925109863,-4.699018478393555,-0.5787763595581055
1780001777209228800,0.329228759765625,-3.2906031608581543,-6.396916389465332,-0.6022257804870605
1780001777225584000,0.345584228515625,-2.235167980194092,-8.493460655212402,-0.06554651260375977
1780001777241917400,0.36191748046875,0.6707773208618164,-7.9964375495910645,1.4612736701965332
1780001777258250200,0.378250244140625,3.1193642616271973,-5.162919044494629,3.3101940155029297
1780001777274582800,0.394582763671875,5.755173683166504,-3.398956298828125,4.968624114990234
1780001777290915600,0.41091552734375,8.555334091186523,-2.6904032230377197,5.6417646408081055
1780001777307249200,0.427249267578125,8.837900161743164,-3.001051902770996,7.460894584655762
1780001777323576300,0.443576416015625,8.272934913635254,-2.6178171634674072,9.407060623168945
1780001777339917600,0.45991748046875,6.856819152832031,-1.7992770671844482,10.703522682189941
1780001777356246800,0.476246826171875,6.561799049377441,-0.44612884521484375,10.208675384521484
1780001777372577500,0.49257763671875,4.267282009124756,1.293353796005249,9.121162414550781
1780001777388916700,0.508916748046875,5.103886604309082,1.170935869216919,9.555954933166504
1780001777405242600,0.52524267578125,5.152599334716797,1.2158360481262207,8.387701034545898
1780001777421580800,0.541580810546875,6.081025123596191,0.7211556434631348,6.6655988693237305
1780001777437911800,0.557911865234375,5.349184989929199,-0.27490711212158203,5.951618194580078
1780001777454231800,0.574231689453125,4.052921295166016,-1.3999571800231934,4.743274688720703
1780001777470577400,0.590577392578125,1.660611629486084,-1.4584431648254395,3.6949477195739746
1780001777486926800,0.6069267578125,-1.385913610458374,-2.1304421424865723,3.2801337242126465
1780001777503253200,0.623253173828125,-2.6638729572296143,-1.3892664909362793,1.706888198852539
1780001777519557400,0.639557373046875,-3.7083218097686768,0.6450753211975098,-0.2257847785949707
1780001777535909000,0.6559091796875,-6.610037803649902,1.6087985038757324,-1.5267486572265625
1780001777552240400,0.672240478515625,-5.883047103881836,2.384612560272217,-0.16989803314208984
1780001777568574500,0.688574462890625,-0.9210009574890137,0.8403081893920898,1.18076753616333
1780001777584908000,0.704907958984375,-1.3637738227844238,-0.24947595596313477,2.5751872062683105
1780001777601240300,0.721240234375,2.620706081390381,2.572067975997925,3.2310609817504883
1780001777617578200,0.737578125,0.5280661582946777,8.180952072143555,0.42127037048339844
1780001777633910300,0.75391015625,-1.0488851070404053,7.480937957763672,-0.6118297576904297
1780001777650253000,0.770253173828125,-1.0063962936401367,4.165328502655029,0.02068042755126953
1780001777666569700,0.78656982421875,-2.8379251956939697,3.621812582015991,0.7765350341796875
1780001777682913000,0.8029130859375,-0.36729907989501953,8.453527450561523,0.6265854835510254
1780001777699216400,0.81921630859375,1.411886215209961,7.874385833740234,0.41088008880615234
1780001777715568000,0.835568115234375,0.20281553268432617,6.293033123016357,0.7827091217041016
1780001777731905800,0.85190576171875,-2.3193562030792236,4.825066566467285,0.3478994369506836
1780001777748237300,0.8682373046875,-1.737743616104126,4.207699775695801,-0.9973039627075195
1780001777764568300,0.884568359375,-0.3602173328399658,4.469730377197266,-0.031239986419677734
1780001777780902100,0.900902099609375,-0.9326326847076416,2.6143836975097656,0.33270788192749023
1780001777797226800,0.917226806640625,-1.9834555387496948,0.8146371841430664,2.5475430488586426
1780001777813568300,0.933568359375,-4.148401260375977,-2.252591609954834,4.115728855133057
1780001777829900300,0.949900390625,-3.0807859897613525,-2.870108127593994,3.801651954650879
1780001777846234000,0.966234130859375,-2.717552423477173,-1.8980321884155273,3.284766674041748
1780001777862566100,0.982566162109375,-1.148484706878662,-2.7131075859069824,3.130459785461426
1780001777878899700,0.998899658203125,0.17246776819229126,-5.474522113800049,4.6802167892456055
1780001777895232300,1.015232177734375,1.1941195726394653,-7.072128772735596,5.3714094161987305
1780001777911565300,1.0315654296875,3.0341434478759766,-5.809343338012695,4.089381217956543
1780001777927897600,1.047897705078125,2.9997310638427734,-2.251084327697754,1.2458171844482422
1780001777944219600,1.0642197265625,2.983748435974121,-1.6613521575927734,1.8307690620422363
1780001777960567300,1.0805673828125,1.400158166885376,-0.955174446105957,1.3091282844543457
1780001777976893700,1.096893798828125,-0.6365740299224854,3.930828094482422,1.594050407409668
1780001777993227300,1.113227294921875,3.34281849861145,4.850159168243408,-0.23704981803894043
1780001778009564200,1.129564208984375,0.5078912973403931,1.810744285583496,-6.03767204284668
1780001778025892400,1.145892333984375,0.5800361037254333,0.6395883560180664,-9.858415603637695
1780001778042230800,1.162230712890625,2.01562237739563,0.3894939422607422,-7.976202487945557
1780001778058557200,1.17855712890625,5.000002861022949,0.2206583023071289,-5.949121475219727
1780001778074896100,1.194896240234375,0.013619184494018555,-1.4886589050292969,-2.5339198112487793
1780001778091226600,1.2112265625,-5.398736953735352,-0.2018136978149414,-3.0307517051696777
1780001778107561500,1.2275615234375,-3.31111478805542,-0.7242345809936523,-0.5941259860992432
1780001778123906000,1.243906005859375,-2.5916707515716553,-1.985147476196289,1.4982314109802246
1780001778140222700,1.26022265625,2.4957022666931152,-1.9710969924926758,0.024235248565673828
1780001778156572200,1.276572265625,0.8908830881118774,2.266805648803711,0.23975086212158203
1780001778172905500,1.292905517578125,-1.9214345216751099,1.8593759536743164,1.8646371364593506
1780001778189224400,1.309224365234375,-0.8274027109146118,0.6584196090698242,4.946684837341309
1780001778205554200,1.32555419921875,-0.3785945177078247,1.729722023010254,6.726824760437012
1780001778221889500,1.3418896484375,-0.1967635154724121,2.789975643157959,6.385797500610352
1780001778238209300,1.358209228515625,-0.29423999786376953,1.1018972396850586,3.6346564292907715
1780001778254555000,1.374554931640625,1.0580341815948486,0.8149642944335938,1.3083868026733398
1780001778270888400,1.390888427734375,0.1802297830581665,0.8765592575073242,0.2570779323577881
1780001778287210500,1.40721044921875,0.46659743785858154,-0.12341117858886719,-3.4674134254455566
1780001778303565300,1.4235654296875,-0.34233927726745605,-1.9478530883789062,-4.039473056793213
1780001778319901700,1.439901611328125,2.950420379638672,-4.397064208984375,-3.306429386138916
1780001778336234500,1.456234375,2.3794665336608887,-1.3386735916137695,-2.2269062995910645
1780001778352554000,1.472553955078125,0.7131292819976807,2.0118250846862793,-3.776535987854004
1780001778368885800,1.4888857421875,-2.0961179733276367,1.5598626136779785,-4.346229553222656
1780001778385218000,1.505218017578125,-2.3289620876312256,-2.5349321365356445,-1.8317463397979736
1780001778401553200,1.52155322265625,-3.234469413757324,-4.270478248596191,-2.785313606262207
1780001778417882400,1.53788232421875,-0.5486147403717041,-1.3287105560302734,-3.2328710556030273
1780001778434217500,1.554217529296875,4.27605676651001,2.8627939224243164,-0.7293703556060791
1780001778450552000,1.570552001953125,2.123152256011963,4.536223411560059,3.426004409790039
1780001778466899700,1.586899658203125,-0.47989749908447266,4.1086039543151855,8.063631057739258
1780001778483208200,1.603208251953125,-1.5751349925994873,2.6079230308532715,10.458208084106445
1780001778499550700,1.61955078125,-1.0510165691375732,0.24180984497070312,10.191011428833008
1780001778515881000,1.635880859375,-2.189502000808716,0.28255367279052734,8.929830551147461
1780001778532214300,1.65221435546875,-2.748886823654175,0.5539436340332031,5.4773359298706055
1780001778548547000,1.668547119140625,-6.137753486633301,1.408165454864502,-0.926990270614624
1780001778564880000,1.6848798828125,-4.06097412109375,1.9971427917480469,-8.223835945129395
1780001778581208300,1.701208251953125,0.7187279462814331,0.3358154296875,-7.235773086547852
1780001778597548800,1.717548828125,11.940031051635742,-3.3309450149536133,-4.019163131713867
1780001778613878500,1.73387841796875,3.67976713180542,-2.4231882095336914,-0.31022024154663086
1780001778630211600,1.750211669921875,1.0481948852539062,-1.5137434005737305,-1.997267246246338
1780001778646548000,1.7665478515625,-1.3885151147842407,3.334901809692383,-5.091677665710449
1780001778662873600,1.78287353515625,-2.785276412963867,4.841711044311523,-8.674467086791992
1780001778679206100,1.7992060546875,-2.307772636413574,-3.6671581268310547,-7.813601016998291
1780001778695543800,1.815543701171875,-1.6644723415374756,-12.682107925415039,-4.795966148376465
1780001778720033800,1.84003369140625,-1.6146222352981567,-0.4060702323913574,-2.286083698272705
1780001778736376300,1.856376220703125,1.7412089109420776,3.9934439659118652,-0.6557230949401855
1780001778752707800,1.872707763671875,1.8812066316604614,3.928673028945923,-1.548100471496582
1780001778769040400,1.889040283203125,0.7270985841751099,3.217452049255371,0.06725025177001953
1780001778785375500,1.90537548828125,2.5240097045898438,3.736027479171753,4.648885726928711
1780001778801703000,1.921702880859375,0.09284090995788574,3.2708969116210938,9.344441413879395
1780001778818046200,1.938046142578125,-1.2024614810943604,1.6103029251098633,9.921905517578125
1780001778834378500,1.95437841796875,-1.2523460388183594,2.9215450286865234,9.009382247924805
1780001778850708500,1.97070849609375,-5.015979290008545,0.027844905853271484,7.372086048126221
1780001778867016000,1.987015869140625,-2.7385737895965576,-3.4693703651428223,8.533546447753906
1780001778883364400,2.0033642578125,-2.517023801803589,-2.762981414794922,8.775126457214355
1780001778899703600,2.01970361328125,0.3218240737915039,1.8408617973327637,5.735560417175293
1780001778916036400,2.036036376953125,0.9735430479049683,5.390374183654785,-1.819453477859497
1780001778932370700,2.05237060546875,-4.657097816467285,1.1012468338012695,3.6188764572143555
1780001778948693500,2.068693603515625,-7.1780877113342285,0.32074642181396484,0.7551681995391846
1780001778965044000,2.0850439453125,-1.5590990781784058,3.3958072662353516,-3.4691154956817627
1780001778981381600,2.101381591796875,-2.535804510116577,6.361795425415039,-4.714200496673584
1780001778997703000,2.117702880859375,-4.591109752655029,7.904242992401123,-8.230462074279785
1780001779014034000,2.134033935546875,-6.126905918121338,9.078858375549316,-9.792715072631836
1780001779030368000,2.150367919921875,-3.988853931427002,9.552027702331543,-6.920882701873779
1780001779046699500,2.166699462890625,8.198970794677734,5.040843486785889,-4.128100395202637
1780001779063036000,2.183035888671875,8.426352500915527,3.993072986602783,-2.260923385620117
1780001779079363000,2.199363037109375,5.027117729187012,2.914759635925293,-0.6850016713142395
1780001779095703000,2.215703125,0.8835986852645874,3.403799057006836,1.558884620666504
1780001779112024000,2.232024169921875,-5.052396774291992,-2.0607223510742188,5.659237861633301
1780001779128358100,2.248358154296875,-3.3889129161834717,3.1370673179626465,1.5555917024612427
1780001779144706800,2.264706787109375,0.5075344443321228,3.657456874847412,1.329311490058899
1780001779161028000,2.281028076171875,1.0278847217559814,3.890873908996582,1.318637490272522
1780001779177377300,2.297377197265625,1.226335883140564,0.9407978057861328,1.3242285251617432
1780001779193697500,2.313697509765625,-0.25728920102119446,-10.476561546325684,1.8740472793579102
1780001779210041300,2.330041259765625,-1.1566532850265503,-24.37725067138672,2.8632142543792725
1780001779226358500,2.346358642578125,0.38493812084198,-22.012619018554688,-0.2624891698360443
1780001779242694000,2.36269384765625,-1.3900516033172607,-5.728480339050293,-1.193426489830017
1780001779259016400,2.379016357421875,0.213220477104187,2.712347984313965,-0.4805031716823578
1780001779275359500,2.395359375,-0.8141121864318848,5.635200500488281,-0.025258690118789673
1780001779291693800,2.41169384765625,-3.144988536834717,4.12351131439209,0.14337864518165588
1780001779308025300,2.428025390625,-3.0582640171051025,2.8735156059265137,-0.7887921333312988
1780001779324376800,2.444376953125,-1.8037182092666626,0.7123966217041016,-0.640842080116272
1780001779340702700,2.46070263671875,-1.046378493309021,-0.5636711120605469,-0.6208750605583191
1780001779357018400,2.477018310546875,-0.15057188272476196,-0.8281431198120117,-0.5573974251747131
1780001779373353500,2.493353515625,0.5850778818130493,-0.44710350036621094,-0.4324103593826294
1780001779389694200,2.509694091796875,1.1277648210525513,-0.041660308837890625,-0.18781492114067078
1780001779406022100,2.526022216796875,1.0683791637420654,0.5463848114013672,0.18351930379867554
1780001779422356700,2.542356689453125,0.6667180061340332,1.026320457458496,0.5961366891860962
1780001779438675700,2.55867578125,0.7378015518188477,0.9438352584838867,0.8793118000030518
1780001779455033000,2.575033203125,1.3512182235717773,0.34371280670166016,1.0793800354003906
1780001779471343900,2.59134375,2.0606565475463867,-0.4420452117919922,0.9292258620262146
1780001779487688700,2.607688720703125,2.560731887817383,-0.5896396636962891,0.7912637591362
1780001779504020500,2.6240205078125,1.907922387123108,0.09783267974853516,1.0294389724731445
1780001779520353800,2.640353759765625,0.7695556879043579,0.7432832717895508,0.946819543838501
1780001779536690200,2.656690185546875,0.5082250833511353,0.7201290130615234,0.8798744678497314
1780001779553016800,2.673016845703125,0.13904201984405518,0.3434181213378906,0.5779001712799072
1780001779569342000,2.689342041015625,-0.46633028984069824,-0.11343860626220703,0.20626725256443024
1780001779585685500,2.705685546875,-0.998477578163147,-0.7276601791381836,-0.26198145747184753
1780001779602015500,2.722015380859375,-1.6751058101654053,-1.637730598449707,-0.9485450387001038
1780001779618329600,2.73832958984375,-1.7218613624572754,-1.1161909103393555,-1.2507820129394531
1780001779634682600,2.7546826171875,-1.2046446800231934,-0.04736804962158203,-1.3606204986572266
1780001779651016700,2.7710166015625,-0.7352498173713684,0.6625785827636719,-1.26298189163208
1780001779667335200,2.787335205078125,-0.33341461420059204,0.5677633285522461,-0.9710726737976074
1780001779683686100,2.80368603515625,-0.16809093952178955,-0.03782367706298828,-0.4845246374607086
1780001779700028000,2.82002783203125,0.06786012649536133,-0.23682498931884766,-0.023698680102825165
1780001779716345000,2.836344970703125,0.4075239896774292,-0.04639720916748047,0.3089735805988312
1780001779732688000,2.85268798828125,0.6894210577011108,0.062175750732421875,0.5274379253387451
1780001779749002800,2.869002685546875,0.6912487745285034,0.06340599060058594,0.6511009931564331
1780001779765335600,2.88533544921875,0.5082434415817261,0.17119789123535156,0.6828761696815491
1780001779781666600,2.90166650390625,0.2084028720855713,0.20803451538085938,0.6570401191711426
1780001779797998600,2.91799853515625,-0.1653958559036255,0.015183448791503906,0.48048120737075806
1780001779814335000,2.9343349609375,-0.39832037687301636,-0.08774471282958984,0.23894265294075012
1780001779830664400,2.95066455078125,-0.4390554428100586,-0.1098165512084961,-0.028649456799030304
1780001779846997800,2.966997802734375,-0.418241024017334,-0.03259468078613281,-0.23293036222457886
1780001779863329800,2.983329833984375,-0.32865965366363525,0.029334068298339844,-0.3318007290363312
1780001779879672000,2.999672119140625,-0.1695082187652588,-0.03859710693359375,-0.25420498847961426
1780001779896008400,3.016008544921875,-0.016683340072631836,-0.0833272933959961,-0.09081850200891495
1780001779912342300,3.03234228515625,0.07447600364685059,-0.017404556274414062,0.0393584743142128
1780001779928674600,3.048674560546875,0.13058209419250488,-0.05578804016113281,0.10595405101776123
1780001779945008400,3.06500830078125,0.1473902463912964,-0.07458877563476562,0.07804505527019501
1780001779961340200,3.081340087890625,0.0614088773727417,0.03606986999511719,-0.019378744065761566
1780001779977670400,3.09767041015625,-0.056235313415527344,0.12365245819091797,-0.060415953397750854
1780001779994009000,3.114009033203125,-0.09796977043151855,0.10056114196777344,-0.029082544147968292
1780001780010339600,3.130339599609375,-0.09652292728424072,0.014672279357910156,0.06942471861839294
1780001780026671400,3.14667138671875,-0.08938181400299072,-0.04792976379394531,0.14548927545547485
1780001780043005200,3.163005126953125,-0.056182026863098145,-0.030073165893554688,0.20853006839752197
1780001780059337200,3.179337158203125,-0.013053655624389648,-0.006786346435546875,0.23785707354545593
1780001780075681300,3.195681396484375,0.003458380699157715,-0.031744956970214844,0.2570280134677887
1780001780092023600,3.2120234375,-0.03976118564605713,-0.08388137817382812,0.27147525548934937
1780001780108341800,3.228341796875,-0.1174546480178833,-0.0642862319946289,0.2855024039745331
1780001780124692200,3.244692138671875,-0.17224454879760742,-0.06815147399902344,0.3173603117465973
1780001780141015600,3.261015625,-0.22625195980072021,-0.09574222564697266,0.3332030177116394
1780001780157326300,3.277326416015625,-0.2800816297531128,-0.10417366027832031,0.3680005371570587
1780001780173681400,3.293681396484375,-0.3117246627807617,-0.060126304626464844,0.3939577341079712
1780001780190015200,3.31001513671875,-0.2453138828277588,-0.026045799255371094,0.41350996494293213
1780001780206348000,3.32634814453125,-0.13640034198760986,-0.03086376190185547,0.4204953908920288
1780001780222659600,3.34265966796875,-0.028203725814819336,-0.01785564422607422,0.4005400538444519
1780001780239010800,3.3590107421875,0.06324923038482666,0.0049228668212890625,0.34568774700164795
1780001780255328500,3.37532861328125,0.0992588996887207,0.013535499572753906,0.27425891160964966
1780001780271649800,3.39164990234375,0.12959718704223633,0.022684097290039062,0.18374823033809662
1780001780287988000,3.407988037109375,0.12131178379058838,0.04747772216796875,0.10360056161880493
1780001780304331300,3.424331298828125,0.06999289989471436,0.03875923156738281,0.06173250824213028
1780001780320663000,3.4406630859375,0.0065718889236450195,-0.11271286010742188,0.04293658211827278
1780001780336996900,3.456996826171875,-0.059438109397888184,-0.19270992279052734,-0.0394883006811142
1780001780353328600,3.47332861328125,-0.09393656253814697,-0.0966196060180664,-0.16156423091888428
1780001780369661200,3.4896611328125,-0.09199082851409912,-0.02404308319091797,-0.2728637456893921
1780001780385994800,3.505994873046875,-0.09810733795166016,0.023624420166015625,-0.3198413550853729
1780001780402328300,3.522328369140625,-0.09655547142028809,0.04709434509277344,-0.2896867096424103
1780001780418656800,3.53865673828125,0.055487871170043945,0.036434173583984375,-0.13208195567131042
1780001780434994000,3.554993896484375,0.22451412677764893,0.10330009460449219,0.01210378110408783
1780001780451335700,3.571335693359375,0.25072646141052246,0.12710094451904297,0.1191924586892128
1780001780467660800,3.587660888671875,0.22599804401397705,0.16122817993164062,0.1676614135503769
1780001780483991300,3.6039912109375,0.18987786769866943,0.21483898162841797,0.21786201000213623
1780001780500304000,3.620303955078125,0.16446316242218018,0.2441692352294922,0.2709622085094452
1780001780516642000,3.63664208984375,0.057707905769348145,0.12085437774658203,0.4014284908771515
1780001780532977400,3.652977294921875,-0.045407891273498535,0.017017364501953125,0.3915361166000366
1780001780549312000,3.66931201171875,-0.09768891334533691,0.09906673431396484,0.3766239881515503
1780001780565654300,3.685654296875,-0.10024511814117432,0.07589054107666016,0.2539083659648895
1780001780581977900,3.701977783203125,-0.10187709331512451,-0.2117166519165039,0.10416080057621002
1780001780598310400,3.718310302734375,-0.15215742588043213,-0.4050254821777344,-0.0801209807395935
1780001780614643500,3.7346435546875,-0.26062333583831787,-0.31670475006103516,-0.2023972123861313
1780001780630976300,3.750976318359375,-0.3576686382293701,-0.18553543090820312,-0.23039977252483368
1780001780647310300,3.767310302734375,-0.3078653812408447,-0.16316509246826172,-0.14860787987709045
1780001780663642000,3.78364208984375,-0.16607213020324707,-0.19322681427001953,-0.06747432798147202
1780001780679973400,3.799973388671875,-0.053374409675598145,0.18368053436279297,0.04292071983218193
1780001780696306700,3.816306640625,0.1412827968597412,0.42366981506347656,0.08532831072807312
1780001780712640000,3.832639892578125,0.365764856338501,0.25760841369628906,0.12971068918704987
1780001780728973600,3.8489736328125,0.4500391483306885,0.2301931381225586,0.2591198980808258
1780001780745304600,3.8653046875,0.49675917625427246,0.2980194091796875,0.4619626998901367
1780001780761640000,3.881639892578125,0.5675750970840454,0.14020538330078125,0.6149367690086365
1780001780777970400,3.897970458984375,0.6404334306716919,-0.11393547058105469,0.6404311060905457
1780001780794304300,3.91430419921875,0.5347343683242798,0.014249801635742188,0.39112523198127747
1780001780810636800,3.93063671875,0.2941857576370239,0.21032047271728516,0.038003936409950256
1780001780826969600,3.946969482421875,0.04346907138824463,0.14794635772705078,-0.20204880833625793
1780001780843292000,3.9632919921875,-0.14193105697631836,0.024118423461914062,-0.22004924714565277
1780001780859635500,3.979635498046875,-0.39876753091812134,-0.007309913635253906,-0.1274205446243286
1780001780875964000,3.9959638671875,-0.5361891388893127,0.11399269104003906,0.036108825355768204
1780001780892317000,4.01231689453125,-0.5875852704048157,0.23804473876953125,0.12045653164386749
1780001780908646000,4.02864599609375,-0.4199385643005371,-0.12303447723388672,0.021829674020409584
1780001780924979700,4.044979736328125,-0.14098191261291504,-0.720062255859375,-0.23393788933753967
1780001780941310000,4.06131005859375,0.16592085361480713,-0.6098699569702148,-0.38071662187576294
1780001780957644300,4.077644287109375,0.6791696548461914,-0.11266517639160156,-0.3689503073692322
1780001780973977300,4.093977294921875,0.7655640840530396,0.18385028839111328,-0.252860963344574
1780001780990310700,4.110310546875,0.1382617950439453,0.3513202667236328,0.0012510642409324646
1780001781006643000,4.126642822265625,-0.39079922437667847,0.3446159362792969,0.23430989682674408
1780001781022977000,4.14297705078125,-0.5885384678840637,0.1595926284790039,0.43175116181373596
1780001781039307800,4.159307861328125,-0.5406337976455688,-0.0709085464477539,0.6063475608825684
1780001781055672600,4.175672607421875,-0.43593692779541016,-0.2699918746948242,0.7246057987213135
1780001781071986000,4.19198583984375,-0.3899717330932617,-0.25701236724853516,0.7611715793609619
1780001781088322300,4.208322265625,-0.41057127714157104,0.0993509292602539,0.7301043272018433
1780001781104654000,4.224654052734375,-0.22613704204559326,0.2826051712036133,0.6651247143745422
1780001781120971000,4.240970947265625,0.1135181188583374,0.13637924194335938,0.4713244140148163
1780001781137319000,4.25731884765625,0.23058652877807617,0.05922889709472656,0.30605295300483704
1780001781153653200,4.2736533203125,0.08459126949310303,0.05932426452636719,0.22225423157215118
1780001781169985500,4.289985595703125,-0.21186137199401855,0.011847496032714844,0.18023842573165894
1780001781186309600,4.3063095703125,-0.5183306932449341,-0.025435447692871094,0.13334748148918152
1780001781202649000,4.322649169921875,-0.607582688331604,-0.11628532409667969,0.14055266976356506
1780001781218985500,4.3389853515625,-0.3755776286125183,-0.15729045867919922,0.20665016770362854
1780001781235309800,4.355309814453125,-0.19725918769836426,-0.07846736907958984,0.10418733954429626
1780001781251650800,4.37165087890625,0.009514808654785156,0.004558563232421875,0.0011468250304460526
1780001781267982300,4.387982421875,0.17393159866333008,-0.011632919311523438,-0.04956679046154022
1780001781284316400,4.40431640625,0.27534055709838867,0.0678558349609375,-0.08855938166379929
1780001781300647700,4.420647705078125,0.28609371185302734,0.1480569839477539,-0.07069996744394302
1780001781316982300,4.436982177734375,0.24962735176086426,0.04640007019042969,-0.052390314638614655
1780001781333296600,4.453296630859375,0.20879387855529785,0.07879352569580078,-0.0331273078918457
1780001781349623300,4.469623291015625,0.23891222476959229,0.13507747650146484,0.05201886221766472
1780001781365965600,4.485965576171875,0.17706477642059326,0.16249752044677734,0.124393530189991
1780001781382297600,4.502297607421875,0.09927713871002197,0.10822010040283203,0.13924363255500793
1780001781398633200,4.51863330078125,0.05334126949310303,0.0009412765502929688,0.14509958028793335
1780001781414953200,4.534953125,-0.01240551471710205,-0.1442422866821289,0.07047955691814423
1780001781431291600,4.551291748046875,-0.0983964204788208,-0.1077880859375,-0.07113012671470642
1780001781447634000,4.567634033203125,-0.11747598648071289,-0.009692192077636719,-0.16572561860084534
1780001781463974700,4.583974609375,-0.045046448707580566,-0.05021858215332031,-0.18861737847328186
1780001781480296700,4.600296630859375,-0.02288675308227539,-0.09038925170898438,-0.15587417781352997
1780001781496628200,4.616628173828125,0.015273213386535645,-0.0061779022216796875,-0.004587620496749878
1780001781512962600,4.632962646484375,-0.07955563068389893,-0.030687332153320312,0.14800073206424713
1780001781529294000,4.649294189453125,-0.23865723609924316,-0.1355428695678711,0.2150985151529312
1780001781545645000,4.66564501953125,-0.32346975803375244,-0.12924480438232422,0.21615830063819885
1780001781561973800,4.681973876953125,-0.2947070598602295,-0.06629085540771484,0.195456862449646
1780001781578289200,4.6982890625,-0.17469346523284912,-0.009293556213378906,0.1714819371700287
1780001781594639600,4.7146396484375,-0.08096766471862793,0,0.16853904724121094
1780001781610968800,4.73096875,-0.034340620040893555,0.033339500427246094,0.11292368173599243
1780001781627309000,4.74730908203125,-0.0031114816665649414,0.02411365509033203,0.046895869076251984
1780001781643635200,4.76363525390625,0.010257720947265625,-0.018310546875,0.038280874490737915
1780001781659967000,4.779967041015625,0.0015206336975097656,-0.012602806091308594,0.06910207867622375
1780001781676295000,4.796294921875,0.024834513664245605,-0.040375709533691406,0.13376660645008087
1780001781692635100,4.81263525390625,0.04594707489013672,-0.028873443603515625,0.1508205682039261
1780001781708949200,4.82894921875,0.05828094482421875,0.016054153442382812,0.10526615381240845
1780001781725302500,4.845302490234375,0.06181061267852783,0.061041831970214844,0.03473013639450073
1780001781741618700,4.86161865234375,0.07871603965759277,0.0997610092163086,0.011153943836688995
1780001781757970000,4.877969970703125,0.041350722312927246,0.07997608184814453,-0.048628807067871094
1780001781774292000,4.8942919921875,0.02385878562927246,-0.011725425720214844,-0.12271616607904434
1780001781790634200,4.91063427734375,0.03567957878112793,-0.0464324951171875,-0.18070846796035767
1780001781806947600,4.926947509765625,0.08520448207855225,-0.032444000244140625,-0.17996527254581451
1780001781823282000,4.943281982421875,0.08544445037841797,-0.05202674865722656,-0.09850113093852997
1780001781839617800,4.95961767578125,-0.018341064453125,-0.013484954833984375,-0.027585387229919434
1780001781855951000,4.975951171875,-0.10210096836090088,0.020505905151367188,0.018122168257832527
1780001781872285000,4.992284912109375,-0.13555073738098145,0.006927490234375,0.030581967905163765
1780001781888616700,5.00861669921875,-0.1476268768310547,-0.015977859497070312,0.015755491331219673
1780001781904950800,5.02495068359375,-0.09367156028747559,-0.01971721649169922,0.001956956461071968
1780001781921285600,5.04128564453125,0.06599307060241699,-0.009777069091796875,0.01777663454413414
1780001781937612300,5.0576123046875,0.21821045875549316,-0.025608062744140625,-0.0240933857858181
1780001781953948200,5.0739482421875,0.27881932258605957,-0.022558212280273438,-0.08031744509935379
1780001781970280400,5.090280517578125,0.30765581130981445,0.038177490234375,-0.1405802220106125
1780001781986613800,5.10661376953125,0.30127620697021484,0.04271411895751953,-0.15199397504329681
1780001782002944800,5.12294482421875,0.27790629863739014,0.009958267211914062,-0.16986243426799774
1780001782019282700,5.13928271484375,0.1339702606201172,0.02122783660888672,-0.2471093386411667
1780001782035625000,5.155625,0.013232946395874023,-0.035968780517578125,-0.30404072999954224
1780001782051963400,5.17196337890625,-0.08204042911529541,-0.051117897033691406,-0.3349490761756897
1780001782068288500,5.18828857421875,-0.12183833122253418,0.02049541473388672,-0.30090752243995667
1780001782084612900,5.20461279296875,-0.0072373151779174805,0.09741783142089844,-0.12615901231765747
1780001782100957000,5.22095703125,0.1379530429840088,0.054474830627441406,0.12899383902549744
1780001782117308200,5.23730810546875,0.1994619369506836,-0.012362480163574219,0.301739901304245
1780001782133623800,5.253623779296875,0.19501888751983643,0.0019788742065429688,0.35441532731056213
1780001782149943600,5.269943603515625,0.16884291172027588,0.10207366943359375,0.3039606809616089
1780001782166288400,5.286288330078125,0.13931691646575928,0.11139869689941406,0.25443223118782043
1780001782182621400,5.302621337890625,0.08336734771728516,0.006832122802734375,0.22738245129585266
1780001782198955000,5.318955078125,-0.01229095458984375,-0.05904388427734375,0.17783725261688232
1780001782215267300,5.335267333984375,-0.11063337326049805,-0.04855060577392578,0.12144064158201218
1780001782231622000,5.351621826171875,-0.1362285614013672,-0.03733634948730469,0.07109209150075912
1780001782247953000,5.367952880859375,-0.1444234848022461,-0.03647422790527344,0.06888419389724731
1780001782264311600,5.3843115234375,-0.11966276168823242,-0.0075836181640625,0.09553668648004532
1780001782280618800,5.40061865234375,-0.09397995471954346,0.017335891723632812,0.15578630566596985
1780001782296937700,5.416937744140625,-0.06110846996307373,0.037787437438964844,0.22841331362724304
1780001782313281300,5.43328125,-0.09394395351409912,0.06316947937011719,0.26346555352211
1780001782329602000,5.44960205078125,-0.11250877380371094,0.07875347137451172,0.2711338996887207
1780001782345938400,5.4659384765625,-0.13910531997680664,0.06999683380126953,0.2682190537452698
1780001782362270200,5.482270263671875,-0.14129304885864258,0.041477203369140625,0.2881679832935333
1780001782378601700,5.498601806640625,-0.13336002826690674,0.0027971267700195312,0.31056222319602966
1780001782394922500,5.514922607421875,-0.1331465244293213,-0.045856475830078125,0.33093738555908203
1780001782411264300,5.53126416015625,-0.1535027027130127,-0.08991050720214844,0.3258640766143799
1780001782427603500,5.547603515625,-0.1920551061630249,-0.10458087921142578,0.28555193543434143
1780001782443933000,5.563932861328125,-0.23467683792114258,-0.04794502258300781,0.21633711457252502
1780001782460267000,5.58026708984375,-0.2672363519668579,-0.02411937713623047,0.12223365902900696
1780001782476604700,5.596604736328125,-0.2850877046585083,-0.05773735046386719,0.02162805199623108
1780001782492933400,5.612933349609375,-0.2623344659805298,-0.0826578140258789,-0.035936206579208374
1780001782509264600,5.6292646484375,-0.19469749927520752,-0.1031484603881836,-0.09786072373390198
1780001782525629700,5.645629638671875,-0.11795353889465332,-0.057323455810546875,-0.13581079244613647
1780001782541940000,5.66193994140625,-0.016127586364746094,-0.020206451416015625,-0.14939114451408386
1780001782558263300,5.67826318359375,0.07407522201538086,-0.04069042205810547,-0.09210139513015747
1780001782574626800,5.694626708984375,0.07024872303009033,0.030605316162109375,-0.02564641833305359
1780001782590943500,5.710943603515625,0.014570832252502441,0.06374835968017578,0.03564631938934326
1780001782607275300,5.727275146484375,-0.026801705360412598,0.02980518341064453,0.08584192395210266
1780001782623608800,5.74360888671875,-0.045506954193115234,0.00046825408935546875,0.09760678559541702
1780001782639936000,5.75993603515625,-0.0705113410949707,-0.00039196014404296875,0.08525484800338745
1780001782656274400,5.7762744140625,-0.07323050498962402,0.003265380859375,0.05870179831981659
1780001782672601300,5.792601318359375,-0.08138859272003174,0.016289710998535156,0.027538225054740906
1780001782688951000,5.808950927734375,-0.05297958850860596,0.03869056701660156,0.00618395209312439
1780001782705267700,5.825267822265625,-0.02595686912536621,-0.0061359405517578125,-0.014822974801063538
1780001782721605400,5.84160546875,-0.018819689750671387,-0.022391319274902344,-0.02639634907245636
1780001782737935600,5.857935546875,-0.0066596269607543945,-0.014699935913085938,-0.047340184450149536
1780001782754255600,5.874255615234375,0.011571407318115234,-0.016391754150390625,-0.03921636939048767
1780001782770603800,5.890603759765625,0.016736984252929688,-0.00891876220703125,-0.03453533351421356
1780001782786936000,5.90693603515625,0.004172801971435547,-0.01977825164794922,-0.025618985295295715
1780001782803269400,5.923269287109375,-0.007314562797546387,-0.01611328125,-0.03976923227310181
1780001782819586800,5.9395869140625,-0.02784907817840576,0.01695537567138672,-0.035250499844551086
1780001782835921400,5.95592138671875,-0.010518312454223633,-0.046242713928222656,-0.012515097856521606
1780001782852252000,5.972251953125,0.030857324600219727,-0.08140945434570312,0.006004199385643005
1780001782868590300,5.98859033203125,0.02990865707397461,-0.029715538024902344,0.01443527638912201
1780001782884914000,6.004913818359375,0.04047834873199463,-0.020765304565429688,0.013235434889793396
1780001782901252600,6.021252685546875,0.042844414710998535,-0.059340476989746094,0.03603367507457733
1780001782917587200,6.037587158203125,0.032781362533569336,-0.0211181640625,0.04447998106479645
1780001782933918200,6.053918212890625,0.023569107055664062,0.02203845977783203,0.04789268970489502
1780001782950251800,6.070251708984375,0.03860020637512207,0.036540985107421875,0.061162084341049194
1780001782966584800,6.086584716796875,0.057906150817871094,0.05095672607421875,0.040332287549972534
1780001782982917600,6.102917724609375,0.0757983922958374,0.04598045349121094,0.029416143894195557
1780001782999250000,6.11925,0.06845223903656006,0.02641773223876953,0.009458452463150024
1780001783015601000,6.135600830078125,0.07953798770904541,0.059363365173339844,0.014002025127410889
1780001783031929000,6.15192919921875,0.08605325222015381,0.04448223114013672,0.014008760452270508
1780001783048257300,6.16825732421875,0.09248006343841553,0.02897930145263672,0.03909681737422943
1780001783064598800,6.184598876953125,0.07417511940002441,0.028392791748046875,0.04882418364286423
1780001783080929000,6.200928955078125,0.060971856117248535,0.0038290023803710938,0.07801051437854767
1780001783097263900,6.217263916015625,0.04300510883331299,0.012773513793945312,0.08309289813041687
1780001783113613600,6.233613525390625,0.01584172248840332,0.02716350555419922,0.07393939048051834
1780001783129909500,6.249909423828125,-0.00985419750213623,-0.04982471466064453,0.0833524763584137
1780001783146243300,6.266243408203125,-0.035223960876464844,-0.09794807434082031,0.07953396439552307
1780001783162591500,6.282591552734375,-0.07374930381774902,-0.031012535095214844,0.06642131507396698
1780001783178923800,6.298923828125,-0.08795821666717529,0.021637916564941406,0.038695335388183594
1780001783195223300,6.315223388671875,-0.07282614707946777,-0.011842727661132812,0.029752925038337708
1780001783211591000,6.3315908203125,-0.03610873222351074,0.011904716491699219,0.044895708560943604
1780001783227923000,6.3479228515625,0.004266500473022461,0.03545856475830078,0.06510193645954132
1780001783244256800,6.3642568359375,0.05381345748901367,0.024748802185058594,0.0844447910785675
1780001783260589600,6.380589599609375,0.08367180824279785,0.014532089233398438,0.1000729352235794
1780001783276922000,6.396922119140625,0.074898362159729,-0.029256820678710938,0.09588748216629028
1780001783293254100,6.413254150390625,0.037953972816467285,0.0035953521728515625,0.07421597838401794
1780001783309569300,6.4295693359375,-0.010486602783203125,0.02785968780517578,0.03894418478012085
1780001783325882400,6.44588232421875,-0.07270228862762451,0.03258323669433594,0.060648977756500244
1780001783342227500,6.4622275390625,-0.10213303565979004,0.013257026672363281,0.10189896821975708
1780001783358559200,6.478559326171875,-0.10529136657714844,-0.025527000427246094,0.14272300899028778
1780001783374892800,6.494892822265625,-0.04745304584503174,-0.016770362854003906,0.16406852006912231
1780001783391237400,6.5112373046875,0.003742218017578125,0.010327339172363281,0.17069227993488312
1780001783407562200,6.527562255859375,0.04075968265533447,0.009251594543457031,0.17151764035224915
1780001783423888000,6.543887939453125,0.05449569225311279,-0.034778594970703125,0.15715602040290833
1780001783440226600,6.5602265625,0.008461236953735352,-0.03062725067138672,0.12304485589265823
1780001783456569000,6.576569091796875,-0.0444638729095459,-0.025404930114746094,0.08973917365074158
1780001783472902400,6.59290234375,-0.1006540060043335,-0.05880165100097656,0.04658149182796478
1780001783489235000,6.60923486328125,-0.13415443897247314,-0.010354042053222656,0.02241760492324829
1780001783505580500,6.62558056640625,-0.10700356960296631,0.027663230895996094,0.003323301672935486
1780001783521906700,6.64190673828125,-0.029197096824645996,-0.00705718994140625,0.00810927152633667
1780001783538254800,6.6582548828125,0.03736221790313721,-0.0078887939453125,-0.015088900923728943
1780001783554579700,6.674579833984375,0.10481822490692139,0.020038604736328125,-0.018776699900627136
1780001783570929200,6.69092919921875,0.1117095947265625,0.024326324462890625,0.001070752739906311
1780001783587252500,6.70725244140625,0.12046444416046143,-0.00037670135498046875,0.012051835656166077
1780001783603576600,6.72357666015625,0.0578690767288208,0.00022029876708984375,0.042170450091362
1780001783619913700,6.739913818359375,-0.017920851707458496,0.0050048828125,0.0671306699514389
1780001783636239400,6.7562392578125,-0.056839823722839355,0.01454925537109375,0.09198684990406036
1780001783652563700,6.772563720703125,-0.05239999294281006,0.0049037933349609375,0.09731745719909668
1780001783668884000,6.788884033203125,-0.01479959487915039,-0.028827667236328125,0.07347226142883301
1780001783685225200,6.80522509765625,0.012302994728088379,-0.005184173583984375,0.04447099566459656
1780001783701574700,6.82157470703125,0.03492999076843262,0.0041637420654296875,0.011035531759262085
1780001783717908000,6.837907958984375,0.05797231197357178,-0.005553245544433594,-0.013532385230064392
1780001783734242000,6.854241943359375,0.04839801788330078,-0.02958393096923828,-0.023478463292121887
1780001783750573600,6.870573486328125,0.03402554988861084,-0.02001476287841797,-0.04741722345352173
1780001783766902500,6.886902587890625,0.021392226219177246,-0.024496078491210938,-0.047634467482566833
1780001783783239000,6.903239013671875,0.005781769752502441,-0.009522438049316406,-0.022800222039222717
1780001783799556600,6.919556640625,-0.03786110877990723,0.024720191955566406,0.006642788648605347
1780001783815894300,6.935894287109375,-0.044898033142089844,0.0013551712036132812,0.04492765665054321
1780001783832225300,6.952225341796875,-0.029468178749084473,0.011130332946777344,0.04917830228805542
1780001783848556800,6.968556884765625,0.060959815979003906,0.006270408630371094,0.010811880230903625
1780001783864888000,6.98488818359375,0.09891164302825928,-0.008245468139648438,-0.047023698687553406
1780001783881225200,7.00122509765625,0.1279231309890747,-0.0034112930297851562,-0.08925335109233856
1780001783897557200,7.01755712890625,0.10112392902374268,0.020844459533691406,-0.09386010468006134
1780001783913887700,7.0338876953125,0.04176604747772217,0.04048347473144531,-0.07402344048023224
1780001783930221800,7.050221923828125,-0.008250713348388672,-0.0063190460205078125,-0.030897706747055054
1780001783946553600,7.0665537109375,-0.025800347328186035,-0.01143646240234375,0.0034090131521224976
1780001783962887700,7.0828876953125,-0.03473091125488281,-0.006552696228027344,0.013725519180297852
1780001783979216000,7.0992158203125,-0.019387125968933105,-0.006390571594238281,0.009597375988960266
1780001783995557000,7.11555712890625,-0.0028008222579956055,0.01791095733642578,-0.003638029098510742
1780001784011879000,7.13187890625,0.00895702838897705,0.02794647216796875,-0.006975919008255005
1780001784028216000,7.148216064453125,0.010584115982055664,0.01863861083984375,0.008595496416091919
1780001784044547800,7.1645478515625,0.024709224700927734,0.01858234405517578,0.03797592222690582
1780001784060869000,7.180869140625,0.03277420997619629,0.008733749389648438,0.058085083961486816
1780001784077204000,7.197203857421875,0.03592491149902344,-0.010700225830078125,0.06292541325092316
1780001784093537500,7.21353759765625,0.006894469261169434,-0.020336151123046875,0.057922810316085815
1780001784109869300,7.229869384765625,-0.015500426292419434,-0.024868011474609375,0.04927246272563934
1780001784126203100,7.246203125,-0.05003392696380615,-0.02434539794921875,0.03599749505519867
1780001784142535700,7.26253564453125,-0.08905839920043945,-0.01351165771484375,0.033648982644081116
1780001784158867700,7.27886767578125,-0.10923385620117188,-0.022482872009277344,0.030968010425567627
1780001784175192800,7.29519287109375,-0.10650551319122314,-0.007694244384765625,0.03858169913291931
1780001784191534300,7.311534423828125,-0.09520208835601807,-0.008024215698242188,0.04495777189731598
1780001784207868700,7.32786865234375,-0.06577599048614502,-0.03664684295654297,0.05598883330821991
1780001784224200200,7.3442001953125,-0.02209186553955078,-0.03178119659423828,0.05726148188114166
1780001784240536600,7.36053662109375,-0.012062668800354004,-0.007702827453613281,0.059291958808898926
1780001784256881200,7.376881103515625,0.0043228864669799805,0.011759757995605469,0.056123048067092896
1780001784273210400,7.39321044921875,-0.007262110710144043,-0.0021524429321289062,0.05785323679447174
1780001784289544200,7.409544189453125,-0.022595882415771484,0.0031528472900390625,0.049531489610672
1780001784305875200,7.425875244140625,-0.03454172611236572,0.017892837524414062,0.04627896845340729
1780001784322209300,7.442209228515625,-0.06205952167510986,0.037339210510253906,0.06112034618854523
1780001784338544600,7.458544677734375,-0.05080568790435791,-0.019888877868652344,0.0749855488538742
1780001784354875000,7.474875,-0.03670001029968262,-0.015031814575195312,0.08896242082118988
1780001784371203300,7.491203369140625,-0.046097755432128906,0.004137992858886719,0.08432146906852722
1780001784387543800,7.507543701171875,-0.04065990447998047,0.013811111450195312,0.07523111999034882
1780001784403864800,7.52386474609375,-0.05352783203125,0.0379638671875,0.06704270839691162
1780001784420206000,7.5402060546875,-0.046196579933166504,-0.014275550842285156,0.10221803188323975
1780001784436538000,7.5565380859375,-0.04349958896636963,-0.04735851287841797,0.17129018902778625
1780001784452872400,7.57287255859375,-0.042347073554992676,0.03377723693847656,0.2347119152545929
1780001784469203500,7.589203369140625,-0.017728447914123535,0.048377037048339844,0.3158585727214813
1780001784485554400,7.605554443359375,0.014983773231506348,0.009999275207519531,0.3523746728897095
1780001784501866200,7.6218662109375,0.013190031051635742,-0.014196395874023438,0.3457828164100647
1780001784518217500,7.638217529296875,-0.007111907005310059,-0.01435089111328125,0.28650325536727905
1780001784534553900,7.654553955078125,-0.011408448219299316,-0.02388286590576172,0.24102047085762024
1780001784550875600,7.670875732421875,-0.024943828582763672,-0.00882720947265625,0.1852223128080368
1780001784567214600,7.687214599609375,-0.0622100830078125,-0.037405967712402344,0.14432139694690704
1780001784583517200,7.70351708984375,-0.08102667331695557,-0.031907081604003906,0.08915388584136963
1780001784599879000,7.71987890625,-0.0746992826461792,-0.012548446655273438,0.04384240508079529
1780001784616210200,7.736210205078125,-0.045166850090026855,0.0067691802978515625,0.013638690114021301
1780001784632552000,7.752552001953125,-0.0024271011352539062,0.0019521713256835938,-0.03047966957092285
1780001784648879900,7.7688798828125,0.05298721790313721,0.006407737731933594,-0.054718032479286194
1780001784665207000,7.78520703125,0.11282491683959961,0.014977455139160156,-0.07843983173370361
1780001784681545000,7.801544921875,0.1409975290298462,0.029230117797851562,-0.07327121496200562
1780001784697877200,7.817877197265625,0.14767193794250488,0.05346107482910156,-0.048123523592948914
1780001784714210600,7.83421044921875,0.08333766460418701,0.025162696838378906,-0.0077953338623046875
1780001784730544400,7.85054443359375,0.023396849632263184,-0.0032110214233398438,0.013025075197219849
1780001784746875400,7.86687548828125,-0.03712749481201172,-0.002353668212890625,0.04259727895259857
1780001784763208400,7.88320849609375,-0.05406343936920166,0.002803802490234375,0.0526261031627655
1780001784779536000,7.899535888671875,-0.04616963863372803,-0.015813827514648438,0.0578228235244751
1780001784795861800,7.91586181640625,-0.05225372314453125,-0.005657196044921875,0.05376484990119934
1780001784812194000,7.932194091796875,-0.040068745613098145,0.023487091064453125,0.025882437825202942
1780001784828525800,7.94852587890625,-0.03393054008483887,0.02850341796875,0.016302093863487244
1780001784844859400,7.964859375,-0.014665722846984863,0.004609107971191406,-0.0033360272645950317
1780001784861191700,7.981191650390625,0.004144906997680664,-0.02414703369140625,-0.003982722759246826
1780001784877525200,7.997525146484375,0.01875746250152588,-0.000759124755859375,0.00013777613639831543
1780001784893855700,8.013855712890624,0.029729485511779785,0.013848304748535156,0.024342045187950134
1780001784910190600,8.030190673828125,0.01784384250640869,0.0046939849853515625,0.03358118236064911
1780001784926522600,8.046522705078125,0.015066862106323242,0.009922981262207031,0.06245787441730499
1780001784942856700,8.062856689453126,0.003275156021118164,-0.03280067443847656,0.061944201588630676
1780001784959188000,8.07918798828125,0.004398703575134277,-0.022417068481445312,0.04181842505931854
1780001784975522000,8.09552197265625,0.014764666557312012,-0.017465591430664062,-0.0073124319314956665
1780001784991868200,8.1118681640625,0.011623382568359375,-0.017251968383789062,-0.04712839424610138
1780001785008197400,8.128197265625,-0.0002994537353515625,-0.03595256805419922,-0.06740008294582367
1780001785024537600,8.14453759765625,-0.03932750225067139,-0.011322021484375,-0.06867510080337524
1780001785040864800,8.16086474609375,-0.0632399320602417,-0.0009212493896484375,-0.04543158411979675
1780001785057198800,8.17719873046875,-0.05422377586364746,0.023736953735351562,-0.012570589780807495
1780001785073517600,8.193517578125,-0.014026403427124023,0.019395828247070312,0.006198108196258545
1780001785089864700,8.20986474609375,0.03943753242492676,0.02434825897216797,0.010350525379180908
1780001785106195200,8.2261953125,0.08662891387939453,0.047690391540527344,-0.00029343366622924805
1780001785122530000,8.242530029296875,0.12934887409210205,0.03808403015136719,-0.010321065783500671
1780001785138863600,8.258863525390625,0.11071157455444336,0.018945693969726562,-0.02617315948009491
1780001785155187500,8.2751875,0.05266070365905762,0.0385894775390625,-0.04570953547954559
1780001785171517200,8.29151708984375,-0.014650821685791016,0.019289016723632812,-0.07477401196956635
1780001785187852300,8.307852294921876,-0.048241257667541504,-0.01851940155029297,-0.09915366768836975
1780001785204199000,8.324198974609375,-0.05318593978881836,-0.03769207000732422,-0.1085185706615448
1780001785220526600,8.340526611328125,-0.06177163124084473,-0.018400192260742188,-0.08383752405643463
1780001785236859400,8.356859375,-0.06019735336303711,-0.03311920166015625,-0.06333193182945251
1780001785253192700,8.373192626953125,-0.0732734203338623,-0.03762340545654297,-0.02827911078929901
1780001785269525800,8.38952587890625,-0.0579373836517334,-0.037489891052246094,-0.03646840155124664
1780001785285855500,8.40585546875,-0.03803849220275879,-0.01824188232421875,-0.04033806920051575
1780001785302177000,8.422177001953125,-0.012361645698547363,-0.013180732727050781,-0.05329224467277527
1780001785318509800,8.438509765625,-0.009039521217346191,-0.01742839813232422,-0.04286551475524902
1780001785334843600,8.45484375,-0.03413510322570801,0.007184028625488281,0.0053300559520721436
1780001785351169300,8.471169189453125,-0.07845985889434814,-0.0018167495727539062,0.025239229202270508
1780001785367511300,8.48751123046875,-0.09038412570953369,0.008157730102539062,0.04459463059902191
1780001785383841000,8.503841064453125,-0.05568814277648926,-0.0108795166015625,0.025150641798973083
1780001785400174800,8.5201748046875,-0.008422613143920898,-0.0013780593872070312,0.005348533391952515
1780001785416506000,8.536506103515626,0.04326677322387695,0.012851715087890625,-0.039003416895866394
1780001785432840400,8.55284033203125,0.03418076038360596,-0.0014047622680664062,-0.03511793911457062
1780001785449172000,8.569171875,-0.0068759918212890625,-0.015418052673339844,-0.036108508706092834
1780001785465545000,8.585544921875,-0.07068920135498047,-0.004719734191894531,-0.01216156780719757
1780001785481849600,8.601849609375,-0.10627233982086182,0.00051116943359375,0.011315807700157166
1780001785498188000,8.61818798828125,-0.10940289497375488,0.009759902954101562,0.02085113525390625
1780001785514500600,8.63450048828125,-0.061697959899902344,0.024207115173339844,0.030288860201835632
1780001785530851300,8.650851318359376,0.01882326602935791,-0.0046215057373046875,0.05380867421627045
1780001785547177200,8.66717724609375,0.06023573875427246,-0.005379676818847656,0.05779939889907837
1780001785563522800,8.683522705078126,0.05949294567108154,0.00887298583984375,0.061765849590301514
1780001785579848200,8.69984814453125,0.016797780990600586,-0.009592056274414062,0.07057847082614899
1780001785596181800,8.716181640625,-0.034615516662597656,-0.004693031311035156,0.07433058321475983
1780001785612497200,8.7324970703125,-0.08660101890563965,0.00021457672119140625,0.07375170290470123
1780001785628848600,8.7488486328125,-0.07614433765411377,-0.01875782012939453,0.09186927229166031
1780001785645176600,8.765176513671875,-0.0662921667098999,-0.042517662048339844,0.11949877440929413
1780001785661516800,8.781516845703125,-0.08001470565795898,-0.009486198425292969,0.1327330470085144
1780001785677831000,8.797830810546875,-0.06504380702972412,0.0050067901611328125,0.11201933026313782
1780001785694179800,8.814179931640625,-0.03128230571746826,0.0009088516235351562,0.09550446271896362
1780001785710507300,8.83050732421875,0.002133488655090332,-0.00384521484375,0.0699940174818039
1780001785726849000,8.84684912109375,0.03083932399749756,0.029102325439453125,0.05348940193653107
1780001785743174700,8.863174560546875,0.04527926445007324,0.02017974853515625,0.03738179802894592
1780001785759495200,8.8794951171875,0.03598165512084961,0.0202484130859375,0.05533069372177124
1780001785775824600,8.89582470703125,0.03147757053375244,0.010747909545898438,0.05903428792953491
1780001785792153900,8.91215380859375,0.02229011058807373,0.0012617111206054688,0.06273967027664185
1780001785808491000,8.928490966796875,0.0037213563919067383,0.0013751983642578125,0.05226966738700867
1780001785824829400,8.944829345703125,-0.01849496364593506,-0.00321197509765625,0.0461139976978302
1780001785841159700,8.96115966796875,-0.0172884464263916,-0.00778961181640625,0.04085792601108551
1780001785857493500,8.977493408203125,-0.016074538230895996,0.006770133972167969,0.03594920039176941
1780001785873825000,8.993824951171876,-0.010039329528808594,0.021331787109375,0.031833380460739136
1780001785890158800,9.010158935546874,-0.013602972030639648,0.016745567321777344,0.036131635308265686
1780001785906491000,9.026490966796874,0.0066176652908325195,-0.011798858642578125,0.04187537729740143
1780001785922824700,9.04282470703125,0.011664628982543945,-0.011763572692871094,0.047001615166664124
1780001785939155200,9.0591552734375,0.034856319427490234,0.01213836669921875,0.042428821325302124
1780001785955490600,9.075490478515626,0.016162514686584473,0.01698780059814453,0.042940735816955566
1780001785971835600,9.091835693359375,0.0034521818161010742,0.007678985595703125,0.06732885539531708
1780001785988168700,9.108168701171875,-0.00853109359741211,0.022414207458496094,0.07675275951623917
1780001786004500200,9.124500244140625,-0.040039896965026855,0.013060569763183594,0.0676957219839096
1780001786020833800,9.140833740234376,-0.04947781562805176,0.01785755157470703,0.05379369854927063
1780001786037167000,9.1571669921875,-0.05473923683166504,0.012989044189453125,0.03967709839344025
1780001786053501200,9.173501220703125,-0.03598654270172119,-0.006213188171386719,0.044316262006759644
1780001786069831000,9.189830810546875,-0.036237120628356934,-0.02529144287109375,0.0774313285946846
1780001786086153000,9.206153076171875,-0.06327295303344727,-0.020318984985351562,0.08173546195030212
1780001786102497800,9.222497802734376,-0.06617021560668945,-0.029561996459960938,0.07607009261846542
1780001786118832000,9.23883203125,-0.08290457725524902,-0.009991645812988281,0.0689879059791565
1780001786135161600,9.25516162109375,-0.08677017688751221,-0.009796142578125,0.052292391657829285
1780001786151470800,9.271470947265625,-0.07380509376525879,0.013949394226074219,0.03153045475482941
1780001786167832800,9.287832763671876,-0.015162348747253418,0.05647468566894531,-0.0038737952709198
1780001786184128800,9.304128662109376,0.06628274917602539,0.012658119201660156,-0.04282812774181366
1780001786200499200,9.320499267578125,0.11960399150848389,-0.0023698806762695312,-0.05202341079711914
1780001786216828000,9.336827880859374,0.10846507549285889,0.006936073303222656,-0.04197089374065399
1780001786233161000,9.353160888671875,0.02331864833831787,-0.012057304382324219,0.010794535279273987
1780001786249504800,9.3695048828125,-0.07967257499694824,-0.016473770141601562,0.07283627986907959
1780001786265831400,9.38583154296875,-0.15943336486816406,-0.01141357421875,0.11949196457862854
1780001786282145500,9.4021455078125,-0.1698288917541504,-0.016208648681640625,0.12285411357879639
1780001786298478300,9.418478271484375,-0.12353193759918213,-0.02131938934326172,0.05424153804779053
1780001786314811100,9.43481103515625,-0.035187363624572754,-0.007355690002441406,-0.018601447343826294
1780001786331144000,9.45114404296875,0.05411362648010254,-0.007597923278808594,-0.0432792603969574
1780001786347463200,9.467463134765625,0.06914925575256348,-0.0026922225952148438,-0.01987934112548828
1780001786363808800,9.483808837890624,0.0041959285736083984,0.0025243759155273438,0.04267670214176178
1780001786380138200,9.50013818359375,-0.06950020790100098,0.02691364288330078,0.09053722023963928
1780001786396465400,9.51646533203125,-0.10682177543640137,0.012712478637695312,0.09967461973428726
1780001786412808000,9.532807861328125,-0.10388696193695068,0.026775360107421875,0.0902080237865448
1780001786429140200,9.54914013671875,-0.031427621841430664,0.030905723571777344,0.04594087600708008
1780001786445487000,9.565487060546875,0.021775007247924805,-0.0033588409423828125,0.011425748467445374
1780001786461820000,9.58181982421875,0.06001389026641846,0.0006504058837890625,-0.013825997710227966
1780001786478157300,9.5981572265625,0.05614602565765381,-0.0047607421875,-0.01942354440689087
1780001786494484200,9.614484130859376,0.030037999153137207,-0.03382396697998047,-0.0010759085416793823
1780001786510798300,9.63079833984375,-0.009621143341064453,-0.024366378784179688,0.026807382702827454
1780001786527151000,9.647151123046875,-0.05715787410736084,-0.0004730224609375,0.025565996766090393
1780001786543480800,9.663480712890625,-0.07206130027770996,-0.005335807800292969,0.005732551217079163
1780001786559820300,9.6798203125,-0.05423092842102051,-0.015116691589355469,-0.02347363531589508
1780001786576149800,9.696149658203124,-0.003953099250793457,-0.001148223876953125,-0.028028592467308044
1780001786592478500,9.712478515625,0.05133461952209473,0.008069992065429688,-0.0474269837141037
1780001786608798500,9.728798583984375,0.07910776138305664,-0.00644683837890625,-0.03234320878982544
1780001786625130800,9.745130859375,0.09267866611480713,-0.011273384094238281,-0.007901594042778015
1780001786641464000,9.761464111328126,0.045055270195007324,0.021656036376953125,0.035841941833496094
1780001786657793500,9.77779345703125,-0.012116074562072754,0.03186511993408203,0.06412571668624878
1780001786674136300,9.79413623046875,-0.026916146278381348,0.021625518798828125,0.08309696614742279
1780001786690464500,9.810464599609375,-0.03814256191253662,-0.006755828857421875,0.06319308280944824
1780001786706795500,9.82679541015625,-0.00731205940246582,-0.011965751647949219,0.023631468415260315
1780001786723133200,9.84313330078125,0.04743623733520508,-0.01717662811279297,-0.006405353546142578
1780001786739464200,9.859464111328125,0.07446980476379395,-0.007871627807617188,-0.025899022817611694
1780001786755796000,9.8757958984375,0.08438324928283691,0.01123809814453125,-0.04556754231452942
1780001786772128500,9.89212841796875,0.05565154552459717,0.02090740203857422,-0.021760642528533936
1780001786788458200,9.908458251953125,0.02762472629547119,0.006667137145996094,0.011157333850860596
1780001786804795100,9.924795166015626,0.009389042854309082,0.0062255859375,0.03488440811634064
1780001786821117400,9.941117431640626,0.02937304973602295,0.015944480895996094,0.04889168590307236
1780001786837460500,9.95746044921875,0.029877066612243652,0.039954185485839844,0.034583285450935364
1780001786853789400,9.97378955078125,0.04890620708465576,0.025585174560546875,0.010972589254379272
1780001786870113500,9.990113525390624,0.057547807693481445,0.020650863647460938,-0.0038261115550994873
1780001786886444800,10.00644482421875,0.05592381954193115,0.006022453308105469,0.005556046962738037
1780001786902782500,10.022782470703126,0.06887590885162354,0.0010013580322265625,0.0007890909910202026
1780001786919123500,10.03912353515625,0.06344449520111084,0.010456085205078125,-0.008396565914154053
1780001786935457500,10.05545751953125,0.0353626012802124,-0.0038003921508789062,0.005784913897514343
1780001786951789300,10.071789306640625,-0.015201091766357422,-0.01253509521484375,0.020745277404785156
1780001786968139800,10.088139892578125,-0.047151923179626465,-0.012285232543945312,0.015954047441482544
1780001786984451600,10.10445166015625,-0.05079472064971924,0.002262115478515625,0.011233896017074585
1780001787000792000,10.1207919921875,-0.012118101119995117,-0.007241249084472656,0.002093300223350525
1780001787017134000,10.137134033203125,0.03498375415802002,-0.021628379821777344,0.0023149102926254272
1780001787033468200,10.15346826171875,0.045368313789367676,0.020977020263671875,0.022317051887512207
1780001787049799200,10.169799072265626,0.04180765151977539,0.02128124237060547,0.055937014520168304
1780001787066133000,10.186133056640625,0.038648366928100586,0.0024080276489257812,0.07519742101430893
1780001787082453200,10.202453369140626,0.020497918128967285,0.016928672790527344,0.07005038112401962
1780001787098798800,10.218798828125,0.021390795707702637,0.02235698699951172,0.0414566695690155
1780001787115113700,10.23511376953125,0.01656651496887207,0.0223541259765625,0.036542102694511414
1780001787131460400,10.25146044921875,-0.021582961082458496,0.012808799743652344,0.04111665487289429
1780001787147796200,10.267796142578124,-0.06398928165435791,-0.00621795654296875,0.04028455913066864
1780001787164115000,10.284114990234375,-0.07771432399749756,-0.010890960693359375,0.04949507862329483
1780001787180461300,10.30046142578125,-0.05784177780151367,-0.02043437957763672,0.034754276275634766
1780001787196779000,10.316779052734375,-0.01526641845703125,-0.034873008728027344,0.006568148732185364
1780001787213127200,10.333127197265625,0.013297677040100098,-0.02054309844970703,-0.012514203786849976
1780001787229460500,10.34946044921875,0.023558974266052246,-0.0011892318725585938,0.00694236159324646
1780001787245777000,10.36577685546875,-0.00739133358001709,0.032726287841796875,0.04566490650177002
1780001787262109700,10.382109619140625,-0.038320064544677734,0.02358245849609375,0.06975334137678146
1780001787278443300,10.398443359375,-0.04180908203125,-0.0007295608520507812,0.08834215998649597
1780001787294779000,10.41477880859375,-0.022994160652160645,0.023143768310546875,0.06983170658349991
1780001787311092700,10.4310927734375,0.014279723167419434,0.018195152282714844,0.04085908830165863
1780001787327462100,10.447462158203125,0.04222369194030762,0.018671035766601562,0.03630998730659485
1780001787343769300,10.463769287109375,0.023102283477783203,0.018677711486816406,0.049807362258434296
1780001787360109600,10.480109619140626,-0.005830049514770508,0.0043888092041015625,0.06880464404821396
1780001787376440000,10.496440185546875,-0.05336141586303711,-0.005130767822265625,0.09223025292158127
1780001787392776400,10.5127763671875,-0.08631622791290283,-0.019501686096191406,0.082869753241539
1780001787409105700,10.529105712890624,-0.07189345359802246,-0.029066085815429688,0.08317907154560089
1780001787425458000,10.5454580078125,-0.04741561412811279,-0.01941394805908203,0.059834688901901245
1780001787441781000,10.561781005859375,-0.026901841163635254,0.009516716003417969,0.05623430758714676
1780001787458126000,10.5781259765625,-0.006055474281311035,0.014574050903320312,0.042508289217948914
1780001787474450400,10.594450439453125,-0.01927042007446289,0.01953887939453125,0.04788684844970703
1780001787490768600,10.6107685546875,-0.019295573234558105,0.00038242340087890625,0.03890788555145264
1780001787507117000,10.627116943359376,-0.005453228950500488,0.009855270385742188,0.03477506339550018
1780001787523431000,10.643430908203126,0.0034900903701782227,0.00016880035400390625,0.021036773920059204
1780001787539767600,10.659767578125,0.022265195846557617,0.00009250640869140625,0.01709839701652527
1780001787556100400,10.676100341796875,0.00771176815032959,0.00004291534423828125,0.013193324208259583
1780001787572433400,10.692433349609376,-0.025391817092895508,0.00957489013671875,-0.0007306188344955444
1780001787588753400,10.70875341796875,-0.05900096893310547,-0.033514976501464844,0.003415614366531372
1780001787605087500,10.72508740234375,-0.07350170612335205,-0.06703567504882812,-0.0014861077070236206
1780001787621421800,10.741421875,-0.06852161884307861,-0.10956764221191406,-0.05037814378738403
1780001787637753900,10.75775390625,-0.0632474422454834,-0.09522533416748047,-0.12715986371040344
1780001787654087200,10.774087158203125,-0.08050370216369629,-0.03699016571044922,-0.22261781990528107
1780001787670419200,10.790419189453125,-0.1141972541809082,-0.026760101318359375,-0.2701456546783447
1780001787686753500,10.80675341796875,-0.13193798065185547,-0.040099143981933594,-0.24654723703861237
1780001787703084800,10.823084716796876,-0.1354302167892456,-0.01508331298828125,-0.15920224785804749
1780001787719418600,10.839418701171875,-0.08828544616699219,0.04738140106201172,-0.04300127923488617
1780001787735749000,10.8557490234375,0.004369616508483887,0.06641292572021484,0.04338158667087555
1780001787752084000,10.872083984375,0.14206194877624512,0.08978652954101562,0.09569805860519409
1780001787768415500,10.88841552734375,0.23939180374145508,0.1318826675415039,0.09388604760169983
1780001787784750000,10.90475,0.2888224124908447,0.13132095336914062,0.04802118241786957
1780001787801080800,10.921080810546876,0.23711490631103516,0.0403289794921875,0.024331480264663696
1780001787817415200,10.937415283203125,0.09943962097167969,0.030118942260742188,0.00021256506443023682
1780001787833746200,10.95374609375,-0.0376814603805542,-0.008129119873046875,-0.0330195426940918
1780001787850081300,10.970081298828125,-0.11683475971221924,-0.0654458999633789,-0.0647842288017273
1780001787866412800,10.986412841796875,-0.1333293914794922,-0.08023357391357422,-0.09010379016399384
1780001787882749000,11.0027490234375,-0.12627649307250977,-0.05182647705078125,-0.07648652791976929
1780001787899090200,11.019090087890625,-0.07493782043457031,-0.05193519592285156,-0.028630048036575317
1780001787915423700,11.035423828125,-0.02230072021484375,-0.047641754150390625,0.023535504937171936
1780001787931756300,11.05175634765625,0.0023043155670166016,-0.02886962890625,0.08065016567707062
1780001787948089300,11.06808935546875,0.022623300552368164,0.009634971618652344,0.11261595785617828
1780001787964421000,11.084421142578124,0.02282416820526123,0.005019187927246094,0.12939918041229248
1780001787980760300,11.10076025390625,0.03830838203430176,0.005146980285644531,0.09803126752376556
1780001787997103600,11.117103515625,0.033701539039611816,0.014787673950195312,0.05713590979576111
1780001788013435000,11.133434814453125,0.02924501895904541,0.02973651885986328,0.021109215915203094
1780001788029766000,11.149765869140625,0.014253973960876465,0.02966594696044922,0.013883233070373535
1780001788046082800,11.166082763671875,0.017606735229492188,0.04382610321044922,0.006291523575782776
1780001788062431500,11.182431396484375,0.03378033638000488,0.0524444580078125,0.02796509861946106
1780001788078739500,11.198739501953124,0.03564095497131348,0.013707160949707031,0.04464803636074066
1780001788095085000,11.2150849609375,0.03748369216918945,0.0036706924438476562,0.05709352344274521
1780001788111425300,11.23142529296875,0.015874147415161133,0.017633438110351562,0.04082801938056946
1780001788127767300,11.247767333984376,-0.014086365699768066,0.022721290588378906,0.02542882412672043
1780001788144096000,11.264095947265625,-0.030109047889709473,-0.01104736328125,0.01510089635848999
1780001788160414700,11.280414794921874,-0.04580855369567871,-0.0686960220336914,0.00460921972990036
1780001788176762000,11.29676220703125,-0.06508421897888184,-0.0783853530883789,-0.00047579407691955566
1780001788193094400,11.313094482421874,-0.05066120624542236,-0.025628089904785156,0.004023335874080658
1780001788209410800,11.329410888671875,-0.05788397789001465,-0.00130462646484375,0.02287530153989792
1780001788225759000,11.345759033203125,-0.05451333522796631,0.013622283935546875,0.04655063897371292
1780001788242088000,11.362087890625,-0.048320889472961426,0.023528099060058594,0.05663447082042694
1780001788258416000,11.378416015625,-0.015380382537841797,0.022844314575195312,0.06086375564336777
1780001788274745000,11.3947451171875,0.034205079078674316,0.031920433044433594,0.045891135931015015
1780001788291076600,11.41107666015625,0.09258008003234863,0.021719932556152344,0.006508752703666687
1780001788307410200,11.42741015625,0.12298643589019775,0.0020656585693359375,-0.022189006209373474
1780001788323742200,11.4437421875,0.11730325222015381,0.007302284240722656,-0.0417049378156662
1780001788340076000,11.460075927734374,0.03738570213317871,-0.011697769165039062,-0.004097789525985718
1780001788356407600,11.476407470703125,-0.061325907707214355,-0.0018243789672851562,0.03279566019773483
1780001788372737300,11.4927373046875,-0.10775768756866455,0.003208160400390625,0.051471054553985596
1780001788389077000,11.509076904296874,-0.08837175369262695,-0.020669937133789062,0.045791953802108765
1780001788405424400,11.52542431640625,-0.04167139530181885,-0.020854949951171875,0.0026358067989349365
1780001788421735700,11.541735595703125,0.019126415252685547,0.007625579833984375,-0.031159579753875732
1780001788438072800,11.55807275390625,0.07153940200805664,0.012372016906738281,-0.04017564654350281
1780001788454401000,11.574401123046876,0.08107483386993408,0.007080078125,-0.01599891483783722
1780001788470741200,11.5907412109375,0.029339313507080078,0.01680278778076172,0.02706167846918106
1780001788487070000,11.607070068359375,0.0009591579437255859,0.01686859130859375,0.06886418163776398
1780001788503391000,11.623390869140625,-0.017955780029296875,-0.021364212036132812,0.0773373693227768
1780001788519708000,11.6397080078125,-0.032257080078125,-0.016561508178710938,0.06693050265312195
1780001788536064500,11.656064453125,-0.045870304107666016,-0.00156402587890625,0.022424504160881042
1780001788552398300,11.6723984375,-0.02141702175140381,-0.006244659423828125,0.006597280502319336
1780001788568749000,11.6887490234375,0.003247499465942383,-0.020461082458496094,0.0004583001136779785
1780001788585080300,11.705080322265625,0.01854109764099121,-0.010718345642089844,-0.015152573585510254
1780001788601397200,11.721397216796875,0.03410780429840088,-0.005718231201171875,-0.016294240951538086
1780001788617730000,11.73772998046875,0.04430592060089111,0.008858680725097656,-0.0073336586356163025
1780001788634063000,11.75406298828125,0.0361560583114624,-0.005248069763183594,-0.008538477122783661
1780001788650400800,11.77040087890625,0.033821821212768555,-0.024065017700195312,-0.015192337334156036
1780001788666731300,11.786731201171875,0.02193427085876465,-0.014070510864257812,-0.021093927323818207
1780001788683063000,11.80306298828125,0.020088553428649902,-0.013566970825195312,-0.017630629241466522
1780001788699400200,11.819400146484375,0.008370161056518555,-0.008225440979003906,0.00937468558549881
1780001788715707100,11.83570703125,0.006349921226501465,-0.01731395721435547,0.03584585338830948
1780001788732076000,11.852075927734376,0.02805185317993164,-0.012072563171386719,0.03755031153559685
1780001788748389000,11.86838916015625,0.05962240695953369,0.0021886825561523438,0.029988154768943787
1780001788764728300,11.884728271484375,0.09173440933227539,0.03628253936767578,-0.002052485942840576
1780001788781059800,11.901059814453125,0.10042798519134521,0.08002471923828125,-0.019577451050281525
1780001788797393400,11.917393310546874,0.07521140575408936,0.06685829162597656,-0.04538029432296753
1780001788813724400,11.933724365234376,0.05888485908508301,0.033721923828125,-0.06995292007923126
1780001788830059500,11.9500595703125,0.03180587291717529,0.024311065673828125,-0.1071779727935791
1780001788846390800,11.966390869140625,0.013308525085449219,0.038756370544433594,-0.11480917781591415
1780001788862724000,11.98272412109375,0.03268551826477051,0.03887367248535156,-0.08876805752515793
1780001788879055000,11.99905517578125,0.0570371150970459,0.029453277587890625,-0.0009196251630783081
1780001788895390200,12.01539013671875,0.03766357898712158,0.02410888671875,0.06808148324489594
1780001788911722000,12.031721923828124,0.014184951782226562,-0.004054069519042969,0.06092861294746399
1780001788928069000,12.048069091796876,-0.023714900016784668,-0.028045654296875,-0.013565696775913239
1780001788944400000,12.06439990234375,-0.03748166561126709,-0.0178985595703125,-0.07842698693275452
1780001788960734200,12.080734130859375,-0.0509028434753418,-0.027935028076171875,-0.07176291197538376
1780001788977081300,12.097081298828124,-0.0735006332397461,-0.027643203735351562,0.007098928093910217
1780001788993399800,12.11339990234375,-0.08085954189300537,-0.027309417724609375,0.061451878398656845
1780001789009716200,12.12971630859375,-0.0746074914932251,-0.017416000366210938,0.1111663281917572
1780001789026066400,12.14606640625,-0.06260788440704346,0.002117156982421875,0.12585186958312988
1780001789042401000,12.162401123046875,-0.035833120346069336,0.007460594177246094,0.1165056973695755
1780001789058730800,12.178730712890625,-0.04607653617858887,0.008019447326660156,0.09803525358438492
1780001789075050200,12.19505029296875,-0.04846465587615967,0.017971038818359375,0.060536548495292664
1780001789091414000,12.2114140625,-0.0330045223236084,0.02761363983154297,0.03747575730085373
1780001789107706000,12.2277060546875,-0.043609619140625,0.03710746765136719,0.04776478558778763
1780001789124064800,12.244064697265625,-0.029528379440307617,0.022696495056152344,0.08200953900814056
1780001789140383200,12.26038330078125,-0.030240893363952637,-0.020502090454101562,0.07825679332017899
1780001789156728000,12.27672802734375,-0.04626309871673584,-0.0016393661499023438,0.05518811196088791
1780001789173043000,12.29304296875,-0.0477222204208374,0.012383460998535156,0.007453568279743195
1780001789189412400,12.309412353515626,-0.04404318332672119,-0.03993988037109375,-0.0304553285241127
1780001789205719600,12.325719482421874,-0.030710577964782715,-0.04969596862792969,-0.06252402067184448
1780001789222046000,12.3420458984375,-0.03995156288146973,-0.03052234649658203,-0.07494524121284485
1780001789238361900,12.35836181640625,-0.047875165939331055,-0.01592254638671875,-0.05869439244270325
1780001789254715000,12.37471484375,-0.05967879295349121,-0.020316123962402344,-0.037836819887161255
1780001789271041800,12.391041748046876,-0.019228458404541016,-0.001438140869140625,-0.04602612555027008
1780001789287377200,12.407377197265625,0.033388495445251465,0.017780303955078125,-0.04415057599544525
1780001789303703300,12.423703369140625,0.08035266399383545,0.04155254364013672,-0.03374052047729492
1780001789320033000,12.440032958984375,0.0693744421005249,0.06055164337158203,0.010873116552829742
1780001789336353500,12.456353515625,-0.012158751487731934,0.04137134552001953,0.06831777095794678
1780001789352707300,12.472707275390626,-0.10264885425567627,0.022301673889160156,0.11969739198684692
1780001789369038600,12.48903857421875,-0.1175774335861206,-0.011282920837402344,0.10490220785140991
1780001789385389300,12.505389404296874,-0.10489654541015625,-0.045146942138671875,0.06133028864860535
1780001789401718500,12.521718505859376,-0.017145752906799316,-0.04086589813232422,0.003839723765850067
1780001789418051600,12.538051513671874,0.08058786392211914,-0.012598037719726562,-0.04368981719017029
1780001789434379500,12.554379638671875,0.12701642513275146,0.01588726043701172,-0.06238505244255066
1780001789450721500,12.570721435546876,0.09364330768585205,0.030261993408203125,-0.047833144664764404
1780001789467044600,12.587044677734376,-0.010140538215637207,0.02570629119873047,0.0005182623863220215
1780001789483386400,12.603386474609374,-0.09918761253356934,0.006842613220214844,0.05391457676887512
1780001789499682600,12.6196826171875,-0.1409381628036499,0.016605377197265625,0.09388227015733719
1780001789516048100,12.636048095703124,-0.1227729320526123,0.00217437744140625,0.09959879517555237
1780001789532376000,12.6523759765625,-0.034757256507873535,-0.02222919464111328,0.08606547117233276
1780001789548718300,12.66871826171875,0.032811760902404785,-0.013335227966308594,0.04778414964675903
1780001789565045500,12.68504541015625,0.07287049293518066,-0.009120941162109375,0.008058525621891022
1780001789581377500,12.70137744140625,0.07579636573791504,-0.014189720153808594,-0.012609899044036865
1780001789597710300,12.71771044921875,0.03285861015319824,-0.0237274169921875,-0.027847707271575928
1780001789614045200,12.734045166015624,-0.01755392551422119,-0.009100914001464844,-0.052688419818878174
1780001789630376700,12.750376708984374,-0.02985990047454834,-0.003979682922363281,-0.07653361558914185
1780001789646710000,12.7667099609375,-0.023865818977355957,0.0105743408203125,-0.07653479278087616
1780001789663042800,12.783042724609375,0.018994927406311035,0.04892253875732422,-0.0328923761844635
1780001789679371300,12.799371337890625,0.08046627044677734,0.04411125183105469,0.015718981623649597
1780001789695713000,12.815713134765625,0.10375368595123291,0.02904796600341797,0.035228192806243896
1780001789712039000,12.832038818359376,0.09734451770782471,0.028781890869140625,0.03994162380695343
1780001789728344600,12.848344482421876,0.052382469177246094,0.014723777770996094,0.033845290541648865
1780001789744673300,12.86467333984375,0.0038758516311645508,-0.014184951782226562,0.037954702973365784
1780001789761025000,12.88102490234375,-0.05405068397521973,0.00010204315185546875,0.031763941049575806
1780001789777358000,12.897358154296874,-0.06944501399993896,-0.023983001708984375,0.021241888403892517
1780001789793690600,12.913690673828125,-0.06175494194030762,-0.038641929626464844,0.011061020195484161
1780001789810010600,12.9300107421875,-0.029574990272521973,-0.010141372680664062,-0.017881475389003754
1780001789826339800,12.94633984375,-0.01023411750793457,-0.010102272033691406,-0.01779637485742569
1780001789842692000,12.962692138671875,0.010088801383972168,-0.019472122192382812,0.005519069731235504
1780001789859021600,12.979021484375,0.0016933679580688477,0.004652976989746094,0.019438639283180237
1780001789875364400,12.9953642578125,-0.012533783912658691,0.02392292022705078,0.023634880781173706
1780001789891695900,13.01169580078125,-0.002768993377685547,0.0000324249267578125,0.01834491640329361
1780001789908068400,13.028068359375,0.025524139404296875,0.014325141906738281,0.013296440243721008
1780001789924366300,13.044366455078125,0.02506279945373535,0.014253616333007812,0.022487662732601166
1780001789940699400,13.060699462890625,0.03430759906768799,0.02377605438232422,0.03174378722906113
1780001789957031700,13.07703173828125,0.029086828231811523,0.03327655792236328,0.04122883081436157
1780001789973348000,13.09334814453125,0.003917336463928223,0.004359245300292969,0.03163590282201767
1780001789989697000,13.109697021484376,0.00692141056060791,-0.01038360595703125,0.016869373619556427
1780001790006039300,13.126039306640624,-0.000476837158203125,0.013123512268066406,0.0020306259393692017
1780001790022363000,13.14236279296875,-0.0022072792053222656,-0.006300926208496094,-0.0032549574971199036
1780001790038679800,13.1586796875,-0.01703500747680664,-0.025518417358398438,0.0008205100893974304
1780001790055026400,13.1750263671875,-0.04542076587677002,-0.035037994384765625,0.005844719707965851
1780001790071324400,13.191324462890625,-0.0686798095703125,-0.01578998565673828,0.011004291474819183
1780001790087696100,13.207696044921875,-0.06344747543334961,0.0225677490234375,0.030237503349781036
1780001790104021800,13.224021728515625,-0.031051993370056152,-0.0062274932861328125,0.04966459423303604
1780001790120362800,13.24036279296875,0.010485053062438965,-0.011260032653808594,0.04919038712978363
1780001790136693000,13.25669287109375,0.032726407051086426,0.012399673461914062,0.0437568724155426
1780001790153010200,13.27301025390625,0.04636585712432861,-0.00685882568359375,0.029100842773914337
1780001790169385000,13.289385009765626,0.008345842361450195,0.00275421142578125,0.024522192776203156
1780001790185689600,13.305689697265626,-0.014415979385375977,-0.011507987976074219,0.019626028835773468
1780001790202045700,13.322045654296875,-0.028626561164855957,-0.01626300811767578,0.009039625525474548
1780001790218355000,13.33835498046875,-0.029084324836730957,0.012386322021484375,0.013522431254386902
1780001790234666800,13.354666748046874,-0.0014946460723876953,0.021882057189941406,0.012466423213481903
1780001790251012400,13.371012451171875,0.03156638145446777,0.0026721954345703125,-0.00714130699634552
1780001790267339500,13.387339599609374,0.050341129302978516,0.021749496459960938,-0.025240115821361542
1780001790283672000,13.403672119140625,0.045983314514160156,0.007357597351074219,-0.020421184599399567
1780001790300006700,13.420006591796875,0.03539896011352539,0.0024995803833007812,0.003766074776649475
1780001790316321800,13.43632177734375,0.025379180908203125,0.007216453552246094,0.04646178334951401
1780001790332675000,13.452675048828125,0.010528087615966797,-0.0024251937866210938,0.06466120481491089
1780001790349004500,13.469004638671874,-0.004111886024475098,0.016683578491210938,0.05399852618575096
1780001790365353200,13.485353271484374,-0.013242721557617188,0.0023126602172851562,0.009797163307666779
1780001790381662700,13.501662841796875,-0.0037118196487426758,0.007100105285644531,-0.03391536325216293
1780001790397999600,13.51799951171875,-0.0037442445755004883,0.007096290588378906,-0.053219638764858246
1780001790414334000,13.534333984375,0.020545244216918945,-0.02156352996826172,-0.043334342539310455
1780001790430667500,13.55066748046875,0.015631794929504395,0.016791343688964844,-0.004299573600292206
1780001790446986000,13.566986083984375,0.03044891357421875,0.03121662139892578,0.03459428995847702
1780001790463322600,13.583322509765624,0.02561509609222412,0.021631240844726562,0.06398145854473114
1780001790479652900,13.59965283203125,0.038860440254211426,0.030409812927246094,0.055882539600133896
1780001790495986700,13.615986572265625,0.02766597270965576,0.025946617126464844,0.022353462874889374
1780001790512334800,13.6323349609375,0.026831626892089844,0.0017757415771484375,-0.010650508105754852
1780001790528664600,13.64866455078125,0.0116502046585083,-0.007940292358398438,-0.024302862584590912
1780001790544999000,13.6649990234375,-0.03589165210723877,-0.022255897521972656,-0.01432492583990097
1780001790561330700,13.68133056640625,-0.09236454963684082,-0.0221099853515625,0.015389695763587952
1780001790577660000,13.697659912109375,-0.11582469940185547,-0.0172576904296875,0.054443180561065674
1780001790593995800,13.713995849609375,-0.06917917728424072,-0.012579917907714844,0.06935472786426544
1780001790610342100,13.730342041015625,-0.01808774471282959,-0.02241039276123047,0.04612616449594498
1780001790626675200,13.74667529296875,0.047423362731933594,-0.0035142898559570312,0.00843774527311325
1780001790643006200,13.763006103515625,0.061910390853881836,-0.0034961700439453125,-0.010414235293865204
1780001790659340800,13.7793408203125,0.021320343017578125,-0.0031909942626953125,-0.015306919813156128
1780001790675655400,13.795655517578124,-0.03796887397766113,-0.007500648498535156,0.018269747495651245
1780001790692001800,13.812001708984376,-0.0741574764251709,0.007198333740234375,0.04259762912988663
1780001790708341800,13.828341796875,-0.06471490859985352,0.012063980102539062,0.04722043126821518
1780001790724654000,13.844654052734375,-0.007874488830566406,0.007190704345703125,0.042311735451221466
1780001790740987600,13.860987548828126,0.06749832630157471,0.0070018768310546875,0.003981873393058777
1780001790757323300,13.8773232421875,0.09991836547851562,0.021187782287597656,-0.035009630024433136
1780001790773655000,13.893655029296875,0.09066176414489746,0.0067901611328125,-0.05936937779188156
1780001790789988400,13.90998828125,0.029217004776000977,0.002132415771484375,-0.055331334471702576
1780001790806320400,13.9263203125,-0.012267708778381348,-0.007176399230957031,-0.040972642600536346
1780001790822653700,13.94265380859375,-0.048880934715270996,-0.006905555725097656,-0.017307288944721222
1780001790838980900,13.95898095703125,-0.052764058113098145,0.0028104782104492188,0.011775247752666473
1780001790855319600,13.975319580078125,-0.018909573554992676,0.022008895874023438,0.017450585961341858
1780001790871665200,13.9916650390625,0.02890479564666748,0.017213821411132812,-0.006208091974258423
1780001790887998700,14.007998779296875,0.08135247230529785,0.007602691650390625,-0.029040507972240448
1780001790904333600,14.02433349609375,0.07196617126464844,0.021981239318847656,-0.03313588351011276
1780001790920663800,14.040663818359375,0.05357193946838379,0.02209949493408203,-0.008763566613197327
1780001790936986600,14.056986572265625,-0.008304834365844727,0.01746368408203125,0.038868606090545654
1780001790953329700,14.07332958984375,-0.06525981426239014,0.012754440307617188,0.06718980520963669
1780001790969644000,14.08964404296875,-0.07500982284545898,-0.015990257263183594,0.0672742947936058
1780001790985994200,14.105994140625,-0.08011960983276367,-0.025119781494140625,0.029277116060256958
1780001791002311000,14.122310791015625,-0.03850865364074707,-0.011003494262695312,-0.028273411095142365
1780001791018660600,14.13866064453125,0.013268470764160156,-0.03516960144042969,-0.06132529675960541
1780001791034968000,14.154968017578126,0.040959954261779785,-0.016696929931640625,-0.06602265685796738
1780001791051323100,14.1713232421875,0.032463908195495605,-0.00695037841796875,-0.041871070861816406
1780001791067645400,14.1876455078125,0.01555025577545166,-0.0018024444580078125,0.011052288115024567
1780001791083975400,14.203975341796875,-0.03494977951049805,0.017787933349609375,0.04016990214586258
1780001791100306200,14.22030615234375,-0.06630682945251465,0.032494544982910156,0.0494789183139801
1780001791116638000,14.236637939453125,-0.065848708152771,0.013422966003417969,0.04487394541501999
1780001791132964600,14.252964599609374,-0.02864062786102295,-0.0011081695556640625,0.040508754551410675
1780001791149295600,14.269295654296876,0.02178168296813965,-0.01103973388671875,0.03040449321269989
1780001791165627100,14.285627197265624,0.07254648208618164,0.0030164718627929688,0.011301122605800629
1780001791181961700,14.301961669921875,0.0955054759979248,0.0124359130859375,-0.0036314725875854492
1780001791198293800,14.318293701171875,0.04805612564086914,-0.0019474029541015625,-0.014398843050003052
1780001791214627300,14.33462744140625,-0.033040642738342285,-0.010869979858398438,-0.029984600841999054
1780001791230958000,14.3509580078125,-0.08464014530181885,-0.020359039306640625,-0.025764398276805878
1780001791247293400,14.36729345703125,-0.10318624973297119,-0.02025604248046875,-0.012365855276584625
1780001791263623000,14.383622802734376,-0.08374929428100586,-0.0296783447265625,0.002451881766319275
1780001791279958300,14.399958251953125,-0.035186171531677246,-0.020590782165527344,0.0073471590876579285
1780001791296289000,14.4162890625,0.013034224510192871,0.003398895263671875,-0.00180923193693161
1780001791312622800,14.432622802734375,0.07968151569366455,0.022588729858398438,0.003086961805820465
1780001791328955100,14.448955078125,0.08459115028381348,0.04176139831542969,0.016572363674640656
1780001791345289700,14.465289794921874,0.07494878768920898,0.03697681427001953,0.02516220510005951
1780001791361619700,14.48161962890625,0.04570412635803223,0.02254486083984375,0.02418338507413864
1780001791377954600,14.49795458984375,-0.0020599365234375,-0.0014600753784179688,-0.0009306967258453369
1780001791394287600,14.51428759765625,-0.017218351364135742,0.0031976699829101562,-0.025139600038528442
1780001791410635300,14.53063525390625,0.0008282661437988281,0.003017425537109375,-0.04913243651390076
1780001791426964200,14.546964111328125,0.009505391120910645,0.0028715133666992188,-0.039722517132759094
1780001791443298000,14.563298095703125,0.032872676849365234,-0.011576652526855469,-0.02068284898996353
1780001791459632400,14.57963232421875,0.0036660432815551758,-0.0067768096923828125,0.003604106605052948
1780001791475960300,14.595960205078125,-0.028258442878723145,-0.015595436096191406,0.00413590669631958
1780001791492298500,14.612298583984375,-0.050977349281311035,-0.010622024536132812,0.013937249779701233
1780001791508642600,14.628642578125,-0.05470561981201172,-0.0062656402587890625,0.028851717710494995
1780001791524974300,14.644974365234376,-0.030889391899108887,-0.001399993896484375,0.03901448845863342
1780001791541308400,14.661308349609374,0.01675736904144287,0.017716407775878906,0.04305754601955414
1780001791557633800,14.6776337890625,0.04485476016998291,0.027202606201171875,0.04710530489683151
1780001791573975300,14.693975341796875,0.034345269203186035,0.017595291137695312,0.04547802358865738
1780001791590305000,14.710304931640625,0.025281429290771484,0.008021354675292969,0.024528324604034424
1780001791606638600,14.726638671875,0.006492972373962402,-0.011153221130371094,-0.014487452805042267
1780001791622966500,14.742966552734375,-0.008365631103515625,-0.0010595321655273438,-0.04842726141214371
1780001791639291100,14.759291015625,-0.003710031509399414,-0.005866050720214844,-0.043812066316604614
1780001791655636500,14.775636474609374,0.0059479475021362305,-0.00644683837890625,-0.01524496078491211
1780001791671969800,14.7919697265625,0.005719900131225586,-0.0015993118286132812,0.013266600668430328
1780001791688301300,14.80830126953125,-0.017368316650390625,0.008115768432617188,0.02722533792257309
1780001791704630300,14.82463037109375,-0.03067338466644287,-0.015634536743164062,0.026248812675476074
1780001791720953000,14.840953125,-0.019504308700561523,-0.00589752197265625,0.007561191916465759
1780001791737287000,14.857286865234375,0.004208087921142578,0.008524894714355469,0.002516508102416992
1780001791753602300,14.873602294921875,0.03261888027191162,0.02283763885498047,-0.007542148232460022
1780001791769952300,14.8899521484375,0.055663466453552246,0.027484893798828125,-0.002808503806591034
1780001791786284000,14.906283935546876,0.06909024715423584,0.012981414794921875,0.006202623248100281
1780001791802614800,14.92261474609375,0.030320286750793457,0.008122444152832031,0.009854458272457123
1780001791818951200,14.938951171875,0.0016093254089355469,-0.0014467239379882812,0.0144176185131073
1780001791835275000,14.95527490234375,-0.03601384162902832,-0.0157928466796875,-0.019804932177066803
1780001791851628300,14.971628173828124,-0.045572757720947266,-0.01519012451171875,-0.029581762850284576
1780001791867945000,14.987945068359375,-0.03573000431060791,-0.010954856872558594,-0.025076203048229218
1780001791884293600,15.004293701171875,-0.006605267524719238,-0.006100654602050781,-0.014853201806545258
1780001791900627700,15.020627685546875,0.02200031280517578,-0.0012369155883789062,0.009275585412979126
1780001791916959200,15.036959228515625,0.012909412384033203,0.02276611328125,0.014560289680957794
1780001791933270500,15.0532705078125,0.013687610626220703,0.018102645874023438,0.0294233039021492
1780001791949609700,15.069609619140625,0.004815936088562012,0.013426780700683594,0.04422257840633392
1780001791965937700,15.085937744140624,0.00948023796081543,0.013406753540039062,0.05385556071996689
1780001791982276600,15.102276611328126,0.008666038513183594,0.013271331787109375,0.02991504967212677
1780001791998610200,15.118610107421874,0.007442831993103027,0.0034971237182617188,0.0013482347130775452
1780001792014941400,15.13494140625,-0.0024487972259521484,-0.0014429092407226562,-0.007852338254451752
1780001792031257900,15.1512578125,-0.03626298904418945,-0.0056896209716796875,-0.007891550660133362
1780001792047628800,15.16762890625,-0.0651770830154419,-0.005631446838378906,0.021318748593330383
1780001792063946500,15.183946533203125,-0.06959700584411621,-0.006175041198730469,0.045902445912361145
1780001792080293000,15.200293212890625,-0.05981314182281494,-0.010931968688964844,0.03682466596364975
1780001792096605700,15.216605712890624,-0.03160452842712402,-0.011014938354492188,0.017770960927009583
1780001792112951800,15.232951904296876,0.02072739601135254,-0.011165618896484375,-0.019812501966953278
1780001792129292300,15.249292236328126,0.044213056564331055,0.017472267150878906,-0.03871944546699524
1780001792145617200,15.2656171875,0.034685611724853516,0.00800323486328125,-0.0143500417470932
1780001792161960200,15.281960205078125,0.02169477939605713,0.0034341812133789062,0.010170802474021912
1780001792178277000,15.298277099609376,-0.01565539836883545,0.0227203369140625,0.03018520027399063
1780001792194600200,15.31460009765625,-0.03953742980957031,0.013154983520507812,0.020819738507270813
1780001792210926600,15.330926513671875,0.002351045608520508,0.012966156005859375,0.01545608788728714
1780001792227271400,15.347271484375,0.038826584815979004,0.022251129150390625,-0.009485751390457153
1780001792243600600,15.3636005859375,0.04758632183074951,0.007674217224121094,-0.04408366233110428
1780001792259933200,15.37993310546875,0.03758430480957031,-0.01153564453125,-0.0683276578783989
1780001792276246500,15.39624658203125,-0.014630556106567383,-0.015657424926757812,-0.05837159603834152
1780001792292599600,15.412599609375,-0.06611120700836182,-0.020261764526367188,-0.03898434340953827
1780001792308931000,15.42893115234375,-0.08852148056030273,-0.020017623901367188,0.014351814985275269
1780001792325277700,15.445277587890626,-0.07329273223876953,-0.010811805725097656,0.05808480829000473
1780001792341612000,15.461612060546875,-0.034481048583984375,0.013301849365234375,0.08260422945022583
1780001792357944800,15.47794482421875,0.00885021686553955,0.018136024475097656,0.07247892022132874
1780001792374275000,15.494275146484375,0.03288435935974121,0.018059730529785156,0.02908855676651001
1780001792390609400,15.510609375,0.05609238147735596,0.032301902770996094,-0.008914150297641754
1780001792406939400,15.526939453125,0.05087578296661377,0.022661209106445312,-0.023402661085128784
1780001792423275300,15.543275146484374,0.04108011722564697,0.017836570739746094,0.00012939423322677612
1780001792439606800,15.559606689453124,-0.0026377439498901367,0.008152008056640625,0.01987716555595398
1780001792455939800,15.57593994140625,-0.02772665023803711,0.0127410888671875,0.02502971887588501
1780001792472272100,15.592272216796875,-0.014687299728393555,0.007737159729003906,0.025291092693805695
1780001792488584000,15.608583984375,-0.005883216857910156,-0.011637687683105469,0.0065882205963134766
1780001792504942300,15.6249423828125,0.0073746442794799805,-0.0118255615234375,-0.031201086938381195
1780001792521271600,15.641271484375,-0.01236104965209961,-0.016714096069335938,-0.04026777297258377
1780001792537601000,15.65760107421875,-0.012198448181152344,-0.021483421325683594,-0.04420030862092972
1780001792553937000,15.67393701171875,-0.021089792251586914,-0.011810302734375,-0.009787753224372864
1780001792570267400,15.690267333984375,-0.029634833335876465,-0.016435623168945312,0.005274653434753418
1780001792586601500,15.7066015625,-0.01966249942779541,-0.0067043304443359375,0.020116031169891357
1780001792602934300,15.722934326171876,-0.004518747329711914,0.0029964447021484375,0.029727667570114136
1780001792619267600,15.739267578125,0.015302062034606934,0.007893562316894531,0.029600486159324646
1780001792635599400,15.755599365234374,0.030022144317626953,0.02710247039794922,0.02019938826560974
1780001792651932400,15.771932373046875,0.04435014724731445,0.017534255981445312,0.014851823449134827
1780001792668251400,15.78825146484375,0.05799567699432373,0.012635231018066406,0.004802525043487549
1780001792684598500,15.8045986328125,0.04287135601043701,0.022085189819335938,-0.014764271676540375
1780001792700912400,15.820912353515626,0.05168712139129639,0.0028200149536132812,-0.029287859797477722
1780001792717249300,15.837249267578125,0.042438387870788574,-0.011586189270019531,-0.02947995811700821
1780001792733582000,15.85358203125,0.013824224472045898,0.008162498474121094,-0.028772152960300446
1780001792749915000,15.869914794921876,-0.004976511001586914,0.012398719787597656,-0.008959203958511353
1780001792766234600,15.886234619140625,-0.032857537269592285,-0.0018310546875,0.006130099296569824
1780001792782581800,15.902581787109375,-0.03289651870727539,-0.006529808044433594,0.03048575669527054
1780001792798914600,15.91891455078125,-0.01848781108856201,0.012621879577636719,0.05446017533540726
1780001792815256000,15.935256103515625,0.009906768798828125,0.017355918884277344,0.049610503017902374
1780001792831616300,15.9516162109375,0.06628262996673584,0.007610321044921875,0.02143198251724243
1780001792847922400,15.96792236328125,0.10306334495544434,0.0073566436767578125,-0.03547096997499466
1780001792864228900,15.984228759765625,0.07868492603302002,0.017340660095214844,-0.06798785924911499
1780001792880590800,16.0005908203125,0.01677083969116211,0.00720977783203125,-0.048576340079307556
1780001792896907800,16.01690771484375,-0.044179558753967285,-0.015921592712402344,-0.0005503669381141663
1780001792913255200,16.033255126953126,-0.08614492416381836,-0.01634502410888672,0.04314521700143814
1780001792929576700,16.04957666015625,-0.09566044807434082,-0.03538227081298828,0.06244596838951111
1780001792945921800,16.065921875,-0.0758047103881836,-0.029977798461914062,0.019259676337242126
1780001792962249200,16.082249267578124,-0.03297281265258789,-0.010875701904296875,-0.023728691041469574
1780001792978588700,16.098588623046876,0.019483089447021484,0.013020515441894531,-0.051673613488674164
1780001792994911700,16.114911865234376,0.05765485763549805,0.031540870666503906,-0.045900627970695496
1780001793011233000,16.13123291015625,0.04270505905151367,0.0267486572265625,0.021652720868587494
1780001793027567600,16.147567626953126,0.0186232328414917,0.017244338989257812,0.06951265037059784
1780001793043901200,16.163901123046877,-0.01862049102783203,-0.0018320083618164062,0.0747777670621872
1780001793060219000,16.180218994140624,-0.02797400951385498,-0.0065860748291015625,0.05597695708274841
1780001793076573400,16.196573486328123,-0.03262829780578613,-0.006664276123046875,0.007576383650302887
1780001793092900900,16.21290087890625,-0.019150257110595703,-0.0062122344970703125,-0.025292769074440002
1780001793109234700,16.229234619140627,-0.010499000549316406,-0.0021772384643554688,-0.025265872478485107
1780001793125566500,16.24556640625,-0.0017201900482177734,0.0024776458740234375,-0.010818883776664734
1780001793141887500,16.261887451171877,0.0066373348236083984,0.0023717880249023438,0.013311073184013367
1780001793158233600,16.278233642578126,0.0062482357025146484,0.0076904296875,0.003868706524372101
1780001793174579200,16.2945791015625,-0.0030651092529296875,0.0028467178344726562,-0.010223940014839172
1780001793190892800,16.310892822265625,-0.012929677963256836,-0.016347885131835938,-0.01006840169429779
1780001793207229400,16.3272294921875,-0.01771855354309082,-0.006778717041015625,0.004458986222743988
1780001793223560200,16.343560302734375,-0.01775336265563965,-0.006688117980957031,0.014249831438064575
1780001793239885600,16.359885498046875,-0.021875381469726562,0.00238800048828125,0.033766940236091614
1780001793256228000,16.37622802734375,-0.03151535987854004,0.007160186767578125,0.029286213219165802
1780001793272562000,16.39256201171875,-0.02272665500640869,0.002246856689453125,0.019634529948234558
1780001793288893200,16.40889306640625,0.004885554313659668,0.011639595031738281,0.014492496848106384
1780001793305243000,16.425242919921875,0.027739644050598145,0.016252517700195312,0.014071211218833923
1780001793321572900,16.44157275390625,0.017836570739746094,0.011419296264648438,0.023228220641613007
1780001793337902800,16.45790283203125,0.0032296180725097656,-0.0029783248901367188,0.018329128623008728
1780001793354241500,16.474241455078126,-0.016016364097595215,-0.012068748474121094,-0.0008613914251327515
1780001793370572300,16.490572265625,-0.03182375431060791,0.011622428894042969,-0.015444040298461914
1780001793386899500,16.5068994140625,0.009683728218078613,-0.0029878616333007812,-0.03008688986301422
1780001793403224300,16.523224365234373,0.027523398399353027,-0.007990837097167969,-0.03971754014492035
1780001793419566800,16.53956689453125,0.012660026550292969,0.006281852722167969,-0.034853823482990265
1780001793435899100,16.555899169921876,-0.0063817501068115234,0.005696296691894531,-0.005844384431838989
1780001793452234500,16.572234375,-0.01636815071105957,0.0057220458984375,0.013715699315071106
1780001793468563700,16.588563720703124,-0.007082223892211914,-0.008687973022460938,0.0140150785446167
1780001793484903400,16.6049033203125,0.011030077934265137,0.00070953369140625,0.009368591010570526
1780001793501231900,16.62123193359375,0.029035449028015137,0.02444934844970703,0.00043848156929016113
1780001793517568800,16.63756884765625,0.03772890567779541,0.014726638793945312,-0.003939032554626465
1780001793533898800,16.653898681640626,0.03170335292816162,0.033652305603027344,-0.012745201587677002
1780001793550228200,16.670228271484376,0.0022519826889038086,0.014275550842285156,-0.02679578959941864
1780001793566556700,16.686556640625,0.014812350273132324,-0.009962081909179688,-0.030848190188407898
1780001793582896000,16.702896240234374,0.0036971569061279297,-0.015010833740234375,-0.025606468319892883
1780001793599230200,16.719230224609376,-0.021647095680236816,-0.009768486022949219,0.008026666939258575
1780001793615586600,16.735586669921876,-0.05931651592254639,-0.0048809051513671875,0.03697881102561951
1780001793631895800,16.751895751953125,-0.077231764793396,-0.023822784423828125,0.04627348482608795
1780001793648224500,16.768224609375,-0.07645344734191895,-0.02848339080810547,0.03695888817310333
1780001793664545000,16.784544921875,-0.04344367980957031,0.004935264587402344,0.013551972806453705
1780001793680887300,16.80088720703125,0.012694478034973145,0.023267745971679688,0.0044546425342559814
1780001793697211400,16.81721142578125,0.05947422981262207,0.018303871154785156,0.01861073076725006
1780001793713543700,16.833543701171877,0.06288576126098633,0.013391494750976562,0.037615612149238586
1780001793729877200,16.849877197265624,0.03865516185760498,-0.00101470947265625,0.047025516629219055
1780001793746209000,16.866208984375,-0.003957509994506836,0.004347801208496094,0.031932078301906586
1780001793762542300,16.882542236328124,-0.037386298179626465,0.009143829345703125,0.017593279480934143
1780001793778855700,16.898855712890626,-0.03276193141937256,0.009119987487792969,0.012740381062030792
1780001793795222800,16.915222900390624,-0.03791952133178711,-0.005396842956542969,-0.0017919689416885376
1780001793811547400,16.93154736328125,-0.006200432777404785,-0.00629425048828125,-0.011333733797073364
1780001793827870500,16.947870361328125,0.0398944616317749,0.0077667236328125,-0.02986466884613037
1780001793844203800,16.964203857421875,0.06266152858734131,0.002780914306640625,-0.03423777222633362
1780001793860540200,16.9805400390625,0.062299251556396484,0.007599830627441406,-0.00027896463871002197
1780001793876892200,16.99689208984375,0.005509376525878906,0.01727008819580078,0.024196267127990723
1780001793893219000,17.013218994140626,-0.027692556381225586,-0.0018253326416015625,0.03823712468147278
1780001793909532700,17.02953271484375,-0.047150492668151855,0.0029039382934570312,0.02874390035867691
1780001793925887500,17.045887451171875,-0.02425992488861084,0.0033311843872070312,0.014238737523555756
1780001793942195000,17.06219482421875,0.03149843215942383,0.007836341857910156,-0.004351258277893066
1780001793958528800,17.07852880859375,0.05381929874420166,0.01653575897216797,-0.008842185139656067
1780001793974860000,17.094860107421876,0.038558363914489746,0.0026197433471679688,-0.013259470462799072
1780001793991197400,17.111197509765624,0.014253497123718262,-0.01719188690185547,0.001630157232284546
1780001794007522300,17.127522216796876,-0.014219403266906738,-0.021347999572753906,0.006401136517524719
1780001794023855600,17.143855712890623,-0.02806711196899414,-0.011696815490722656,0.016480840742588043
1780001794040184300,17.160184326171876,-0.04619157314300537,0.012399673461914062,0.02628515660762787
1780001794056520000,17.17652001953125,-0.036019206047058105,-0.0024576187133789062,0.026435717940330505
1780001794072852500,17.1928525390625,-0.012104153633117676,0.002323150634765625,0.0267421156167984
1780001794089184000,17.20918408203125,0.025609970092773438,0.026157379150390625,0.017708800733089447
1780001794105531400,17.225531494140625,0.04857468605041504,0.006855964660644531,0.012676693499088287
1780001794121852400,17.241852294921873,0.07133722305297852,0.0019750595092773438,0.017384283244609833
1780001794138194000,17.25819384765625,0.0529477596282959,0.0169525146484375,-0.011136934161186218
1780001794154524000,17.27452392578125,0.015461325645446777,0.021867752075195312,-0.006033480167388916
1780001794170862300,17.2908623046875,-0.05084419250488281,-0.00194549560546875,0.012735418975353241
1780001794187192800,17.30719287109375,-0.06997108459472656,-0.01629924774169922,0.027014881372451782
1780001794203524600,17.323524658203127,-0.03254139423370361,-0.021226882934570312,0.03163943439722061
1780001794219863600,17.339863525390626,0.00479578971862793,-0.0028400421142578125,0.01292169839143753
1780001794236187000,17.356186767578127,0.05222189426422119,0.006665229797363281,-0.011384263634681702
1780001794252523800,17.372523681640626,0.06255614757537842,0.0067920684814453125,-0.02560262382030487
1780001794268858400,17.3888583984375,0.007677316665649414,0.0077056884765625,-0.020563825964927673
1780001794285191000,17.40519091796875,-0.014610528945922852,-0.0015001296997070312,0.008896738290786743
1780001794301534500,17.421534423828124,-0.032111167907714844,0.003559112548828125,0.02824367582798004
1780001794317870300,17.437870361328127,-0.036606788635253906,0.013179779052734375,0.042529866099357605
1780001794334196000,17.454196044921876,0.010486841201782227,0.0076751708984375,0.02350279688835144
1780001794350533600,17.47053369140625,0.033637046813964844,-0.0020170211791992188,0.003703862428665161
1780001794366865400,17.486865478515625,0.047666311264038086,0.012292861938476562,-0.016047403216362
1780001794383196400,17.503196533203123,0.05248880386352539,0.003330230712890625,-0.02596573531627655
1780001794399526400,17.5195263671875,0.03377711772918701,0.0034027099609375,-0.025991469621658325
1780001794415868700,17.53586865234375,0.0009096860885620117,0.0035037994384765625,-0.01184767484664917
1780001794432195800,17.55219580078125,-0.022468924522399902,0.013162612915039062,0.0027796775102615356
1780001794448527400,17.56852734375,-0.021710872650146484,-0.0011682510375976562,-0.006717950105667114
1780001794464861700,17.58486181640625,0.006458163261413574,-0.0012578964233398438,-0.02593974769115448
1780001794481194800,17.60119482421875,0.029705405235290527,0.012984275817871094,-0.044490545988082886
1780001794497526300,17.6175263671875,0.03894639015197754,-0.0062160491943359375,-0.029947087168693542
1780001794513859000,17.633859130859374,0.03868842124938965,-0.01633167266845703,-0.020105361938476562
1780001794530191600,17.650191650390624,0.04841947555541992,0.0028352737426757812,-0.0054624974727630615
1780001794546525700,17.666525634765627,0.015193581581115723,0.026803970336914062,-0.00037866830825805664
1780001794562857200,17.682857177734373,0.01555168628692627,0.026861190795898438,0.009397879242897034
1780001794579188500,17.6991884765625,0.010519266128540039,0.008274078369140625,-0.014435335993766785
1780001794595497500,17.71549755859375,0.014819741249084473,0.008090972900390625,-0.03348027169704437
1780001794611840300,17.73184033203125,0.004084229469299316,-0.0016803741455078125,-0.04819478094577789
1780001794628171300,17.748171142578126,0.0036913156509399414,-0.02089691162109375,-0.0428241491317749
1780001794644506000,17.764506103515625,0.008975386619567871,-0.02082061767578125,-0.01841263473033905
1780001794660825300,17.780825439453125,-0.010053277015686035,0.008007049560546875,0.005976349115371704
1780001794677161000,17.797160888671876,-0.023761510848999023,0.003326416015625,0.01107276976108551
1780001794693492500,17.813492431640626,-0.02359628677368164,0.008137702941894531,0.0015874505043029785
1780001794709825500,17.829825439453124,0.004615068435668945,0.012844085693359375,-0.01775336265563965
1780001794726157800,17.84615771484375,0.017978787422180176,0.0126800537109375,-0.0222901850938797
1780001794742491400,17.862491455078125,0.04658055305480957,0.00299072265625,-0.0463128387928009
1780001794758823000,17.878822998046875,0.03221273422241211,0.007770538330078125,-0.041247978806495667
1780001794775161900,17.895161865234375,0.013682365417480469,0.0030813217163085938,-0.03597673773765564
1780001794791488800,17.91148876953125,-0.023937702178955078,0.007969856262207031,-0.011989772319793701
1780001794807821800,17.92782177734375,-0.024024605751037598,0.012833595275878906,0.012455925345420837
1780001794824156700,17.94415673828125,-0.019193053245544434,0.0032634735107421875,0.02729088068008423
1780001794840488400,17.960488525390623,-0.010086536407470703,-0.006394386291503906,0.018275953829288483
1780001794856819000,17.97681884765625,0.0035418272018432617,-0.0017337799072265625,-0.010240569710731506
1780001794873153300,17.9931533203125,0.022279739379882812,0.007765769958496094,-0.02856685221195221
1780001794889485800,18.00948583984375,0.01842045783996582,-0.0065402984619140625,-0.02346135675907135
1780001794905833700,18.025833740234376,-0.0005120038986206055,0.012731552124023438,-0.009210586547851562
1780001794922162700,18.04216259765625,-0.027947664260864258,-0.006302833557128906,-0.003976449370384216
1780001794938483500,18.0584833984375,-0.032863736152648926,-0.01111602783203125,0.0011290162801742554
1780001794954814700,18.074814697265627,-0.005171656608581543,0.017421722412109375,-0.02260565757751465
1780001794971146200,18.091146240234377,0.01786983013153076,0.01727581024169922,-0.046167805790901184
1780001794987497500,18.10749755859375,0.04618644714355469,-0.006716728210449219,-0.050997599959373474
1780001795003844000,18.123843994140625,0.0177304744720459,-0.0018987655639648438,-0.04542812705039978
1780001795020170000,18.140169921875,-0.034006476402282715,0.017381668090820312,-0.016440942883491516
1780001795036498700,18.156498779296875,-0.03383958339691162,-0.011217117309570312,0.03240807354450226
1780001795052838100,18.172838134765627,-0.02900850772857666,0.0031337738037109375,0.0380588173866272
1780001795069167600,18.189167724609376,-0.029775619506835938,0.012578010559082031,0.023620598018169403
1780001795085507300,18.20550732421875,0.0027399063110351562,-0.0019330978393554688,0.018606364727020264
1780001795101837600,18.221837646484374,0.0394512414932251,-0.02133464813232422,-0.015359774231910706
1780001795118152200,18.238152099609376,0.02920699119567871,-0.0024003982543945312,-0.05393202602863312
1780001795134507300,18.25450732421875,0.005099892616271973,-0.0024271011352539062,-0.054649800062179565
1780001795150826200,18.270826171875,-0.012662887573242188,-0.011769294738769531,-0.021151170134544373
1780001795167151400,18.2871513671875,-0.034893035888671875,-0.0065975189208984375,0.01249629259109497
1780001795183486500,18.303486572265626,-0.033028364181518555,0.0032854080200195312,0.046027086675167084
1780001795199811000,18.31981103515625,-0.01357877254486084,0.03205585479736328,0.02173604816198349
1780001795216150800,18.33615087890625,0.02879941463470459,0.017591476440429688,-0.00692574679851532
1780001795232483300,18.3524833984375,0.07088112831115723,0.007862091064453125,-0.016984999179840088
1780001795248818000,18.36881787109375,0.08465397357940674,0.007168769836425781,-0.007090017199516296
1780001795265153500,18.385153564453127,0.06081438064575195,0.03111743927001953,0.011079251766204834
1780001795281493500,18.401493408203127,0.01359403133392334,0.012684822082519531,0.0394972562789917
1780001795297813000,18.41781298828125,-0.019692659378051758,-0.0016269683837890625,0.028801217675209045
1780001795314160600,18.43416064453125,-0.03916287422180176,-0.0016727447509765625,0.013721272349357605
1780001795330491100,18.4504912109375,-0.03490149974822998,-0.006642341613769531,-0.0010379552841186523
1780001795346828000,18.466828125,0.0026515722274780273,-0.0019807815551757812,-0.015243157744407654
1780001795363160000,18.48316015625,0.04014623165130615,0.012337684631347656,-0.028578251600265503
1780001795379491800,18.499491943359374,0.03577423095703125,0.021971702575683594,-0.023297622799873352
1780001795395825400,18.515825439453124,0.02252817153930664,-0.0017786026000976562,0.01550382375717163
1780001795412154400,18.532154296875,-0.004582047462463379,-0.0015192031860351562,0.04911032319068909
1780001795428491500,18.548491455078125,0.025153636932373047,-0.039646148681640625,0.03144361078739166
1780001795444822300,18.564822265625,0.11009454727172852,-0.025498390197753906,-0.034422799944877625
1780001795461155300,18.5811552734375,0.14819884300231934,0.0030841827392578125,-0.10133819282054901
1780001795477506600,18.597506591796876,0.1975041627883911,0.003326416015625,-0.11985655128955841
1780001795493821400,18.613821533203126,0.21060216426849365,0.05125999450683594,-0.08509491384029388
1780001795510174200,18.63017431640625,0.14792513847351074,0.08065414428710938,-0.07348297536373138
1780001795526477800,18.646477783203125,0.10390269756317139,0.09142494201660156,-0.05663980543613434
1780001795542824700,18.66282470703125,0.05536973476409912,0.015393257141113281,-0.03989988565444946
1780001795559152600,18.679152587890623,0.02400362491607666,-0.0273895263671875,-0.02681940793991089
1780001795575468300,18.69546826171875,0.014084100723266602,0.01565265655517578,0.0014109015464782715
1780001795591816700,18.711816650390624,0.02836763858795166,0.015599250793457031,0.03793784976005554
1780001795608132900,18.7281328125,0.0764763355255127,-0.04709625244140625,0.07278807461261749
1780001795624482300,18.744482421875,0.0882420539855957,0.005869865417480469,0.08003422617912292
1780001795640813800,18.760813720703126,0.043263912200927734,0.05894279479980469,0.06826350092887878
1780001795657130500,18.777130615234373,-0.005963921546936035,0.0121307373046875,0.0879223644733429
1780001795673463000,18.793463134765624,-0.022339582443237305,0.003002166748046875,0.09343131631612778
1780001795689802000,18.809802001953123,-0.04805028438568115,0.0034732818603515625,0.0845286101102829
1780001795706120200,18.8261201171875,-0.07262909412384033,-0.0055484771728515625,0.05751803517341614
1780001795722465000,18.842465087890623,-0.07813072204589844,-0.0192718505859375,0.04031381011009216
1780001795738796300,18.85879638671875,-0.07430493831634521,0.0291595458984375,0.038258522748947144
1780001795755125000,18.875125,-0.05278420448303223,0.04872703552246094,0.06063080579042435
1780001795771471400,18.891471435546876,-0.04618477821350098,0.0680990219116211,0.09810559451580048
1780001795787811300,18.907811279296876,-0.07955801486968994,0.04413414001464844,0.1436433047056198
1780001795804123000,18.924122802734374,-0.10525274276733398,0.010395050048828125,0.1748434156179428
1780001795820453600,18.94045361328125,-0.08785867691040039,-0.04266834259033203,0.14806818962097168
1780001795836806000,18.956805908203126,-0.0760660171508789,-0.04799652099609375,0.07751083374023438
1780001795853139500,18.973139404296877,-0.0926063060760498,-0.04308605194091797,0.0013842880725860596
1780001795869498400,18.989498291015625,-0.10822558403015137,-0.04340934753417969,-0.06469938158988953
1780001795885792000,19.0057919921875,-0.1326901912689209,-0.0340423583984375,-0.12132516503334045
1780001795902140700,19.022140625,-0.16683197021484375,-0.04323863983154297,-0.178414985537529
1780001795918468900,19.03846875,-0.16730940341949463,-0.06736564636230469,-0.2203724980354309
1780001795934799000,19.054799072265624,-0.13886713981628418,-0.08179664611816406,-0.23806436359882355
1780001795951131100,19.071131103515626,-0.13403093814849854,-0.053020477294921875,-0.20663179457187653
1780001795967470800,19.087470947265626,-0.3803313970565796,-0.11006450653076172,-0.0488804429769516
1780001795983799600,19.103799560546875,-0.30047643184661865,0.04730987548828125,0.05235518515110016
1780001796000136200,19.12013623046875,-0.27415239810943604,0.14148330688476562,0.20475535094738007
1780001796016447000,19.136447021484376,0.0617908239364624,0.14374542236328125,0.18835291266441345
1780001796032798200,19.152798095703126,0.4663583040237427,0.07299232482910156,0.1089719757437706
1780001796049139700,19.1691396484375,0.43959736824035645,-0.11518192291259766,0.04345574975013733
1780001796065446000,19.18544580078125,0.24604082107543945,0.037131309509277344,-0.04555483162403107
1780001796081805300,19.201805419921875,0.03678405284881592,0.17101001739501953,-0.08380378782749176
1780001796098128600,19.218128662109375,-0.0035592317581176758,-0.06872272491455078,-0.08505575358867645
1780001796114462000,19.2344619140625,-0.00823676586151123,-0.17835140228271484,-0.08146205544471741
1780001796130794500,19.25079443359375,-0.06971347332000732,-0.029679298400878906,-0.03235079348087311
1780001796147110700,19.267110595703127,-0.13907063007354736,0.05767822265625,0.0535300076007843
1780001796163445800,19.28344580078125,-0.21411573886871338,-0.04250621795654297,0.17462033033370972
1780001796179775000,19.29977490234375,-0.1791398525238037,-0.09092330932617188,0.1890515387058258
1780001796196096800,19.3160966796875,-0.08668935298919678,-0.0244598388671875,0.12244901061058044
1780001796212428500,19.332428466796873,0.014080405235290527,0.05697154998779297,0.04987849295139313
1780001796228766700,19.3487666015625,0.10247981548309326,-0.0000324249267578125,0.0055643171072006226
1780001796245109800,19.36510986328125,0.15630102157592773,-0.10996818542480469,-0.04883134365081787
1780001796261455400,19.381455322265627,0.1587916612625122,-0.3307790756225586,-0.11263786256313324
1780001796277797000,19.397797119140623,0.1487823724746704,-0.039910316467285156,-0.18098081648349762
1780001796294120000,19.414119873046875,0.0728687047958374,0.16559219360351562,-0.21165290474891663
1780001796310441500,19.43044140625,0.031763434410095215,0.23690509796142578,-0.19326606392860413
1780001796326787000,19.446787109375,0.05391395092010498,0.07328605651855469,-0.1363029181957245
1780001796343119600,19.46311962890625,0.041290283203125,0.04886913299560547,-0.06588122248649597
1780001796359452000,19.479451904296877,0.06999504566192627,0.10562515258789062,-0.029080331325531006
1780001796375784000,19.495783935546875,0.12377727031707764,0.009320259094238281,-0.030596792697906494
1780001796392117200,19.5121171875,0.14680910110473633,0.05225849151611328,-0.06928335130214691
1780001796408429600,19.5284296875,0.14301371574401855,-0.009754180908203125,-0.08550587296485901
1780001796424788700,19.544788818359375,0.12449479103088379,0.019084930419921875,-0.0862329751253128
1780001796441104000,19.561103759765626,0.048716068267822266,0.11498451232910156,-0.05021652579307556
1780001796457448000,19.577447998046875,0.036452651023864746,0.05331897735595703,0.022587880492210388
1780001796473781000,19.593781005859373,0.019729137420654297,0.09212970733642578,0.05097284913063049
1780001796490113000,19.610113037109375,-0.04157829284667969,0.26963233947753906,0.05223962664604187
1780001796506445300,19.6264453125,0.16083478927612305,-0.2565727233886719,0.03398580849170685
1780001796522777900,19.64277783203125,0.06488692760467529,-0.050742149353027344,-0.04767425358295441
1780001796539112000,19.65911181640625,0.05831754207611084,0.026432037353515625,-0.10021230578422546
1780001796555426800,19.6754267578125,0.08166337013244629,0.0702676773071289,-0.08783546090126038
1780001796571761400,19.691761474609375,0.19152581691741943,0.1712188720703125,-0.04715026915073395
1780001796588108800,19.70810888671875,0.19190537929534912,0.03901100158691406,0.04215143620967865
1780001796604442000,19.724442138671876,-0.03703510761260986,-0.15932750701904297,0.18627260625362396
1780001796620771600,19.740771484375,-0.24184060096740723,-0.19437217712402344,0.2609890103340149
1780001796637099800,19.757099853515626,-0.42855608463287354,-0.15404701232910156,0.2410171926021576
1780001796653425400,19.77342529296875,-0.6354885697364807,-0.043670654296875,0.10886555910110474
1780001796669746200,19.78974609375,-0.6006138324737549,-0.068328857421875,0.0003972947597503662
1780001796686090800,19.8060908203125,-0.26592206954956055,-0.12778949737548828,-0.08207044005393982
1780001796702424800,19.8224248046875,0.10915148258209229,-0.010381698608398438,-0.1316799819469452
1780001796718756000,19.838756103515625,0.37554335594177246,-0.02149677276611328,-0.15049557387828827
