time,seconds_elapsed,z,y,x
1780001777005077500,0.125077392578125,0.09865473955869675,-2.0361666679382324,1.021824836730957
1780001777021407000,0.141406982421875,0.10216721147298813,-2.2814290523529053,1.0290025472640991
1780001777037758500,0.157758544921875,0.37720927596092224,-2.2059872150421143,1.1065824031829834
1780001777054089200,0.174089111328125,0.2151772826910019,-2.277458429336548,1.073595643043518
1780001777070422800,0.1904228515625,-0.4688390791416168,-2.908482074737549,0.9995282292366028
1780001777086756000,0.206756103515625,-0.7661777138710022,-2.8964176177978516,0.8802568316459656
1780001777103087400,0.22308740234375,0.3868304193019867,-1.8544341325759888,0.08827003091573715
1780001777119420700,0.239420654296875,1.726763367652893,-1.5900822877883911,-1.2163853645324707
1780001777135771400,0.255771484375,2.129476308822632,-1.207375168800354,-1.5879441499710083
1780001777152100400,0.272100341796875,2.174680233001709,-1.7424931526184082,-1.2919800281524658
1780001777168455400,0.288455322265625,2.0867156982421875,-2.9025261402130127,-0.5342016816139221
1780001777184762400,0.304762451171875,1.9223929643630981,-4.311792373657227,-0.2889392673969269
1780001777201086500,0.32108642578125,2.0700695514678955,-5.058422565460205,-0.6055201888084412
1780001777217401300,0.3374013671875,2.55754017829895,-5.155397415161133,-0.8561276197433472
1780001777233755000,0.3537548828125,3.3228015899658203,-5.358051776885986,-0.674089789390564
1780001777250083800,0.370083740234375,3.983299493789673,-5.251608371734619,-0.2941316068172455
1780001777266417400,0.38641748046875,4.124256610870361,-4.960683822631836,0.029016099870204926
1780001777282746000,0.40274609375,3.9820778369903564,-4.190535545349121,0.18646661937236786
1780001777299073300,0.4190732421875,3.9041924476623535,-2.6894869804382324,0.06582073122262955
1780001777315415300,0.435415283203125,3.924809217453003,-1.4008667469024658,-0.28695395588874817
1780001777331748900,0.451748779296875,3.6774086952209473,-0.6698137521743774,-0.4170682430267334
1780001777348080600,0.46808056640625,3.333644390106201,-0.47082439064979553,-0.13897185027599335
1780001777364415700,0.484415771484375,2.956434965133667,-0.5905539989471436,0.3614795207977295
1780001777380746800,0.500746826171875,2.4465153217315674,-1.0784826278686523,1.268614411354065
1780001777397067300,0.5170673828125,1.9023871421813965,-1.260062336921692,2.2713496685028076
1780001777413412600,0.53341259765625,1.228297233581543,-1.221577763557434,2.9933924674987793
1780001777429746400,0.549746337890625,0.9095783233642578,-0.4031710624694824,3.12900447845459
1780001777446078000,0.566077880859375,1.0082330703735352,0.7411322593688965,2.696817398071289
1780001777462412000,0.582412109375,1.30496084690094,1.6992744207382202,2.140471935272217
1780001777478744000,0.598744140625,1.4984524250030518,1.982105016708374,1.8700112104415894
1780001777495088600,0.615088623046875,1.764331579208374,1.46424400806427,1.9828685522079468
1780001777511411200,0.6314111328125,2.0309741497039795,0.8686503767967224,2.222175121307373
1780001777527736800,0.64773681640625,2.1334469318389893,0.36529740691185,2.1459696292877197
1780001777544078600,0.66407861328125,2.1586451530456543,-0.8941540122032166,1.1183415651321411
1780001777560406000,0.680406005859375,2.236072301864624,-1.3083206415176392,-0.08338310569524765
1780001777576744200,0.696744140625,2.707354784011841,-0.3608686327934265,-0.8231409192085266
1780001777593056000,0.713055908203125,3.4990360736846924,-0.25931230187416077,-1.0742065906524658
1780001777609394000,0.729393798828125,3.7620136737823486,0.10002918541431427,-0.23487769067287445
1780001777625741000,0.745740966796875,2.6477954387664795,-0.05726861581206322,0.6988298296928406
1780001777642072800,0.76207275390625,1.5865697860717773,-0.2393064647912979,1.4303410053253174
1780001777658421000,0.7784208984375,1.6064229011535645,-0.3381139039993286,2.200031280517578
1780001777674749200,0.794749267578125,1.9854648113250732,-1.3458888530731201,2.079843521118164
1780001777691070000,0.811070068359375,1.1649199724197388,-2.6061038970947266,0.30925053358078003
1780001777707388000,0.827387939453125,0.489608496427536,-2.158339738845825,-0.5305364727973938
1780001777723737900,0.84373779296875,0.6149885654449463,-1.9851592779159546,-0.4080579876899719
1780001777740068900,0.86006884765625,1.0569496154785156,-2.8913779258728027,-0.1644754707813263
1780001777756404200,0.876404296875,0.963792622089386,-3.4067955017089844,-0.327271044254303
1780001777772735500,0.892735595703125,0.2811507284641266,-3.291800022125244,-1.1786644458770752
1780001777789069600,0.909069580078125,-0.2773328125476837,-3.0673069953918457,-2.5303566455841064
1780001777805401300,0.9254013671875,-0.41661009192466736,-3.6645805835723877,-3.3124167919158936
1780001777821735700,0.941735595703125,-0.14156801998615265,-5.13737678527832,-3.0445523262023926
1780001777846234000,0.966234130859375,0.24572055041790009,-5.774356365203857,-2.2395846843719482
1780001777862566100,0.982566162109375,0.726471483707428,-5.309335231781006,-2.246609687805176
1780001777878899700,0.998899658203125,1.472490668296814,-3.9374847412109375,-2.2366831302642822
1780001777895232300,1.015232177734375,2.004248857498169,-3.106555223464966,-1.3057245016098022
1780001777911565300,1.0315654296875,2.338697671890259,-2.7046058177948,-0.00809396430850029
1780001777927897600,1.047897705078125,2.7374398708343506,-0.9943358898162842,0.9097310900688171
1780001777944219600,1.0642197265625,3.330437421798706,0.17623461782932281,1.0004445314407349
1780001777960567300,1.0805673828125,3.623041868209839,1.0175487995147705,1.0551170110702515
1780001777976893700,1.096893798828125,4.094171524047852,1.4074335098266602,0.1667662113904953
1780001777993227300,1.113227294921875,4.05660343170166,2.031890630722046,-0.6104071140289307
1780001778009564200,1.129564208984375,2.654515027999878,1.4787520170211792,-0.6557638645172119
1780001778025892400,1.145892333984375,0.6885978579521179,0.24923302233219147,-0.671493649482727
1780001778042230800,1.162230712890625,-1.1380419731140137,-1.863444447517395,-0.7435756921768188
1780001778058557200,1.17855712890625,-1.8881844282150269,-2.313957452774048,-1.0213667154312134
1780001778074896100,1.194896240234375,-1.9214766025543213,-1.845423936843872,-1.2402092218399048
1780001778091226600,1.2112265625,-1.485166072845459,-2.7087292671203613,-0.8489499688148499
1780001778107561500,1.2275615234375,-1.00197172164917,-2.5361597537994385,0.5714644193649292
1780001778123906000,1.243906005859375,-0.03130684420466423,-1.5503759384155273,1.787697196006775
1780001778140222700,1.26022265625,1.1009318828582764,-1.395827054977417,1.4540120363235474
1780001778156572200,1.276572265625,1.4017829895019531,-0.45921793580055237,0.8520042896270752
1780001778172905500,1.292905517578125,0.7429648637771606,-0.30833423137664795,0.5797111392021179
1780001778189224400,1.309224365234375,0.47418415546417236,-0.294437050819397,0.4254676401615143
1780001778205554200,1.32555419921875,0.5705481171607971,0.19776763021945953,0.23258693516254425
1780001778221889500,1.3418896484375,0.3634648323059082,0.1495092660188675,-0.059406645596027374
1780001778238209300,1.358209228515625,0.022143865004181862,-0.17577648162841797,-0.3090978264808655
1780001778254555000,1.374554931640625,-0.1014036312699318,-0.033597588539123535,-0.4873177409172058
1780001778270888400,1.390888427734375,-0.43967026472091675,0.02825251780450344,-0.49617528915405273
1780001778287210500,1.40721044921875,-1.09024178981781,-0.23365595936775208,-0.25106561183929443
1780001778303565300,1.4235654296875,-2.065946340560913,-0.8228355050086975,0.098502017557621
1780001778319901700,1.439901611328125,-2.4420864582061768,-0.9842566251754761,0.27641651034355164
1780001778336234500,1.456234375,-2.275014877319336,-0.4337143301963806,-0.08338310569524765
1780001778352554000,1.472553955078125,-2.258979558944702,0.4008803069591522,-0.5293147563934326
1780001778368885800,1.4888857421875,-2.6358835697174072,0.5493205785751343,-0.6527095437049866
1780001778385218000,1.505218017578125,-2.817005157470703,-0.08170322328805923,-0.29275718331336975
1780001778401553200,1.52155322265625,-1.58259916305542,-1.0236574411392212,-0.01710422709584236
1780001778417882400,1.53788232421875,-0.13240504264831543,-1.5166256427764893,0.039095375686883926
1780001778434217500,1.554217529296875,0.2932153046131134,-1.4384349584579468,0.19456058740615845
1780001778450552000,1.570552001953125,-0.05421429127454758,-0.34284812211990356,0.48838675022125244
1780001778466899700,1.586899658203125,-0.2971859276294708,0.0858265683054924,0.361174076795578
1780001778483208200,1.603208251953125,0.14996741712093353,0.2733621895313263,0.07864890247583389
1780001778499550700,1.61955078125,1.2544118165969849,0.6157521605491638,-0.16722436249256134
1780001778515881000,1.635880859375,2.258216142654419,1.4451544284820557,-0.0006108652451075613
1780001778532214300,1.65221435546875,2.755918502807617,2.046245813369751,0.25564709305763245
1780001778548547000,1.668547119140625,2.4908030033111572,1.470963478088379,0.3790418803691864
1780001778564880000,1.6848798828125,1.0016663074493408,-0.8443684577941895,0.5835290551185608
1780001778581208300,1.701208251953125,-1.3851369619369507,-2.5870141983032227,0.9437867999076843
1780001778597548800,1.717548828125,-3.015688896179199,-1.6362025737762451,0.7179193496704102
1780001778613878500,1.73387841796875,-2.89229416847229,0.8770498037338257,0.47800204157829285
1780001778630211600,1.750211669921875,-2.2284364700317383,1.702786922454834,0.07070764899253845
1780001778646548000,1.7665478515625,-2.4434609413146973,2.1852176189422607,-0.017409659922122955
1780001778662873600,1.78287353515625,-4.032016277313232,1.5306755304336548,-0.024892758578062057
1780001778679206100,1.7992060546875,-5.219690799713135,0.6656904220581055,-0.15546520054340363
1780001778695543800,1.815543701171875,-3.1468722820281982,-0.40194934606552124,-0.20723603665828705
1780001778711869400,1.831869384765625,-0.05955936014652252,-1.944536805152893,-0.152105450630188
1780001778728191200,1.848191162109375,1.0939068794250488,-2.5340218544006348,-0.5019785165786743
1780001778744541700,1.864541748046875,1.494939923286438,-2.2621867656707764,-0.18738290667533875
1780001778760861400,1.880861328125,1.6578882932662964,-2.392911911010742,0.9066767692565918
1780001778777205000,1.897205078125,0.32971450686454773,-2.4391849040985107,0.7044803500175476
1780001778793539800,1.913539794921875,-1.4718798398971558,-2.015549898147583,-0.21273382008075714
1780001778809873400,1.929873291015625,-1.624901533126831,-1.6140587329864502,-1.5419765710830688
1780001778826223000,1.94622314453125,-0.2583959996700287,-1.270447015762329,-1.9127718210220337
1780001778842537500,1.962537353515625,0.9865473508834839,0.313373863697052,-0.9500481486320496
1780001778858871800,1.978871826171875,2.7151432037353516,0.9683741331100464,0.22021691501140594
1780001778875199500,1.995199462890625,5.208389759063721,1.334282398223877,1.1869112253189087
1780001778891542500,2.01154248046875,6.593221187591553,1.4958562850952148,1.4764612913131714
1780001778907869700,2.02786962890625,6.29252290725708,3.0976977348327637,1.740355134010315
1780001778924203500,2.04420361328125,4.928308010101318,6.2238006591796875,2.6722300052642822
1780001778940536000,2.0605361328125,5.238780498504639,5.854532718658447,3.277597427368164
1780001778956883500,2.076883544921875,5.777868747711182,3.509420871734619,3.180011749267578
1780001778973207800,2.093207763671875,4.970763206481934,3.3405165672302246,3.0804407596588135
1780001778989532700,2.10953271484375,3.617849349975586,2.56563401222229,2.955671548843384
1780001779005868500,2.12586865234375,2.02120041847229,-0.5070181488990784,2.442850112915039
1780001779022199300,2.14219921875,0.20693060755729675,-4.156479835510254,1.076344609260559
1780001779038539500,2.15853955078125,-1.4856243133544922,-5.60911750793457,-0.08445212244987488
1780001779054866000,2.174865966796875,-2.0871739387512207,-2.359161615371704,0.46150869131088257
1780001779071211800,2.191211669921875,-2.177123785018921,1.516014814376831,0.43020185828208923
1780001779087531500,2.207531494140625,-2.1322250366210938,3.082273244857788,-0.1518000066280365
1780001779103865300,2.223865234375,-1.9170478582382202,2.6190848350524902,-0.9489791393280029
1780001779120212000,2.2402119140625,-0.6139195561408997,0.2970332205295563,-0.8541423082351685
1780001779136544300,2.256544189453125,0.07116580009460449,-1.550986886024475,-1.0629055500030518
1780001779152875000,2.272875,0.8730791807174683,-1.3533719778060913,-1.056796908378601
1780001779169200400,2.289200439453125,1.6601790189743042,0.0039706239476799965,-0.6650795340538025
1780001779185543200,2.305543212890625,2.0839667320251465,1.356731653213501,-0.06062837690114975
1780001779201875200,2.321875244140625,2.3347270488739014,1.4509576559066772,0.08628471940755844
1780001779218183000,2.338182861328125,2.166586399078369,0.8865181803703308,0.3266601860523224
1780001779234527700,2.35452783203125,1.0803152322769165,0.21090123057365417,0.6246097087860107
1780001779250860300,2.3708603515625,0.1941024363040924,-0.29825496673583984,0.7431175708770752
1780001779267187200,2.387187255859375,-0.14278975129127502,0.09651670604944229,0.437226802110672
1780001779283526400,2.4035263671875,-0.12751811742782593,0.3399465084075928,-0.020005837082862854
1780001779299854300,2.419854248046875,0.09025534242391586,-0.31261029839515686,-0.22907446324825287
1780001779316200200,2.4362001953125,0.05451972410082817,-1.2724323272705078,-0.22907446324825287
1780001779332531200,2.45253125,0.07696902006864548,-2.0427334308624268,-0.22098049521446228
1780001779348848600,2.4688486328125,0.17150041460990906,-2.507296323776245,-0.15393804013729095
1780001779365190000,2.48518994140625,0.2643519341945648,-2.5780041217803955,0.04535674303770065
1780001779381508400,2.50150830078125,0.30711251497268677,-2.331214427947998,0.3176499307155609
1780001779397856300,2.517856201171875,0.2620611786842346,-1.8944458961486816,0.5781839489936829
1780001779414189000,2.53418896484375,0.13026700913906097,-1.5428929328918457,0.7661777138710022
1780001779430521900,2.55052197265625,-0.060933809727430344,-1.4422528743743896,0.8458956480026245
1780001779446855000,2.56685498046875,-0.25014930963516235,-1.371850609779358,0.8465065360069275
1780001779463197700,2.58319775390625,-0.3666718602180481,-1.0806206464767456,0.6563746929168701
1780001779479525000,2.599525146484375,-0.34284812211990356,-0.5551238059997559,0.21639901399612427
1780001779495853300,2.615853271484375,-0.16019940376281738,0.23105977475643158,-0.21624629199504852
1780001779512186600,2.6321865234375,-0.03390302136540413,0.8885034918785095,-0.43997567892074585
1780001779528519400,2.64851953125,-0.1443169116973877,1.1921035051345825,-0.4103487432003021
1780001779544852500,2.6648525390625,-0.3023782968521118,1.3678799867630005,-0.20861047506332397
1780001779561184300,2.681184326171875,-0.35124751925468445,1.4175127744674683,0.002138028386980295
1780001779577517300,2.697517333984375,-0.28038713335990906,1.201724648475647,0.06108652427792549
1780001779593851100,2.71385107421875,-0.1459967941045761,0.8002334833145142,-0.06490442901849747
1780001779610180600,2.7301806640625,0.1007927656173706,0.4343251883983612,-0.30970868468284607
1780001779626519300,2.746519287109375,0.25564709305763245,0.1537853181362152,-0.3828597962856293
1780001779642849000,2.76284912109375,0.18600846827030182,-0.03420845419168472,-0.23105977475643158
1780001779659180800,2.779180908203125,0.017562376335263252,-0.12232576310634613,0.03573561832308769
1780001779675517000,2.795516845703125,-0.10186178237199783,-0.1794416606426239,0.23945917189121246
1780001779691861000,2.811861083984375,-0.12400564551353455,-0.28099802136421204,0.2799290120601654
1780001779708194000,2.828194091796875,-0.06612616032361984,-0.3225368559360504,0.18448130786418915
1780001779724511200,2.84451123046875,-0.004428773187100887,-0.21853704750537872,0.036041051149368286
1780001779740860000,2.86085986328125,0.030695978552103043,-0.015271631069481373,-0.07391469180583954
1780001779757190400,2.8771904296875,0.01817324012517929,0.18051068484783173,-0.1186605766415596
1780001779773490700,2.89349072265625,-0.02229658141732216,0.3260493278503418,-0.10567969083786011
1780001779789832700,2.909832763671875,-0.050854530185461044,0.38026362657546997,-0.07147123664617538
1780001779806165800,2.926165771484375,-0.03985895588994026,0.3199406862258911,-0.04703662544488907
1780001779822498600,2.94249853515625,-0.021380282938480377,0.2096794992685318,-0.026572637259960175
1780001779838832000,2.95883203125,-0.01038470957428217,0.11698069423437119,0.0006108652451075613
1780001779855163400,2.975163330078125,-0.007024950347840786,0.06368270516395569,0.018325956538319588
1780001779871498500,2.99149853515625,-0.012522737495601177,0.048105638474226,0.019089538604021072
1780001779887843800,3.00784375,-0.016798794269561768,0.0656680166721344,0.021380282938480377
1780001779904175000,3.024175048828125,-0.01618792861700058,0.09941831976175308,0.02382374368607998
1780001779920505000,3.040505126953125,-0.020922135561704636,0.14156801998615265,0.010231993161141872
1780001779936842800,3.0568427734375,-0.024434609338641167,0.19822576642036438,-0.011453723534941673
1780001779953170200,3.073170166015625,-0.02076941914856434,0.2695443034172058,-0.023976460099220276
1780001779969509600,3.089509521484375,-0.02474004216492176,0.32039880752563477,-0.03344487398862839
1780001779985839400,3.10583935546875,-0.030543262138962746,0.32528573274612427,-0.03680463135242462
1780001780002159000,3.1221591796875,-0.02229658141732216,0.3003929853439331,-0.015882495790719986
1780001780018504700,3.138504638671875,-0.008857546374201775,0.25564709305763245,0.013439035043120384
1780001780034839800,3.15483984375,0.004886921960860491,0.20983220636844635,0.030543262138962746
1780001780051166000,3.171166015625,0.010690141469240189,0.17776179313659668,0.030237829312682152
1780001780067507500,3.187507568359375,0.009926560334861279,0.1742493063211441,0.021532999351620674
1780001780083850200,3.203850341796875,0.011301007121801376,0.1966986060142517,0.009468411095440388
1780001780100183600,3.22018359375,0.007635815534740686,0.22602014243602753,-0.01191187184303999
1780001780116514600,3.2365146484375,-0.005345070734620094,0.24816401302814484,-0.03191770985722542
1780001780132849200,3.25284912109375,-0.013133603148162365,0.24572055041790009,-0.04306599870324135
1780001780149181200,3.26918115234375,-0.010537425056099892,0.21105393767356873,-0.04459316283464432
1780001780165515000,3.285514892578125,0.003054326167330146,0.1368338167667389,-0.04092797264456749
1780001780181859300,3.301859375,0.007635815534740686,0.03145955875515938,-0.027030786499381065
1780001780198181400,3.318181396484375,0.005497787147760391,-0.08017606288194656,-0.003817907767370343
1780001780214493200,3.3344931640625,-0.001527163083665073,-0.17318029701709747,0.02886338345706463
1780001780230828800,3.350828857421875,-0.00931569468230009,-0.22571471333503723,0.05192354694008827
1780001780247162400,3.367162353515625,-0.017867809161543846,-0.23350323736667633,0.04886921867728233
1780001780263495400,3.383495361328125,-0.023976460099220276,-0.21013765037059784,0.026419922709465027
1780001780279818500,3.399818603515625,-0.029016099870204926,-0.15622878074645996,-0.003512475173920393
1780001780296160300,3.41616015625,-0.03787364438176155,-0.09040805697441101,-0.03191770985722542
1780001780312500000,3.4325,-0.0455094613134861,-0.04596760869026184,-0.04688390716910362
1780001780328829700,3.44882958984375,-0.03344487398862839,-0.0377209298312664,-0.036651913076639175
1780001780345160200,3.46516015625,-0.013439035043120384,-0.05864306539297104,-0.01817324012517929
1780001780361494000,3.481493896484375,-0.00045814894838258624,-0.09483683109283447,-0.009773843921720982
1780001780377817600,3.497817626953125,0.01160643994808197,-0.12538009881973267,0.002138028386980295
1780001780394161000,3.514160888671875,0.02580905705690384,-0.14813482761383057,0.022602014243602753
1780001780410493700,3.53049365234375,0.012522737495601177,-0.16249015927314758,0.003817907767370343
1780001780426826200,3.546826171875,0.007635815534740686,-0.12186761945486069,-0.022602014243602753
1780001780443177500,3.563177490234375,0.013439035043120384,-0.04749477282166481,-0.02779436856508255
1780001780459489000,3.579489013671875,0.0074830991216003895,0.018478672951459885,-0.031612277030944824
1780001780475825000,3.595824951171875,-0.014966198243200779,0.06673702597618103,-0.043676864355802536
1780001780492158000,3.612157958984375,-0.03420845419168472,0.10445795953273773,-0.05650503560900688
1780001780508475000,3.628474853515625,-0.033597588539123535,0.1414152979850769,-0.05619960278272629
1780001780524812500,3.6448125,-0.0064140851609408855,0.14492778480052948,-0.04077525436878204
1780001780541144000,3.66114404296875,-0.007177666760981083,0.10461067408323288,-0.03390302136540413
1780001780557479700,3.677479736328125,-0.009621127508580685,0.055283304303884506,-0.014202617108821869
1780001780573811500,3.6938115234375,-0.02733621932566166,-0.0025961773935705423,0.03481931984424591
1780001780590142700,3.710142822265625,-0.02977968007326126,-0.054825156927108765,0.10384709388017654
1780001780606475300,3.726475341796875,-0.028099801391363144,-0.10949759185314178,0.1485929638147354
1780001780622808300,3.742808349609375,-0.03191770985722542,-0.1774563491344452,0.1463022232055664
1780001780639140000,3.75914013671875,-0.036193765699863434,-0.21762074530124664,0.09346238523721695
1780001780655474700,3.775474609375,-0.01863138936460018,-0.22159136831760406,0.04749477282166481
1780001780671806000,3.791805908203125,0.021991148591041565,-0.2695443034172058,0.014202617108821869
1780001780688140000,3.80814013671875,0.05619960278272629,-0.34513887763023376,-0.044745877385139465
1780001780704473000,3.82447314453125,0.08338310569524765,-0.3701843321323395,-0.09346238523721695
1780001780720806100,3.84080615234375,0.08994990587234497,-0.36224308609962463,-0.10125091671943665
1780001780737138200,3.85713818359375,0.04932736977934837,-0.3445279896259308,-0.08368854224681854
1780001780753472300,3.87347216796875,-0.00366519158706069,-0.3121521472930908,-0.055894169956445694
1780001780769804000,3.889803955078125,-0.013133603148162365,-0.25366178154945374,-0.0064140851609408855
1780001780786136800,3.90613671875,0.020616702735424042,-0.1540907621383667,0.05009094998240471
1780001780802470000,3.922469970703125,0.031154127791523933,-0.06291911751031876,0.07819075137376785
1780001780818803700,3.9388037109375,0.007788531947880983,-0.005192354787141085,0.06765332818031311
1780001780835139800,3.955139892578125,0.0029016099870204926,0.015882495790719986,0.021838432177901268
1780001780851468000,3.971468017578125,0.04046982154250145,-0.007024950347840786,-0.0455094613134861
1780001780867800300,3.98780029296875,0.07971791177988052,-0.08720101416110992,-0.07238753139972687
1780001780884148700,4.004148681640625,0.08521570265293121,-0.18066339194774628,-0.02519819140434265
1780001780900480300,4.020480224609375,0.058948494493961334,-0.25534167885780334,0.0757472887635231
1780001780916810200,4.036810302734375,0.027488935738801956,-0.2831360399723053,0.17348572611808777
1780001780933147100,4.053147216796875,-0.001832595793530345,-0.23945917189121246,0.21212296187877655
1780001780949474300,4.069474365234375,-0.048716504126787186,-0.052839845418930054,0.14752395451068878
1780001780965793000,4.08579296875,-0.09682214260101318,0.31932979822158813,0.012522737495601177
1780001780982144000,4.10214404296875,-0.09315694868564606,0.6852380633354187,-0.14569136500358582
1780001780998480400,4.11848046875,-0.06200282275676727,0.7722864151000977,-0.2611449062824249
1780001781014809600,4.1348095703125,-0.042760565876960754,0.5884159207344055,-0.2874121069908142
1780001781031143400,4.151143310546875,-0.03039054572582245,0.26801711320877075,-0.23075434565544128
1780001781047491000,4.167490966796875,-0.010690141469240189,-0.07559457421302795,-0.11835514008998871
1780001781063821300,4.1838212890625,0.019853120669722557,-0.36621370911598206,0.01191187184303999
1780001781080155000,4.20015478515625,0.038637228310108185,-0.5451972484588623,0.11407908797264099
1780001781096488000,4.216488037109375,0.03344487398862839,-0.5810855627059937,0.14126259088516235
1780001781112820700,4.23282080078125,0.035582900047302246,-0.4521929919719696,0.10705413669347763
1780001781129153000,4.249153076171875,0.04153883829712868,-0.22082778811454773,0.060475658625364304
1780001781145469200,4.26546923828125,0.029016099870204926,-0.01725694350898266,0.02474004216492176
1780001781161819100,4.281819091796875,0.01817324012517929,0.057879481464624405,0.01237002108246088
1780001781178124800,4.298124755859375,0.025656340643763542,-0.009010262787342072,0.015271631069481373
1780001781194477000,4.31447705078125,0.04489859566092491,-0.1589776873588562,0.029474247246980667
1780001781210807600,4.3308076171875,0.06001751124858856,-0.29657506942749023,0.06276640295982361
1780001781227150300,4.347150390625,0.06429356336593628,-0.34926220774650574,0.10980302840471268
1780001781243477500,4.3634775390625,0.05665775015950203,-0.3539963960647583,0.11698069423437119
1780001781259814100,4.379814208984375,0.04703662544488907,-0.31581732630729675,0.08704829961061478
1780001781276136200,4.39613623046875,0.04535674303770065,-0.22663100063800812,0.05375614017248154
1780001781292481300,4.412481201171875,0.03756821155548096,-0.11591167747974396,0.04337143152952194
1780001781308787700,4.42878759765625,0.027030786499381065,-0.039706241339445114,0.04184427112340927
1780001781325143600,4.4451435546875,0.0354301854968071,-0.019394971430301666,0.0429132841527462
1780001781341453600,4.46145361328125,0.032528575509786606,-0.03848451003432274,0.04138612002134323
1780001781357799400,4.47779931640625,0.01618792861700058,-0.05268712714314461,0.04657847434282303
1780001781374132000,4.494132080078125,0.017409659922122955,-0.06368270516395569,0.05955936014652252
1780001781390463500,4.51046337890625,0.024892758578062057,-0.07422012835741043,0.07666359096765518
1780001781406798000,4.526798095703125,0.025656340643763542,-0.07177666574716568,0.08720101416110992
1780001781423130000,4.543130126953125,0.044745877385139465,-0.05726861581206322,0.09728029370307922
1780001781439464700,4.559464599609375,0.07269296050071716,-0.06276640295982361,0.09957103431224823
1780001781455795700,4.575795654296875,0.07620543986558914,-0.09117163717746735,0.08949175477027893
1780001781472129300,4.59212939453125,0.07009678333997726,-0.10506882518529892,0.07712173461914062
1780001781488462000,4.608462158203125,0.05955936014652252,-0.07223481684923172,0.0555887371301651
1780001781504792000,4.6247919921875,0.03039054572582245,0.021991148591041565,0.03145955875515938
1780001781521126100,4.641126220703125,0.017867809161543846,0.13179416954517365,-0.004734205547720194
1780001781537462500,4.657462646484375,0.018478672951459885,0.17806722223758698,-0.027030786499381065
1780001781553792300,4.673792236328125,0.008857546374201775,0.14844025671482086,-0.026572637259960175
1780001781570114600,4.690114501953125,-0.009010262787342072,0.07864890247583389,-0.007788531947880983
1780001781586456300,4.706456298828125,-0.019089538604021072,0.010842857882380486,0.012675453908741474
1780001781602806000,4.722805908203125,-0.014202617108821869,-0.031612277030944824,0.012217304669320583
1780001781619112700,4.73911279296875,-0.014508049935102463,-0.043218716979026794,-0.0065668015740811825
1780001781635455500,4.75545556640625,-0.01970040425658226,-0.02977968007326126,-0.022602014243602753
1780001781651793400,4.77179345703125,-0.01924225501716137,0.010537425056099892,-0.030543262138962746
1780001781668129300,4.78812939453125,-0.022602014243602753,0.06261368840932846,-0.052228979766368866
1780001781684488400,4.804488525390625,-0.02932153269648552,0.11835514008998871,-0.07238753139972687
1780001781700803300,4.82080322265625,-0.035582900047302246,0.156686931848526,-0.07712173461914062
1780001781717134000,4.837134033203125,-0.042760565876960754,0.15454891324043274,-0.05955936014652252
1780001781733469000,4.853468994140625,-0.04459316283464432,0.10720685124397278,-0.029016099870204926
1780001781749781000,4.869781005859375,-0.04444044828414917,0.029626963660120964,0.014049900695681572
1780001781766122200,4.886122314453125,-0.036193765699863434,-0.050243668258190155,0.051312681287527084
1780001781782465000,4.902465087890625,-0.02519819140434265,-0.08888089656829834,0.055741455405950546
1780001781798797000,4.918797119140625,-0.026114489883184433,-0.04993823543190956,0.024587325751781464
1780001781815150000,4.935150146484375,-0.03878994286060333,0.038179077208042145,-0.0039706239476799965
1780001781831445000,4.951445068359375,-0.048105638474226,0.10415252298116684,-0.008857546374201775
1780001781847786000,4.967785888671875,-0.0529925599694252,0.09957103431224823,-0.013286318629980087
1780001781864108000,4.98410791015625,-0.05009094998240471,0.043676864355802536,-0.024434609338641167
1780001781880447500,5.000447509765625,-0.031612277030944824,-0.021991148591041565,-0.0354301854968071
1780001781896789200,5.016789306640625,-0.015882495790719986,-0.07422012835741043,-0.041233405470848083
1780001781913112800,5.03311279296875,-0.013286318629980087,-0.09285151958465576,-0.02626720629632473
1780001781929438700,5.049438720703125,-0.01771509274840355,-0.08185594528913498,0.017562376335263252
1780001781945781800,5.06578173828125,-0.018020525574684143,-0.06765332818031311,0.06017022579908371
1780001781962125000,5.082125,-0.01466076634824276,-0.051312681287527084,0.06200282275676727
1780001781978442800,5.09844287109375,-0.015271631069481373,-0.014813481830060482,0.019394971430301666
1780001781994791000,5.114791015625,-0.012980886735022068,0.06414084881544113,-0.030085112899541855
1780001782011108400,5.1311083984375,0.0007635815418325365,0.14538592100143433,-0.03375030308961868
1780001782027454200,5.1474541015625,0.0064140851609408855,0.1699732542037964,0.00427605677396059
1780001782043792400,5.16379248046875,0.01878410577774048,0.13179416954517365,0.03176499158143997
1780001782060126000,5.1801259765625,0.043676864355802536,0.058948494493961334,0.01970040425658226
1780001782076441000,5.196441162109375,0.06505715101957321,-0.006261368747800589,-0.025961773470044136
1780001782092791600,5.21279150390625,0.06383541971445084,-0.005650503560900688,-0.058184914290905
1780001782109111600,5.229111572265625,0.06185010448098183,0.03894266113638878,-0.04444044828414917
1780001782125453000,5.245453125,0.06123924255371094,0.05757404863834381,-0.012828170321881771
1780001782141775400,5.261775390625,0.0529925599694252,0.033597588539123535,0.008857546374201775
1780001782158123800,5.278123779296875,0.03191770985722542,-0.0006108652451075613,0.00855211354792118
1780001782174441000,5.29444091796875,0.018325956538319588,0.002138028386980295,-0.00427605677396059
1780001782190783000,5.310782958984375,0.020922135561704636,0.040164388716220856,-0.018478672951459885
1780001782207120600,5.32712060546875,0.029932396486401558,0.07192938029766083,-0.03390302136540413
1780001782223443200,5.343443115234375,0.03833179548382759,0.0734565481543541,-0.042760565876960754
1780001782239786000,5.359785888671875,0.042760565876960754,0.04184427112340927,-0.037110064178705215
1780001782256115700,5.37611572265625,0.044135015457868576,0.006261368747800589,-0.032528575509786606
1780001782272456700,5.392456787109375,0.04856378585100174,-0.005192354787141085,-0.039095375686883926
1780001782288783600,5.40878369140625,0.05971207842230797,0.015118914656341076,-0.05513058975338936
1780001782305121800,5.425121826171875,0.07024950534105301,0.04398229718208313,-0.06612616032361984
1780001782321433900,5.441433837890625,0.0754418596625328,0.05619960278272629,-0.06062837690114975
1780001782337770000,5.45777001953125,0.07727445662021637,0.0377209298312664,-0.04703662544488907
1780001782354101200,5.474101318359375,0.07651086896657944,-0.007177666760981083,-0.02275473065674305
1780001782370436900,5.490436767578125,0.07070764899253845,-0.06001751124858856,0.005650503560900688
1780001782386768600,5.5067685546875,0.06230825558304787,-0.09666942805051804,0.02580905705690384
1780001782403101400,5.523101318359375,0.054367005825042725,-0.1088867336511612,0.03741549700498581
1780001782419432700,5.5394326171875,0.04535674303770065,-0.10506882518529892,0.03894266113638878
1780001782435767300,5.555767333984375,0.03726277872920036,-0.09483683109283447,0.0354301854968071
1780001782452099800,5.572099853515625,0.030085112899541855,-0.09269879758358002,0.031612277030944824
1780001782468432600,5.5884326171875,0.02367102913558483,-0.1134682223200798,0.031154127791523933
1780001782484765400,5.604765380859375,0.022602014243602753,-0.154396191239357,0.040164388716220856
1780001782501098000,5.621097900390625,0.02672535367310047,-0.19685132801532745,0.05497787147760391
1780001782517427000,5.637427001953125,0.030237829312682152,-0.22647829353809357,0.059406645596027374
1780001782533784800,5.653784912109375,0.02932153269648552,-0.22907446324825287,0.04963280260562897
1780001782550111000,5.670111083984375,0.024587325751781464,-0.2025018334388733,0.03039054572582245
1780001782566443800,5.68644384765625,0.019853120669722557,-0.15622878074645996,0.01725694350898266
1780001782582775800,5.70277587890625,0.012980886735022068,-0.11545353382825851,0.012217304669320583
1780001782599092700,5.7190927734375,0.006872233934700489,-0.10125091671943665,0.015577063895761967
1780001782615425500,5.735425537109375,0.0029016099870204926,-0.10552696883678436,0.022907447069883347
1780001782631751000,5.7517509765625,0.0013744467869400978,-0.11133018881082535,0.03329215571284294
1780001782648108000,5.76810791015625,0.0019853119738399982,-0.10705413669347763,0.044745877385139465
1780001782664440000,5.784440185546875,0,-0.09758572280406952,0.052839845418930054
1780001782680773400,5.8007734375,0,-0.08704829961061478,0.05955936014652252
1780001782697106200,5.817106201171875,-0.0032070425804704428,-0.07971791177988052,0.06750060617923737
1780001782713422300,5.83342236328125,-0.0013744467869400978,-0.07483099400997162,0.07360926270484924
1780001782729771500,5.849771484375,-0.0003054326225537807,-0.07880161702632904,0.07437284290790558
1780001782746103600,5.866103515625,0.0013744467869400978,-0.07635815441608429,0.06811147183179855
1780001782762437600,5.882437744140625,0.003054326167330146,-0.06017022579908371,0.05925392732024193
1780001782778738200,5.89873828125,0.00366519158706069,-0.036193765699863434,0.04948008432984352
1780001782795086000,5.915086181640625,0.003359758760780096,-0.012980886735022068,0.04382958263158798
1780001782811419600,5.931419677734375,-0.0007635815418325365,-0.006108652334660292,0.041233405470848083
1780001782827741400,5.947741455078125,-0.005345070734620094,-0.013133603148162365,0.03787364438176155
1780001782844088000,5.964088134765625,-0.003359758760780096,-0.02687807008624077,0.04046982154250145
1780001782860419600,5.980419677734375,-0.0009162978967651725,-0.03237585723400116,0.03787364438176155
1780001782876753400,5.99675341796875,-0.0024434609804302454,-0.02733621932566166,0.026572637259960175
1780001782893073400,6.013073486328125,-0.005497787147760391,-0.009773843921720982,0.013133603148162365
1780001782909418800,6.029418701171875,-0.00855211354792118,0.013897184282541275,0.004581489134579897
1780001782925765400,6.045765380859375,-0.014813481830060482,0.044135015457868576,-0.001679879380390048
1780001782942085400,6.06208544921875,-0.01970040425658226,0.06551529467105865,-0.003359758760780096
1780001782958417200,6.078417236328125,-0.023976460099220276,0.08170322328805923,-0.001679879380390048
1780001782974750200,6.094750244140625,-0.023518312722444534,0.08704829961061478,0.004734205547720194
1780001782991078000,6.111077880859375,-0.01970040425658226,0.07971791177988052,0.013744467869400978
1780001783007452000,6.127451904296875,-0.013133603148162365,0.06383541971445084,0.019547687843441963
1780001783023760000,6.143759765625,-0.007941247895359993,0.04581489413976669,0.01863138936460018
1780001783040098000,6.16009814453125,-0.0032070425804704428,0.03649919852614403,0.018020525574684143
1780001783056414700,6.176414794921875,-0.0009162978967651725,0.035124752670526505,0.01924225501716137
1780001783072761300,6.19276123046875,-0.002138028386980295,0.044135015457868576,0.02229658141732216
1780001783089077000,6.209076904296875,-0.0065668015740811825,0.058337632566690445,0.02367102913558483
1780001783105427500,6.225427490234375,-0.009926560334861279,0.07666359096765518,0.021991148591041565
1780001783121758000,6.241758056640625,-0.010690141469240189,0.08704829961061478,0.01863138936460018
1780001783138093000,6.258093017578125,-0.006719517521560192,0.08200865983963013,0.013439035043120384
1780001783154404600,6.274404541015625,-0.0029016099870204926,0.0708603709936142,0.006719517521560192
1780001783170758700,6.290758544921875,-0.001832595793530345,0.056810468435287476,0.001832595793530345
1780001783187085600,6.30708544921875,-0.0022907445672899485,0.04230241850018501,0.0010690141934901476
1780001783203427800,6.323427734375,0.0003054326225537807,0.03329215571284294,0.005497787147760391
1780001783219756800,6.3397568359375,0,0.03039054572582245,0.012064588256180286
1780001783236073000,6.356072998046875,-0.0022907445672899485,0.031154127791523933,0.018020525574684143
1780001783252416500,6.37241650390625,-0.001679879380390048,0.03741549700498581,0.021074850112199783
1780001783268755700,6.388755615234375,0,0.04642575979232788,0.02428189292550087
1780001783285088000,6.405087890625,0.004581489134579897,0.05650503560900688,0.023518312722444534
1780001783301421800,6.421421875,0.008857546374201775,0.06200282275676727,0.012064588256180286
1780001783317723600,6.4377236328125,0.010690141469240189,0.06185010448098183,0.0029016099870204926
1780001783334064600,6.454064697265625,0.01191187184303999,0.052381694316864014,0.004886921960860491
1780001783350392800,6.470392822265625,0.014202617108821869,0.02779436856508255,0.015882495790719986
1780001783366726100,6.48672607421875,0.019547687843441963,-0.003512475173920393,0.02672535367310047
1780001783383061200,6.503061279296875,0.018325956538319588,-0.027183502912521362,0.03436116874217987
1780001783399403800,6.51940380859375,0.012064588256180286,-0.02779436856508255,0.036651913076639175
1780001783415723800,6.535723876953125,0.0065668015740811825,-0.015882495790719986,0.03420845419168472
1780001783432053500,6.552053466796875,0.003512475173920393,0,0.02626720629632473
1780001783448404000,6.568404052734375,0.0013744467869400978,0.012064588256180286,0.010842857882380486
1780001783464737300,6.5847373046875,0.0009162978967651725,0.02076941914856434,-0.0009162978967651725
1780001783481068300,6.601068359375,-0.0006108652451075613,0.023060163483023643,0.0010690141934901476
1780001783497407700,6.61740771484375,-0.00366519158706069,0.010231993161141872,0.008399397134780884
1780001783513748000,6.633748046875,-0.0019853119738399982,-0.013439035043120384,0.020311269909143448
1780001783530080000,6.650080078125,0.005039638374000788,-0.03222314268350601,0.02672535367310047
1780001783546413300,6.666413330078125,0.008246680721640587,-0.032681290060281754,0.026572637259960175
1780001783562745900,6.682745849609375,0.0074830991216003895,-0.023060163483023643,0.016951510682702065
1780001783579079700,6.69907958984375,0.00855211354792118,-0.003817907767370343,0.004734205547720194
1780001783595395300,6.715395263671875,0.010079276748001575,0.01572977937757969,-0.001679879380390048
1780001783611744500,6.73174462890625,0.00809396430850029,0.024587325751781464,-0.0010690141934901476
1780001783628074800,6.74807470703125,0.006261368747800589,0.012675453908741474,0.0013744467869400978
1780001783644390000,6.764389892578125,0.007177666760981083,-0.003054326167330146,0.001527163083665073
1780001783660744000,6.780743896484375,0.005039638374000788,-0.012217304669320583,0.006872233934700489
1780001783677075200,6.7970751953125,0.0019853119738399982,-0.010537425056099892,0.009621127508580685
1780001783693409300,6.8134091796875,-0.001679879380390048,-0.0022907445672899485,0.009010262787342072
1780001783709741000,6.829740966796875,-0.004428773187100887,-0.001679879380390048,0.004581489134579897
1780001783726073900,6.846073974609375,-0.0029016099870204926,-0.005039638374000788,0.0029016099870204926
1780001783742390000,6.86239013671875,0.0003054326225537807,-0.010842857882380486,0.00015271631127689034
1780001783758737400,6.8787373046875,0.001679879380390048,-0.00427605677396059,-0.007177666760981083
1780001783775056600,6.895056640625,-0.00015271631127689034,0.021838432177901268,-0.02015855349600315
1780001783791403000,6.911403076171875,-0.004428773187100887,0.05054909735918045,-0.026114489883184433
1780001783807711000,6.9277109375,-0.007635815534740686,0.05345070734620094,-0.020463986322283745
1780001783824057000,6.94405712890625,-0.006108652334660292,0.02519819140434265,-0.00855211354792118
1780001783840386800,6.96038671875,-0.0027488935738801956,-0.008246680721640587,0.00015271631127689034
1780001783856723200,6.97672314453125,0.0003054326225537807,-0.02076941914856434,0.004886921960860491
1780001783873056000,6.993055908203125,-0.0010690141934901476,-0.00045814894838258624,-0.0022907445672899485
1780001783889387500,7.009387451171875,-0.005039638374000788,0.04046982154250145,-0.01038470957428217
1780001783905711000,7.025711181640625,-0.010995574295520782,0.07849618047475815,-0.017562376335263252
1780001783922043000,7.04204296875,-0.013133603148162365,0.08827003091573715,-0.01664607785642147
1780001783938387200,7.05838720703125,-0.009010262787342072,0.07635815441608429,-0.009162978269159794
1780001783954720000,7.074719970703125,-0.005039638374000788,0.05711590126156807,-0.0025961773935705423
1780001783971049500,7.091049560546875,-0.003512475173920393,0.03985895588994026,-0.003817907767370343
1780001783987405800,7.10740576171875,-0.0010690141934901476,0.040164388716220856,-0.01160643994808197
1780001784003712300,7.123712158203125,-0.001527163083665073,0.05665775015950203,-0.01618792861700058
1780001784020049400,7.14004931640625,-0.004734205547720194,0.0731511116027832,-0.012064588256180286
1780001784036382700,7.1563828125,-0.007788531947880983,0.07391469180583954,-0.0006108652451075613
1780001784052713000,7.172712890625,-0.0065668015740811825,0.060475658625364304,0.008399397134780884
1780001784069036500,7.18903662109375,-0.005039638374000788,0.04108068719506264,0.011453723534941673
1780001784085370000,7.2053701171875,-0.00366519158706069,0.03634648025035858,0.005650503560900688
1780001784101702700,7.22170263671875,-0.003054326167330146,0.052839845418930054,-0.005192354787141085
1780001784118033700,7.23803369140625,-0.004581489134579897,0.0835358202457428,-0.014202617108821869
1780001784134372400,7.254372314453125,-0.004428773187100887,0.1111774742603302,-0.02015855349600315
1780001784150700500,7.270700439453125,-0.0025961773935705423,0.11881329119205475,-0.019853120669722557
1780001784167035400,7.287035400390625,-0.0025961773935705423,0.10293079167604446,-0.013897184282541275
1780001784183367400,7.303367431640625,-0.0009162978967651725,0.0734565481543541,-0.009162978269159794
1780001784199699500,7.319699462890625,0.0025961773935705423,0.04382958263158798,-0.0032070425804704428
1780001784216032300,7.3360322265625,0.005039638374000788,0.026114489883184433,-0.001679879380390048
1780001784232366600,7.35236669921875,0.005039638374000788,0.02886338345706463,-0.00427605677396059
1780001784248701400,7.368701416015625,0.002138028386980295,0.04886921867728233,-0.010231993161141872
1780001784265043000,7.38504296875,-0.0006108652451075613,0.0708603709936142,-0.015118914656341076
1780001784281378300,7.40137841796875,-0.0019853119738399982,0.08689557760953903,-0.01817324012517929
1780001784297708000,7.4177080078125,-0.004123340360820293,0.08994990587234497,-0.014355333521962166
1780001784314042400,7.43404248046875,-0.006719517521560192,0.07773260027170181,-0.009926560334861279
1780001784330374400,7.45037451171875,-0.010537425056099892,0.05390885844826698,-0.006108652334660292
1780001784346708000,7.4667080078125,-0.007177666760981083,0.03451388701796532,-0.001679879380390048
1780001784363037400,7.483037353515625,-0.001679879380390048,0.02382374368607998,0.00045814894838258624
1780001784379377000,7.499376953125,0.0010690141934901476,0.01542434748262167,-0.001527163083665073
1780001784395706600,7.51570654296875,0.00733038317412138,0.008857546374201775,-0.005955935921519995
1780001784412038700,7.53203857421875,0.012828170321881771,-0.005803219974040985,-0.013591751456260681
1780001784428371700,7.548371826171875,0.020922135561704636,-0.02871066704392433,-0.016951510682702065
1780001784444701700,7.56470166015625,0.02367102913558483,-0.049785517156124115,-0.015882495790719986
1780001784461039000,7.5810390625,0.014966198243200779,-0.05955936014652252,-0.011759156361222267
1780001784477387000,7.597386962890625,0.006261368747800589,-0.05406157299876213,0.00015271631127689034
1780001784493717000,7.613717041015625,0.0032070425804704428,-0.041691552847623825,0.009010262787342072
1780001784510049500,7.630049560546875,0.001679879380390048,-0.03176499158143997,0.00809396430850029
1780001784526381600,7.646381591796875,-0.0029016099870204926,-0.031001411378383636,0.0013744467869400978
1780001784542711600,7.662711669921875,-0.006261368747800589,-0.030543262138962746,-0.0012217304902151227
1780001784559047700,7.679047607421875,-0.007177666760981083,-0.03222314268350601,-0.0024434609804302454
1780001784575364600,7.695364501953125,-0.007024950347840786,-0.03833179548382759,-0.0012217304902151227
1780001784591696400,7.7116962890625,-0.005497787147760391,-0.04505131021142006,-0.00427605677396059
1780001784608046800,7.728046875,-0.001679879380390048,-0.04841107130050659,-0.005039638374000788
1780001784624379400,7.74437939453125,0.002138028386980295,-0.05513058975338936,-0.0022907445672899485
1780001784640712000,7.7607119140625,0.004581489134579897,-0.06902777403593063,0.008704829961061478
1780001784657032000,7.777031982421875,0.009162978269159794,-0.08491026610136032,0.012522737495601177
1780001784673378800,7.79337890625,0.014966198243200779,-0.09193521738052368,0.0022907445672899485
1780001784689710600,7.809710693359375,0.018936822190880775,-0.07956519722938538,-0.013439035043120384
1780001784706043600,7.826043701171875,0.02076941914856434,-0.05360342562198639,-0.019547687843441963
1780001784722373600,7.84237353515625,0.020005837082862854,-0.03375030308961868,-0.019089538604021072
1780001784738692600,7.858692626953125,0.017562376335263252,-0.030543262138962746,-0.01237002108246088
1780001784755028000,7.875028076171875,0.01191187184303999,-0.04108068719506264,-0.012217304669320583
1780001784771340300,7.89134033203125,0.01191187184303999,-0.045204028487205505,-0.019089538604021072
1780001784787695600,7.907695556640625,0.012980886735022068,-0.039706241339445114,-0.02275473065674305
1780001784804006700,7.924006591796875,0.012217304669320583,-0.029626963660120964,-0.018936822190880775
1780001784820359200,7.940359130859375,0.007024950347840786,-0.031154127791523933,-0.010995574295520782
1780001784836679200,7.95667919921875,0.005803219974040985,-0.04764748737215996,-0.0029016099870204926
1780001784853024800,7.973024658203125,0.007177666760981083,-0.06520986557006836,0.0007635815418325365
1780001784869358000,7.989358154296875,0.00855211354792118,-0.07635815441608429,-0.001527163083665073
1780001784885691000,8.00569091796875,0.00931569468230009,-0.06979135423898697,-0.009468411095440388
1780001784902023400,8.0220234375,0.009926560334861279,-0.05054909735918045,-0.01710422709584236
1780001784918355700,8.038355712890626,0.00931569468230009,-0.03680463135242462,-0.018325956538319588
1780001784934681000,8.05468115234375,0.005345070734620094,-0.036651913076639175,-0.015118914656341076
1780001784951025200,8.071025146484375,0.003054326167330146,-0.04337143152952194,-0.009926560334861279
1780001784967354000,8.08735400390625,0.0013744467869400978,-0.04993823543190956,-0.0064140851609408855
1780001784983703000,8.103703125,-0.0027488935738801956,-0.041233405470848083,-0.006719517521560192
1780001785000018700,8.120018798828125,-0.005039638374000788,-0.022907447069883347,-0.013286318629980087
1780001785016366300,8.136366455078125,-0.005039638374000788,-0.005803219974040985,-0.021532999351620674
1780001785032696000,8.152696044921875,-0.005803219974040985,-0.0019853119738399982,-0.02733621932566166
1780001785049035800,8.169035888671875,-0.002138028386980295,-0.013286318629980087,-0.02825251780450344
1780001785065361700,8.185361572265625,0,-0.03375030308961868,-0.020005837082862854
1780001785081701600,8.20170166015625,0.0010690141934901476,-0.04902193695306778,-0.00931569468230009
1780001785098014500,8.218014404296875,0.0012217304902151227,-0.046731192618608475,-0.0032070425804704428
1780001785114363600,8.23436376953125,-0.001832595793530345,-0.030237829312682152,-0.0012217304902151227
1780001785130694700,8.250694580078125,-0.0064140851609408855,-0.005192354787141085,-0.0024434609804302454
1780001785147031600,8.267031494140625,-0.006261368747800589,0.011453723534941673,0.001832595793530345
1780001785163362000,8.283362060546875,-0.003054326167330146,0.014202617108821869,0.005803219974040985
1780001785179695000,8.299695068359375,-0.00045814894838258624,-0.0012217304902151227,0.005650503560900688
1780001785196028000,8.31602783203125,0.0003054326225537807,-0.011759156361222267,0.0027488935738801956
1780001785212363300,8.33236328125,0.0012217304902151227,0.00045814894838258624,-0.003359758760780096
1780001785228689000,8.34868896484375,0.0024434609804302454,0.02122756652534008,-0.00733038317412138
1780001785245026800,8.36502685546875,0.003359758760780096,0.029474247246980667,-0.009468411095440388
1780001785261359600,8.381359619140625,0.005039638374000788,0.021991148591041565,-0.005192354787141085
1780001785277682700,8.3976826171875,0.004734205547720194,0.009010262787342072,-0.003054326167330146
1780001785294011400,8.414011474609374,0.0027488935738801956,0.0064140851609408855,-0.007788531947880983
1780001785310347000,8.430346923828125,-0.0003054326225537807,0.022907447069883347,-0.017562376335263252
1780001785326676700,8.4466767578125,-0.0027488935738801956,0.047189339995384216,-0.024892758578062057
1780001785343009000,8.463009033203125,-0.005345070734620094,0.06322455406188965,-0.02168571576476097
1780001785359341000,8.479341064453125,-0.005650503560900688,0.052381694316864014,-0.01466076634824276
1780001785375671300,8.49567138671875,-0.004428773187100887,0.029016099870204926,-0.004886921960860491
1780001785392011000,8.512010986328125,-0.007635815534740686,0.006872233934700489,0.0025961773935705423
1780001785408340200,8.52834033203125,-0.01038470957428217,0.010842857882380486,0.006872233934700489
1780001785424673000,8.544673095703125,-0.013897184282541275,0.03940080851316452,-0.00015271631127689034
1780001785441005800,8.561005859375,-0.015577063895761967,0.06719517707824707,-0.008399397134780884
1780001785457346800,8.577346923828125,-0.014508049935102463,0.08109235763549805,-0.01572977937757969
1780001785473685800,8.593685791015625,-0.011453723534941673,0.07223481684923172,-0.01466076634824276
1780001785490001200,8.610001220703126,-0.006261368747800589,0.04337143152952194,-0.009010262787342072
1780001785506351400,8.626351318359376,-0.004428773187100887,0.009468411095440388,-0.0027488935738801956
1780001785522684000,8.642683837890624,-0.00366519158706069,-0.010537425056099892,0.0027488935738801956
1780001785539017000,8.659016845703125,-0.004428773187100887,-0.00045814894838258624,0.005803219974040985
1780001785555314000,8.67531396484375,-0.007941247895359993,0.026419922709465027,0.005039638374000788
1780001785571682300,8.691682373046875,-0.010690141469240189,0.044745877385139465,-0.0003054326225537807
1780001785587998200,8.707998291015626,-0.009010262787342072,0.04444044828414917,-0.0024434609804302454
1780001785604348000,8.724347900390624,-0.0074830991216003895,0.0354301854968071,-0.001832595793530345
1780001785620676600,8.740676513671875,-0.008246680721640587,0.02871066704392433,-0.0032070425804704428
1780001785637013800,8.757013671875,-0.00855211354792118,0.026572637259960175,-0.003817907767370343
1780001785653333000,8.7733330078125,-0.007635815534740686,0.025961773470044136,-0.0019853119738399982
1780001785669678300,8.78967822265625,-0.009162978269159794,0.01664607785642147,-0.0024434609804302454
1780001785686008600,8.806008544921875,-0.010690141469240189,-0.0006108652451075613,-0.0007635815418325365
1780001785702344400,8.822344482421874,-0.009926560334861279,-0.012980886735022068,-0.00015271631127689034
1780001785718678000,8.838677978515625,-0.009926560334861279,-0.014355333521962166,-0.0007635815418325365
1780001785735027500,8.85502734375,-0.008857546374201775,-0.01160643994808197,-0.001832595793530345
1780001785751322600,8.871322509765625,-0.006261368747800589,-0.009010262787342072,-0.0024434609804302454
1780001785767677400,8.887677490234376,-0.00366519158706069,-0.008704829961061478,-0.00366519158706069
1780001785783979000,8.90397900390625,-0.0039706239476799965,-0.008246680721640587,-0.0024434609804302454
1780001785800327700,8.92032763671875,-0.0039706239476799965,-0.004734205547720194,-0.003359758760780096
1780001785816660500,8.936660400390625,-0.0027488935738801956,-0.004123340360820293,-0.006719517521560192
1780001785832992500,8.952992431640626,-0.002138028386980295,-0.005650503560900688,-0.007788531947880983
1780001785849329400,8.969329345703125,0.0007635815418325365,-0.007177666760981083,-0.00733038317412138
1780001785865658600,8.98565869140625,0.0022907445672899485,-0.0065668015740811825,-0.0065668015740811825
1780001785881981000,9.00198095703125,0.0025961773935705423,-0.0074830991216003895,-0.0074830991216003895
1780001785898324000,9.018323974609375,0.004428773187100887,-0.010231993161141872,-0.007788531947880983
1780001785914651100,9.034651123046874,0.006108652334660292,-0.016951510682702065,-0.003359758760780096
1780001785930999300,9.050999267578124,0.006108652334660292,-0.02122756652534008,0.00015271631127689034
1780001785947323400,9.067323486328124,0.005955935921519995,-0.01618792861700058,-0.0019853119738399982
1780001785963668700,9.083668701171876,0.006108652334660292,-0.009773843921720982,-0.008704829961061478
1780001785980003600,9.100003662109375,0.005955935921519995,-0.007788531947880983,-0.015118914656341076
1780001785996333000,9.1163330078125,0.005955935921519995,-0.006719517521560192,-0.011301007121801376
1780001786012665300,9.132665283203124,0.007024950347840786,-0.013591751456260681,-0.0019853119738399982
1780001786029000400,9.14900048828125,0.0065668015740811825,-0.021838432177901268,0.00366519158706069
1780001786045329700,9.16532958984375,0.004581489134579897,-0.029474247246980667,0.00366519158706069
1780001786061653200,9.1816533203125,0.004123340360820293,-0.02871066704392433,-0.00045814894838258624
1780001786077999600,9.19799951171875,0.001832595793530345,-0.019547687843441963,-0.004734205547720194
1780001786094321400,9.2143212890625,-0.0010690141934901476,-0.009162978269159794,-0.008857546374201775
1780001786110680000,9.23068017578125,-0.008246680721640587,0.0024434609804302454,-0.013439035043120384
1780001786126991600,9.24699169921875,-0.012980886735022068,0.002138028386980295,-0.008704829961061478
1780001786143328000,9.263327880859375,-0.010537425056099892,-0.01710422709584236,0.006261368747800589
1780001786159665400,9.27966552734375,-0.0039706239476799965,-0.05406157299876213,0.01970040425658226
1780001786175996000,9.295995849609374,0.0039706239476799965,-0.08827003091573715,0.026419922709465027
1780001786192326700,9.31232666015625,0.010995574295520782,-0.09239336848258972,0.02519819140434265
1780001786208668400,9.32866845703125,0.010231993161141872,-0.05971207842230797,0.01160643994808197
1780001786224987100,9.344987060546876,0.004428773187100887,-0.005345070734620094,-0.0032070425804704428
1780001786241327000,9.3613271484375,-0.00015271631127689034,0.032681290060281754,-0.012064588256180286
1780001786257657000,9.377656982421875,-0.005192354787141085,0.031001411378383636,-0.008857546374201775
1780001786273975000,9.39397509765625,-0.004886921960860491,-0.00045814894838258624,0.0022907445672899485
1780001786290312200,9.410312255859376,0.00015271631127689034,-0.048258353024721146,0.014049900695681572
1780001786306644000,9.42664404296875,0.003359758760780096,-0.07941248267889023,0.01725694350898266
1780001786322977000,9.44297705078125,0.001527163083665073,-0.07254024595022202,0.01191187184303999
1780001786339310300,9.459310302734375,0.00015271631127689034,-0.03344487398862839,-0.001527163083665073
1780001786355642400,9.475642333984375,0,0.008857546374201775,-0.014202617108821869
1780001786371975200,9.49197509765625,0.002138028386980295,0.021838432177901268,-0.01863138936460018
1780001786388308200,9.50830810546875,0.00366519158706069,0.0007635815418325365,-0.008399397134780884
1780001786404641300,9.524641357421874,0.007788531947880983,-0.04214970022439957,0.008704829961061478
1780001786420973800,9.540973876953124,0.00931569468230009,-0.08628471940755844,0.02275473065674305
1780001786437302300,9.55730224609375,0.00809396430850029,-0.10476338863372803,0.02779436856508255
1780001786453651200,9.573651123046876,0.006719517521560192,-0.09315694868564606,0.02871066704392433
1780001786469986600,9.589986572265625,0.004886921960860491,-0.06627888232469559,0.024434609338641167
1780001786486301400,9.606301513671875,0.0013744467869400978,-0.039706241339445114,0.015118914656341076
1780001786502651600,9.622651611328125,-0.002138028386980295,-0.01817324012517929,0.007024950347840786
1780001786518983400,9.6389833984375,-0.0024434609804302454,-0.006261368747800589,0.001832595793530345
1780001786535292000,9.6552919921875,-0.0024434609804302454,-0.009162978269159794,0.003512475173920393
1780001786551649300,9.671649169921874,0.0012217304902151227,-0.025656340643763542,0.007635815534740686
1780001786567981800,9.68798193359375,0.004123340360820293,-0.045204028487205505,0.013897184282541275
1780001786584298800,9.704298828125,0.006719517521560192,-0.05345070734620094,0.013744467869400978
1780001786600648700,9.720648681640625,0.0064140851609408855,-0.04657847434282303,0.005955935921519995
1780001786616960800,9.736960693359375,0.00733038317412138,-0.027030786499381065,0.0003054326225537807
1780001786633296400,9.75329638671875,0.005345070734620094,-0.002138028386980295,-0.0032070425804704428
1780001786649629700,9.769629638671875,0.0012217304902151227,0.01038470957428217,-0.0019853119738399982
1780001786665953300,9.785953369140625,0.0010690141934901476,0.003054326167330146,0.0012217304902151227
1780001786682296800,9.802296875,0.00045814894838258624,-0.01542434748262167,0.008704829961061478
1780001786698630100,9.818630126953124,-0.00045814894838258624,-0.03329215571284294,0.015271631069481373
1780001786714952700,9.83495263671875,-0.002138028386980295,-0.039248090237379074,0.017409659922122955
1780001786731293400,9.85129345703125,-0.0024434609804302454,-0.02779436856508255,0.012064588256180286
1780001786747632600,9.867632568359374,-0.00427605677396059,-0.0065668015740811825,0.0022907445672899485
1780001786763962000,9.883962158203126,-0.004581489134579897,0.012217304669320583,-0.003512475173920393
1780001786780295400,9.90029541015625,-0.003512475173920393,0.018936822190880775,-0.005192354787141085
1780001786796628200,9.916628173828125,-0.0022907445672899485,0.009621127508580685,-0.005345070734620094
1780001786812957000,9.93295703125,-0.0003054326225537807,-0.0029016099870204926,-0.006108652334660292
1780001786829294800,9.949294921875,0.0022907445672899485,-0.0074830991216003895,-0.00366519158706069
1780001786845604000,9.96560400390625,0.00045814894838258624,-0.004428773187100887,-0.001527163083665073
1780001786861943600,9.981943603515624,-0.0022907445672899485,-0.001832595793530345,0.0027488935738801956
1780001786878279000,9.99827880859375,-0.001527163083665073,-0.0012217304902151227,0.00809396430850029
1780001786894611700,10.01461181640625,0.0007635815418325365,-0.007177666760981083,0.007788531947880983
1780001786910950000,10.030949951171875,0.0012217304902151227,0.004123340360820293,0.004886921960860491
1780001786927293200,10.047293212890626,-0.0027488935738801956,0.031612277030944824,-0.0027488935738801956
1780001786943622400,10.063622314453125,-0.005650503560900688,0.05253441259264946,-0.00809396430850029
1780001786959958500,10.07995849609375,-0.00427605677396059,0.054825156927108765,-0.00855211354792118
1780001786976286200,10.0962861328125,-0.004428773187100887,0.033597588539123535,-0.0074830991216003895
1780001786992634400,10.11263427734375,-0.0019853119738399982,0.006261368747800589,-0.0024434609804302454
1780001787008969700,10.1289697265625,0.001679879380390048,-0.005192354787141085,0.0009162978967651725
1780001787025298700,10.145298583984374,0.001832595793530345,0.00427605677396059,-0.004886921960860491
1780001787041629400,10.16162939453125,-0.001679879380390048,0.01878410577774048,-0.010995574295520782
1780001787057970400,10.177970458984374,-0.0025961773935705423,0.02886338345706463,-0.010842857882380486
1780001787074299000,10.194298828125,-0.001527163083665073,0.02932153269648552,-0.0074830991216003895
1780001787090629600,10.210629638671875,-0.0010690141934901476,0.022143865004181862,-0.003054326167330146
1780001787106961000,10.2269609375,-0.002138028386980295,0.014508049935102463,0
1780001787123307300,10.243307373046875,-0.003054326167330146,0.013133603148162365,-0.00015271631127689034
1780001787139624400,10.25962451171875,-0.0019853119738399982,0.012064588256180286,-0.001832595793530345
1780001787155961600,10.275961669921875,-0.001679879380390048,0.004428773187100887,-0.0022907445672899485
1780001787172295700,10.292295654296876,-0.0010690141934901476,-0.005345070734620094,-0.001679879380390048
1780001787188628700,10.308628662109374,0.0010690141934901476,-0.010231993161141872,0.003054326167330146
1780001787204956700,10.324956787109375,0.0012217304902151227,-0.00809396430850029,0.003359758760780096
1780001787221296000,10.341296142578125,0.0013744467869400978,-0.0032070425804704428,-0.007024950347840786
1780001787237625000,10.357625,0.0025961773935705423,0.005650503560900688,-0.014813481830060482
1780001787253955800,10.373955810546875,0.001527163083665073,0.005955935921519995,-0.016340645030140877
1780001787270278100,10.390278076171874,0.003359758760780096,-0.0065668015740811825,-0.00931569468230009
1780001787286608100,10.406608154296874,0.006719517521560192,-0.02321287989616394,0
1780001787302947000,10.422947021484376,0.006108652334660292,-0.03436116874217987,0.004734205547720194
1780001787319277300,10.43927734375,0.003817907767370343,-0.03237585723400116,0.005039638374000788
1780001787335609000,10.455609130859376,0.0029016099870204926,-0.02367102913558483,0.0007635815418325365
1780001787351943000,10.47194287109375,0.0032070425804704428,-0.018325956538319588,-0.0024434609804302454
1780001787368275000,10.48827490234375,0.005803219974040985,-0.022907447069883347,-0.001832595793530345
1780001787384607700,10.504607666015625,0.009468411095440388,-0.038026362657547,0.0009162978967651725
1780001787400940500,10.5209404296875,0.01191187184303999,-0.050854530185461044,0.0009162978967651725
1780001787417314600,10.537314453125,0.013286318629980087,-0.053297992795705795,-0.0019853119738399982
1780001787433602600,10.5536025390625,0.011759156361222267,-0.04245513305068016,-0.0074830991216003895
1780001787449936400,10.569936279296876,0.01038470957428217,-0.03344487398862839,-0.010690141469240189
1780001787466284300,10.5862841796875,0.010995574295520782,-0.03741549700498581,-0.009468411095440388
1780001787482602000,10.60260205078125,0.013744467869400978,-0.052381694316864014,-0.0027488935738801956
1780001787498951400,10.618951416015625,0.015577063895761967,-0.06673702597618103,0.002138028386980295
1780001787515264800,10.6352646484375,0.01664607785642147,-0.06948592513799667,0.0029016099870204926
1780001787531597000,10.65159716796875,0.01542434748262167,-0.06001751124858856,0.00045814894838258624
1780001787547932700,10.6679326171875,0.012980886735022068,-0.0429132841527462,0.0010690141934901476
1780001787564266000,10.684265869140624,0.009010262787342072,-0.03191770985722542,0.0007635815418325365
1780001787580599600,10.700599609375,0.005650503560900688,-0.03237585723400116,0.0003054326225537807
1780001787596919600,10.71691943359375,0.007024950347840786,-0.04108068719506264,0.002138028386980295
1780001787613253000,10.733253173828125,0.005039638374000788,-0.04612032696604729,0.003512475173920393
1780001787629586400,10.74958642578125,0.0006108652451075613,-0.030695978552103043,0.003512475173920393
1780001787645919200,10.765919189453125,-0.003512475173920393,0.0010690141934901476,-0.0029016099870204926
1780001787662251500,10.78225146484375,-0.009468411095440388,0.031001411378383636,-0.016951510682702065
1780001787678585600,10.798585693359374,-0.01160643994808197,0.04566217586398125,-0.03222314268350601
1780001787694918700,10.814918701171875,-0.008399397134780884,0.03878994286060333,-0.03878994286060333
1780001787711251500,10.83125146484375,0.00045814894838258624,0.012675453908741474,-0.03375030308961868
1780001787727584300,10.847584228515625,0.005650503560900688,-0.03390302136540413,-0.022907447069883347
1780001787743915800,10.863915771484375,0.006108652334660292,-0.07360926270484924,-0.009162978269159794
1780001787760249300,10.880249267578124,0.0013744467869400978,-0.07880161702632904,0.007024950347840786
1780001787776582100,10.89658203125,-0.009468411095440388,-0.04932736977934837,0.014813481830060482
1780001787792915000,10.9129150390625,-0.02168571576476097,-0.010690141469240189,0.02122756652534008
1780001787809246500,10.92924658203125,-0.026572637259960175,0.012064588256180286,0.02367102913558483
1780001787825579800,10.945579833984375,-0.023518312722444534,0.006261368747800589,0.024587325751781464
1780001787841912600,10.96191259765625,-0.01618792861700058,-0.012828170321881771,0.021991148591041565
1780001787858245400,10.978245361328124,-0.00733038317412138,-0.031001411378383636,0.020922135561704636
1780001787874579000,10.994578857421875,-0.0019853119738399982,-0.029474247246980667,0.016951510682702065
1780001787890921700,11.010921630859375,-0.0024434609804302454,-0.01817324012517929,0.008857546374201775
1780001787907247000,11.0272470703125,-0.0019853119738399982,-0.005803219974040985,0
1780001787923589400,11.04358935546875,-0.0024434609804302454,-0.004886921960860491,-0.006719517521560192
1780001787939918800,11.0599189453125,-0.005039638374000788,-0.01114829070866108,-0.008246680721640587
1780001787956258300,11.07625830078125,-0.007941247895359993,-0.018325956538319588,-0.006872233934700489
1780001787972588000,11.092588134765625,-0.010537425056099892,-0.02122756652534008,-0.005192354787141085
1780001787988904200,11.108904296875,-0.012217304669320583,-0.011759156361222267,-0.0032070425804704428
1780001788005267500,11.125267333984375,-0.015118914656341076,-0.0019853119738399982,-0.00045814894838258624
1780001788021599700,11.141599853515626,-0.013591751456260681,-0.006872233934700489,0.0025961773935705423
1780001788037929200,11.15792919921875,-0.013439035043120384,-0.023365596309304237,0.006719517521560192
1780001788054252000,11.174251953125,-0.010842857882380486,-0.04184427112340927,0.012828170321881771
1780001788070598700,11.1905986328125,-0.005803219974040985,-0.05711590126156807,0.015271631069481373
1780001788086930700,11.2069306640625,-0.002138028386980295,-0.05925392732024193,0.018020525574684143
1780001788103264300,11.22326416015625,-0.0003054326225537807,-0.04841107130050659,0.015271631069481373
1780001788119592700,11.2395927734375,-0.0007635815418325365,-0.035124752670526505,0.01237002108246088
1780001788135918000,11.25591796875,-0.00015271631127689034,-0.03176499158143997,0.01191187184303999
1780001788152262400,11.272262451171875,0.003817907767370343,-0.03497203439474106,0.009468411095440388
1780001788168595000,11.288594970703125,0.004886921960860491,-0.04108068719506264,0.006872233934700489
1780001788184925400,11.304925537109375,0.004886921960860491,-0.03894266113638878,-0.0007635815418325365
1780001788201253000,11.321253173828126,0.0027488935738801956,-0.02519819140434265,-0.010690141469240189
1780001788217599700,11.337599853515625,0.0003054326225537807,-0.00855211354792118,-0.019853120669722557
1780001788233929500,11.353929443359375,0.00045814894838258624,-0.003817907767370343,-0.01542434748262167
1780001788250241500,11.370241455078125,0.003512475173920393,-0.02580905705690384,-0.0003054326225537807
1780001788266574000,11.386573974609375,0.004734205547720194,-0.06185010448098183,0.014508049935102463
1780001788282913500,11.40291357421875,0.007177666760981083,-0.08628471940755844,0.021838432177901268
1780001788299242000,11.419241943359374,0.008246680721640587,-0.07757988572120667,0.01863138936460018
1780001788315575600,11.435575439453125,0.004428773187100887,-0.04657847434282303,0.0065668015740811825
1780001788331908900,11.451908935546875,0.0003054326225537807,-0.0074830991216003895,-0.004886921960860491
1780001788348241200,11.4682412109375,-0.0032070425804704428,0.01191187184303999,-0.009621127508580685
1780001788364568800,11.48456884765625,-0.0013744467869400978,0.0032070425804704428,-0.009010262787342072
1780001788380907000,11.500906982421874,-0.0009162978967651725,-0.021532999351620674,-0.001832595793530345
1780001788397250000,11.51725,0.002138028386980295,-0.03940080851316452,0.005497787147760391
1780001788413586000,11.5335859375,0.00427605677396059,-0.04092797264456749,0.008246680721640587
1780001788429901300,11.5499013671875,0.003359758760780096,-0.02977968007326126,0.0019853119738399982
1780001788446237400,11.566237548828125,0.0029016099870204926,-0.014355333521962166,-0.004734205547720194
1780001788462570500,11.582570556640626,0.001832595793530345,-0.0074830991216003895,-0.0065668015740811825
1780001788478903300,11.5989033203125,0.00015271631127689034,-0.012828170321881771,-0.004123340360820293
1780001788495240400,11.615240478515625,-0.0022907445672899485,-0.015577063895761967,-0.002138028386980295
1780001788511543000,11.63154296875,-0.0024434609804302454,-0.01572977937757969,-0.00015271631127689034
1780001788527864800,11.64786474609375,-0.004581489134579897,-0.009010262787342072,-0.0003054326225537807
1780001788544250600,11.664250732421875,-0.007024950347840786,-0.007941247895359993,-0.0022907445672899485
1780001788560580000,11.680580078125,-0.0065668015740811825,-0.014966198243200779,-0.004428773187100887
1780001788576898600,11.696898681640626,-0.004886921960860491,-0.021380282938480377,-0.005039638374000788
1780001788593223000,11.713222900390624,-0.003512475173920393,-0.024434609338641167,-0.007941247895359993
1780001788609568500,11.729568603515625,-0.004581489134579897,-0.02122756652534008,-0.009468411095440388
1780001788625885400,11.745885498046874,-0.005803219974040985,-0.013439035043120384,-0.009010262787342072
1780001788642230500,11.76223046875,-0.0074830991216003895,-0.005955935921519995,-0.012064588256180286
1780001788658563800,11.778563720703126,-0.007635815534740686,0.001527163083665073,-0.015271631069481373
1780001788674896400,11.794896484375,-0.009773843921720982,0.005650503560900688,-0.019089538604021072
1780001788691224800,11.811224853515625,-0.010537425056099892,0.003359758760780096,-0.019547687843441963
1780001788707580700,11.82758056640625,-0.01160643994808197,-0.005192354787141085,-0.01863138936460018
1780001788723911700,11.84391162109375,-0.013591751456260681,-0.01771509274840355,-0.01710422709584236
1780001788740211000,11.8602109375,-0.016035212203860283,-0.028099801391363144,-0.01878410577774048
1780001788756560400,11.876560302734376,-0.017409659922122955,-0.021838432177901268,-0.02168571576476097
1780001788772890400,11.892890380859376,-0.020922135561704636,0.0013744467869400978,-0.026114489883184433
1780001788789226000,11.90922607421875,-0.021380282938480377,0.033597588539123535,-0.025045474991202354
1780001788805556500,11.925556396484374,-0.012980886735022068,0.052228979766368866,-0.01710422709584236
1780001788821892400,11.941892333984375,-0.004886921960860491,0.050243668258190155,-0.00809396430850029
1780001788838226400,11.958226318359374,0.0024434609804302454,0.03145955875515938,-0.004581489134579897
1780001788854557200,11.97455712890625,0.01038470957428217,0.007024950347840786,-0.004886921960860491
1780001788870884000,11.990884033203125,0.009926560334861279,0.0007635815418325365,-0.006872233934700489
1780001788887245000,12.0072451171875,0.009926560334861279,0.019394971430301666,-0.005039638374000788
1780001788903569000,12.02356884765625,0.008857546374201775,0.04245513305068016,-0.0003054326225537807
1780001788919869700,12.03986962890625,0.008246680721640587,0.056352317333221436,0.0010690141934901476
1780001788936220000,12.056219970703125,0.004581489134579897,0.05742133408784866,0.0022907445672899485
1780001788952568000,12.072568115234375,0.001527163083665073,0.0507018156349659,-0.0024434609804302454
1780001788968883200,12.08888330078125,0.005497787147760391,0.046273041516542435,-0.008857546374201775
1780001788985233200,12.105233154296876,0.009621127508580685,0.03940080851316452,-0.011759156361222267
1780001789001566000,12.12156591796875,0.006261368747800589,0.033597588539123535,-0.010231993161141872
1780001789017899000,12.13789892578125,-0.00015271631127689034,0.03940080851316452,-0.012064588256180286
1780001789034226700,12.154226806640626,-0.005192354787141085,0.0529925599694252,-0.01924225501716137
1780001789050568200,12.170568115234374,-0.00427605677396059,0.06001751124858856,-0.02076941914856434
1780001789066896000,12.186895751953125,-0.0003054326225537807,0.046273041516542435,-0.016340645030140877
1780001789083230200,12.203230224609374,0.003054326167330146,0.02015855349600315,-0.005497787147760391
1780001789099562000,12.21956201171875,0.007788531947880983,-0.006872233934700489,0.003054326167330146
1780001789115895000,12.23589501953125,0.009162978269159794,-0.021532999351620674,0.003054326167330146
1780001789132228600,12.252228515625,0.010842857882380486,-0.01771509274840355,0.0039706239476799965
1780001789148560100,12.26856005859375,0.010231993161141872,-0.010842857882380486,0.010079276748001575
1780001789164890600,12.284890625,0.00366519158706069,-0.009773843921720982,0.013897184282541275
1780001789181228300,12.301228271484375,0.0019853119738399982,-0.007177666760981083,0.012522737495601177
1780001789197559000,12.31755908203125,0.005039638374000788,0.0027488935738801956,0.009010262787342072
1780001789213891600,12.3338916015625,0.005955935921519995,0.023518312722444534,0.001832595793530345
1780001789230220800,12.350220703125,0.004428773187100887,0.03940080851316452,-0.0065668015740811825
1780001789246543400,12.36654345703125,0.0039706239476799965,0.04046982154250145,-0.013897184282541275
1780001789262876000,12.3828759765625,0.004581489134579897,0.025503624230623245,-0.014508049935102463
1780001789279209200,12.399209228515625,0.005955935921519995,0.008704829961061478,-0.0064140851609408855
1780001789295541200,12.415541259765625,0.00427605677396059,0.005497787147760391,0.0039706239476799965
1780001789311874000,12.4318740234375,0.003817907767370343,0.012522737495601177,0.0039706239476799965
1780001789328205300,12.448205322265625,0.001527163083665073,0.022907447069883347,0.0025961773935705423
1780001789344541400,12.46454150390625,0.0003054326225537807,0.01771509274840355,-0.001679879380390048
1780001789360871400,12.480871337890624,-0.0010690141934901476,0.005192354787141085,0.00366519158706069
1780001789377220600,12.497220703125,-0.0010690141934901476,-0.0007635815418325365,0.014049900695681572
1780001789393549000,12.513549072265626,-0.0032070425804704428,-0.0009162978967651725,0.02122756652534008
1780001789409856800,12.529856689453124,-0.004123340360820293,0.008246680721640587,0.01878410577774048
1780001789426217500,12.546217529296875,-0.006719517521560192,0.02672535367310047,0.009010262787342072
1780001789442533000,12.562533203125,-0.008399397134780884,0.04535674303770065,0
1780001789458880800,12.578880859375,-0.0029016099870204926,0.04764748737215996,-0.007941247895359993
1780001789475189500,12.595189453125,0.007788531947880983,0.026114489883184433,-0.009926560334861279
1780001789491547600,12.611547607421874,0.014966198243200779,-0.006261368747800589,-0.006872233934700489
1780001789507861500,12.627861572265624,0.014813481830060482,-0.032528575509786606,0.001679879380390048
1780001789524212500,12.64421240234375,0.01038470957428217,-0.03573561832308769,0.015882495790719986
1780001789540546600,12.660546630859375,0.003512475173920393,-0.022602014243602753,0.02428189292550087
1780001789556878600,12.676878662109376,-0.007177666760981083,-0.00015271631127689034,0.023060163483023643
1780001789573195500,12.693195556640624,-0.013133603148162365,0.016798794269561768,0.014049900695681572
1780001789589529300,12.709529296875,-0.012522737495601177,0.031001411378383636,0.001679879380390048
1780001789605877800,12.725877685546875,-0.010079276748001575,0.03894266113638878,-0.008246680721640587
1780001789622210000,12.7422099609375,-0.007635815534740686,0.04077525436878204,-0.01160643994808197
1780001789638527700,12.75852783203125,-0.0064140851609408855,0.03298672288656235,-0.007941247895359993
1780001789654873600,12.77487353515625,-0.004123340360820293,0.016951510682702065,-0.003817907767370343
1780001789671178200,12.79117822265625,-0.0003054326225537807,0,-0.001679879380390048
1780001789687548200,12.807548095703124,0.00427605677396059,-0.006719517521560192,0.0003054326225537807
1780001789703875600,12.82387548828125,0.0012217304902151227,0.00015271631127689034,0.006261368747800589
1780001789720210400,12.84021044921875,-0.006108652334660292,0.018020525574684143,0.010537425056099892
1780001789736510000,12.856510009765625,-0.009468411095440388,0.03405573591589928,0.009162978269159794
1780001789752858400,12.8728583984375,-0.009926560334861279,0.03695734590291977,0.004886921960860491
1780001789769189600,12.889189697265625,-0.009773843921720982,0.028405234217643738,0.0065668015740811825
1780001789785525500,12.905525390625,-0.006872233934700489,0.01725694350898266,0.014202617108821869
1780001789801853400,12.921853515625,-0.0027488935738801956,0.006108652334660292,0.010537425056099892
1780001789818178000,12.938177978515625,-0.00427605677396059,0.005497787147760391,0.001832595793530345
1780001789834513200,12.95451318359375,-0.0065668015740811825,0.012675453908741474,-0.0065668015740811825
1780001789850855400,12.97085546875,-0.006261368747800589,0.02076941914856434,-0.0074830991216003895
1780001789867200000,12.987199951171876,-0.005803219974040985,0.01725694350898266,-0.005650503560900688
1780001789883538700,13.00353857421875,-0.0039706239476799965,0.004428773187100887,-0.0019853119738399982
1780001789899865300,13.019865234375,0.00045814894838258624,-0.008704829961061478,0.0013744467869400978
1780001789916199700,13.03619970703125,0.00015271631127689034,-0.01572977937757969,0.0025961773935705423
1780001789932529000,13.05252880859375,0,-0.010690141469240189,0.0013744467869400978
1780001789948872700,13.068872802734376,0,0.0027488935738801956,0.001527163083665073
1780001789965186600,13.0851865234375,-0.0012217304902151227,0.011301007121801376,0.006108652334660292
1780001789981522000,13.10152197265625,-0.0022907445672899485,0.006108652334660292,0.013133603148162365
1780001789997864000,13.117864013671875,-0.001832595793530345,-0.004886921960860491,0.017562376335263252
1780001790014196200,13.1341962890625,-0.001527163083665073,-0.01038470957428217,0.013286318629980087
1780001790030516000,13.150515869140625,-0.00015271631127689034,-0.005955935921519995,0.004734205547720194
1780001790046858000,13.16685791015625,0,0.003512475173920393,0.0003054326225537807
1780001790063195000,13.18319482421875,0.0010690141934901476,0.012217304669320583,-0.0029016099870204926
1780001790079527200,13.199527099609375,0.00015271631127689034,0.009773843921720982,-0.0009162978967651725
1780001790095859700,13.215859619140625,0.0007635815418325365,-0.006872233934700489,0.001832595793530345
1780001790112176400,13.23217626953125,0.0022907445672899485,-0.023365596309304237,0.008704829961061478
1780001790128525600,13.248525634765626,0.0013744467869400978,-0.027488935738801956,0.010690141469240189
1780001790144857600,13.264857666015626,0.001527163083665073,-0.022907447069883347,0.005345070734620094
1780001790161188900,13.28118896484375,0.0032070425804704428,-0.007788531947880983,-0.0007635815418325365
1780001790177520400,13.297520263671874,0.00045814894838258624,0.0029016099870204926,-0.0029016099870204926
1780001790193861000,13.313861083984374,-0.0022907445672899485,0.005345070734620094,-0.0013744467869400978
1780001790210189000,13.33018896484375,-0.004734205547720194,-0.0003054326225537807,0.003054326167330146
1780001790226492400,13.346492431640625,-0.004886921960860491,-0.010842857882380486,0.004581489134579897
1780001790242840600,13.362840576171875,-0.001527163083665073,-0.016035212203860283,0.0022907445672899485
1780001790259174100,13.379174072265625,0.004428773187100887,-0.01466076634824276,0.0012217304902151227
1780001790275506200,13.395506103515626,0.004428773187100887,-0.010231993161141872,-0.0006108652451075613
1780001790291838000,13.411837890625,0.003054326167330146,-0.007941247895359993,0.0010690141934901476
1780001790308171800,13.428171875,0.001832595793530345,-0.01160643994808197,0.002138028386980295
1780001790324492500,13.444492431640626,-0.001832595793530345,-0.014202617108821869,0.0029016099870204926
1780001790340836600,13.460836669921875,-0.0032070425804704428,-0.011453723534941673,0.0019853119738399982
1780001790357186800,13.477186767578125,-0.005803219974040985,-0.0024434609804302454,0.002138028386980295
1780001790373519400,13.493519287109375,-0.0065668015740811825,0.006108652334660292,0.0006108652451075613
1780001790389827600,13.50982763671875,-0.003817907767370343,0.005039638374000788,0.0009162978967651725
1780001790406165200,13.526165283203126,-0.0003054326225537807,-0.00366519158706069,-0.0024434609804302454
1780001790422498600,13.54249853515625,0.005345070734620094,-0.008857546374201775,-0.003512475173920393
1780001790438845200,13.55884521484375,0.00427605677396059,-0.004123340360820293,-0.0039706239476799965
1780001790455146500,13.575146484375,0.005039638374000788,0,-0.0022907445672899485
1780001790471485700,13.591485595703125,0.006719517521560192,0.00015271631127689034,0.0039706239476799965
1780001790487818800,13.60781884765625,0.006261368747800589,-0.008246680721640587,0.00855211354792118
1780001790504151800,13.62415185546875,0.006108652334660292,-0.015271631069481373,0.00855211354792118
1780001790520500200,13.640500244140625,0.004886921960860491,-0.009621127508580685,0.006261368747800589
1780001790536830000,13.656829833984375,0.005345070734620094,0.003359758760780096,0.0003054326225537807
1780001790553163500,13.67316357421875,0.004886921960860491,0.009468411095440388,-0.004123340360820293
1780001790569495300,13.689495361328126,0.004886921960860491,0.005497787147760391,-0.002138028386980295
1780001790585828400,13.705828369140624,0.007177666760981083,-0.009162978269159794,0.00366519158706069
1780001790602140200,13.72214013671875,0.0065668015740811825,-0.025045474991202354,0.010537425056099892
1780001790618511000,13.738510986328125,0.005039638374000788,-0.027030786499381065,0.00931569468230009
1780001790634836200,13.754836181640625,0.0027488935738801956,-0.01038470957428217,0.0007635815418325365
1780001790651176200,13.77117626953125,-0.0003054326225537807,0.014508049935102463,-0.009621127508580685
1780001790667500500,13.78750048828125,-0.0006108652451075613,0.029932396486401558,-0.016798794269561768
1780001790683838500,13.80383837890625,0.0010690141934901476,0.01725694350898266,-0.013133603148162365
1780001790700177200,13.82017724609375,0.002138028386980295,-0.007941247895359993,-0.004734205547720194
1780001790716505300,13.83650537109375,0.0025961773935705423,-0.03298672288656235,0.0024434609804302454
1780001790732818200,13.852818115234374,0.0027488935738801956,-0.03894266113638878,0.005192354787141085
1780001790749160400,13.869160400390625,-0.00045814894838258624,-0.02474004216492176,0.005803219974040985
1780001790765488400,13.88548828125,-0.003512475173920393,-0.004428773187100887,0.0006108652451075613
1780001790781821200,13.9018212890625,-0.003512475173920393,0.009621127508580685,-0.004123340360820293
1780001790798147600,13.918147705078125,-0.00366519158706069,0.01466076634824276,-0.00855211354792118
1780001790814491600,13.93449169921875,-0.001679879380390048,0.01466076634824276,-0.01038470957428217
1780001790830819600,13.950819580078125,0.0009162978967651725,0.010079276748001575,-0.005192354787141085
1780001790847195400,13.9671953125,0.0022907445672899485,0.003054326167330146,-0.0025961773935705423
1780001790863500300,13.983500244140625,0.0027488935738801956,-0.006108652334660292,-0.0010690141934901476
1780001790879828200,13.999828125,0.0027488935738801956,-0.005497787147760391,0
1780001790896160500,14.016160400390625,0.0025961773935705423,0.005345070734620094,-0.003054326167330146
1780001790912501200,14.032501220703125,-0.0007635815418325365,0.01817324012517929,-0.004581489134579897
1780001790928827400,14.048827392578126,-0.0007635815418325365,0.02580905705690384,-0.0064140851609408855
1780001790945163000,14.0651630859375,0,0.01863138936460018,-0.0025961773935705423
1780001790961499400,14.08149951171875,0.001832595793530345,0.0007635815418325365,0.001527163083665073
1780001790977810000,14.097809814453125,0.0065668015740811825,-0.01771509274840355,0.0064140851609408855
1780001790994148000,14.114148193359375,0.00427605677396059,-0.028099801391363144,0.009468411095440388
1780001791010493200,14.1304931640625,0.0010690141934901476,-0.022602014243602753,0.009010262787342072
1780001791026825700,14.14682568359375,-0.0010690141934901476,-0.0012217304902151227,0.004428773187100887
1780001791043159300,14.1631591796875,-0.003359758760780096,0.024434609338641167,-0.004581489134579897
1780001791059468300,14.17946826171875,-0.004581489134579897,0.03787364438176155,-0.012828170321881771
1780001791075810300,14.195810302734374,-0.0027488935738801956,0.03481931984424591,-0.016951510682702065
1780001791092141800,14.212141845703124,0.0003054326225537807,0.014355333521962166,-0.013744467869400978
1780001791108473000,14.22847314453125,0.004581489134579897,-0.010842857882380486,-0.00427605677396059
1780001791124793000,14.24479296875,0.004886921960860491,-0.028557950630784035,0.004581489134579897
1780001791141128200,14.261128173828125,0.00366519158706069,-0.034666601568460464,0.014355333521962166
1780001791157459200,14.277459228515625,0.0013744467869400978,-0.028557950630784035,0.011759156361222267
1780001791173796400,14.29379638671875,-0.0024434609804302454,-0.0064140851609408855,0.005955935921519995
1780001791190125600,14.31012548828125,-0.006872233934700489,0.01817324012517929,0.00015271631127689034
1780001791206460200,14.326460205078124,-0.009468411095440388,0.029016099870204926,-0.0006108652451075613
1780001791222793200,14.342793212890625,-0.007635815534740686,0.021074850112199783,-0.0006108652451075613
1780001791239122200,14.3591220703125,-0.003512475173920393,0.0022907445672899485,-0.0013744467869400978
1780001791255456300,14.375456298828125,-0.00015271631127689034,-0.009926560334861279,-0.003054326167330146
1780001791271791900,14.3917919921875,0.0022907445672899485,-0.009773843921720982,-0.003054326167330146
1780001791288123100,14.408123046875,0.0006108652451075613,-0.0064140851609408855,-0.004123340360820293
1780001791304457000,14.42445703125,-0.001832595793530345,-0.006719517521560192,-0.0032070425804704428
1780001791320789200,14.440789306640625,-0.003054326167330146,-0.009621127508580685,-0.0022907445672899485
1780001791337126100,14.457126220703126,-0.00366519158706069,-0.01237002108246088,-0.0027488935738801956
1780001791353453800,14.473453857421875,-0.0039706239476799965,-0.013591751456260681,0.001527163083665073
1780001791369787400,14.489787353515625,-0.0024434609804302454,-0.00809396430850029,0.0024434609804302454
1780001791386119700,14.50611962890625,-0.001679879380390048,-0.00427605677396059,0.005345070734620094
1780001791402468000,14.522468017578126,-0.0012217304902151227,0.00045814894838258624,0.007024950347840786
1780001791418797300,14.53879736328125,-0.0027488935738801956,0.005192354787141085,0.006108652334660292
1780001791435117000,14.555116943359375,-0.0027488935738801956,0.009010262787342072,0.004123340360820293
1780001791451463200,14.571463134765626,0.0003054326225537807,0.007788531947880983,0.0006108652451075613
1780001791467796000,14.5877958984375,0.0029016099870204926,0.004428773187100887,-0.00427605677396059
1780001791484128300,14.604128173828125,0.004581489134579897,0.0027488935738801956,-0.0065668015740811825
1780001791500458500,14.62045849609375,0.00366519158706069,0.003054326167330146,-0.006261368747800589
1780001791516811300,14.636811279296875,0.0010690141934901476,0.003359758760780096,-0.0025961773935705423
1780001791533131800,14.6531318359375,-0.0029016099870204926,0.00015271631127689034,-0.00015271631127689034
1780001791549481700,14.669481689453125,-0.005803219974040985,-0.006108652334660292,0.0032070425804704428
1780001791565802800,14.685802734375,-0.007177666760981083,-0.013591751456260681,0.0019853119738399982
1780001791582126000,14.7021259765625,-0.00427605677396059,-0.019547687843441963,-0.0007635815418325365
1780001791598455800,14.718455810546875,-0.0025961773935705423,-0.018020525574684143,0.0009162978967651725
1780001791614804000,14.734803955078124,-0.002138028386980295,-0.008857546374201775,0.0029016099870204926
1780001791631131600,14.751131591796875,-0.0025961773935705423,0.0007635815418325365,0.0029016099870204926
1780001791647473700,14.7674736328125,-0.0024434609804302454,0.003817907767370343,-0.00015271631127689034
1780001791663802000,14.783802001953125,-0.001527163083665073,0.003054326167330146,-0.0010690141934901476
1780001791680118300,14.8001181640625,-0.001832595793530345,-0.002138028386980295,-0.004123340360820293
1780001791696468000,14.816468017578124,-0.0010690141934901476,-0.007024950347840786,-0.006108652334660292
1780001791712783400,14.832783447265625,0.0012217304902151227,-0.007941247895359993,-0.0064140851609408855
1780001791729119700,14.84911962890625,0,-0.00855211354792118,-0.003512475173920393
1780001791745452300,14.865452392578124,-0.001832595793530345,-0.007635815534740686,0.00045814894838258624
1780001791761783600,14.881783447265626,-0.0022907445672899485,-0.00931569468230009,0.003359758760780096
1780001791778117000,14.8981171875,-0.002138028386980295,-0.012980886735022068,0.00427605677396059
1780001791794455300,14.914455322265624,-0.0019853119738399982,-0.008704829961061478,0.0029016099870204926
1780001791810783000,14.930782958984375,-0.001679879380390048,0.001679879380390048,0
1780001791827133000,14.9471328125,-0.0025961773935705423,0.012675453908741474,0.00045814894838258624
1780001791843462100,14.963462158203125,-0.003512475173920393,0.014049900695681572,0.001832595793530345
1780001791859795500,14.97979541015625,-0.00366519158706069,0.008246680721640587,0
1780001791876128000,14.9961279296875,-0.0007635815418325365,-0.001832595793530345,-0.0027488935738801956
1780001791892454700,15.01245458984375,0.0012217304902151227,-0.003054326167330146,-0.0032070425804704428
1780001791908797000,15.028796875,0.003512475173920393,-0.0009162978967651725,-0.0027488935738801956
1780001791925125600,15.045125732421875,0.0025961773935705423,0.0025961773935705423,-0.0064140851609408855
1780001791941428000,15.061427978515624,0.00366519158706069,0.0022907445672899485,-0.004734205547720194
1780001791957778000,15.07777783203125,0.0025961773935705423,-0.0027488935738801956,-0.00045814894838258624
1780001791974110200,15.094110107421875,0.0019853119738399982,-0.005955935921519995,0.0027488935738801956
1780001791990446300,15.1104462890625,0.0024434609804302454,-0.00809396430850029,0.0074830991216003895
1780001792006772000,15.12677197265625,0.003512475173920393,-0.0065668015740811825,0.007177666760981083
1780001792023108900,15.14310888671875,0.0027488935738801956,-0.00015271631127689034,0.0032070425804704428
1780001792039458300,15.159458251953126,0.001832595793530345,0.004581489134579897,-0.00015271631127689034
1780001792055771000,15.17577099609375,0.003512475173920393,0.007177666760981083,-0.001679879380390048
1780001792072120000,15.1921201171875,0.004581489134579897,0.0024434609804302454,-0.00045814894838258624
1780001792088454000,15.208453857421874,0.0025961773935705423,-0.0074830991216003895,0.0029016099870204926
1780001792104785700,15.22478564453125,0.003512475173920393,-0.012675453908741474,0.005345070734620094
1780001792121118200,15.2411181640625,0.0022907445672899485,-0.010537425056099892,0.003817907767370343
1780001792137434000,15.25743408203125,0.001679879380390048,-0.0013744467869400978,-0.0029016099870204926
1780001792153784800,15.273784912109376,0.0025961773935705423,0.0039706239476799965,-0.009162978269159794
1780001792170115800,15.29011572265625,0.004734205547720194,0.009162978269159794,-0.006872233934700489
1780001792186426400,15.30642626953125,0.003054326167330146,0.0025961773935705423,-0.0013744467869400978
1780001792202765300,15.322765380859375,-0.0006108652451075613,-0.007635815534740686,0.005192354787141085
1780001792219101400,15.339101318359376,-0.003359758760780096,-0.012675453908741474,0.009926560334861279
1780001792235433500,15.35543359375,-0.006719517521560192,-0.0074830991216003895,0.009010262787342072
1780001792251766300,15.371766357421874,-0.006261368747800589,0.005803219974040985,0.003512475173920393
1780001792268097300,15.38809716796875,-0.0029016099870204926,0.019394971430301666,0
1780001792284432400,15.404432373046875,-0.00045814894838258624,0.025503624230623245,-0.00427605677396059
1780001792300764200,15.42076416015625,0.0012217304902151227,0.019853120669722557,-0.0074830991216003895
1780001792317101000,15.43710107421875,0.0032070425804704428,0.01038470957428217,-0.007788531947880983
1780001792333450800,15.45345068359375,0.002138028386980295,0.003817907767370343,-0.006872233934700489
1780001792349776000,15.46977587890625,-0.0009162978967651725,-0.001832595793530345,-0.0019853119738399982
1780001792366073000,15.486072998046875,-0.00015271631127689034,-0.005497787147760391,0.001527163083665073
1780001792382442200,15.502442138671874,-0.0003054326225537807,-0.008704829961061478,0.003817907767370343
1780001792398772200,15.518772216796876,-0.00045814894838258624,-0.006719517521560192,0.0022907445672899485
1780001792415091200,15.53509130859375,0.00045814894838258624,0.0029016099870204926,-0.0009162978967651725
1780001792431419100,15.551419189453124,0.002138028386980295,0.007024950347840786,0.001679879380390048
1780001792447788300,15.567788330078125,0.0029016099870204926,0.0012217304902151227,0.006872233934700489
1780001792464106000,15.58410595703125,0.00366519158706069,-0.00809396430850029,0.008399397134780884
1780001792480436200,15.600436279296876,0.004734205547720194,-0.009010262787342072,0.008399397134780884
1780001792496764200,15.61676416015625,0.0029016099870204926,-0.001832595793530345,0.007788531947880983
1780001792513081900,15.633081787109376,0.0010690141934901476,0.008246680721640587,0.005955935921519995
1780001792529412600,15.64941259765625,0.001832595793530345,0.013897184282541275,0.0012217304902151227
1780001792545770000,15.66577001953125,0.0025961773935705423,0.014813481830060482,-0.003359758760780096
1780001792562097200,15.68209716796875,0.0025961773935705423,0.011759156361222267,-0.005345070734620094
1780001792578457600,15.69845751953125,0.003054326167330146,0.005650503560900688,-0.005955935921519995
1780001792594751000,15.7147509765625,0.0013744467869400978,0.0003054326225537807,-0.00366519158706069
1780001792611099600,15.731099609375,0.0003054326225537807,0.0007635815418325365,-0.005192354787141085
1780001792627427800,15.747427734375,-0.001832595793530345,-0.0006108652451075613,-0.0029016099870204926
1780001792643765000,15.763764892578125,-0.003054326167330146,-0.00366519158706069,-0.001527163083665073
1780001792660100400,15.780100341796874,-0.0024434609804302454,-0.0064140851609408855,0.0024434609804302454
1780001792676430800,15.796430908203124,-0.0022907445672899485,-0.007635815534740686,0.004428773187100887
1780001792692735000,15.81273486328125,-0.0027488935738801956,-0.0013744467869400978,0.00366519158706069
1780001792709082600,15.82908251953125,-0.0012217304902151227,0.012675453908741474,0.0012217304902151227
1780001792725412600,15.84541259765625,-0.0010690141934901476,0.023518312722444534,0
1780001792741750500,15.86175048828125,-0.0009162978967651725,0.028099801391363144,-0.0019853119738399982
1780001792758080500,15.87808056640625,0.001527163083665073,0.02382374368607998,-0.003512475173920393
1780001792774413000,15.8944130859375,0.0024434609804302454,0.01160643994808197,-0.004734205547720194
1780001792790746400,15.910746337890625,0.0024434609804302454,-0.004734205547720194,-0.0003054326225537807
1780001792807090700,15.927090576171874,0.003512475173920393,-0.01710422709584236,0.001527163083665073
1780001792823426000,15.943426025390625,0.004428773187100887,-0.023518312722444534,0.004886921960860491
1780001792839762000,15.959761962890624,0.004734205547720194,-0.015882495790719986,0.0064140851609408855
1780001792856089300,15.97608935546875,0.003512475173920393,0.004581489134579897,0.005955935921519995
1780001792872423400,15.99242333984375,0.0007635815418325365,0.022449297830462456,-0.0007635815418325365
1780001792888756000,16.008755859375,-0.0007635815418325365,0.031001411378383636,-0.006261368747800589
1780001792905084700,16.025084716796876,0,0.029474247246980667,-0.0064140851609408855
1780001792921426000,16.041426025390624,0.0003054326225537807,0.016951510682702065,-0.0022907445672899485
1780001792937753900,16.05775390625,-0.0007635815418325365,0.005192354787141085,0.0007635815418325365
1780001792954087000,16.0740869140625,0.0006108652451075613,-0.004886921960860491,0.002138028386980295
1780001792970419700,16.090419677734374,0.0022907445672899485,-0.012828170321881771,0.0013744467869400978
1780001792986746600,16.10674658203125,0.0032070425804704428,-0.013439035043120384,-0.001832595793530345
1780001793003068700,16.123068603515627,0.004734205547720194,-0.009926560334861279,-0.0010690141934901476
1780001793019400700,16.139400634765625,0.005650503560900688,-0.003817907767370343,-0.003054326167330146
1780001793035733500,16.1557333984375,0.004886921960860491,0.001832595793530345,-0.003054326167330146
1780001793052063700,16.172063720703125,0.0029016099870204926,0.005497787147760391,-0.0025961773935705423
1780001793068405200,16.1884052734375,0.0003054326225537807,0.00733038317412138,0.0027488935738801956
1780001793084734500,16.204734375,0,0.001527163083665073,0.005039638374000788
1780001793101066200,16.221066162109373,0.0007635815418325365,-0.008399397134780884,0.006108652334660292
1780001793117400300,16.237400390625,0.0025961773935705423,-0.014966198243200779,0.005650503560900688
1780001793133733000,16.253733154296874,0.003512475173920393,-0.01572977937757969,0.0039706239476799965
1780001793150065400,16.2700654296875,0.0027488935738801956,-0.010842857882380486,0.0019853119738399982
1780001793166398000,16.28639794921875,0.0013744467869400978,0,0.0024434609804302454
1780001793182745000,16.3027451171875,0.00015271631127689034,0.005650503560900688,0.003359758760780096
1780001793199060700,16.319060791015627,0,0.004734205547720194,0.0019853119738399982
1780001793215385600,16.335385498046875,0.0012217304902151227,0.0032070425804704428,-0.001679879380390048
1780001793231727600,16.3517275390625,0.001527163083665073,0.004734205547720194,-0.004581489134579897
1780001793248061400,16.3680615234375,0.0024434609804302454,0.0019853119738399982,-0.001527163083665073
1780001793264394500,16.38439453125,0.001679879380390048,-0.005650503560900688,0.004428773187100887
1780001793280727000,16.40072705078125,0.0013744467869400978,-0.01817324012517929,0.006108652334660292
1780001793297051600,16.4170517578125,0.00045814894838258624,-0.01970040425658226,0.006108652334660292
1780001793313406500,16.433406494140623,-0.0009162978967651725,-0.01160643994808197,0.00366519158706069
1780001793329718000,16.449718017578125,-0.0007635815418325365,-0.0010690141934901476,0.0009162978967651725
1780001793346071000,16.466071044921875,-0.0003054326225537807,-0.0006108652451075613,0.003512475173920393
1780001793362401800,16.48240185546875,0.00045814894838258624,-0.012064588256180286,0.008857546374201775
1780001793378737200,16.498737060546876,0.0009162978967651725,-0.02015855349600315,0.009773843921720982
1780001793395045400,16.51504541015625,0.0009162978967651725,-0.016340645030140877,0.008704829961061478
1780001793411405800,16.53140576171875,0.00015271631127689034,-0.00366519158706069,0.0039706239476799965
1780001793427727000,16.54772705078125,-0.00015271631127689034,0.005192354787141085,-0.0013744467869400978
1780001793444068000,16.564068115234374,0.0022907445672899485,0.0039706239476799965,-0.0006108652451075613
1780001793460396800,16.580396728515623,0.003512475173920393,-0.005039638374000788,0.0012217304902151227
1780001793476725200,16.596725341796876,0.00366519158706069,-0.010537425056099892,0.006261368747800589
1780001793493048800,16.613048828125,0.002138028386980295,-0.009773843921720982,0.006719517521560192
1780001793509398500,16.6293984375,0.0024434609804302454,-0.003817907767370343,0.00427605677396059
1780001793525734100,16.645734130859374,0.004123340360820293,0.0010690141934901476,0.006108652334660292
1780001793542071000,16.662071044921873,0.004886921960860491,0.0032070425804704428,0.0074830991216003895
1780001793558389200,16.67838916015625,0.0039706239476799965,0.002138028386980295,0.011301007121801376
1780001793574737700,16.694737548828126,0.001527163083665073,0.00855211354792118,0.010079276748001575
1780001793591031600,16.711031494140624,-0.0029016099870204926,0.02122756652534008,0.008246680721640587
1780001793607395800,16.727395751953125,-0.003512475173920393,0.03130684420466423,-0.0003054326225537807
1780001793623722800,16.74372265625,-0.0024434609804302454,0.02871066704392433,-0.004428773187100887
1780001793640063700,16.760063720703126,0.0007635815418325365,0.01466076634824276,-0.005345070734620094
1780001793656393500,16.7763935546875,0.0019853119738399982,-0.005192354787141085,0.0029016099870204926
1780001793672725000,16.79272509765625,0.003054326167330146,-0.020616702735424042,0.007635815534740686
1780001793689041700,16.809041748046877,0.0027488935738801956,-0.021074850112199783,0.007024950347840786
1780001793705391400,16.825391357421875,0.001527163083665073,-0.011301007121801376,0.00366519158706069
1780001793721710300,16.84171044921875,-0.0006108652451075613,0.001527163083665073,0.0012217304902151227
1780001793738039600,16.85803955078125,-0.0007635815418325365,0.01038470957428217,0.0012217304902151227
1780001793754381300,16.87438134765625,-0.002138028386980295,0.013133603148162365,0
1780001793770708200,16.890708251953125,-0.001527163083665073,0.01038470957428217,0.0012217304902151227
1780001793787057700,16.9070576171875,-0.00045814894838258624,-0.0003054326225537807,0.005192354787141085
1780001793803379000,16.92337890625,0.0027488935738801956,-0.017867809161543846,0.011301007121801376
1780001793819708200,16.939708251953125,0.005039638374000788,-0.032528575509786606,0.010537425056099892
1780001793836036600,16.95603662109375,0.0065668015740811825,-0.030085112899541855,0.007788531947880983
1780001793852369700,16.97236962890625,0.0039706239476799965,-0.008704829961061478,-0.0012217304902151227
1780001793868719600,16.9887197265625,0.001527163083665073,0.014049900695681572,-0.004886921960860491
1780001793885051100,17.005051025390625,-0.00015271631127689034,0.020463986322283745,-0.002138028386980295
1780001793901379600,17.021379638671874,0.0010690141934901476,0.0022907445672899485,0.001832595793530345
1780001793917719600,17.037719482421874,0.003512475173920393,-0.020005837082862854,0.005650503560900688
1780001793934048000,17.054048095703124,0.004123340360820293,-0.028405234217643738,0.008704829961061478
1780001793950362400,17.0703623046875,0.0039706239476799965,-0.017409659922122955,0.009773843921720982
1780001793966698800,17.08669873046875,0.002138028386980295,-0.004734205547720194,0.006261368747800589
1780001793983029800,17.10302978515625,0.0027488935738801956,0.0012217304902151227,0.003359758760780096
1780001793999363000,17.119363037109373,0.00366519158706069,0.0003054326225537807,0
1780001794015683000,17.13568310546875,0.004886921960860491,-0.003359758760780096,-0.0012217304902151227
1780001794032019000,17.15201904296875,0.00366519158706069,-0.005192354787141085,-0.005039638374000788
1780001794048352800,17.168352783203126,0.002138028386980295,-0.009010262787342072,-0.004734205547720194
1780001794064684500,17.1846845703125,0.004734205547720194,-0.012064588256180286,-0.0007635815418325365
1780001794081017300,17.201017333984375,0.003054326167330146,-0.018478672951459885,0.0013744467869400978
1780001794097352700,17.217352783203125,0.0025961773935705423,-0.020616702735424042,0.005345070734620094
1780001794113695000,17.233695068359374,0.0032070425804704428,-0.019089538604021072,0.0027488935738801956
1780001794130026000,17.25002587890625,0.0032070425804704428,-0.01237002108246088,-0.0006108652451075613
1780001794146359800,17.26635986328125,0.0025961773935705423,-0.004886921960860491,-0.005803219974040985
1780001794162692600,17.282692626953125,0.0024434609804302454,-0.005192354787141085,-0.004581489134579897
1780001794179012900,17.299012939453124,0.0024434609804302454,-0.015118914656341076,0
1780001794195344600,17.3153447265625,0.004428773187100887,-0.026572637259960175,0.005192354787141085
1780001794211690800,17.331690673828124,0.004428773187100887,-0.02977968007326126,0.0064140851609408855
1780001794228023600,17.3480234375,0.001527163083665073,-0.02519819140434265,0.003054326167330146
1780001794244356600,17.364356689453125,0.001679879380390048,-0.014202617108821869,-0.00366519158706069
1780001794260687000,17.38068701171875,0.004734205547720194,-0.004581489134579897,-0.011453723534941673
1780001794277024800,17.397024658203126,0.0065668015740811825,-0.006108652334660292,-0.014355333521962166
1780001794293384000,17.413384033203126,0.004734205547720194,-0.012522737495601177,-0.012675453908741474
1780001794309700900,17.429700927734373,0.0039706239476799965,-0.017562376335263252,-0.003817907767370343
1780001794326031000,17.446031005859375,0.0029016099870204926,-0.027641652151942253,0.003359758760780096
1780001794342365700,17.46236572265625,0.002138028386980295,-0.037110064178705215,0.004886921960860491
1780001794358719700,17.4787197265625,0.0025961773935705423,-0.03985895588994026,0.0006108652451075613
1780001794375026700,17.495026611328125,0.0024434609804302454,-0.032681290060281754,-0.001527163083665073
1780001794391360800,17.51136083984375,0.0032070425804704428,-0.02229658141732216,-0.0039706239476799965
1780001794407696400,17.5276962890625,0.003359758760780096,-0.011759156361222267,-0.00366519158706069
1780001794424015400,17.544015380859374,0.00366519158706069,-0.01160643994808197,-0.004428773187100887
1780001794440363000,17.560363037109376,0.00366519158706069,-0.018936822190880775,-0.0007635815418325365
1780001794456688600,17.576688720703125,0.0039706239476799965,-0.029932396486401558,0.001832595793530345
1780001794473027800,17.59302783203125,0.005192354787141085,-0.03588833287358284,0.00366519158706069
1780001794489356500,17.6093564453125,0.005955935921519995,-0.03741549700498581,0.001832595793530345
1780001794505696500,17.625696533203126,0.0065668015740811825,-0.03390302136540413,-0.0025961773935705423
1780001794522012700,17.6420126953125,0.005345070734620094,-0.02428189292550087,-0.003054326167330146
1780001794538341600,17.658341552734374,0.003817907767370343,-0.014813481830060482,-0.0025961773935705423
1780001794554687200,17.674687255859375,0.003512475173920393,-0.010842857882380486,-0.0029016099870204926
1780001794571024000,17.69102392578125,0.0025961773935705423,-0.013439035043120384,0.00015271631127689034
1780001794587339800,17.70733984375,0.0025961773935705423,-0.014049900695681572,0.005192354787141085
1780001794603673000,17.723673095703123,0.0024434609804302454,-0.015882495790719986,0.007635815534740686
1780001794620006400,17.74000634765625,0.004734205547720194,-0.014202617108821869,0.0039706239476799965
1780001794636337700,17.756337646484376,0.004123340360820293,-0.009468411095440388,-0.0027488935738801956
1780001794652671500,17.77267138671875,0.00366519158706069,-0.006108652334660292,-0.004734205547720194
1780001794668992000,17.788991943359374,0.00366519158706069,-0.004581489134579897,-0.003512475173920393
1780001794685324500,17.805324462890624,0.00366519158706069,-0.011759156361222267,-0.001679879380390048
1780001794701659100,17.8216591796875,0.001679879380390048,-0.015882495790719986,0.0019853119738399982
1780001794717991200,17.8379912109375,0.00015271631127689034,-0.014355333521962166,0.005345070734620094
1780001794734324000,17.854323974609375,-0.0012217304902151227,-0.009621127508580685,0.004123340360820293
1780001794750659000,17.8706591796875,0.0007635815418325365,-0.0013744467869400978,0.00045814894838258624
1780001794766989600,17.886989501953124,0.0019853119738399982,0.0006108652451075613,-0.00427605677396059
1780001794783322400,17.903322265625,0.003359758760780096,0.0039706239476799965,-0.004581489134579897
1780001794799655200,17.9196552734375,0.0025961773935705423,0.005039638374000788,-0.0029016099870204926
1780001794815988000,17.935988037109375,0.0024434609804302454,0.00427605677396059,-0.0019853119738399982
1780001794832317700,17.952317626953125,0.00366519158706069,0.0029016099870204926,0.0027488935738801956
1780001794848656000,17.96865576171875,0.001679879380390048,0.0003054326225537807,0.004581489134579897
1780001794864985900,17.98498583984375,0.0012217304902151227,0.0003054326225537807,0.003359758760780096
1780001794881318400,18.001318359375,0,0.004734205547720194,-0.0009162978967651725
1780001794897653800,18.01765380859375,0.0009162978967651725,0.01114829070866108,-0.004123340360820293
1780001794913996500,18.03399658203125,0.0009162978967651725,0.012217304669320583,-0.004581489134579897
1780001794930329000,18.0503291015625,0.001527163083665073,0.003512475173920393,-0.0006108652451075613
1780001794946662000,18.066661865234376,0.001527163083665073,-0.0013744467869400978,0.0064140851609408855
1780001794962994700,18.08299462890625,-0.001679879380390048,-0.0010690141934901476,0.0064140851609408855
1780001794979323600,18.09932373046875,-0.0032070425804704428,0.009010262787342072,0.00366519158706069
1780001794995663400,18.115663330078124,-0.0024434609804302454,0.02519819140434265,-0.001527163083665073
1780001795011982600,18.131982666015624,-0.00015271631127689034,0.033139441162347794,-0.004886921960860491
1780001795028339500,18.14833935546875,0.001832595793530345,0.027030786499381065,-0.004581489134579897
1780001795044655400,18.1646552734375,0.00427605677396059,0.01863138936460018,-0.0007635815418325365
1780001795061004300,18.18100439453125,0.0007635815418325365,0.007941247895359993,0.005192354787141085
1780001795077336600,18.197336669921874,-0.003359758760780096,-0.004428773187100887,0.005803219974040985
1780001795093667300,18.213667236328124,-0.0022907445672899485,-0.008857546374201775,0.00809396430850029
1780001795109985500,18.229985595703123,-0.003054326167330146,0.0013744467869400978,0.00931569468230009
1780001795126335200,18.246335205078125,-0.005497787147760391,0.01725694350898266,0.004123340360820293
1780001795142652400,18.26265234375,-0.007024950347840786,0.032681290060281754,-0.005803219974040985
1780001795158983400,18.2789833984375,-0.004886921960860491,0.035124752670526505,-0.012217304669320583
1780001795175305700,18.2953056640625,-0.00366519158706069,0.02779436856508255,-0.012828170321881771
1780001795191651600,18.311651611328124,-0.0027488935738801956,0.006719517521560192,-0.004123340360820293
1780001795207971600,18.3279716796875,-0.0007635815418325365,-0.013744467869400978,0.0024434609804302454
1780001795224318000,18.34431787109375,0.0007635815418325365,-0.02519819140434265,0.0039706239476799965
1780001795240649500,18.3606494140625,0.00015271631127689034,-0.014966198243200779,0.003054326167330146
1780001795256982500,18.376982421875,-0.0032070425804704428,0.005192354787141085,-0.0012217304902151227
1780001795273315300,18.3933154296875,-0.005497787147760391,0.02367102913558483,-0.005192354787141085
1780001795289661700,18.40966162109375,-0.007024950347840786,0.02779436856508255,-0.0019853119738399982
1780001795305991400,18.425991455078126,-0.006261368747800589,0.01664607785642147,0.0025961773935705423
1780001795322329900,18.442329833984374,-0.0032070425804704428,-0.001679879380390048,0.0065668015740811825
1780001795338645500,18.4586455078125,0.0032070425804704428,-0.01924225501716137,0.006261368747800589
1780001795354968000,18.474968017578124,0.005650503560900688,-0.02229658141732216,0.0007635815418325365
1780001795371285500,18.491285400390623,0.003817907767370343,-0.007788531947880983,-0.0025961773935705423
1780001795387660300,18.507660400390623,0.001527163083665073,0.006719517521560192,-0.0074830991216003895
1780001795403979300,18.523979248046874,0.003359758760780096,0.010995574295520782,-0.01038470957428217
1780001795420322800,18.54032275390625,0.0074830991216003895,0.0010690141934901476,-0.008399397134780884
1780001795436650500,18.556650390625,0.0029016099870204926,0.007024950347840786,0.0032070425804704428
1780001795452989000,18.572989013671876,-0.0064140851609408855,0.039095375686883926,0.005497787147760391
1780001795469303600,18.589303466796874,-0.016035212203860283,0.07590000331401825,-0.0065668015740811825
1780001795485650200,18.605650146484376,-0.016340645030140877,0.11407908797264099,-0.025961773470044136
1780001795501990400,18.621990478515624,-0.01160643994808197,0.14614951610565186,-0.03039054572582245
1780001795518319000,18.638319091796873,-0.011759156361222267,0.15836681425571442,-0.02626720629632473
1780001795534635000,18.654635009765624,-0.007788531947880983,0.14294247329235077,-0.022449297830462456
1780001795550965200,18.67096533203125,0.004581489134579897,0.11255192011594772,-0.016493361443281174
1780001795567317800,18.68731787109375,0.014202617108821869,0.08521570265293121,-0.0024434609804302454
1780001795583653600,18.703653564453123,0.006872233934700489,0.07742717117071152,0.002138028386980295
1780001795599980800,18.719980712890624,-0.00366519158706069,0.08384125679731369,-0.00366519158706069
1780001795616316400,18.73631640625,-0.0013744467869400978,0.09972374886274338,-0.01237002108246088
1780001795632644000,18.75264404296875,-0.00045814894838258624,0.12034045159816742,-0.016951510682702065
1780001795648967200,18.76896728515625,-0.009162978269159794,0.12079860270023346,-0.017562376335263252
1780001795665299700,18.7852998046875,-0.011453723534941673,0.10873401165008545,-0.015882495790719986
1780001795681632500,18.801632568359373,-0.007024950347840786,0.09773843735456467,-0.015118914656341076
1780001795697964500,18.817964599609375,-0.0029016099870204926,0.09025534242391586,-0.019089538604021072
1780001795714297600,18.834297607421874,-0.0003054326225537807,0.07849618047475815,-0.02168571576476097
1780001795730626000,18.8506259765625,0.00733038317412138,0.05849034711718559,-0.02275473065674305
1780001795746965800,18.8669658203125,0.015118914656341076,0.03329215571284294,-0.018020525574684143
1780001795763312600,18.883312744140625,0.022143865004181862,0.0064140851609408855,-0.014202617108821869
1780001795779634200,18.89963427734375,0.025503624230623245,-0.016798794269561768,-0.0027488935738801956
1780001795795981600,18.915981689453126,0.02672535367310047,-0.04138612002134323,0.005497787147760391
1780001795812280000,18.932280029296876,0.027641652151942253,-0.06154467165470123,0.013744467869400978
1780001795828640000,18.948639892578125,0.022602014243602753,-0.06414084881544113,0.020616702735424042
1780001795844972300,18.96497216796875,0.016493361443281174,-0.05161811411380768,0.019853120669722557
1780001795861303000,18.981302978515625,0.011301007121801376,-0.03573561832308769,0.013897184282541275
1780001795877637000,18.99763720703125,0.007941247895359993,-0.03145955875515938,0.010537425056099892
1780001795893970700,19.013970703125,0.00809396430850029,-0.036651913076639175,0.010537425056099892
1780001795910303500,19.030303466796877,0.009621127508580685,-0.047189339995384216,0.010079276748001575
1780001795926630700,19.046630615234374,0.01160643994808197,-0.05314527451992035,0.005955935921519995
1780001795942955800,19.062955810546875,0.015118914656341076,-0.048258353024721146,-0.00015271631127689034
1780001795959304000,19.079303955078124,0.019547687843441963,-0.061391957104206085,-0.009162978269159794
1780001795975631400,19.09563134765625,0.03084869496524334,-0.16401731967926025,-0.006108652334660292
1780001795991967500,19.111967529296876,0.03527746722102165,-0.2356412708759308,0.029168816283345222
1780001796008299000,19.128299072265627,0.026572637259960175,-0.2828305959701538,0.06261368840932846
1780001796024631300,19.14463134765625,0.0065668015740811825,-0.21853704750537872,0.08704829961061478
1780001796040947700,19.16094775390625,-0.010842857882380486,-0.07528914511203766,0.07849618047475815
1780001796057276400,19.1772763671875,0.010231993161141872,-0.0010690141934901476,0.050854530185461044
1780001796073633800,19.1936337890625,0.015882495790719986,-0.01863138936460018,0.028099801391363144
1780001796089962200,19.209962158203126,0.009621127508580685,-0.08689557760953903,0.015577063895761967
1780001796106278100,19.226278076171877,0.029474247246980667,-0.08704829961061478,0.009621127508580685
1780001796122627800,19.2426279296875,0.03298672288656235,0.009010262787342072,-0.026419922709465027
1780001796138926300,19.25892626953125,0.016340645030140877,0.11698069423437119,-0.048258353024721146
1780001796155266600,19.2752666015625,-0.0027488935738801956,0.14019356667995453,-0.018325956538319588
1780001796171611100,19.291611083984375,-0.0006108652451075613,0.04657847434282303,0.020311269909143448
1780001796187944700,19.30794482421875,0.015271631069481373,-0.08628471940755844,0.02626720629632473
1780001796204277500,19.324277587890624,0.021380282938480377,-0.15913039445877075,0.001679879380390048
1780001796220593400,19.340593505859374,0.01237002108246088,-0.13805554807186127,-0.018020525574684143
1780001796236945700,19.356945556640625,0.00045814894838258624,-0.06979135423898697,-0.012217304669320583
1780001796253279500,19.373279541015624,0.010995574295520782,-0.004581489134579897,0.011301007121801376
1780001796269608200,19.389608154296877,0.03940080851316452,0.016493361443281174,0.029932396486401558
1780001796285953800,19.405953857421874,0.04398229718208313,0.010842857882380486,0.02672535367310047
1780001796302270200,19.422270263671876,0.03084869496524334,-0.008399397134780884,0.015271631069481373
1780001796318620700,19.43862060546875,0.008704829961061478,-0.04092797264456749,0.007024950347840786
1780001796334952400,19.454952392578125,0.001679879380390048,-0.0633772686123848,0.013591751456260681
1780001796351280400,19.4712802734375,-0.00015271631127689034,-0.07651086896657944,0.022449297830462456
1780001796367608000,19.487608154296876,-0.00045814894838258624,-0.06429356336593628,0.021991148591041565
1780001796383960300,19.503960205078126,-0.0019853119738399982,-0.027947084978222847,0.007024950347840786
1780001796400277800,19.52027783203125,-0.011301007121801376,0.00809396430850029,-0.008399397134780884
1780001796416618200,19.5366181640625,-0.012522737495601177,0.029016099870204926,-0.007788531947880983
1780001796432948000,19.552947998046875,-0.01924225501716137,0.04657847434282303,-0.003817907767370343
1780001796449283800,19.569283935546874,-0.032070424407720566,0.056352317333221436,-0.014355333521962166
1780001796465614600,19.585614501953124,-0.03787364438176155,0.0607810914516449,-0.017562376335263252
1780001796481945900,19.60194580078125,-0.0529925599694252,0.051770828664302826,-0.010231993161141872
