time,seconds_elapsed,z,y,x
1779213671500266000,0.060265869140625,0.5968716681718826,-0.026036650793254373,-0.7250549804925918
1779213671510257200,0.070257080078125,0.15607026715576647,0.0015820084944367409,-0.7739203528832643
1779213671520249000,0.0802490234375,-0.2673269945949316,-0.011733692413568496,-0.9047940002664923
1779213671530241300,0.0902412109375,-0.40451837375760075,0.24200609085559843,-0.9440359503958373
1779213671540232200,0.100232177734375,-0.426828989765048,0.35899580898880956,-1.230842356160283
1779213671550224100,0.11022412109375,-0.5996382102757692,0.6062617200687528,-1.4861637095324693
1779213671560216000,0.120216064453125,-0.7064858891010284,0.8388263211011886,-1.6766192075014112
1779213671570208000,0.1302080078125,-0.5702607246220112,0.6594809768199921,-1.3869368809744715
1779213671580199200,0.14019921875,-0.26872400191128254,1.0139046555876732,-1.2315817763507366
1779213671590191000,0.150191162109375,-0.02447393152117729,1.4813067710205912,-1.1312856380607932
1779213671600183300,0.160183349609375,-0.026733693146705626,1.0806485798224805,-1.2032201897412538
1779213671610174200,0.17017431640625,0.004464578193426132,0.7579749610587954,-1.5810815888501704
1779213671620166100,0.180166259765625,0.3961953665703535,0.8992118162199855,-1.5842445829257368
1779213671630158000,0.190157958984375,1.0890116267591714,0.8150082231402397,-1.536411256996542
1779213671640150000,0.20014990234375,1.736337470883131,0.7289566641062498,-1.591165322099626
1779213671650141200,0.21014111328125,2.332889405581355,0.7639929061740637,-1.2726695735424756
1779213671660133000,0.220133056640625,2.6088959657162425,0.5796566217377781,-1.3680594542860984
1779213671670125300,0.230125244140625,2.621013689011335,-0.20439181499332187,-1.6889821377292273
1779213671680117200,0.2401171875,2.149173591130972,-0.17792407930642365,-0.23570695417877285
1779213671690108200,0.250108154296875,1.0653688853651284,0.19443010068833827,0.5368159895293414
1779213671700100000,0.26010009765625,-0.07006546987295151,-0.14924801992028952,0.4491632423764094
1779213671710092000,0.270092041015625,-1.0800795477628706,-0.7305658528685569,0.72955769873932
1779213671720083200,0.280083251953125,-2.1665257079482076,-0.7714946601063013,1.251042994276434
1779213671730075100,0.2900751953125,-1.953379216352105,-0.5053840555638075,1.7784568030796943
1779213671740067300,0.3000673828125,-1.2786878109186888,-0.214852418731153,1.5123385997526346
1779213671750059000,0.31005908203125,-0.21739596573412417,0.5392696662917733,0.8964613484680652
1779213671760050200,0.32005029296875,1.1140016911089419,0.937648514381051,-0.5733864919597282
1779213671770042000,0.3300419921875,0.8765548709928989,0.9095999392434954,-0.8589613466352224
1779213671780034000,0.340033935546875,0.8850877215385436,0.6099959381610155,-1.5859509484522043
1779213671790026200,0.350026123046875,0.8921791411042213,0.3971428765535354,-2.033536895041913
1779213671800017200,0.36001708984375,1.0373743785023688,0.23444705377817152,-1.9318473296321927
1779213671810009300,0.37000927734375,0.6271826352834701,-0.0789341282442212,-1.6477134310126305
1779213671820001000,0.3800009765625,0.22232348526418208,-0.16842559859901665,-1.2393512413084506
1779213671829992000,0.389991943359375,0.22401626065671443,-0.13795476475059984,-0.31010300060193985
1779213671839984000,0.399984130859375,0.4588876773267984,-0.211096281068027,0.4167816430032253
1779213671849976000,0.40997607421875,0.5670797564983368,-0.12363251714855432,1.0732682603128254
1779213671859968300,0.41996826171875,0.17609949422776697,-0.08719634515494108,1.376479930498451
1779213671869959200,0.429959228515625,-0.2413713000833988,-0.25208470953851936,1.3376090787038206
1779213671879951400,0.439951416015625,0.10067746575772761,-0.27847090442180633,1.1623416513860225
1779213671889943000,0.449943115234375,0.2887853776872158,-0.17462971393615007,1.086055553432554
1779213671899935200,0.459935302734375,0.16765607553124426,-0.15060235713869333,0.8973643617223948
1779213671909926100,0.469926025390625,0.20307050326168535,0.10073971733897924,0.7431807120308279
1779213671919918000,0.47991796875,-0.04794833061099052,0.4854015902429819,0.6689904173128306
1779213671929910300,0.48991015625,0.6826707137495279,0.9256430192887782,0.43190044781044123
1779213671939901200,0.499901123046875,1.504418474277854,1.4007076321735978,0.16324425043836235
1779213671949893000,0.50989306640625,1.3896499393254518,1.2952785879746078,0.16799948214143515
1779213671959885000,0.519885009765625,2.6684873878479003,1.1175605526342987,0.4445582693316042
1779213671969877200,0.529877197265625,3.622807635566592,1.1650669846966861,0.6719919372163713
1779213671979868200,0.5398681640625,2.7709803785949942,0.33086014008969067,0.22032821979373693
1779213671989860000,0.549860107421875,2.6675959919661283,-0.0011952011339366436,0.39506446284428237
1779213671999852300,0.559852294921875,1.360212247917056,-0.5034468038909137,-0.06977364731952547
1779213672009844000,0.569843994140625,0.07066635837554931,-0.6666146280921995,-0.9736550627857447
1779213672019835100,0.579835205078125,-0.03208382200300693,-0.11490165981277822,-1.4722203782454133
1779213672029827000,0.5898271484375,-0.4663695575147867,0.1838476241365075,-1.726975183776021
1779213672039819300,0.5998193359375,-1.1894137827068567,0.041778117543458934,-1.9591034392178057
1779213672049810200,0.60981005859375,-1.3279746966570616,-0.07852452453002333,-1.3445102363944053
1779213672059802000,0.619802001953125,-0.8077665814489126,0.2133542891278863,0.2784747038140893
1779213672069794300,0.629794189453125,0.686124653595686,1.163402704746276,1.1921402850612997
1779213672079786000,0.639785888671875,1.7153128030329943,1.9026896242089568,1.9330837395593523
1779213672089777200,0.649777099609375,2.4585113429814576,1.8125016960226,1.8461644577801226
1779213672099769000,0.65976904296875,1.9942916569769382,1.2450948995269835,0.7560241192519664
1779213672109761300,0.66976123046875,1.3237608783543109,0.8187944636806845,-0.6386632297188043
1779213672119753200,0.679753173828125,0.9812287129104137,0.6489649896331131,-1.0355123840227722
1779213672129744400,0.689744384765625,1.04634328237772,1.0041717816025018,-0.6361839801236987
1779213672139736000,0.699736083984375,1.5664467681676149,1.381835173921287,-1.2537667201519012
1779213672149728000,0.70972802734375,2.177124258852005,1.7783397525712847,-0.9502195344015956
1779213672159725000,0.71972509765625,1.500604468947649,2.11077211041376,0.042433951103687285
1779213672169716200,0.72971630859375,1.1731138052910566,3.0832810719043016,-0.012442717465758323
1779213672179708000,0.7397080078125,1.1539561003565788,3.725584703952074,0.1615939990133047
1779213672189700000,0.7497001953125,1.113871342727542,4.315657798025012,0.4176607639253139
1779213672199691000,0.75969091796875,2.631279062438011,4.77765133241266,0.9619009121060371
1779213672209683000,0.769682861328125,5.264896212434769,5.998913082540035,2.2325509625196456
1779213672219675100,0.779675048828125,6.680803459566831,7.618705071926117,2.3021102364361283
1779213672229667000,0.7896669921875,3.8530467162609097,4.5725504923671485,2.0868846004784105
1779213672239658200,0.799658203125,1.871867054313421,4.213027152372897,1.6166548604041338
1779213672249650000,0.80964990234375,0.41072073552906513,4.851268649548292,0.6975228304445743
1779213672259642000,0.81964208984375,-1.2315198170304298,4.967619485256075,0.2812859618425369
1779213672269634000,0.829634033203125,-3.0207696706727147,5.337258268812298,0.8016875537961721
1779213672279625000,0.839625,-4.545318786570429,5.616798263770342,1.5738526605099439
1779213672289617200,0.8496171875,-4.742884847196937,5.43667842798531,1.9171815292894838
1779213672299608800,0.85960888671875,-1.8262777079187333,4.446662597507238,1.3507844943583012
1779213672309600000,0.86960009765625,2.6494974406957623,4.7986394676446915,1.4311825576752424
1779213672319592000,0.879592041015625,2.6741560811340808,5.940498887494206,0.896758285588026
1779213672329584000,0.889584228515625,1.093402555194497,4.779292962139845,-1.5632009181141853
1779213672339576000,0.899576171875,-0.6380366222530603,3.190439716374874,-4.467725843802095
1779213672349567000,0.90956689453125,-3.2927415684640406,2.5881653123766184,-6.20181582801938
1779213672359559200,0.91955908203125,-5.569692813724279,2.7666169226884842,-6.743814334753155
1779213672369550800,0.92955078125,-6.382011067128181,2.6344541853427885,-7.144566633975505
1779213672379543000,0.93954296875,-6.023710839188099,1.1024673206597566,-7.656608393862843
1779213672389534000,0.949533935546875,-3.963780881130695,-0.6602417320594192,-7.884912707102298
1779213672399526100,0.959526123046875,-1.6101602376878261,-1.4799725998073816,-7.63844788327217
1779213672409518000,0.96951806640625,0.045834699457883835,-0.39785190160572526,-7.305543377873301
1779213672419509000,0.979509033203125,-0.6524152762174606,0.24885434931516645,-7.689201918953657
1779213672429501200,0.989501220703125,-2.3290806609481574,-1.1751818437367676,-9.433999175146221
1779213672439492900,0.999492919921875,-2.436483051046729,-2.9130019543930885,-11.358729804641008
1779213672449485000,1.009485107421875,-2.0937217530220744,-3.2081524831980466,-12.096132225531338
1779213672459476000,1.01947607421875,-1.8832704918593166,-3.425795701691508,-12.236224586832522
1779213672469468200,1.02946826171875,-1.7113298708766698,-3.6092256849378344,-12.364040819406508
1779213672479460000,1.039460205078125,2.2895547062456605,-6.628432636338472,-9.757268421715498
1779213672489452000,1.0494521484375,3.6532267392277715,-7.732486349406838,-8.114912133821845
1779213672499443000,1.05944287109375,4.381918030396103,-8.22083334545195,-6.832116887584328
1779213672509435000,1.069434814453125,4.688480472314358,-7.839426967212558,-5.78588232627809
1779213672519427000,1.079427001953125,4.495964973075687,-7.065785942727327,-5.411484365496039
1779213672529418000,1.08941796875,3.9078450588971374,-6.5284232791006565,-5.379848287260532
1779213672539410200,1.09941015625,3.809953424465656,-6.244996213576197,-4.63343955309391
1779213672549402000,1.109402099609375,4.308054921805859,-6.476206185129285,-3.9727690742284056
1779213672559394000,1.11939404296875,5.204956999778747,-7.108361932650208,-3.400746600630879
1779213672569385000,1.129385009765625,5.997368191185593,-6.644919660758972,-1.607545671275258
1779213672579377000,1.139376953125,6.70594549960792,-4.018100500339269,0.5274994412600994
1779213672589369000,1.149369140625,5.947883737048507,-0.5358060818344355,1.9752122779756782
1779213672599361000,1.159361083984375,0.7263141867734492,-0.05452127926051616,1.0432090760052204
1779213672609352200,1.169352294921875,-0.9679664957553148,-1.6075544391036032,0.2919377042382955
1779213672619344000,1.17934375,3.3959009141653773,0.2513672089189291,1.2797978179872036
1779213672629336000,1.189336181640625,5.895291380023956,1.790707943496108,2.9686317794173953
1779213672639328000,1.199327880859375,6.555549186435341,-0.5684317556291818,2.750854120889306
1779213672649319000,1.20931884765625,5.351630493035912,-3.2104011389076708,1.4033283360660076
1779213672659311000,1.21931103515625,3.8365363109648225,-3.5563942584604025,0.9592910218685865
1779213672669303000,1.229302978515625,1.3826421063899994,-4.625268521597981,0.581259088498354
1779213672679294200,1.239294189453125,-1.9402631296694277,-7.6568433716624975,-0.5196189171433448
1779213672689286000,1.249285888671875,-3.724903151428699,-9.027401657027006,-0.6336158832013606
1779213672699278000,1.259278076171875,-1.0032897380709647,-1.6115262653440237,0.9290700711280107
1779213672709270000,1.26927001953125,-0.7739900571186095,0.8575012109547853,-2.0073709187805653
1779213672719261000,1.279260986328125,-2.1720295660614966,-0.3643839317679405,-2.1525924596637487
1779213672729253000,1.289253173828125,-0.5140366600316018,0.3243541191965341,-1.3018261099219322
1779213672739245000,1.2992451171875,-0.9602993221282958,1.1079752704262733,-1.3004255954742432
1779213672749236200,1.309236328125,-1.5496213055729866,3.774125155237317,-0.8922615586906671
1779213672759228000,1.319227783203125,-2.728313203257322,2.982265752494335,-0.8800491428494452
1779213672769220000,1.32922021484375,-1.2902630979001521,2.3385259501636027,0.05073883811235427
1779213672779212000,1.3392119140625,0.4049181867301464,1.8174217628985643,0.1287117201089859
1779213672789203200,1.349203125,0.658986398236081,1.3465402809172868,-0.6618792701333761
1779213672799195100,1.359195068359375,0.8814730381727218,1.1591197667300701,0.06441840389668942
1779213672809186800,1.369186767578125,1.073185623530671,0.33459669626951216,1.2327122416853904
1779213672819179000,1.379178955078125,0.660884925333783,-0.026870471268892287,1.0320131437301636
1779213672829170000,1.389169921875,0.20807459515929222,0.5061798821166157,1.2687398328781128
1779213672839162000,1.399162109375,0.13700491667985915,1.5232774885267018,0.9820008663266897
1779213672849154000,1.409154052734375,0.0647241819102317,2.4235744696348904,-0.14063888926804066
1779213672859145200,1.419145263671875,-0.6630149230998009,1.0088035330563783,-0.5785691187620162
1779213672869137200,1.42913720703125,-0.8921429007470607,0.6167407362461089,0.26663141354620457
1779213672879128800,1.43912890625,0.08196867363452912,1.598325130726397,1.3051391799926757
1779213672889121000,1.44912109375,0.23825477549806237,2.3934093407347796,1.6635709253579378
1779213672899112000,1.45911181640625,-0.5459082275234163,2.407205810897052,0.7617851669967174
1779213672909104000,1.469104248046875,-1.1632220144171268,1.8350518198743462,0.29660920318067074
1779213672919096000,1.479095947265625,-0.8207402639862149,1.4870961680769919,1.6305851860791445
1779213672929088000,1.489087890625,-0.690785704209283,2.4205235576316713,3.1320828044742344
1779213672939079200,1.4990791015625,-0.41011692441701886,3.737804718577862,3.6885698552876707
1779213672949070800,1.50907080078125,-0.5646013836860656,4.374675511921942,3.5204981846928596
1779213672959063000,1.51906298828125,-0.7713197419308125,4.611210770151019,3.24298472712636
1779213672969054000,1.529053955078125,-0.3715174369096756,4.3896968477040526,2.9273388150423765
1779213672979046100,1.539046142578125,0.20409853113517165,3.523008706209063,2.6672826882332563
1779213672989038000,1.5490380859375,1.443381091121584,2.7454484624534845,4.768381107503176
1779213672999030000,1.559030029296875,2.863209164959192,2.3977006081879138,4.954384740629792
1779213673009021000,1.56902099609375,1.283143475153297,1.3828922817587852,1.775282410827279
1779213673019013000,1.57901318359375,0.23426351390480993,0.858119050592184,1.727086827456951
1779213673029005000,1.589005126953125,0.34401217486858365,0.8618442085951566,1.6449468889087437
1779213673038997000,1.5989970703125,0.728600836405903,0.6870622267067432,0.11929273437857627
1779213673048988200,1.60898828125,1.4509469963312147,1.77960728828907,1.1442606357723475
1779213673058980000,1.61897998046875,2.4703715843841434,4.193069529232383,5.515025403991341
1779213673068972000,1.628971923828125,5.57737576944232,7.051103921902179,9.425130809035897
1779213673078963000,1.638962890625,-1.4905867866717277,2.8124387626647946,0.4856833297938108
1779213673088955100,1.648955078125,-5.897796640843152,-0.2092944923430681,-5.37621606823802
1779213673098947000,1.658947021484375,-3.7238662095963955,-1.7529829007357358,-9.844309576308726
1779213673108939000,1.66893896484375,-0.9642166417025029,-2.527714058545232,-8.69775410759747
1779213673118930200,1.67893017578125,0.6434137852467596,-2.5678081685245036,-7.395338215088844
1779213673128922000,1.688922119140625,1.217075112092495,-4.662268757215142,-9.357859353795646
1779213673138914000,1.6989140625,0.8121044645227491,-6.341586117759347,-11.006392869019507
1779213673148906000,1.708906005859375,0.8067467368818819,-6.971418975290655,-12.28897184215784
1779213673158892500,1.718892578125,1.4253535592608153,-5.593665809985995,-12.056810268968343
1779213673168884700,1.728884765625,1.9377903098151086,-3.430879873088002,-8.887672868341207
1779213673178876700,1.738876708984375,1.1861771388731897,-2.7628917646855116,-7.254920275095105
1779213673188867600,1.74886767578125,0.7280313659548759,-2.6310972761303186,-6.224105401238798
1779213673198859800,1.75885986328125,1.2798771668337285,-2.6282535771369933,-5.036976514598727
1779213673208851500,1.7688515625,1.9968498170271514,-2.283317273160815,-4.56150595126152
1779213673218843600,1.77884375,1.8567688539028167,-2.1365859122365713,-5.644965789112448
1779213673228834600,1.78883447265625,2.1722461314216255,-2.4330817181706426,-5.74642008446157
1779213673238826800,1.79882666015625,3.349313935035467,-1.7678806101381779,-3.467162315824628
1779213673248818700,1.808818603515625,3.1832638333961367,-1.139583876132965,-0.7033850004762411
1779213673258811000,1.818810791015625,1.9988509277164934,-1.115408050775528,0.4337877228617668
1779213673268801800,1.8288017578125,0.1307727442920208,-1.378784261918068,-0.293583717879653
1779213673278793500,1.83879345703125,-0.4553456208057701,-0.5182686715781688,0.06506897675991058
1779213673288785700,1.84878564453125,-0.23659181072190402,0.9699322428703308,0.8248124087959527
1779213673298776600,1.858776611328125,-1.1792027698159218,1.5964409244149922,0.910816621556878
1779213673308768800,1.868768798828125,-3.8043797159865496,-0.8719038303166627,1.363882460862398
1779213673318760700,1.8787607421875,-4.179704436224699,-1.2803642196983098,5.9351014123648405
1779213673328752600,1.888752685546875,0.9231741449572145,2.6113673242658377,8.445372168678045
1779213673338743800,1.898743896484375,2.6867408374190327,4.535148690211773,10.475074161732197
1779213673348735500,1.908735595703125,2.1928934903919695,4.475795753011107,11.479490858006477
1779213673358727700,1.918727783203125,-1.0651089192546903,4.516625776049494,9.469834458637237
1779213673368718600,1.928718505859375,-3.2594436944961545,4.384790955483913,7.959947197559475
1779213673378710800,1.938710693359375,-2.252203757494688,4.615412898015975,7.504338688033819
1779213673388702700,1.94870263671875,-1.3347466750100254,4.174545446026325,6.812451233127713
1779213673398694700,1.958694580078125,-0.3558899519279599,3.743415544196963,6.055457392060756
1779213673408685600,1.968685546875,0.5121050343818963,2.269438385412097,5.741863151809572
1779213673418677500,1.978677490234375,0.5878969190776347,0.7512433147162199,5.978536064943671
1779213673428669700,1.988669677734375,0.5285188474357128,-0.6179501120358705,6.509951802864671
1779213673438661600,1.99866162109375,0.44094957731515166,-1.2027701078861952,6.442842260187864
1779213673448652800,2.00865283203125,0.1661164448738098,-1.1511930653840303,5.960125378984213
1779213673458644700,2.018644775390625,-1.0671814877450465,-0.05745908627808094,4.395970521146059
1779213673468636700,2.02863671875,-2.166780559492111,1.2955869232714174,1.7618962750315665
1779213673478627600,2.038627685546875,-2.107480813783407,1.8861726430416106,-2.567044782936573
1779213673488619500,2.04861962890625,-2.3912803658820687,1.7515157507926225,-6.139481829181313
1779213673498611700,2.05861181640625,-2.9050141705095767,1.7449468937963246,-7.542683323997259
1779213673508603600,2.068603759765625,-2.265451507733017,1.8338894980967044,-7.785420067214965
1779213673518594800,2.0785947265625,-1.336480074673891,2.3282278435111046,-7.150810496801138
1779213673528586800,2.088586669921875,-1.9900971278965471,1.32572078025043,-6.327527197268605
1779213673538578700,2.09857861328125,-2.53029121555686,-0.89898882111907,-5.142968453377485
1779213673548570600,2.108570556640625,1.4855004233181475,-2.9848966855198142,-4.587240111976862
1779213673558561500,2.1185615234375,4.075032932394743,-4.899288291829824,-5.014671159288286
1779213673568553700,2.1285537109375,2.0040894128918647,-5.44248039226234,-4.793432838912308
1779213673578545700,2.138545654296875,0.4630009578645229,-4.644639577022194,-4.492704509975016
1779213673588536800,2.148536865234375,-0.6042424892008305,-4.46247508366704,-3.617632278755307
1779213673598528500,2.158528564453125,-0.909475728341937,-5.413703795111179,-3.113185796302557
1779213673608520700,2.168520751953125,1.359865626436472,-3.950394745334983,-2.4167297183066605
1779213673618512600,2.1785126953125,3.9962200924426314,-1.1775070718139409,-1.4005240923002362
1779213673628503600,2.188503662109375,4.148287553697824,1.3533300871878862,-0.6028345220990479
1779213673638495700,2.198495849609375,3.1688293575912714,4.262990037676691,0.15912808382380753
1779213673648487700,2.20848779296875,4.241947834169864,9.011737639427185,0.9184274618867784
1779213673658479600,2.218479736328125,3.523859770080447,11.441728405845165,0.821328439137712
1779213673668470500,2.228470458984375,3.2143121748715635,11.222207703042029,0.3993421401634812
1779213673678462700,2.238462646484375,2.6249767474234105,9.02707490929067,0.11061536079570651
1779213673688454700,2.24845458984375,0.6282390124686063,5.937604919618368,0.20244681840538978
1779213673698445600,2.258445556640625,-5.574525056186318,2.8710914426416156,0.4586642438344657
1779213673708437800,2.268437744140625,-11.582033533114194,-0.6786153008788823,-0.41584889219775795
1779213673718429400,2.278429443359375,-9.227747703760862,-0.6003033961862325,0.4537902080573141
1779213673728421600,2.288421630859375,-6.753070238876342,0.4121656736403703,2.4089682905249297
1779213673738412500,2.29841259765625,-4.801280922064185,-0.5300286674767732,3.220353793123364
1779213673748404700,2.30840478515625,-3.8792560932725664,-2.925985646867752,2.531544430488348
1779213673758396700,2.318396728515625,-2.292636890169978,-4.103444787886739,2.2207788377918303
1779213673768388900,2.328388916015625,-1.0938923845380544,-4.422295048969984,2.2787615095525977
1779213673778379800,2.3383798828125,-0.4720639697641134,-3.466899280974269,2.8151398383170365
1779213673788371500,2.348371337890625,4.032428885421156,-1.439881412437558,3.1600773113369938
1779213673798363600,2.35836376953125,10.058213023751973,1.2436650128543376,3.0688378282710906
1779213673808354600,2.3683544921875,6.776056562188267,1.3916834909796714,2.3265720391280946
1779213673818346800,2.3783466796875,2.832586647680402,0.12890928850769995,1.2587163053832948
1779213673828338700,2.388338623046875,0.7073287696659565,-0.2885673510223627,0.8961528670407831
1779213673838330600,2.39833056640625,-0.4809183073490858,-0.4826204350918531,0.9979239732541143
1779213673848321800,2.40832177734375,-0.7188269728232175,-0.4727449377655983,0.9849230373837053
1779213673858313500,2.4183134765625,-0.816930058048293,-0.15287936215996742,0.8437383508011698
1779213673868305700,2.4283056640625,-0.7314484809219837,-0.022267361387610433,0.5352789892204105
1779213673878296600,2.438296630859375,-0.716145040262863,0.16975158650577069,0.25036241579055785
1779213673888288800,2.448288818359375,-0.732113666832447,0.31868542591035365,-0.13010828903391958
1779213673898280700,2.45828076171875,-0.6787551477409899,0.38055648341178894,-0.629534751367569
1779213673908272600,2.468272705078125,-0.5280658429712057,0.43636897152662274,-1.2767809543840587
1779213673918263600,2.478263671875,-0.5025479553550481,0.5073217456281185,-1.7858628415524958
1779213673928255500,2.48825537109375,-0.6428448993176221,0.4498807795286178,-2.0721431045509875
1779213673938247700,2.49824755859375,-0.8296241199266166,0.41357261782884597,-2.1496600594736632
1779213673948239600,2.508239501953125,-0.8532400463789701,0.3934574660390615,-2.2441899623870847
1779213673958230800,2.518230712890625,-0.6061567253243177,0.3471270920187235,-2.3366291766315697
1779213673968222700,2.52822265625,-0.1045739617396146,0.22939386204183101,-2.3329412818990645
1779213673978214700,2.538214599609375,0.5506769762951881,0.17862872044444084,-1.809501783554256
1779213673988205600,2.54820556640625,1.320379419222474,0.23843641567528245,-0.8245143026322126
1779213673998197500,2.558197509765625,2.0210762035280463,0.27897885394394395,-0.02262202004417777
1779213674008189700,2.568189697265625,2.0719769542038438,0.24433774867355823,0.47734819377735255
1779213674018181600,2.578181640625,1.4256202473729849,0.16914777539372444,0.5953330604277551
1779213674028172800,2.5881728515625,0.5217998048463836,0.006220481950044631,0.4742619181998074
1779213674038164700,2.598164794921875,-0.14267477900981904,-0.13934884945750237,0.3815744282826781
1779213674048156700,2.60815673828125,-0.44029399948325004,-0.19017302776575087,0.30983108832538125
1779213674058148600,2.618148681640625,-0.3991518782883882,-0.11425415568947792,0.18390213080272078
1779213674068139800,2.628139892578125,-0.3167641024589538,-0.024579729983210563,0.060844344802200793
1779213674078131700,2.638131591796875,-0.2539852093975991,0.013259879067540168,-0.0874286926060915
1779213674088123600,2.64812353515625,-0.2880494646281004,0.030319150418043134,-0.1749910215292126
1779213674098114800,2.65811474609375,-0.3627062808793038,0.043075171616673465,-0.10590616019144654
1779213674108106500,2.6681064453125,-0.36453528640475125,0.04188274696171283,0.14315584052503108
1779213674118098700,2.6780986328125,-0.3132937959998846,0.038839141482114786,0.3738594699911773
1779213674128090600,2.688090576171875,-0.18441439117379485,0.043917467659711835,0.5764116484671831
1779213674138081800,2.698081787109375,0.005431961920857429,0.05276069932878017,0.7430114198785275
1779213674148073700,2.70807373046875,0.15139233847260475,0.0009551087677478789,0.7816665100306273
1779213674158065700,2.718065673828125,0.2089554331144318,-0.04082710042893886,0.688994290747866
1779213674168057300,2.728057373046875,0.1603577352166176,-0.022308862441778182,0.573752366130054
1779213674178048500,2.738048583984375,0.021487645719386637,0.049040802022814745,0.5342838407032191
1779213674188040400,2.74804052734375,-0.1708387241553515,0.032011341288685796,0.49073337972499426
1779213674198032600,2.75803271484375,-0.3503337791055441,-0.01230477029979229,0.49377172450758516
1779213674208024600,2.768024658203125,-0.36681554282903667,-0.03651508244872093,0.47781223109252746
1779213674218015500,2.778015380859375,-0.2895247978776693,-0.03567804710268974,0.4316781102966517
1779213674228007700,2.788007568359375,-0.22282442052364348,0.009270517170429229,0.4782764145381748
1779213674237999400,2.797999267578125,-0.12512396128270775,0.0482236404210329,0.5349851939056068
1779213674247990500,2.807990478515625,-0.041810850769281385,0.06766366942822932,0.5690205883678049
1779213674257982500,2.817982421875,-0.0704934129614383,-0.041247956189513206,0.5492572456903755
1779213674267974700,2.827974609375,-0.1257609805446118,-0.19336451728343962,0.4181847877994179
1779213674277966600,2.837966552734375,-0.16019753968622535,-0.32832010021805763,0.3533646712340414
1779213674287957500,2.84795751953125,-0.18454346091356127,-0.3314958076447248,0.3286984320111573
1779213674297949400,2.857949462890625,-0.14849486346542834,-0.2404050853997469,0.22284721687734127
1779213674307941400,2.86794140625,-0.15603753392994402,-0.19903613317906854,-0.08384557342231273
1779213674317933600,2.87793359375,-0.10300214584562926,-0.14505319857895374,-0.30944296579062935
1779213674327924500,2.887924560546875,-0.05559738405942916,0.03540156824886798,-0.39190789850950236
1779213674337916700,2.897916748046875,0.11092124840710312,0.11897884612381457,-0.4162557194329798
1779213674347908600,2.90790869140625,0.2856581855773926,0.009413725033402442,-0.41370092038363215
1779213674357899800,2.917899658203125,0.3113333095818758,-0.15702537592351434,-0.4486728650435805
1779213674367891500,2.927891357421875,0.1909082832377404,-0.218036017203331,-0.542007128431648
1779213674377883400,2.93788330078125,0.25471476578116414,-0.17625731513798235,-0.5798007063835859
1779213674387875600,2.94787548828125,0.30499362169895317,-0.01871522186398506,-0.5612624485217035
1779213674397866500,2.957866455078125,0.516138710344769,0.057142859935760494,-0.39837373352274297
1779213674407858700,2.967858642578125,0.7547212199598551,0.11297931344807147,-0.16355156282186506
1779213674417850400,2.977850341796875,0.7511474531263113,0.1049088197171688,-0.09181523712724447
1779213674427842600,2.987842529296875,0.4448304373364895,0.027072715842723846,0.0025499767437577245
1779213674437833500,2.99783349609375,0.12481880432367325,-0.011475333738327025,0.179149675578624
1779213674447825400,3.007825439453125,-0.06789053698666393,0.04657879582345485,0.25786460811421275
1779213674457817600,3.017817626953125,-0.15655425128042696,0.07826455841958523,0.14780907315835357
1779213674467809500,3.0278095703125,-0.21808979321718214,0.025042671319842336,-0.1341241005465388
1779213674477800700,3.03780078125,-0.31259763042926786,-0.07955810536146163,-0.35863398993909357
1779213674487792400,3.04779248046875,-0.31049678569249806,-0.017177929294109343,-0.4970544725053012
1779213674497784600,3.05778466796875,-0.26755725968685,0.04373509683012962,-0.6138217800594866
1779213674507775500,3.067775390625,-0.24880115782320497,-0.01895195322930813,-0.6583543108776211
1779213674517767400,3.077767333984375,-0.2779495839614421,-0.04897708913683891,-0.48560325029492374
1779213674527759600,3.087759521484375,-0.2828741078168154,-0.006616203269362449,-0.182947752687335
1779213674537751600,3.09775146484375,-0.35937757484801114,0.04465630332827568,0.05012728208526969
1779213674547742700,3.10774267578125,-0.4032973075300455,-0.0699789606332779,0.07926540602520107
1779213674557734400,3.117734375,-0.19344225869476794,-0.1567185019314289,0.034938188520818945
1779213674567726600,3.1277265625,0.3597340601354837,-0.0298369198590517,0.19682342556566
1779213674577718500,3.137718505859375,0.8412567631185054,0.027381927922368047,0.28866379713416096
1779213674587709700,3.147709716796875,0.9897994843136518,0.17919979833066463,0.2739721316978335
1779213674597701600,3.15770166015625,0.7037678623139858,0.3081365593671799,0.048221156203001735
1779213674607693300,3.167693359375,-0.010990838157013058,0.26350597500205036,-0.12083470312356948
1779213674617685500,3.177685546875,-0.4648293423354625,0.15528350069224833,-0.032143150974810124
1779213674627676400,3.187676513671875,-0.5197078375358134,0.03603928163051605,0.12156140996292233
1779213674637668600,3.197668701171875,-0.5208972665160894,-0.006600421178340912,0.1425586052842438
1779213674647660500,3.20766064453125,-0.6129296535253524,-0.04837678515613079,-0.10445128520801662
1779213674657652700,3.21765283203125,-0.6763759975194931,-0.032822657671570776,-0.3981722196012735
1779213674667643600,3.2276435546875,-0.6863420957386493,-0.031522096467018125,-0.6826993553221226
1779213674677635300,3.23763525390625,-0.5729249753952026,-0.08175181601345538,-0.7050470884695649
1779213674687627500,3.24762744140625,-0.2878641711890697,-0.16084639551639557,-0.3824048877574503
1779213674697619500,3.257619384765625,-0.05806932713091373,-0.14143559260368346,-0.07292232060879468
1779213674707610600,3.267610595703125,-0.025688568007946014,-0.03918225583136081,0.12878960765078662
1779213674717602600,3.2776025390625,0.14873455397281796,0.1376174956202507,0.15658450028821824
1779213674727594500,3.287594482421875,0.49622814121637493,0.2824766329318285,-0.018166355809569358
1779213674737585700,3.297585693359375,0.3838643293181434,0.24026713823378085,-0.24486922520175575
1779213674747577600,3.30757763671875,0.08573595374617725,-0.08885726410448551,-0.4242722910195589
1779213674757569500,3.317569580078125,-0.1798404343217611,-0.3296235840320587,-0.46962475991845126
1779213674767561500,3.3275615234375,-0.40567393700089305,-0.3670125267058611,-0.5474151249550283
1779213674777552600,3.337552734375,-0.5144663566857576,-0.34043256281614304,-0.3108136696219444
1779213674787544600,3.347544677734375,-0.4780541135570034,-0.04529635479748249,0.03551248127743602
1779213674797536500,3.35753662109375,-0.3578594984352588,0.2756780588328838,0.1672822737827897
1779213674807528400,3.367528564453125,0.05899520980417728,0.23621581701636313,0.13536635569259522
1779213674817519600,3.37751953125,0.4524900852441787,0.12807809838056564,0.042415830925107
1779213674827511600,3.387511474609375,0.6544423981308937,0.05746317793130874,-0.01036430375650525
1779213674837503500,3.39750341796875,0.9489017298012972,-0.05867722989618778,-0.28199454850330946
1779213674847495700,3.40749560546875,0.8664701148301363,-0.11862637942433357,-0.5121743002258241
1779213674857486600,3.417486572265625,0.5808031614243984,-0.08703881650567054,-0.5105792861193418
1779213674867478500,3.427478515625,0.4436030144333839,-0.04047989442646503,-0.5882337498165666
1779213674877470500,3.437470458984375,0.09469842788074165,-0.0853846195578575,-0.45224517057240005
1779213674887462700,3.447462646484375,0.06898001272380351,0.12173252874612807,0.11348726297020911
1779213674897453600,3.45745361328125,0.06090893447101116,0.11544950295388698,0.2832582848288119
1779213674907445500,3.467445556640625,0.0661135173767805,-0.23952537995576856,0.4847665072098374
1779213674917437400,3.4774375,-0.11087561916708946,-0.2853308533191681,0.7537044441327452
1779213674927429400,3.487429443359375,-0.47814124385118484,0.015153145468235015,0.952498731379956
1779213674937420500,3.497420654296875,-0.7449111890852451,0.07431494401097297,0.887313873155415
1779213674947412500,3.50741259765625,-0.6246509979140014,0.01865560063123703,0.6258719910763204
1779213674957404700,3.51740478515625,-0.7394739664673805,0.10413549725711345,0.40218510850444433
1779213674967396600,3.527396728515625,-0.6078303576249628,0.1156143381267786,0.23998086863830684
1779213674977387800,3.5373876953125,-0.24641397042572497,0.07225216626226902,0.2541930799946189
1779213674987379500,3.54737939453125,0.10290741676688193,0.005176525855064392,0.24671631437316535
1779213674997371400,3.557371337890625,0.34707974574565886,0.010773322948813438,0.176327896156162
1779213675007362600,3.567362548828125,0.4174404357055202,0.07745148847103119,0.12079393272176384
1779213675017354500,3.5773544921875,0.31383272518217564,0.13287994570434092,0.1287497140318155
1779213675027346700,3.5873466796875,0.09786007024943828,0.06520166322886943,0.1334616911150515
1779213675037338400,3.59733837890625,-0.11638071938939391,-0.13486673560738563,0.06910670784339308
1779213675047330600,3.60733056640625,-0.2404389876693487,-0.27336218310594557,0.05207330158650875
1779213675057321500,3.617321533203125,-0.27114165751226244,-0.32388241003155704,0.08834946071282028
1779213675067313400,3.6273134765625,-0.2574036395389587,-0.24447628036141394,0.1597705829784274
1779213675077305600,3.6373056640625,-0.17739245664775372,-0.08059154006242751,0.2306744033716619
1779213675087297500,3.647297607421875,-0.12139525961577892,0.05368658200204372,0.28532413131743667
1779213675097288700,3.657288818359375,-0.05081014978289604,0.13240940558314324,0.3198367879025638
1779213675107280400,3.6672802734375,0.04277246234305203,0.06495324142575264,0.2613026197388768
1779213675117272600,3.6772724609375,-0.03418338809814304,-0.14743746336698532,0.20088643722087143
1779213675127263500,3.687263427734375,-0.34145956777632236,-0.3058674453914165,0.26260785711854695
1779213675137255400,3.69725537109375,-0.5890483541350812,-0.07793722616136074,0.45590880764648317
1779213675147247600,3.70724755859375,-0.5504296139379963,0.10661854624450207,0.5564955263808369
1779213675157239800,3.71723974609375,-0.2837514386406168,0.11379939765930175,0.48982130638137455
1779213675167230700,3.727230712890625,0.09642744363043457,-0.007619827353954315,0.34793986970633267
1779213675177222700,3.73722265625,0.37578736931383605,-0.09732873985171317,0.32035102103501556
1779213675187214800,3.74721484375,0.34854331549219786,-0.0002098433583974838,0.28641236494556066
1779213675197206800,3.757206787109375,0.2565215229421854,0.0737035341143608,0.20814839104786514
1779213675207198000,3.767197998046875,0.1170948590081185,-0.11676701529324054,0.09091872667893766
1779213675217190000,3.77718994140625,0.011337313507124781,-0.36579847474098204,-0.1029774132631719
1779213675227181800,3.787181884765625,-0.16004085128717124,-0.28156302521824833,-0.10939897074326872
1779213675237173800,3.797173828125,-0.37027773904688654,-0.14199790266156195,-0.014224924707412719
1779213675247164700,3.80716455078125,-0.38867253331746904,-0.2342436401605606,-0.13056991519629954
1779213675257156900,3.817156982421875,-0.28034773114435374,-0.02887538135051727,-0.07720467410311102
1779213675267148800,3.827148681640625,-0.16633739414811133,0.0689589699357748,0.1635807889163494
1779213675277140700,3.837140625,-0.1867652651488781,0.27740941267013547,0.4309868400968611
1779213675287132000,3.8471318359375,-0.06594634411633014,0.3598217384189367,0.37324163035377855
1779213675297123800,3.857123779296875,0.14633848914913833,0.21428221762776373,0.09641177113726734
1779213675307115800,3.86711572265625,0.29207798949182034,0.023451602736115455,-0.06063523209616541
1779213675317108000,3.87710791015625,0.2732720936696976,-0.11896715568602084,-0.09110635820552707
1779213675327099000,3.887098876953125,0.22037344717495141,-0.2845154452830553,-0.1064621866390109
1779213675337090800,3.8970908203125,0.15141809396836906,-0.4135498214751482,-0.15648191669657827
1779213675347082800,3.907082763671875,0.09557111906204373,-0.40002223138213155,-0.18469342731088398
1779213675357074700,3.91707470703125,0.04996251997761428,-0.3195721456170082,-0.17035145209506153
1779213675367065900,3.92706591796875,-0.024805428497865795,-0.17786182772517203,-0.14520663557499647
1779213675377057800,3.937057861328125,-0.06656882339622824,-0.04902794254124164,-0.1047258643656969
1779213675387050000,3.947050048828125,-0.06887889043688773,0.022052257332205772,-0.0918485548749566
1779213675397042000,3.9570419921875,-0.05253682744503021,0.044352351945638656,-0.0726611854545772
1779213675407032800,3.96703271484375,-0.024510171878337858,0.03459317447543144,-0.018017887249588964
1779213675417024800,3.977024658203125,0.03304185338020325,-0.037197219493985176,0.02624327928125858
1779213675427016700,3.9870166015625,0.06763678142130375,-0.006498129847645759,0.08658683495447039
1779213675437009000,3.9970087890625,0.09117723148465157,0.1120411558151245,0.18117738201394676
1779213675446999800,4.006999755859375,0.09475735499374568,0.13649170646071435,0.1952573452927172
1779213675456992000,4.016991943359375,0.10218260962367057,0.2144721872419119,0.16609847082570195
1779213675466983700,4.026983642578125,0.08342639816217123,0.34088381371498105,0.16779036943539977
1779213675476975600,4.0369755859375,0.058549731058999896,0.39309856959879397,0.15289441359862685
1779213675486966800,4.046966796875,0.04523560105357319,0.2729582784801721,0.10730638237819075
1779213675496958700,4.056958740234375,0.03234163268897682,0.13691723839640615,0.03434285297617316
1779213675506951000,4.066950927734375,0.018930398984625934,0.05476502488851547,-0.036588293815404176
1779213675516942800,4.07694287109375,0.03362995546646416,-0.004435352098941803,-0.13112696455717085
1779213675526934800,4.086934814453125,0.11323949875421821,-0.06836392665207386,-0.2850239793270826
1779213675536925700,4.09692578125,0.20022738879024982,-0.15628244860172272,-0.41910950142890213
1779213675546918000,4.10691796875,0.2595527803968638,-0.23710487481057643,-0.4682259990364313
1779213675556909800,4.116909912109375,0.24696287301275877,-0.21068390087485311,-0.3790599612437188
1779213675566900700,4.126900634765625,0.16996789613757282,-0.12598258740603924,-0.24024945644661783
1779213675576893000,4.136892822265625,0.07723996461220085,-0.0014987141251564026,-0.14217340535894035
1779213675586884900,4.146884765625,-0.0031540070515125988,0.11666180135309695,-0.05704013021364808
1779213675596876800,4.156876708984375,-0.01956394764780998,0.09867664732933044,-0.05062207986488938
1779213675606868700,4.16686865234375,0.049289223825931545,-0.07482464709877967,-0.0987134722083807
1779213675616860000,4.17685986328125,0.14153379228115082,-0.26371114218533037,-0.12716229870989917
1779213675626851800,4.186851806640625,0.18178221603929995,-0.3917307883769274,-0.11683964213803409
1779213675636843800,4.19684375,0.15119542766101657,-0.4133043222814798,-0.07241612465232611
1779213675646835700,4.206835693359375,0.07133848548345267,-0.3019125702857971,-0.015869623174518347
1779213675656826600,4.21682666015625,-0.023898835046961903,-0.1303928050637245,0.07678717934340239
1779213675666818800,4.22681884765625,-0.14267835920639335,0.10228080930113792,0.17269626165553925
1779213675676810800,4.236810791015625,-0.23469021488428116,0.3365034066736698,0.3408956502832472
1779213675686803000,4.246802978515625,-0.28998540112674237,0.45050680247247216,0.4954936529293656
1779213675696793900,4.2567939453125,-0.3287970700800419,0.3535819672465324,0.5907143145859242
1779213675706785800,4.266785888671875,-0.3715075000375509,0.0660439592719078,0.6130541566878557
1779213675716777700,4.27677783203125,-0.3739391110986471,-0.18496376868486403,0.5876251163989306
1779213675726769700,4.286769775390625,-0.34523265657424923,-0.33492461304962634,0.49263139536604283
1779213675736760800,4.2967607421875,-0.3514455032071098,-0.31324703424870964,0.41299218759238715
1779213675746752800,4.306752685546875,-0.3492260370593518,-0.18689210639894008,0.32627427360415456
1779213675756745000,4.316744873046875,-0.3922913083365187,0.019918167912960052,0.2728548181056976
1779213675766736600,4.326736572265625,-0.44513906489424404,0.2320820782124996,0.22514789503514765
1779213675776727800,4.336727783203125,-0.43415538713037966,0.29750585975944993,0.17147753351554273
1779213675786719700,4.3467197265625,-0.3948451940704137,0.17542378692328928,0.13627163396924732
1779213675796711700,4.356711669921875,-0.37891686297859994,0.10806465339958667,0.17373773353248834
1779213675806703900,4.366703857421875,-0.4087473896294832,0.2873690811485052,0.38287031331211324
1779213675816694800,4.37669482421875,-0.3941869493573904,0.635875644826889,0.5881894722834229
1779213675826687000,4.38668701171875,-0.28361995774805543,0.806575910359621,0.6304021818518638
1779213675836678700,4.3966787109375,-0.10058803390860557,0.7422878548443317,0.5694343568004667
1779213675846670800,4.4066708984375,0.09834054724276066,0.485033925974369,0.47712885193824767
1779213675856661800,4.416661865234375,0.23287352085113525,0.28302316089868546,0.5228730966337025
1779213675866653700,4.42665380859375,0.27634675187468527,0.24962650273144243,0.598090688572824
1779213675876646000,4.43664599609375,0.27901038159336894,0.38756957704424855,0.6112886083200574
1779213675886637600,4.446637451171875,0.2379202828466892,0.5338491025477647,0.6329965822592377
1779213675896628700,4.456628662109375,0.19297350867185742,0.6028279462277889,0.6038596273630857
1779213675906620700,4.46662060546875,0.21829035729058086,0.6086532913804054,0.5765313293240965
1779213675916612900,4.47661279296875,0.16981350929345934,0.5569254422307014,0.4982208859361708
1779213675926604800,4.486604736328125,0.10716682777702807,0.574891891553998,0.4652981288909912
1779213675936596000,4.496595947265625,0.0296843231132254,0.6800187379360199,0.542686781258881
1779213675946588000,4.506587890625,-0.04120762417912483,0.8668968158096074,0.7000862511917948
1779213675956579600,4.51657958984375,-0.14931903932988644,1.0601870988130568,0.8834390775486827
1779213675966571800,4.52657177734375,-0.18234743044031781,1.1578098531752825,1.0108028901800512
1779213675976563700,4.536563720703125,-0.13923720577657223,0.9801672211587429,0.91230963659361
1779213675986555000,4.546554931640625,0.026277199817169455,0.41300563159584996,0.5007860602490604
1779213675996546800,4.556546875,0.22223405341506003,-0.5679723214238882,-0.27148265296965834
1779213676006538800,4.566538818359375,0.3586550327271223,-1.5384791493117809,-1.0688346617795526
1779213676016530700,4.57653076171875,0.411910822096467,-2.232882386431098,-1.865460694402456
1779213676026521600,4.586521484375,0.35405659902095793,-2.672018484583497,-2.6564929986715313
1779213676036513800,4.596513671875,0.26755086647868154,-2.932438184008002,-3.498926696614921
1779213676046505700,4.606505615234375,0.17173019310235976,-2.947353429067135,-4.284039839968085
1779213676056498000,4.616497802734375,0.020141464407974853,-2.5515917777389285,-4.713974686793983
1779213676066488800,4.62648876953125,-0.22330665108263492,-1.7673498642623424,-4.026559408865869
1779213676076480800,4.636480712890625,-0.22006781529188155,-1.2314034971743821,-2.8159365416526794
1779213676086472700,4.64647265625,-0.08404778146352618,-1.0840022741645574,-1.9555767263963817
1779213676096465000,4.65646484375,0.07279809144092723,-1.115159628972411,-1.4303674419000745
1779213676106455800,4.666455810546875,0.1161830961917527,-1.1402438013464211,-1.084195166388154
1779213676116447700,4.67644775390625,0.09184881060328334,-0.9193331054896116,-0.7658278665162622
1779213676126440000,4.68643994140625,0.033179764013551175,-0.40382103914320466,-0.42814445627778763
1779213676136431600,4.696431640625,-0.21237842983305452,0.505977929803729,0.11857684119418263
1779213676146422800,4.7064228515625,-0.5180424616068602,1.5919015274196862,0.8628820272102952
1779213676156414700,4.716414794921875,-0.7769955956101418,2.5942928553462026,1.7039232478819786
1779213676166406400,4.726406494140625,-0.9456050263434648,3.3668560214668513,2.46185451592952
1779213676176398300,4.7363984375,-0.9079337595969438,3.5404689595758914,2.9372005761042237
1779213676186389500,4.746389404296875,-0.49118013711180536,2.908818238967657,2.988804506613314
1779213676196381400,4.75638134765625,0.14853753356337546,1.2744389213025569,2.568350020316243
1779213676206373400,4.766373291015625,0.5005535666674376,-0.39619069039523597,1.9521071505896745
1779213676216365300,4.776365234375,0.5155161214670166,-1.223841537487507,1.335299632717669
1779213676226356200,4.786356201171875,0.34461423241496086,-1.3810954614698887,0.7112462353706359
1779213676236348400,4.796348388671875,0.11455052655385807,-1.2140806064516305,0.3058100161157548
1779213676246340400,4.80634033203125,-0.12711776544842868,-0.8888070343226194,0.11009469792246818
1779213676256332300,4.816332275390625,-0.2712515110949054,-0.41738194698393344,0.057238575395196674
1779213676266323500,4.826323486328125,-0.2454413260012865,-0.03994797950685024,0.0643555677935481
1779213676276315400,4.8363154296875,-0.1071960538715124,0.1577548592418432,0.2001793118648231
1779213676286307300,4.846307373046875,0.04674308300707489,0.26538053670227524,0.3780881936021149
1779213676296299500,4.856299560546875,0.17000705910418182,0.2550923669219017,0.5269030828021466
1779213676306291500,4.86629150390625,0.20090431993743404,0.19530103830397127,0.5761297627858817
1779213676316282400,4.876282470703125,0.1334832088271156,0.1472860721975565,0.5449323682285845
1779213676326274300,4.8862744140625,0.020101141530741006,0.16483341932594775,0.512294565604627
1779213676336266200,4.896266357421875,-0.05734042833447456,0.12616554275751113,0.4154717294484377
1779213676346258400,4.906258544921875,-0.05177167002512142,0.08476268826723098,0.2846791114121675
1779213676356249300,4.916249267578125,-0.014266973750852048,0.0442196654766798,0.1301990360572934
1779213676366241500,4.926241455078125,0.12306293709967285,0.21219430543780327,0.028976211376488207
1779213676376233200,4.936233154296875,0.1592857586035505,0.06156535255312919,-0.05849953524172306
1779213676386225200,4.94622509765625,0.06981416199300437,-0.0829319657087326,-0.1602417076215148
1779213676396216300,4.95621630859375,0.019957294346950948,-0.2698568053334951,-0.29140520479679105
1779213676406208300,4.966208251953125,0.007425802619196474,-0.4073796084076166,-0.4300222328484058
1779213676416200400,4.976200439453125,-0.06582304653022437,-0.374161229416728,-0.4140516335174441
1779213676426192400,4.9861923828125,-0.1049783778220415,-0.20004443343877792,-0.3134983786612749
1779213676436183600,4.99618359375,-0.0417880178829655,-0.02351706918776035,-0.30319983361735936
1779213676446175200,5.00617529296875,0.10263327600061893,0.09850304432809352,-0.35532252730354663
1779213676456167200,5.016167236328125,0.24358484794702379,0.14939678074121474,-0.47464828716889024
1779213676466159400,5.026159423828125,0.3155225779652595,0.20532325062453746,-0.5919672372564673
1779213676476150300,5.036150390625,0.31771628861725326,0.25358897662162777,-0.6072589144125581
1779213676486142500,5.046142578125,0.293930302827619,0.21219605900347233,-0.5307939527608454
1779213676496134400,5.056134521484375,0.25039573353827,0.08304594747722148,-0.38809330865740777
1779213676506126300,5.066126220703125,0.13982233045445755,0.07238368368744849,-0.22813334058672188
1779213676516117200,5.0761171875,-0.0018488427370786666,0.07964052294790744,-0.07532339040115475
1779213676526109400,5.086109375,-0.12205463683996348,0.02289806050658226,0.021055355249345303
1779213676536101400,5.096101318359375,-0.19177344869971275,-0.044158875200152395,0.0685896982319653
1779213676546093300,5.10609326171875,-0.22137250468228012,-0.07485036606192588,0.05132058352306485
1779213676556085200,5.116085205078125,-0.17254677018225192,-0.07227905426919459,0.0656942690514028
1779213676566076200,5.126076171875,-0.10659279074873775,-0.06983224563896656,0.085428458699584
1779213676576068400,5.136068359375,-0.018299590267799794,-0.1407318282485008,0.06082447105795145
1779213676586060300,5.146060302734375,0.028230690238811074,-0.14652385565340517,0.08214271502718329
1779213676596052500,5.156052490234375,0.06374740929994732,-0.16941256380975245,0.20696356517747044
1779213676606043400,5.16604345703125,0.05400635200832039,0.015971476113796235,0.2629329974196851
1779213676616035300,5.176035400390625,0.03928980785906314,0.11602467249333857,0.33693054604455824
1779213676626027300,5.18602734375,0.16125731440484523,0.04798340192437172,0.33321474039182064
1779213676636019200,5.196019287109375,0.24349662167429922,-0.06575169832706451,0.2946319117583334
1779213676646010400,5.20601025390625,0.12779814892802388,-0.06774141083955765,0.37788098059222097
1779213676656002300,5.216002197265625,-0.051706769829057156,0.011874562188982963,0.48393648612648243
1779213676665994500,5.225994384765625,-0.21368889137711375,0.02823065370619297,0.5002534146770835
1779213676675986200,5.235986083984375,-0.3271685555627569,-0.00467032989859581,0.457623941001296
1779213676685977300,5.245977294921875,-0.3643968277821317,-0.06091127255856991,0.38182869530469177
1779213676695969300,5.25596923828125,-0.3133598104408011,-0.046378889337182046,0.24043708797320723
1779213676705961200,5.265961181640625,-0.21559684389028697,-0.051498716568946834,0.11147373119071126
1779213676715953400,5.275953369140625,-0.0798913193712011,-0.06674187840819358,0.015254267755150794
1779213676725944300,5.2859443359375,0.04148348197843879,-0.05491992318928241,-0.04617620637193322
1779213676735936500,5.2959365234375,0.11879114153198897,-0.04050093721449375,-0.04663154892399907
1779213676745928200,5.30592822265625,0.09772325559463352,-0.024465748214721677,0.0049997079834342
1779213676755920400,5.31592041015625,0.017687632381916046,-0.01733282759487629,0.045273996835201974
1779213676765911300,5.325911376953125,-0.05626373901367187,-0.02149462344944477,0.07453355519771576
1779213676775903200,5.3359033203125,-0.1399309967270121,-0.01703939760625362,0.09325374549776315
1779213676785895400,5.3458955078125,-0.21914017905294894,-0.013382628664374351,0.09219532248601317
1779213676795887000,5.35588720703125,-0.22902444420754908,-0.01101589953303337,0.08946560526117682
1779213676805879300,5.36587939453125,-0.16792729368805884,-0.021768764215707778,0.06944090823382139
1779213676815870200,5.3758701171875,-0.09305179318487644,-0.031601006922125814,0.0618752952851355
1779213676825862400,5.3858623046875,-0.03445986695196479,-0.037919104027748105,0.07680033108592033
1779213676835854300,5.395854248046875,-0.003992247973941266,-0.028669045123457908,0.09474339953362941
1779213676845846500,5.405846435546875,0.004855659870244562,-0.0225607913762331,0.09631780924350022
1779213676855837400,5.41583740234375,0.02127192060947418,0.012119476860761641,0.054468964551389214
1779213676865829000,5.4258291015625,-0.02766074486374855,0.01348725808262825,0.001147562599927187
1779213676875821300,5.4358212890625,-0.07987319919262081,-0.010704933887720107,-0.04371697665154934
1779213676885813200,5.445813232421875,-0.1436082239350304,-0.015116905111074446,-0.0545491901807487
1779213676895804400,5.455804443359375,-0.17971180297341197,-0.03714928869903088,-0.048302697006613014
1779213676905796400,5.46579638671875,-0.16949436034169046,-0.03821194949448108,-0.05375497106313705
1779213676915788300,5.475788330078125,-0.13751516775693742,-0.012027706924080847,-0.07832929421886801
1779213676925780200,5.4857802734375,-0.10133209374155848,-0.028560324051976203,-0.10057999673262238
1779213676935771100,5.495771240234375,-0.029122013055346903,-0.04260521601736545,-0.11733882383182644
1779213676945763300,5.505763427734375,0.02141691857073456,-0.05251052395999431,-0.10503522257581352
1779213676955755300,5.51575537109375,0.06748718035016209,-0.04415595259070396,-0.11885638878792523
1779213676965747500,5.52574755859375,0.04200319500360638,-0.024581483548879624,-0.1347296652242541
1779213676975738400,5.53573828125,0.0027174787977710365,0.030717209824919697,-0.154500825881958
1779213676985730300,5.545730224609375,-0.036847054349444804,0.0834369926214218,-0.18089973411634563
1779213676995722200,5.55572216796875,-0.04243040743973106,0.11618132435977459,-0.17194412811398505
1779213677005714400,5.56571435546875,-0.02724631884396076,0.08946575139164924,-0.17019363118484615
1779213677015705300,5.575705322265625,-0.017394786915183067,0.039808278775215145,-0.16670681198239326
1779213677025697300,5.585697265625,-0.012329904741048812,-0.05074994402825832,-0.13796820875406265
1779213677035689500,5.595689453125,-0.030300445717573163,-0.07114508180320263,-0.1088452823832631
1779213677045681200,5.60568115234375,-0.06665306761357932,-0.050365913146734234,-0.05937149577066302
1779213677055673300,5.61567333984375,-0.0881558013042435,-0.0359936889231205,-0.04099997277781367
1779213677065664300,5.625664306640625,-0.1014753016045317,-0.017998598027229307,-0.06906798326820135
1779213677075656400,5.635656494140625,-0.07844634472727775,0.007055179208517074,-0.08795417778491973
1779213677085648400,5.6456484375,-0.026834815433621404,0.016513327905535696,-0.09102101800963282
1779213677095640300,5.655640380859375,0.0036321824898943303,0.020946341916918753,-0.11155278777629136
1779213677105631200,5.66563134765625,0.05463412851784378,0.01544482189118862,-0.09312252033352851
1779213677115623200,5.675623046875,0.06503448996841907,0.023186229798197743,-0.039828590910881756
1779213677125615400,5.685615478515625,0.049250681913830335,0.02675005975961685,0.010836305182427168
1779213677135607300,5.695607177734375,0.003985854765772819,0.017763035705685614,0.08664850201383233
1779213677145598500,5.705598388671875,-0.05504208826422691,-0.013474398601055145,0.13693740440160035
1779213677155590400,5.71559033203125,-0.11257014812529087,-0.02172375603020191,0.15755889827832578
1779213677165582000,5.72558203125,-0.16019819727335124,-0.02768763287067413,0.1670364823281765
1779213677175574000,5.735573974609375,-0.1825689459702,-0.019082886132597923,0.16649068501368164
1779213677185565000,5.74556494140625,-0.16308511435389517,0.013718728750944136,0.1632790294907987
1779213677195557000,5.75555712890625,-0.11082944193780421,0.03154547734260559,0.17078896672949193
1779213677205549000,5.765549072265625,-0.025197606153227387,0.0025777415335178373,0.16914602182805538
1779213677215541200,5.775541259765625,0.022211831808090207,-0.06588087766468524,0.17633096489608288
1779213677225532200,5.7855322265625,-0.01446457868218422,-0.08178571828305721,0.19399857740327714
1779213677235524000,5.795524169921875,-0.05792378118038177,-0.10715338377356529,0.21897549001052974
1779213677245516000,5.80551611328125,-0.13234803078472612,-0.12779577430784703,0.23047917306050658
1779213677255508200,5.81550830078125,-0.19910682379510253,-0.12338614117205142,0.24296485288515685
1779213677265499100,5.8254990234375,-0.2334551201313734,-0.1216267302840948,0.1963543467491865
1779213677275491000,5.835490966796875,-0.23853169274330138,-0.08398293606638908,0.1497960091918707
1779213677285483000,5.84548291015625,-0.2004021608352661,-0.04117489095330238,0.11081292919442057
1779213677295475000,5.855474853515625,-0.12676646779272704,-0.006364274334907531,0.1007340182505548
1779213677305467100,5.865467041015625,-0.03761453159060329,0.005091770181059837,0.0912470818504691
1779213677315458000,5.8754580078125,0.03424596847295761,-0.03018354133963585,0.09547346737384796
1779213677325450200,5.8854501953125,0.07401683784723281,-0.07295593061745166,0.10492825507000088
1779213677335442200,5.895442138671875,0.03623626550734043,-0.0874111569494009,0.10315715374425052
1779213677345434000,5.90543408203125,-0.010711400161124766,-0.09092179541885852,0.0943484088666737
1779213677355425000,5.915425048828125,-0.03974690397679805,-0.07648644283115863,0.062361763627827166
1779213677365417000,5.9254169921875,-0.04332362995240837,-0.03456219481527805,0.02749854003936052
1779213677375409200,5.9354091796875,0.023171580218337474,0.026562428233027457,0.0005289923101663589
1779213677385401000,5.945401123046875,0.09028002691660075,0.061250295254588125,-0.059630000576376914
1779213677395392300,5.955392333984375,0.14146189608871937,0.08281973750591277,-0.09450725269019603
1779213677405384000,5.965384033203125,0.18789861656036227,0.07517009953558444,-0.0878608004130423
1779213677415376100,5.975376220703125,0.15495262477006763,0.05708323870301246,-0.04830605800747871
1779213677425368000,5.9853681640625,0.09735153620541095,0.013635726642608642,-0.02936550295501947
1779213677435359000,5.99535888671875,0.029806488188169895,-0.003265723797678947,0.007935469174385071
1779213677445351200,6.00535107421875,-0.01751227581501007,-0.025742928543686865,0.003124123369902372
1779213677455343000,6.015343017578125,-0.0001017433414235711,-0.04533142611086368,-0.019357465290278195
1779213677465335000,6.0253349609375,0.024707703744433818,-0.03101999216377735,-0.017189035210013387
1779213677475326000,6.035325927734375,0.05272274193856865,-0.040186464437842365,-0.02767769599854946
1779213677485318100,6.045318115234375,0.08516834645867347,-0.029879005435109136,-0.042113779238611454
1779213677495310000,6.05531005859375,0.09030223874840884,-0.035273557955026624,-0.052621144727617496
1779213677505302300,6.06530224609375,0.08419566550161689,-0.02121756007373333,-0.04571794121041894
1779213677515293200,6.075293212890625,0.07802428339030593,0.008536942198872566,-0.032774580746144054
1779213677525285000,6.08528515625,0.0339893998960033,0.01106383032798767,-0.007963526225090027
1779213677535277000,6.095277099609375,0.03182082368526608,-0.016812603113055227,0.012095657593756913
1779213677545269000,6.10526904296875,-0.010299275696277617,-0.0657826779872179,0.04732698384225368
1779213677555260200,6.11526025390625,-0.061425633555185044,-0.08372983808815479,0.0886594034448266
1779213677565252000,6.125252197265625,-0.08740297364294529,-0.10835691434442997,0.15755875214785336
1779213677575244300,6.135244384765625,-0.11698738004565239,-0.1317220078408718,0.17855039451122282
1779213677585236000,6.145236083984375,-0.10989888308942318,-0.09624328270256519,0.19661635868623853
1779213677595227000,6.155226806640625,-0.061003042495250695,-0.060300447183847423,0.14499445412904025
1779213677605219000,6.165218994140625,-0.02580897951722145,-0.020790274572372435,0.07936302118077873
1779213677615211000,6.1752109375,-0.028760778527520594,-0.0030213936477899547,0.03098097532764077
1779213677625203200,6.185203125,-0.02383212648630142,0.008159341058135032,0.004497895941138267
1779213677635195100,6.195195068359375,-0.051858197531104086,0.016502806511521338,-0.007458353181928396
1779213677645186300,6.205186279296875,-0.04312777858674526,0.006205284380912781,0.060999096972495316
1779213677655178000,6.215177978515625,-0.03493510151458904,0.009469254612922667,0.12081029933467506
1779213677665170200,6.225170166015625,-0.007707469104789197,-0.00007248071432113647,0.15294716669917105
1779213677675162000,6.235162109375,0.030958069376088675,-0.03955225818753242,0.14121172071993351
1779213677685153000,6.245153076171875,0.07187867504106835,-0.0485287608474493,0.11286416263580322
1779213677695145200,6.255145263671875,0.08368482990264892,-0.04651099128425121,0.0641563919596374
1779213677705137000,6.265136962890625,0.07126136512663216,-0.04004033396542072,-0.003546732696145773
1779213677715129000,6.275129150390625,0.020401530983112752,-0.008172200539708137,-0.05273804910555482
1779213677725120000,6.2851201171875,-0.03129469918562099,0.03370002502799034,-0.06297039704546332
1779213677735112200,6.2951123046875,-0.06017890316341072,0.06267886675298213,-0.060295332617312666
1779213677745104100,6.305104248046875,-0.05829966528806835,0.04206979396641254,-0.033560470426827665
1779213677755096300,6.315096435546875,-0.05366440670285374,0.029037293913960455,0.01225245559066534
1779213677765087200,6.325087158203125,-0.050786220918036994,0.008029577198624611,0.05195099038109183
1779213677775079000,6.335078857421875,-0.06741524762511253,0.0002583586752414703,0.10344050073027611
1779213677785071000,6.345071044921875,-0.06180031208647414,-0.02978431288897991,0.14582915138751268
1779213677795063000,6.35506298828125,-0.04938389810575172,-0.0772024821460247,0.1271915248043835
1779213677805054200,6.36505419921875,-0.06207505564093589,-0.08647299931645393,0.09028189008012413
1779213677815046100,6.375046142578125,-0.07061846411321311,-0.053126025509834286,0.08728475409075617
1779213677825038000,6.3850380859375,-0.08036531182480976,-0.039272272202372546,0.01654196947813034
1779213677835030000,6.395030029296875,-0.11024139465047046,-0.04131225359737873,-0.04817994740977883
1779213677845021000,6.40502099609375,-0.11088614056110381,-0.04026011419594288,-0.08809533982127904
1779213677855013000,6.41501318359375,-0.09425649279952049,-0.0498141244828701,-0.056259355099499225
1779213677865005000,6.425005126953125,-0.07780629325807094,-0.04406359813213348,-0.038514731833338735
1779213677874997200,6.434997314453125,-0.05251348310206085,-0.03377425930798054,-0.03654211658611894
1779213677884988200,6.44498828125,-0.020766309174895286,0.003965396499633789,-0.0028472061246633527
1779213677894980000,6.45497998046875,-0.0006359598159790038,-0.005362988337874412,-0.015718962657451627
1779213677904972000,6.464971923828125,0.009917034913040697,-0.004343582162261009,0.005246960742771626
1779213677914964200,6.474964111328125,-0.0233972422003746,0.013270984983444213,-0.007579933734983205
1779213677924955100,6.484955078125,-0.06622870472166686,-0.01957271547615528,0.004417524181306362
1779213677934947000,6.494947021484375,-0.09773439804315566,-0.04382043702602386,0.0037780572339892386
1779213677944939300,6.504939208984375,-0.13397358615994454,-0.06702595604658126,0.02160392904281616
1779213677954931000,6.514930908203125,-0.10451605753991752,-0.06184124688506126,0.04325725018531084
1779213677964922000,6.524922119140625,-0.06113046826720237,-0.050426118901371955,0.03438230820372701
1779213677974914000,6.5349140625,-0.0005804119701497256,-0.032362638944387435,0.023841478836536405
1779213677984906200,6.54490625,0.08749417732404545,0.00620703794658184,0.017232289829850197
1779213677994898200,6.554898193359375,0.1681248620867729,0.027288404420018196,0.006679185502976179
1779213678004889000,6.56488916015625,0.20835635297643018,0.04315291302800178,0.016739391746371984
1779213678014881000,6.574881103515625,0.17622167756902052,0.03980418712198734,0.07017506772726774
1779213678024873000,6.584873046875,0.06608082068357617,0.016313421419262886,0.12142170923128723
1779213678034865200,6.594865234375,-0.025147282471787182,-0.018324761241674422,0.1639858625859022
1779213678044856000,6.60485595703125,-0.08108312297165393,-0.058739189216494556,0.19401333658099174
1779213678054848300,6.61484814453125,-0.09123217654228209,-0.07995967189967632,0.20883228165879844
1779213678064840200,6.624840087890625,-0.06453121662139892,-0.057822658893465995,0.218412741561234
1779213678074832100,6.63483203125,-0.032220015603303905,-0.04272562752664089,0.21711378779187798
1779213678084823000,6.644822998046875,-0.0012093575234524904,-0.0211795661509037,0.20159794649109244
1779213678094815000,6.65481494140625,0.012490666527021676,-0.03315466610491276,0.21331147289946675
1779213678104807200,6.66480712890625,-0.008505962538719177,-0.08503273738026619,0.19688070871084928
1779213678114799000,6.674799072265625,-0.051374176873825485,-0.12344225527346134,0.17588395178094504
1779213678124791000,6.684791015625,-0.08325109639419243,-0.11546528504490852,0.17484350281730293
1779213678134782000,6.694781982421875,-0.09328501741886139,-0.08601064250171184,0.1645608859948814
1779213678144774100,6.704774169921875,-0.06859362548841164,-0.022939561560750006,0.15288652255311608
1779213678154766000,6.71476611328125,-0.019442403627373275,0.009838087925314903,0.12861293590962886
1779213678164759000,6.724759033203125,0.030298071097396313,0.014435352587699889,0.12753946145921946
1779213678174750000,6.73475,0.08065876007974147,-0.019954992792010306,0.12747311822474003
1779213678184742000,6.744741943359375,0.06598024638593196,-0.028026071044802665,0.149653678111732
1779213678194733800,6.75473388671875,0.00589724134504795,-0.007665420061349868,0.18688713796287773
1779213678204726000,6.76472607421875,-0.05069558349251747,-0.032361469900608064,0.1750638675697148
1779213678214717000,6.774717041015625,-0.10878301253570243,-0.057280222579836844,0.1362200499124825
1779213678224709000,6.784709228515625,-0.15475860003530978,-0.039466333469748496,0.11467910310328006
1779213678234700800,6.79470068359375,-0.1414654032200575,-0.0354185193836689,0.044860009206831454
1779213678244693000,6.80469287109375,-0.07553308762907981,-0.06531564499735831,-0.04613265949115157
1779213678254684000,6.814683837890625,-0.059012160938978195,-0.03820318166613579,-0.05864858832359313
1779213678264675800,6.82467578125,-0.03905307649374008,-0.0015694412738084791,-0.054692544174194335
1779213678274668000,6.83466796875,-0.015834113469719885,0.03691664898693561,-0.09143632081225514
1779213678284660000,6.844659912109375,-0.028109109685756264,0.01815057371854782,-0.11755641210526227
1779213678294651100,6.854651123046875,-0.027359095036052165,0.003933247795701027,-0.11856895014867186
1779213678304642800,6.864642822265625,-0.04064821846438572,-0.032734979388117785,-0.1047697035074234
1779213678314635000,6.874635009765625,-0.03425471803499386,-0.06701660369634628,-0.0934990985609591
1779213678324627000,6.884626953125,0.002155132207274437,-0.07655249380469321,-0.06439706884771586
1779213678334617900,6.894617919921875,0.05726091509116813,-0.061492287316918366,-0.0433373296841979
1779213678344610000,6.904610107421875,0.10602523826016112,-0.013182137656211852,-0.06716039608120918
1779213678354602000,6.91460205078125,0.15142914508534594,0.025818331867456433,-0.11671645414978266
1779213678364594000,6.924593994140625,0.16685411149859428,0.039105098941922184,-0.16430603445097802
1779213678374584800,6.934584716796875,0.12882451456738636,0.04808218612372875,-0.20022811944261193
1779213678384577000,6.944576904296875,0.061256743261683726,0.0396317531645298,-0.17431918668225407
1779213678394569000,6.95456884765625,0.009995927101839334,-0.000004091653227806091,-0.13674860383123158
1779213678404561000,6.964560791015625,-0.016959902629256247,-0.028510055169463155,-0.07181070610508322
1779213678414552000,6.974552001953125,-0.015301595761906355,-0.03536649693548679,0.0017373451866209506
1779213678424543700,6.984543701171875,-0.03389057916402816,-0.019676175850629807,0.08434080959334969
1779213678434536000,6.994535888671875,-0.023188001630175856,0.018870120164752004,0.13374080031737684
1779213678444527900,7.00452783203125,-0.01706221222626045,0.018230653217434882,0.16923501528576015
1779213678454519000,7.01451904296875,0.007357358759175986,0.04889584059417248,0.20497429105639456
1779213678464511000,7.024510986328125,-0.01511341624604538,0.05087210910320282,0.24209800692275166
1779213678474503200,7.034503173828125,-0.043086295798886565,0.0015261866539716719,0.2586890762396157
1779213678484494800,7.044494873046875,-0.09888650895403697,-0.015026304218173026,0.2892481728933751
1779213678494485800,7.05448583984375,-0.16550561949908732,-0.06224164437949657,0.2943650775156915
1779213678504478000,7.06447802734375,-0.22560674471855163,-0.09712824884355067,0.31272505620121954
1779213678514470000,7.074469970703125,-0.26984922481523826,-0.09990472781956196,0.312767141777277
1779213678524462000,7.084462158203125,-0.27839140944480895,-0.1039981346130371,0.2554028941757977
1779213678534453000,7.094452880859375,-0.2569663623665459,-0.0835071352481842,0.19577260133847593
1779213678544445000,7.10444482421875,-0.22092238629460334,-0.06902092925608158,0.12876900325417517
1779213678554436900,7.114436767578125,-0.15860709215700625,-0.05232756860852241,0.06823620861917734
1779213678564428800,7.1244287109375,-0.09002044439865275,-0.013957213681936264,0.03457710012346506
1779213678574420000,7.134419921875,-0.05045591125143692,0.004509586378931999,0.016309914287924766
1779213678584412000,7.144411865234375,-0.016090115791093557,-0.012590601503849028,0.03413461705297231
1779213678594404000,7.154404052734375,-0.026061474707257,-0.04911211369335651,0.07692220389991998
1779213678604395800,7.164395751953125,-0.042894572619069364,-0.054736383315920824,0.0834416687965393
1779213678614387000,7.174386962890625,-0.06508592789471149,-0.04239128100574016,0.11535320297256112
1779213678624379000,7.18437890625,-0.08512918349206447,-0.02120002441704273,0.11533917444720863
1779213678634371000,7.19437109375,-0.11205049903220496,0.0004997662156820296,0.1017467024244368
1779213678644363000,7.204363037109375,-0.11096912440313025,0.005502689069509506,0.09266863908618687
1779213678654354000,7.21435400390625,-0.11320551428622566,0.03332300840914249,0.05348156094923615
1779213678664345900,7.224345947265625,-0.09257364514595828,0.05227729972600936,0.03247121388539672
1779213678674337800,7.234337890625,-0.06035479858643375,0.019924597653746604,0.01482332899197936
1779213678684330000,7.244330078125,-0.02855973039693199,-0.033445758005976677,-0.00620791472941637
1779213678694321000,7.25432080078125,-0.008968310220306738,-0.10924304952919482,0.015626900459825992
1779213678704313000,7.26431298828125,0.023253449815511702,-0.15477262856066226,0.04114654164165258
1779213678714305000,7.274304931640625,0.07370704124569892,-0.18152970258295534,0.07381868492662906
1779213678724296000,7.2842958984375,0.0748871955075534,-0.13823708882331848,0.09892857626378536
1779213678734288000,7.294287841796875,0.06681552816629409,-0.08870353484749793,0.07593918421193957
1779213678744279800,7.30427978515625,0.0559358222335577,-0.0528986464947462,0.013417261586338282
1779213678754272000,7.31427197265625,0.0386807269168552,-0.021608605217933653,-0.06497852199748158
1779213678764264000,7.324263916015625,0.0267336840135511,0.0028828619599342345,-0.12389306778088212
1779213678774255000,7.334255126953125,0.03662028725570999,0.026046879926323888,-0.18482889025881885
1779213678784247000,7.3442470703125,0.04755436285734176,0.05240706358551979,-0.22342238641679285
1779213678794238700,7.35423876953125,0.05980360357761383,0.08062485781013966,-0.23178280300498008
1779213678804230000,7.36422998046875,0.1176665944814682,0.07941782010793685,-0.2437090953812003
1779213678814221800,7.374221923828125,0.16008359445035455,0.06674480101764202,-0.19967048555985092
1779213678824214000,7.384214111328125,0.18777765706181526,0.03041442748606205,-0.14824059644341467
1779213678834206000,7.3942060546875,0.17314239798784256,0.026257892328500745,-0.09564619359225034
1779213678844197000,7.404197021484375,0.13652736229598522,0.012559037321805954,-0.04442439426854253
1779213678854188800,7.414188720703125,0.11889467497169971,-0.02118424232602119,-0.022864596628397703
1779213678864181000,7.424180908203125,0.09177636642158031,-0.03997545203566551,-0.027423721237480637
1779213678874173000,7.4341728515625,0.0815811356216669,-0.025834113958477973,-0.03951791752651333
1779213678884163800,7.444163818359375,0.08584989898204803,-0.007331658062338829,-0.04288549426347017
1779213678894156000,7.454156005859375,0.09110942694544792,0.012231705063581465,-0.04855784081146121
1779213678904148000,7.46414794921875,0.08651625393629074,-0.000976151555776596,-0.05047711843624711
1779213678914140000,7.474139892578125,0.05193944607377052,-0.026292963641881942,-0.02626797533109784
1779213678924130800,7.484130859375,-0.0025847557961940766,-0.05532733494639396,-0.00037321722656488416
1779213678934123000,7.494123046875,-0.026657125345733945,-0.05609773479700088,0.05046265151947736
1779213678944115000,7.504114990234375,-0.07071838539030868,-0.05660977597236633,0.08295213171392679
1779213678954107000,7.51410693359375,-0.07263736618757248,-0.021543723288178444,0.1166675004415214
1779213678964098000,7.52409814453125,-0.05060848059779964,0.005672784939408302,0.10688391918241977
1779213678974090000,7.534090087890625,-0.03753858027756214,0.03788520175814628,0.07914791712537407
1779213678984082000,7.54408203125,-0.02167816788938362,0.06416238330900668,0.08556231421232223
1779213678994073900,7.554073974609375,-0.032361465334030795,0.04479308145046234,0.08841361199021339
1779213679004065000,7.56406494140625,-0.06161327878150623,0.013940262547135353,0.12175868610069154
1779213679014057000,7.574056884765625,-0.1284755732655525,-0.033599487262964245,0.17929463700726628
1779213679024049000,7.584048828125,-0.18389643171429634,-0.07692424972653389,0.2521284025497734
1779213679034040800,7.594040771484375,-0.19556816480755804,-0.10338730923831463,0.30500396042987704
1779213679044031700,7.60403173828125,-0.1780196486353874,-0.09756021052002906,0.32182606202363967
1779213679054024000,7.61402392578125,-0.1370645379126072,-0.09506488657295703,0.28690716272518035
1779213679064016000,7.624015869140625,-0.09746376440823078,-0.103828623265028,0.2196906525425613
1779213679074008000,7.634008056640625,-0.036772267513605766,-0.12538988220989702,0.1513603358991444
1779213679083999000,7.6439990234375,-0.02019581581056118,-0.14651158069372175,0.09563640285059809
1779213679093991200,7.6539912109375,-0.014793664506077766,-0.13860650665760038,0.03962824603319168
1779213679103982800,7.66398291015625,-0.022789337151811924,-0.12244506092965603,-0.016058423744887113
1779213679113974800,7.673974853515625,-0.016104747104644775,-0.08220072882473468,-0.068400020878762
1779213679123966000,7.683966064453125,0.003753219620254822,-0.049015667581558224,-0.12088964818120002
1779213679133958000,7.6939580078125,0.049400867506861686,-0.004388005825877189,-0.13884440706670284
1779213679143950000,7.7039501953125,0.08309212470650672,0.018139467802643774,-0.1749694672845304
1779213679153941000,7.71394091796875,0.13558160587847232,0.03375672365128994,-0.1699441864684224
1779213679163936300,7.723936279296875,0.18489187249243258,0.04739245029389858,-0.14393310850784183
1779213679173928000,7.733927978515625,0.1949421418637037,0.045402737781405446,-0.13495952845737338
1779213679183920000,7.743920166015625,0.19543606286048887,0.036653029614686965,-0.1153808216318488
1779213679193911000,7.7539111328125,0.21131810712516308,0.06631693099439144,-0.09303995661661028
1779213679203903000,7.763903076171875,0.19615970095992089,0.08675298530161381,-0.10445756881833076
1779213679213895200,7.773895263671875,0.20234861872792242,0.07893617407083511,-0.1256057169176638
1779213679223886800,7.783886962890625,0.2196913831949234,0.09628127662539482,-0.1388029060125351
1779213679233878000,7.7938779296875,0.2541454414606094,0.08407412148118018,-0.12054025022163986
1779213679243870000,7.803869873046875,0.25699849280416964,0.02913198646008968,-0.09828589444607495
1779213679253862100,7.813862060546875,0.22292729637622832,0.0015150807380676268,-0.0673839757040143
1779213679263854000,7.82385400390625,0.18443536089658735,-0.027634441378712654,-0.0024963468603789803
1779213679273845000,7.833844970703125,0.13924771803743205,-0.061169046711921686,0.04466755537465215
1779213679283837200,7.843837158203125,0.07576338925361632,-0.059845104631781575,0.07452405671700835
1779213679293828900,7.853828857421875,0.013695347875356673,-0.044029111340641976,0.09658099022433161
1779213679303821000,7.863821044921875,-0.031349667076137844,-0.04139408666193485,0.09417553651779889
1779213679313812000,7.87381201171875,-0.07179798818740528,-0.031142157238721845,0.07823167906329036
1779213679323804200,7.88380419921875,-0.11904431257545947,-0.03640051615834236,0.058589113221317525
1779213679333796000,7.893796142578125,-0.1334475164592266,-0.012562544453144073,0.04834960488826036
1779213679343788000,7.9037880859375,-0.15006196665167806,-0.008980009791254996,0.040621056462824344
1779213679353779200,7.913779296875,-0.1662608217805624,-0.02238134315609932,0.06530424682050943
1779213679363771000,7.92377099609375,-0.17506021430790422,-0.03751286131441593,0.09145794812217355
1779213679373763000,7.93376318359375,-0.16933891405165194,-0.07445406022071838,0.1116002801798284
1779213679383754000,7.94375390625,-0.177880532425642,-0.09699497785270214,0.15162965435981748
1779213679393746200,7.95374609375,-0.19686755696833133,-0.08074410027563571,0.15902020300254224
1779213679403738000,7.963738037109375,-0.17790798668814822,-0.07315817519128322,0.17414251494109628
1779213679413730000,7.97372998046875,-0.16111410654187203,-0.06958674644529819,0.19079554357826708
1779213679423721000,7.983720947265625,-0.14569500361382962,-0.05314531473219394,0.18439590566903352
1779213679433713000,7.993712890625,-0.10408230576515197,-0.05972527764439582,0.19883038147389887
1779213679443705000,8.003705078125,-0.11492518681883811,-0.061735448423027986,0.19102131515815854
1779213679453697000,8.013697021484376,-0.12873860811591148,-0.08762509196102619,0.1860550710529089
1779213679463688200,8.023688232421875,-0.133492533777887,-0.06754851861596108,0.160029672306031
1779213679473680100,8.03368017578125,-0.09136544753313064,-0.03294716083407402,0.09536196982339024
1779213679483672000,8.043672119140625,-0.018728081345558166,0.0011076689809560775,0.036571488811075685
1779213679493664000,8.0536640625,-0.02396072130203247,0.031273674663901324,-0.030148616156727075
1779213679503655000,8.063655029296875,-0.07067921785712242,0.04628010513782501,-0.05905716912448406
1779213679513647000,8.073647216796875,-0.13545534915030003,0.06300561448931694,-0.010201368279755115
1779213679523639000,8.08363916015625,-0.15604104106128214,0.10623042370975017,0.04292728757858276
1779213679533631000,8.093630859375,-0.1253127253204584,0.09847381823360919,0.10010463430583476
1779213679543622100,8.1036220703125,-0.06343991425335407,0.04180617459416389,0.06853080765157937
1779213679553614000,8.113614013671874,-0.08279519671970047,-0.03510521565079689,0.012471066777408122
1779213679563606000,8.12360595703125,-0.11442775869071482,-0.10482815569639205,-0.022471067266166208
1779213679573597000,8.133596923828126,-0.13943710312969052,-0.14872984126508235,-0.02107669029831886
1779213679583589000,8.143589111328126,-0.15821487796902656,-0.16145605184733866,-0.019551088166236876
1779213679593581000,8.1535810546875,-0.13786007220447064,-0.139573305863142,0.013524667483568191
1779213679603573000,8.163572998046876,-0.07970014418065548,-0.07793313450813293,0.0387285207144916
1779213679613564000,8.17356396484375,-0.010676292315125464,-0.03131459119617939,0.017031068169325588
1779213679623556000,8.18355615234375,0.058797641405463216,0.005856324812769889,-0.019135200841724872
1779213679633548000,8.193548095703125,0.1022854854762554,0.02640285375714302,-0.0528770191848278
1779213679643540200,8.203540283203125,0.1298229053544346,0.03872749780118465,-0.07382526079788804
1779213679653531100,8.21353125,0.14708326136814429,0.05678337897360324,-0.050425095988065
1779213679663523000,8.223523193359375,0.12341008830321952,0.029680852514505383,-0.010469225435703992
1779213679673515000,8.233514892578125,0.06593757628798484,0.03143324913978576,0.02459916533604264
1779213679683506000,8.243505859375,-0.018690671944618223,0.023590134423971176,0.041755613450706004
1779213679693498000,8.253498046875,-0.09290215558111667,0.02751636795699596,0.04404372438788414
1779213679703490000,8.263489990234374,-0.1293634802822955,0.002331073296070099,0.02445069677606225
1779213679713482200,8.273482177734374,-0.12103811674118041,-0.00874678555727005,-0.002215337961912155
1779213679723473200,8.28347314453125,-0.08075462166965007,-0.019108605095744132,-0.018513561812043187
1779213679733464800,8.29346484375,-0.00014496142864227294,-0.04174304623007774,-0.05558554749116301
1779213679743457000,8.30345703125,0.07607320412145926,-0.047127661877870555,-0.04573854560703039
1779213679753449000,8.313448974609376,0.10469547836058772,-0.03613455869853496,-0.04072817009910941
1779213679763440000,8.323440185546875,0.09647944781230762,-0.04495207140445709,-0.04306581926643848
1779213679773432000,8.33343212890625,0.04954758250117302,-0.04992518364191055,-0.04801949615105986
1779213679783424300,8.34342431640625,0.02585806108964607,-0.060195233243703836,-0.08034604086875916
1779213679793416000,8.353416015625,0.03141922061443329,-0.0386731372654438,-0.11763780677840113
1779213679803406800,8.36340673828125,0.04869827219545841,0.02062543939948082,-0.12620733607262372
1779213679813399000,8.37339892578125,0.07218611528873443,0.059903556820750235,-0.14525456636995077
1779213679823391000,8.383390869140625,0.10646540150940417,0.05891454578340053,-0.14374649989455937
1779213679833382100,8.393382080078124,0.10363107313262299,0.03591477846801281,-0.12378814610168337
1779213679843374000,8.4033740234375,0.070616692281235,0.00046878655552864073,-0.09920403220430016
1779213679853366000,8.413365966796874,-0.001914309188723564,-0.01539864466190338,-0.056942807319015264
1779213679863358000,8.42335791015625,-0.07841943845404312,-0.02443652212023735,0.0068862523823976516
1779213679873348900,8.433348876953126,-0.1069043774485588,-0.018888824865221976,0.02400689853131771
1779213679883341000,8.443341064453126,-0.11363514700829982,0.003317746245861053,0.05254398783817887
1779213679893333000,8.4533330078125,-0.08798048126995563,-0.009580313771963118,0.06293693316727876
1779213679903325200,8.4633251953125,-0.03694470603764057,-0.016102993538975714,0.07956307379752398
1779213679913316000,8.473316162109375,0.01375730719566345,-0.027055764707922935,0.07278978027030825
1779213679923308000,8.48330810546875,0.04854686275972053,-0.021124036571383474,0.08407178339362144
1779213679933300000,8.493300048828125,0.053396677411068225,-0.02778407898247242,0.12389452908560633
1779213679943292200,8.503292236328125,0.038399005632335316,-0.021618542090058326,0.13684081215932964
1779213679953283000,8.513282958984375,0.0016939627026207743,-0.027844869258999823,0.164617584618181
1779213679963275000,8.52327490234375,-0.04182896181470714,-0.03761106099188328,0.195282918125391
1779213679973267200,8.53326708984375,-0.09081541243493556,-0.05362988337874412,0.20978680590465665
1779213679983258000,8.543258056640624,-0.10824819327294825,-0.06363514456450939,0.22446385829374194
1779213679993250000,8.55325,-0.09253917662077583,-0.07223287703990935,0.21775354700013994
1779213680003242000,8.563241943359374,-0.07948620916903018,-0.06388239732384682,0.18916048972234129
1779213680013234200,8.573234130859374,-0.061297066138917576,-0.052041152882575985,0.12695581635236738
1779213680023225000,8.58322509765625,-0.04263386672311462,-0.02300561253428459,0.0455083901129663
1779213680033217000,8.593217041015626,-0.0800660640167538,-0.006255553263425827,-0.03944616746455431
1779213680043209000,8.603208984375,-0.11383388445079326,0.005965630406141281,-0.11102364933565258
1779213680053200100,8.6132001953125,-0.11179681653208098,0.012289572730660437,-0.14053279854506254
1779213680063192000,8.623192138671875,-0.06942892553508281,-0.014840426257252692,-0.1548024391770363
1779213680073184000,8.63318408203125,-0.04638473455607891,0.0004489128112792969,-0.11481193570271134
1779213680083176200,8.64317626953125,0.0033697686940431593,0.004075286614894867,-0.05809563061594963
1779213680093167000,8.6531669921875,0.048012637152010575,0.0019271686702966688,-0.009302373613417148
1779213680103159000,8.663158935546875,0.08615326584279537,0.007379588857293128,0.027832448168843983
1779213680113151000,8.67315087890625,0.08132219242453574,-0.01125379994213581,0.05838000051528215
1779213680123143000,8.683142822265625,0.04534894350124523,-0.03304243790209293,0.09798296597674488
1779213680133134000,8.693134033203124,-0.013882979401946067,-0.04542027343809604,0.11883783021792768
1779213680143126000,8.7031259765625,-0.04528994332300499,-0.04898118079006672,0.13725158491730688
1779213680153118200,8.7131181640625,-0.06183247905671596,-0.060388125467300414,0.14719254869520662
1779213680163105300,8.723105224609375,-0.05517011682437732,-0.0672287851423025,0.14390753567516804
1779213680173097200,8.73309716796875,-0.04857612538682297,-0.06428104125261307,0.12582111323401332
1779213680183089200,8.743089111328125,-0.031139225496118885,-0.06191548116505146,0.11351502775996923
1779213680193081000,8.7530810546875,-0.030058453655242918,-0.041218730095028876,0.07214432197362185
1779213680203072300,8.763072265625,-0.002037625041138381,-0.034327217015624044,0.0513695372313261
1779213680213064200,8.773064208984374,0.014723540145624428,-0.041081367450952526,0.013564268841594456
1779213680223056400,8.783056396484374,0.03423662525587715,-0.03811725694835186,-0.008439473173767328
1779213680233048300,8.79304833984375,0.049342999839782714,-0.028695348608493803,-0.002213292135298252
1779213680243039200,8.803039306640626,0.04420331713007763,-0.022920856860280035,0.023819267004728317
1779213680253031200,8.81303125,0.013794159474177285,-0.013258125501871108,0.05141439928635955
1779213680263023000,8.823023193359376,-0.015811892504757268,-0.006341477981209755,0.05550634477511048
1779213680273014300,8.83301416015625,-0.048014363318216055,-0.02897650363743305,0.0565130375996232
1779213680283006200,8.843006103515625,-0.09199496847516857,-0.02965980972647667,0.07675006220340728
1779213680292998400,8.852998291015625,-0.13625847309357486,-0.015755203014612196,0.0583135111503303
1779213680302990000,8.862989990234375,-0.14617664965093136,-0.02622106744945049,0.03274067847654223
1779213680312981200,8.872981201171875,-0.10916063194274901,-0.010191723668575287,0.00038330022916197774
1779213680322973200,8.88297314453125,-0.034878996546333654,-0.006143325060606003,0.00005786766707897186
1779213680332965000,8.892965087890625,0.04735737898051738,-0.016747136661410332,0.04001972956880927
1779213680342957300,8.902957275390625,0.15220129850162192,-0.026408698976039886,0.09253668326959014
1779213680352948200,8.9129482421875,0.1502934190536849,-0.04437923995256424,0.13547156963273882
1779213680362940400,8.9229404296875,0.1176244906391017,-0.04282558076977729,0.17182181690856813
1779213680372932000,8.93293212890625,0.039886586442124096,-0.043944355666637416,0.19734218874275683
1779213680382923000,8.942923095703126,-0.027183775001764297,-0.024368717581033705,0.21358283718675375
1779213680392915200,8.952915283203126,-0.10648175898916087,-0.0050958618342876435,0.21164163999110458
1779213680402907100,8.9629072265625,-0.13358897075653076,-0.014642857858538626,0.19364494166001675
1779213680412899300,8.9728994140625,-0.13842763382620177,0.0005471124887466431,0.14796923215612767
1779213680422890200,8.98289013671875,-0.09130814612163231,-0.011365443623065947,0.10027589921951294
1779213680432882400,8.99288232421875,-0.03975273092938587,-0.027249825975298878,0.053334699824452395
1779213680442874000,9.0028740234375,0.013455712166894226,-0.056066755136847495,-0.03930252121016383
1779213680452865000,9.012864990234375,0.06941549066477455,-0.09314882381856442,-0.08722191798761486
1779213680462857200,9.022857177734375,0.10847849489748478,-0.10872224052548408,-0.10640943353846669
1779213680472849200,9.03284912109375,0.17218436661064623,-0.10295184043049811,-0.09740238960981368
1779213680482841300,9.04284130859375,0.1885895579665899,-0.06418985583782195,-0.09632862289845943
1779213680492832300,9.052832275390625,0.18865679625021292,-0.014323124384880065,-0.09135317257344722
1779213680502824200,9.06282421875,0.1836380913053639,0.033759061738848684,-0.09692278939932585
1779213680512816000,9.072816162109374,0.1538666378979571,0.06894318784475326,-0.1356124394081533
1779213680522807000,9.08280712890625,0.10966511086616665,0.09449439320862292,-0.19712211625128984
1779213680532799200,9.09279931640625,0.05652328499900177,0.09585165303647518,-0.23541867528930305
1779213680542791200,9.102791259765626,0.024559856238961217,0.08302198207974433,-0.2533938924409449
1779213680552783400,9.112783447265626,0.037400614845287054,0.05791442883014679,-0.23694223159477112
1779213680562774300,9.122774169921875,0.07725976529121399,0.03253098124861717,-0.19848741325512528
1779213680572766200,9.13276611328125,0.12959962712572887,0.003627542847394943,-0.15503040271401405
1779213680582758100,9.142758056640625,0.1887503197525628,-0.01994037974476814,-0.07650558592304586
1779213680592749000,9.1527490234375,0.20684182022763414,-0.039430093112587924,0.010332885704934597
1779213680602741200,9.1627412109375,0.16339317565606906,-0.047452071526646614,0.10554024948850274
1779213680612733200,9.172733154296875,0.11117078445507213,-0.0531821396112442,0.18526625876277683
1779213680622725400,9.182725341796875,0.013098569292295723,-0.031630817538499834,0.21838556129336356
1779213680632716300,9.19271630859375,-0.07334988010479136,-0.03919511531293392,0.24598113196641205
1779213680642708200,9.202708251953124,-0.13408522984087468,-0.04832476270794868,0.25495354297310113
1779213680652700200,9.2127001953125,-0.2050216373294592,-0.06608019962906837,0.22492957610934972
1779213680662691000,9.222691162109374,-0.25960721399784087,-0.060131520357728,0.21994623473882674
1779213680672683300,9.232683349609376,-0.255744711617101,-0.06731704794764519,0.2035021726772189
1779213680682675200,9.24267529296875,-0.2120528511404991,-0.0916980404883623,0.18375600033029912
1779213680692667100,9.252667236328126,-0.1419593424831517,-0.08422551265060901,0.15995748385265468
1779213680702658300,9.262658203125,-0.07944295454919338,-0.058791211664676664,0.1644455890521407
1779213680712650200,9.272650146484375,-0.03790273741483688,-0.053580199018120764,0.1814732962206006
1779213680722642200,9.28264208984375,-0.007500584888458252,-0.04601414767801761,0.20061112741082907
1779213680732634400,9.29263427734375,-0.04169511543512344,-0.05732230815589428,0.19631153052076697
1779213680742625300,9.302625244140625,-0.08007889609886333,-0.05235094948410988,0.20155133087038993
1779213680752617200,9.3126171875,-0.12663842096626757,-0.0531166731595993,0.20656667481437324
1779213680762609200,9.322609130859375,-0.12853345919894055,-0.05647942759096622,0.20149287868142127
1779213680772600000,9.33260009765625,-0.13692364987088368,-0.05885609359443188,0.1908361678496003
1779213680782592300,9.34259228515625,-0.10615034421086311,-0.05302548774480819,0.19775676089301705
1779213680792584200,9.352584228515624,-0.074089336827863,-0.03505494676828384,0.20052184169217943
1779213680802576400,9.362576416015624,-0.032006062325369566,-0.014064765709638594,0.1721617163874209
1779213680812567300,9.3725673828125,0.0001876315265893936,0.0198158765822649,0.12859203925207258
1779213680822559200,9.382559326171876,0.02684066065251827,0.0021060323685407637,0.10895648767277598
1779213680832551200,9.39255126953125,0.022626860616076737,-0.03296878814399242,0.07425444599539041
1779213680842542000,9.4025419921875,0.021142723005544393,-0.043058805003762246,0.03194514418467879
1779213680852534300,9.4125341796875,0.013777747195493429,-0.044912908437848086,0.0053441375069320195
1779213680862526200,9.422526123046875,-0.014103362420666963,-0.019549334600567816,-0.02414543021917343
1779213680872517000,9.43251708984375,-0.013192074528336524,0.0060930561780929565,-0.05202317883446812
1779213680882509300,9.44250927734375,-0.026392350629437712,0.012849544700980186,-0.08589549168944359
1779213680892501000,9.4525009765625,-0.019676760372519492,0.02151683528125286,-0.09432911964431405
1779213680902493200,9.4624931640625,-0.02113161708964035,0.006824293062090874,-0.07696721208542585
1779213680912484000,9.472484130859375,-0.03727961881412193,0.003339373555779457,-0.04846826283186674
1779213680922476300,9.482476318359375,-0.022433383870590476,-0.00597089110314846,-0.011034311972558497
1779213680932468200,9.49246826171875,-0.009274042568076402,0.002246317622065544,0.030344723250716923
1779213680942459100,9.502459228515624,-0.007735544421803206,0.01450374164879322,0.05555675978809595
1779213680952451300,9.512451416015624,-0.01657820983529091,0.005676876592636108,0.0582493598729372
1779213680962443000,9.522443115234376,-0.046713272390700875,-0.013766659545898436,0.08920783110782504
1779213680972435200,9.532435302734376,-0.10094983469201252,-0.020057868644595144,0.09495981876328587
1779213680982426000,9.542426025390625,-0.1304506727308035,-0.0486637854039669,0.10680559324920177
1779213680992418300,9.552418212890625,-0.14277827591691164,-0.08664309518635273,0.11601546627357602
1779213681002410200,9.56241015625,-0.13344576289355753,-0.10856851126849651,0.1078217845544219
1779213681012401200,9.572401123046875,-0.10442249750494956,-0.12250292859673499,0.08498685241192579
1779213681022393300,9.582393310546875,-0.09593407062292099,-0.07755845597684383,0.04286065208315849
1779213681032385000,9.592385009765625,-0.0484457587391138,-0.02722586057782173,-0.0005688859291374683
1779213681042377200,9.602377197265625,0.0009510171145200729,0.032605800050497055,-0.023429244773834942
1779213681052368100,9.6123681640625,0.04519702260885387,0.05375555558502674,-0.025531770011037586
1779213681062360300,9.6223603515625,0.07245850248932838,0.046885669815540314,-0.03655585285052657
1779213681072352300,9.632352294921875,0.031177246818412094,0.01768997046947479,-0.03825900350660085
1779213681082343200,9.64234326171875,-0.030887871950399128,-0.015113982501626013,-0.0292792859762907
1779213681092335000,9.652335205078124,-0.0927285343135707,-0.0235498024135828,-0.0009428338080644607
1779213681102327000,9.6623271484375,-0.11110179260578006,-0.02628478033542633,0.021903496511280537
1779213681112319200,9.6723193359375,-0.09900865576267241,-0.02399287000596523,0.03386544472277164
1779213681122310100,9.68231005859375,-0.030312757209874686,-0.019241876086592672,0.03421133555099368
1779213681132302300,9.69230224609375,-0.006909633257985114,-0.030298107630014417,0.026348054829984903
1779213681142294300,9.702294189453125,0.020445406657457352,-0.055605567365884775,0.06213000069856643
1779213681152285200,9.71228515625,0.007185564122535288,-0.039728199276328084,0.08607537830099463
1779213681162277000,9.722277099609375,-0.002596409701369703,-0.02363748069703579,0.12459551696181297
1779213681172269800,9.732269775390625,-0.01352229286339134,-0.032139936104416844,0.1607568175368011
1779213681182260700,9.7422607421875,-0.0057137014716863626,-0.06148410401046276,0.13460063201710581
1779213681192253000,9.7522529296875,-0.05236209193263203,-0.0944651671141386,0.0929489173322916
1779213681202244900,9.762244873046875,-0.07291850295020266,-0.08964753769934176,0.039033202749490736
1779213681212236800,9.77223681640625,-0.09775777891874313,-0.04850479544997215,-0.014107143546640872
1779213681222227700,9.782227783203124,-0.11165591935720294,0.005734159737825394,-0.025973814690113065
1779213681232219600,9.7922197265625,-0.08274667226970195,0.07284428693652152,-0.05806771969571709
1779213681242211800,9.8022119140625,-0.057948367632366715,0.11965046177506446,-0.05973448386415839
1779213681252202800,9.81220263671875,-0.01370119309425354,0.11546703861057758,-0.03824424432888627
1779213681262195000,9.82219482421875,0.001637245813012123,0.07106207969486714,-0.009836042098701
1779213681272187000,9.832186767578126,-0.033159378812648355,0.03511690608859062,0.04205240444019437
1779213681282178800,9.8421787109375,-0.06473408224973827,0.008535188633203506,0.05893515018001198
1779213681292169700,9.852169677734375,-0.10242989891562611,0.005243745872378349,0.06225596516579389
1779213681302161700,9.86216162109375,-0.15243804813325404,0.010871522626280784,0.04505450886562466
1779213681312153900,9.87215380859375,-0.16411095027029513,0.013278583768010138,0.032550562731921674
1779213681322144800,9.882144775390625,-0.14442483754754065,-0.006667641195654868,0.020124504140019414
1779213681332137000,9.892136962890625,-0.1526952194984071,-0.022022446715831756,-0.003022562691569328
1779213681342128600,9.902128662109375,-0.15114625475704668,-0.02361468434333801,0.00033040099814534183
1779213681352119800,9.912119873046874,-0.10257602938804775,-0.03073591452538967,-0.0034901802033185957
1779213681362111700,9.92211181640625,-0.06881225494146347,-0.043369770649075504,-0.00017988661155104635
1779213681372103700,9.932103759765624,-0.05891045413017273,-0.05731295580565929,0.01599602603316307
1779213681382096000,9.942095947265624,-0.041125243125297126,-0.07389993346929549,0.025509412048757073
1779213681392086800,9.952086669921876,-0.03430211910698563,-0.056744216006994246,0.049026188975572586
1779213681402079000,9.962078857421876,-0.059559821416996415,-0.039032033705711365,0.07177285831272602
1779213681412070700,9.972070556640626,-0.07468434357894584,-0.014766776499152182,0.0427121835231781
1779213681422061600,9.9820615234375,-0.08807632459355517,-0.0010527239233255386,0.019799509969353674
1779213681432053800,9.9920537109375,-0.10355621779812499,-0.023663199660182,-0.024508856704086063
1779213681442045700,10.002045654296875,-0.0898918495829217,-0.024293898779153823,-0.021310060662776232
1779213681452038000,10.012037841796875,-0.028407161050569264,-0.03632511283457279,-0.0556819936029613
1779213681462028800,10.02202880859375,-0.0014952069938182829,-0.020855156502127645,-0.0628068770468235
1779213681472021000,10.03202099609375,0.07444412334859371,-0.006764671829342842,-0.049853871971368785
1779213681482012700,10.0420126953125,0.11499244336877018,-0.0012380173623561857,-0.041356092739105225
1779213681492003800,10.05200390625,0.1427238788485527,0.023239421290159223,0.020318857668340205
1779213681501995800,10.061995849609374,0.15973576739337295,0.012241641935706139,0.04876563834324479
1779213681511987700,10.07198779296875,0.12908583238469437,0.011100070685148239,0.09965645214691758
1779213681521979000,10.081978759765626,0.06465104360878467,-0.000654079994559288,0.11451879797503352
1779213681531970800,10.091970703125,0.009169942872785032,-0.005865677163004875,0.14028291543722152
1779213681541962800,10.101962646484376,-0.04943301621079445,-0.03264905467033386,0.1321554308220744
1779213681551954700,10.11195458984375,-0.10057690972639247,-0.04710954169929027,0.1332367963179946
1779213681561945900,10.12194580078125,-0.12017890609595924,-0.04940145202875137,0.11241963373869657
1779213681571937800,10.131937744140625,-0.11158460768666117,-0.048233577293157574,0.08360022035911678
1779213681581929700,10.1419296875,-0.07969605252742767,-0.050019876188039776,0.04551233563572168
1779213681591921000,10.1519208984375,-0.05063892140183598,-0.0492214192867279,0.003382189784198999
1779213681601912800,10.161912841796875,-0.00721771282646805,-0.05362988337874412,-0.031647330281883476
1779213681611904800,10.17190478515625,0.009456943120621144,-0.038083354678750035,-0.012094780810922384
1779213681621895700,10.181895751953125,0.020218612164258954,-0.03044657618999481,-0.005627630623430013
1779213681631888000,10.191887939453125,0.024678514182567595,-0.013553309056162833,0.010506488706171511
1779213681641879800,10.2018798828125,-0.013486052506230771,-0.00016191256344318388,0.02404050853997469
1779213681651871700,10.211871826171874,-0.06475273215128108,-0.00210837045609951,0.017983254327625035
1779213681661863000,10.22186279296875,-0.1327221065278165,0.02431318800151348,0.011298808127641677
1779213681671854800,10.231854736328126,-0.16214403411149977,0.018072832307219504,0.006455313619226217
1779213681681846800,10.2418466796875,-0.15226327608823775,0.009984218397736548,-0.013402794669568539
1779213681691837700,10.251837646484375,-0.11910039014425128,0.007818564796447753,-0.010105506689846515
1779213681701830000,10.261829833984375,-0.03707563894093036,-0.011747720938920974,0.007838584671169518
1779213681711821800,10.27182177734375,0.02917524107992649,-0.03593757482171058,0.03613558161184192
1779213681721812700,10.281812744140625,0.08562312275515868,-0.05155132353901863,0.03933949221968651
1779213681731805000,10.291804931640625,0.06380988007690758,-0.04692191017270088,0.049223318982869385
1779213681741796600,10.301796630859375,0.01641450717356056,-0.03820610427558422,0.04291033644378185
1779213681751788800,10.311788818359375,-0.0439800115019083,-0.040077158844470974,0.015677607733756302
1779213681761779700,10.32177978515625,-0.10647005941821261,-0.034897710379958154,0.011147416958212851
1779213681771772000,10.33177197265625,-0.15016423971606419,-0.023076924204826352,0.012533464489132165
1779213681781763800,10.341763916015625,-0.13595454911040142,-0.032172084808349606,0.0181578802421689
1779213681791754800,10.351754638671874,-0.07308803256452083,-0.034331893190741536,0.02850055668875575
1779213681801747000,10.361746826171874,-0.029713585740327834,-0.022265023300051687,0.04943535429835319
1779213681811738600,10.371738525390626,0.029044892698526382,-0.024102175599336622,0.043808162066340445
1779213681821729800,10.381729736328126,0.0725882663488388,-0.008148235142230988,0.03853606688231229
1779213681831721700,10.3917216796875,0.06773147396743297,0.0037537995755672453,0.03614055004790425
1779213681841714000,10.4017138671875,0.025752299160230904,0.02143617126047611,0.04324453683421015
1779213681851704800,10.411704833984375,-0.0029740473747253415,0.015524316868185997,0.032954759618639945
1779213681861696800,10.42169677734375,-0.033493688800930975,-0.016007716470956803,0.06438479388803243
1779213681871689000,10.43168896484375,-0.06783025816679,-0.015440730237960814,0.0895329714089632
1779213681881680600,10.4416806640625,-0.05739360156012699,-0.028838556471467016,0.1086414303742349
1779213681891671800,10.451671875,-0.04387244120789691,-0.0225040927529335,0.1294936642669141
1779213681901663700,10.461663818359375,-0.012696418232191354,-0.009746902510523795,0.14049728884026408
1779213681911656000,10.471656005859375,0.010267108726035803,-0.00855856950879097,0.13924845782294867
1779213681921646800,10.481646728515624,-0.004916431880462914,-0.040588615497946734,0.11175400943681597
1779213681931638800,10.491638671875,-0.04125146332085133,-0.03307750921547413,0.09665127898156642
1779213681941630700,10.501630615234374,-0.06522915402399376,-0.03807692493796348,0.09238236949071288
1779213681951622000,10.511621826171876,-0.070821859464515,-0.04254793287217617,0.07552753467112779
1779213681961613800,10.52161376953125,-0.033760815304517744,-0.05850596498250961,0.057345542901009315
1779213681971605800,10.531605712890626,-0.031847090637683866,-0.06887304521799087,0.02066737884506583
1779213681981596700,10.5415966796875,-0.036834213134180754,-0.05813070192933082,-0.0012444471031427384
1779213681991588900,10.5515888671875,-0.055929374226462096,-0.07103051551282405,-0.03435775828436017
1779213682001580800,10.561580810546875,-0.052632670768629757,-0.048182723888754844,-0.025895634887367486
1779213682011572700,10.57157275390625,-0.06103694476485252,-0.03584054418802261,-0.03189662886783481
1779213682021563600,10.581563720703125,-0.03231527440501377,-0.021449030742049215,-0.019407880303263663
1779213682031555800,10.591555908203125,-0.011439093381166457,-0.0037730887979269025,0.011081658245623112
1779213682041547800,10.6015478515625,0.010412672942876814,-0.0018283844709396362,0.030101854405552148
1779213682051538700,10.61153857421875,0.01637422996209934,-0.0017038813084363936,0.05936828090026974
1779213682061531000,10.62153076171875,0.0059200376987457275,-0.012668342915177344,0.08075374488681554
1779213682071522800,10.631522705078124,0.009682020580768584,-0.018258125746250152,0.11041472365707158
1779213682081514000,10.641513916015626,0.0028776195292361077,-0.017393033349514007,0.13728709462210537
1779213682091505700,10.651505615234376,0.02718669761121273,-0.017393617871403692,0.14169760454073546
1779213682101497900,10.661497802734376,0.02750292395353317,-0.03161328188180923,0.1350312785193324
1779213682111488800,10.67148876953125,0.01161443168176338,-0.04417465729117393,0.12005319735705852
1779213682121480700,10.681480712890625,-0.006225158125162124,-0.04911036012768745,0.10434110283181071
1779213682131473000,10.691472900390625,0.0009183021550066768,-0.044483869370818135,0.07269757194221019
1779213682141464800,10.70146484375,-0.025913608935475348,-0.015327917513251304,0.05566007403209805
1779213682151456000,10.7114560546875,-0.013149422696698457,0.008137713748216629,0.03731573130711913
1779213682161447700,10.72144775390625,0.01167175135957077,0.020703765332698822,0.02275982107967138
1779213682171443000,10.73144287109375,0.028984686943888664,-0.007381342422962189,0.043115211366117
1779213682181433900,10.741433837890625,0.01638940926492214,-0.02445873395204544,0.06771174635365605
1779213682191426000,10.751426025390625,-0.019605448701977727,-0.0332312384724617,0.095728903439641
1779213682201418000,10.76141796875,-0.06669044048190116,-0.059200376987457275,0.09604469139054417
1779213682211409000,10.771408935546875,-0.08284545646905898,-0.05576397279798984,0.07473448459729552
1779213682221401000,10.781401123046875,-0.08888355845636688,-0.06091361064612865,0.03304945216476917
1779213682231392800,10.791392822265625,-0.04523379268897697,-0.050122752040624614,0.002911649663001299
1779213682241384000,10.801384033203124,-0.005470540365576744,-0.04441197317838669,-0.009763707514852284
1779213682251375900,10.8113759765625,0.02157994537902996,-0.04060147497951984,-0.01904883773252368
1779213682261368000,10.8213681640625,0.04824352329843677,-0.036621465432643885,-0.018240882350504396
1779213682271360000,10.831360107421874,0.05612638550275005,-0.004817629414796829,-0.014386983401328324
1779213682281351000,10.841350830078126,0.07798868235396221,0.01981763014793396,-0.010459726954996586
1779213682291342800,10.8513427734375,0.07367958698319271,0.03051028907597065,-0.015415741927176712
1779213682301334800,10.861334716796875,0.06901449951529502,0.014859130957722663,-0.0001781330458819866
1779213682311326000,10.871325927734375,0.06531739856302737,0.010085340684652328,0.01673822270259261
1779213682321318000,10.88131787109375,0.014565710102254523,-0.004259411010146141,0.021660481535643338
1779213682331310000,10.89131005859375,0.0013823942691087723,-0.018339374288916587,0.031993367240577934
1779213682341301000,10.901301025390625,-0.012369058574503287,-0.020746435430645943,0.03486892267689109
1779213682351293000,10.91129296875,-0.03036005781716667,-0.018221885389089584,0.05739361982643604
1779213682361284900,10.921284912109375,-0.04037758482946083,-0.0007388356685638427,0.05195990433990955
1779213682371275800,10.93127587890625,-0.05442890653563663,-0.039407881280779836,0.02738981896787882
1779213682381268000,10.94126806640625,-0.025644719733064994,-0.04026479037106037,0.004671352811902761
1779213682391260000,10.951260009765624,-0.008287342218821868,-0.03712883043289184,-0.02379895486906171
1779213682401250800,10.961250732421876,0.04386953686475754,-0.034109774872660634,-0.033992724364250895
1779213682411243000,10.971242919921876,0.08562308622254058,0.0011059154152870177,-0.03125043991878629
1779213682421235000,10.98123486328125,0.11287352411919273,0.03296352744698524,-0.033673867673426866
1779213682431227000,10.991226806640626,0.11080607019537128,0.011081365984678267,-0.007966887225955724
1779213682441217800,11.0012177734375,0.07560321198953315,-0.019071780216693878,0.02815700394809246
1779213682451210000,11.0112099609375,0.030921189698111265,-0.06321078167259693,0.06838774591907859
1779213682461202000,11.021201904296875,-0.028688909734552723,-0.09682897363603114,0.09555924596115946
1779213682471192800,11.03119287109375,-0.044283360096346584,-0.10368716896772384,0.12062982820123433
1779213682481185000,11.04118505859375,-0.053758469061320646,-0.07285305476486682,0.12740312172845006
1779213682491177000,11.051177001953125,-0.029346487727295607,-0.039348260048031804,0.10003434554859995
1779213682501168000,11.061168212890625,-0.013361585876345634,-0.00232055190205574,0.06879369637146591
1779213682511159800,11.071159912109374,0.0071615621924400324,0.0019090484917163848,0.03585720306187868
1779213682521152000,11.081152099609374,0.017377835780382156,0.006565934386849403,0.017663374723494052
1779213682531143000,11.091142822265626,0.022034155419934538,0.02448094578385353,0.01842749096378684
1779213682541134800,11.101134765625,0.03175943062053993,0.019758593437075613,0.026414251933991908
1779213682551127000,11.111126953125,0.030065467917919156,-0.0025058453410863875,0.04069295265525579
1779213682561118000,11.121117919921875,0.02959201432042755,-0.02493921094536781,0.04442644009515643
1779213682571110000,11.13110986328125,0.034434193654591216,-0.033577859953045845,0.05400689999759197
1779213682581101800,11.141101806640625,0.028915110572706907,-0.05141337637305259,0.08312222758382558
1779213682591092700,11.1510927734375,0.012167407655715941,-0.054824061599373815,0.09012012364715337
1779213682601085000,11.1610849609375,0.01953822868466377,-0.062492988792061804,0.06891863792538643
1779213682611076900,11.171076904296875,-0.004984802675247192,-0.03480301783382892,0.03689984398260712
1779213682621068000,11.181068115234375,-0.011575862370198592,-0.03268003433048725,-0.016751082184165714
1779213682631060000,11.19106005859375,-0.02571486235982738,-0.002620411631464958,-0.05612126180306077
1779213682641052000,11.201052001953125,-0.05776303766071796,0.010017536145448685,-0.08307020513564348
1779213682651043800,11.2110439453125,-0.06270107858479022,0.014788988330960273,-0.09495952650234103
1779213682661034800,11.22103466796875,-0.051132796732848505,0.015902502530813215,-0.09096680360436439
1779213682671027000,11.23102685546875,-0.017017176641291005,0.007833762365579604,-0.049451428650319575
1779213682681019000,11.241018798828126,0.01532732385820709,-0.003524666994810104,-0.018273177184909582
1779213682691010000,11.251010009765626,0.04671789376689121,-0.0026093057155609127,0.005405220044404268
1779213682701002000,11.261001953125,0.059174658024311065,-0.018474983367323873,0.02212663774266839
1779213682710994000,11.270993896484375,0.05481120211780071,-0.0419581502854824,0.03202726951017976
1779213682720984800,11.28098486328125,0.04483224441707134,-0.06316343539953231,0.05567746355831623
1779213682730976800,11.290976806640625,0.005729483562707901,-0.07117956859469414,0.07578370138928293
1779213682740969000,11.300968994140625,-0.013575511754816397,-0.07660100912153721,0.07995689542070031
1779213682750959900,11.3109599609375,-0.010379364328319205,-0.08215104446411133,0.06489245114922523
1779213682760952000,11.3209521484375,-0.035628947263956066,-0.08140636357665061,0.05653875656276941
1779213682770944000,11.330944091796875,-0.04168750751740299,-0.07151099250614643,0.027897622359544037
1779213682780935000,11.340934814453124,-0.027235788316791874,-0.058037762948870655,0.013267770113050937
1779213682790926800,11.3509267578125,-0.002003759304154664,-0.011360767447948455,0.005172288071364164
1779213682800918800,11.360918701171874,0.046046880903840064,0.003119593325257301,0.018587503831088543
1779213682810910000,11.370909912109376,0.1001595793634653,0.018833879807591436,0.05172901819348335
1779213682820902000,11.38090185546875,0.10051964484751225,0.030357144340872763,0.10624781323596834
1779213682830894000,11.39089404296875,0.08587970959842205,0.018894085562229157,0.15358151907995343
1779213682840885000,11.400885009765625,0.042076223707199094,-0.008207271853089332,0.1909738227546215
1779213682850877000,11.410876953125,-0.029458149674534796,-0.039918168890476224,0.21627236853167414
1779213682860868900,11.420868896484375,-0.0561842440366745,-0.041567105141282076,0.18896715910732745
1779213682870860800,11.43086083984375,-0.05362579172551631,-0.029767946276068685,0.17853841181248425
1779213682880852000,11.44085205078125,-0.03354453307217918,-0.015148469293117523,0.11375380495190619
1779213682890844000,11.450843994140625,-0.006951125178998336,0.008251695516705513,0.06982347781062126
1779213682900836000,11.460836181640625,0.030333772598439827,0.004529460123181343,0.028143559944629668
1779213682910827000,11.470826904296874,0.029362288084626195,0.015295184287428855,-0.013594371718913315
1779213682920818700,11.480818603515624,0.023081582113634792,0.0038911622196435925,-0.05552037330046296
1779213682930811000,11.490810791015624,0.008227730119228362,-0.018584873482584953,-0.05691051248461008
1779213682940801800,11.5008017578125,-0.006125223148334771,-0.02624503284692764,-0.07160495439991355
1779213682950794000,11.5107939453125,-0.02842762844986282,-0.031816110977530475,-0.0883509220175445
1779213682960786000,11.520785888671876,-0.028085098622506483,-0.04621697677373886,-0.0930968013703823
1779213682970777000,11.530777099609375,-0.014082876755064352,-0.05210077411532402,-0.10121712559238076
1779213682980769000,11.54076904296875,-0.00348433498442173,-0.048421793341636654,-0.1237802550561726
1779213682990761000,11.550760986328125,-0.01665653576850891,-0.013963643422722816,-0.13968451115265487
1779213683000751900,11.560751953125,-0.001250292322039604,0.012437456768751144,-0.12471066777408123
1779213683010743800,11.570743896484375,-0.022166841888893396,0.03671908058822155,-0.1195082768253982
1779213683020736000,11.580736083984375,-0.017671284035313872,0.052284898510575294,-0.10665522499307989
1779213683030727000,11.590726806640625,-0.027616923988331106,0.048234746336936946,-0.09583879355490207
1779213683040719000,11.600718994140625,-0.04227963732481003,0.0462760134845972,-0.06079159170165658
1779213683050711000,11.6107109375,-0.045613165661692615,0.008799977049231529,-0.05425196079984307
1779213683060702000,11.620701904296874,-0.07357437304304912,-0.027818565773963928,-0.026279373507946728
1779213683070694000,11.63069384765625,-0.07682429648339748,-0.023781857603788373,0.011033289059251546
1779213683080685800,11.640685791015626,-0.09130289455777965,-0.03342237713038921,0.03697261695787311
1779213683090677000,11.650677001953126,-0.10169628741145133,-0.04651859006881714,0.05101283274814486
1779213683100669000,11.6606689453125,-0.1191173778116703,-0.04123685027360916,0.07731631778404116
1779213683110661000,11.6706611328125,-0.13093114972412587,-0.035680969712138175,0.10283230570405721
1779213683120652000,11.680652099609375,-0.12114393346952274,-0.024726444977521893,0.15777999368309975
1779213683130644000,11.69064404296875,-0.16015841325223446,-0.037816812697052955,0.18707637692466378
1779213683140636000,11.700635986328125,-0.14190730176866054,-0.02948328411579132,0.21176278215274214
1779213683150626800,11.710626708984375,-0.144504314258229,-0.041887423136830325,0.24242285496294497
1779213683160619000,11.720618896484375,-0.13775429200874642,-0.06139408763945102,0.24113208450004456
1779213683170607600,11.730607666015626,-0.1271458042328246,-0.0581055674880743,0.2529099083162844
1779213683180598500,11.7405986328125,-0.0928466442679055,-0.0375491016715765,0.22862506962642073
1779213683190590700,11.7505908203125,-0.052054003230994565,-0.03625555472970009,0.16028452384993433
1779213683200582400,11.76058251953125,-0.05380580620123073,-0.03596913900375366,0.06765256351232528
1779213683210573300,11.7705732421875,-0.05757773508853279,-0.03193418439924717,-0.010644289741665125
1779213683220565500,11.7805654296875,-0.043835634595155715,-0.02553308518528938,-0.09522299974411726
1779213683230557400,11.790557373046875,-0.022761866906285285,-0.01767301933467388,-0.1917326782979071
1779213683240548600,11.800548583984375,-0.006868104804353788,0.02169979063272476,-0.2904731846436858
1779213683250540500,11.81054052734375,0.012955927684903144,0.0700835900515318,-0.3536434881754219
1779213683260532700,11.82053271484375,0.05267945078611374,0.10591244380176067,-0.4039398432172835
1779213683270524400,11.8305244140625,0.03385022888733074,0.10029869557321071,-0.3841666367329657
1779213683280515300,11.840515380859374,0.013787099545728414,0.08003098357021808,-0.308874810513854
1779213683290507500,11.850507568359374,0.005263016828428954,0.055146133160591124,-0.212661046166718
1779213683300499500,11.86049951171875,-0.01626665966808796,0.017193711385130882,-0.07597937009185553
1779213683310490600,11.87049072265625,-0.07032558211386203,0.011978607085347174,0.012977847255766391
1779213683320482600,11.880482666015626,-0.10813362698256969,-0.0040092356413602825,0.08442878013774752
1779213683330474500,11.890474609375,-0.14371464345157145,-0.0444984824180603,0.14209186455532907
1779213683340465700,11.900465576171875,-0.15680442664921282,-0.08703706294000148,0.1666276092663407
1779213683350457300,11.910457275390625,-0.14990004495508036,-0.10893559101521968,0.19616773813590407
1779213683360449500,11.920449462890625,-0.13941022425591945,-0.09787117616534233,0.2171396528854966
1779213683370440400,11.9304404296875,-0.13900982676148413,-0.05013093534708023,0.23251915445551274
1779213683380432600,11.9404326171875,-0.1211988511276897,-0.0026420389413833617,0.25830066144391894
1779213683390424600,11.950424560546875,-0.12443536709719337,0.022888123634457587,0.2904777146883309
1779213683400415700,11.960415771484374,-0.12443944961726665,0.013320669344067573,0.3088385701566934
1779213683410407400,11.970407470703124,-0.14041383007420227,-0.02354278815090656,0.34335005769804117
1779213683420399600,11.980399658203124,-0.1959977883964777,-0.05295008442103862,0.3495725854746997
1779213683430390500,11.990390625,-0.20064064576625823,-0.09740823482871055,0.33753786428794263
1779213683440382500,12.000382568359376,-0.21284487830102441,-0.11280687949061394,0.32045082814767956
1779213683450374700,12.010374755859376,-0.2019178260952234,-0.14170564171671868,0.28515286640375853
1779213683460365600,12.020365478515625,-0.1749783812433481,-0.14361995090544222,0.21235548734888432
1779213683470357800,12.030357666015625,-0.1298965459793806,-0.13744564618468283,0.17347396802976728
1779213683480349400,12.040349365234375,-0.07469780584871769,-0.12635785045921802,0.13392974701821803
1779213683490340400,12.05034033203125,-0.031550733473035504,-0.10633680669367312,0.09291545345410704
1779213683500332500,12.06033251953125,0.008059396948153153,-0.07559329338371754,0.09342457202002405
1779213683510324500,12.070324462890625,0.024733463806775397,-0.004327215549349785,0.10663812772780656
1779213683520315600,12.080315673828125,0.04970423436760902,0.08130524128973483,0.13989289320632814
1779213683530307600,12.0903076171875,0.0801391201198101,0.09796002349257468,0.1500580211289227
1779213683540299800,12.1002998046875,0.07306874790873844,0.0230704944640398,0.14881503533050416
1779213683550290700,12.110290771484374,0.07160452057507355,-0.03406593573093414,0.13124430732652545
1779213683560282400,12.120282470703126,0.03783025213393848,-0.04673486316800117,0.13560761710256336
1779213683570274600,12.130274658203126,0.038024902489781374,-0.058381461820006364,0.1458637843094766
1779213683580265500,12.140265380859375,0.027307695925666484,-0.03269406285583973,0.12905118119642137
1779213683590257700,12.150257568359375,0.0028337621212005614,0.005486906978487968,0.13858677904382347
1779213683600249600,12.16024951171875,-0.09270984787940978,-0.012147533911466597,0.18725830936282872
1779213683610240500,12.170240478515625,-0.21144436385333537,-0.02851473134458065,0.3056815674304962
1779213683620232700,12.180232666015625,-0.3123030313968658,-0.09170914640426635,0.42260684202536936
1779213683630224400,12.190224365234375,-0.34354163474738597,-0.1405669930756092,0.5241261654347181
1779213683640215600,12.200215576171875,-0.28918811326920985,-0.14737141239345072,0.6175210729688405
1779213683650207500,12.21020751953125,-0.11125731196105479,-0.13122107258141041,0.6116878367707133
1779213683660199700,12.22019970703125,0.1228425358146429,-0.07502163097560405,0.5085393047243356
1779213683670190600,12.230190673828124,0.30169220553338527,0.02021276694536209,0.3071634765513241
1779213683680182500,12.2401826171875,0.38495559515357014,0.045725393864512444,0.06801160608306527
1779213683690174500,12.250174560546874,0.37578386218249793,0.03866904561221599,-0.08253054530099034
