time,seconds_elapsed,z,y,x
1779213671500266000,0.060265869140625,-0.16881227493286133,-0.12698866426944733,-0.24977914988994598
1779213671510257200,0.070257080078125,-0.18462559580802917,0.021523036062717438,-0.357942670583725
1779213671520249000,0.0802490234375,-0.2114822268486023,0.08353672176599503,-0.38046401739120483
1779213671530241300,0.0902412109375,-0.27082890272140503,0.041097912937402725,-0.2991502583026886
1779213671540232200,0.100232177734375,-0.3535694181919098,0.005859164521098137,-0.10942114889621735
1779213671550224100,0.11022412109375,-0.4597959816455841,-0.01975591853260994,0.13461388647556305
1779213671560216000,0.120216064453125,-0.5570068955421448,-0.07929738610982895,0.35581210255622864
1779213671570208000,0.1302080078125,-0.625425398349762,-0.2789180874824524,0.5590962171554565
1779213671580199200,0.14019921875,-0.641252338886261,-0.5738623738288879,0.7833933234214783
1779213671590191000,0.150191162109375,-0.7243789434432983,-0.8096373081207275,1.0070040225982666
1779213671600183300,0.160183349609375,-0.9045753479003906,-0.9526663422584534,1.222222089767456
1779213671610174200,0.17017431640625,-1.1143049001693726,-1.0253225564956665,1.381609559059143
1779213671620166100,0.180166259765625,-1.3536285161972046,-1.038758397102356,1.3940683603286743
1779213671630158000,0.190157958984375,-1.5969802141189575,-1.0017495155334473,1.23940908908844
1779213671640150000,0.20014990234375,-1.777797818183899,-0.9714488983154297,0.9007310271263123
1779213671650141200,0.21014111328125,-1.8655221462249756,-0.9817414879798889,0.44389501214027405
1779213671660133000,0.220133056640625,-1.9321085214614868,-1.0019404888153076,-0.00599222956225276
1779213671670125300,0.230125244140625,-1.9359394311904907,-0.9805856943130493,-0.4382339119911194
1779213671680117200,0.2401171875,-1.8184449672698975,-0.8736076951026917,-0.7511751651763916
1779213671690108200,0.250108154296875,-1.593578577041626,-0.6983528137207031,-0.8522413372993469
1779213671700100000,0.26010009765625,-1.3260548114776611,-0.48740875720977783,-0.7945345044136047
1779213671710092000,0.270092041015625,-1.0404504537582397,-0.20699521899223328,-0.5812901258468628
1779213671720083200,0.280083251953125,-0.7305252552032471,-0.052549269050359726,-0.2553129196166992
1779213671730075100,0.2900751953125,-0.4655511677265167,-0.08410079777240753,0.06776497513055801
1779213671740067300,0.3000673828125,-0.2576744854450226,-0.28377819061279297,0.31456685066223145
1779213671750059000,0.31005908203125,-0.20818603038787842,-0.7853677868843079,0.42031219601631165
1779213671760050200,0.32005029296875,-0.2157215178012848,-1.23858642578125,0.42039787769317627
1779213671770042000,0.3300419921875,-0.23556526005268097,-1.6009843349456787,0.37416326999664307
1779213671780034000,0.340033935546875,-0.30147796869277954,-1.8346232175827026,0.2835758626461029
1779213671790026200,0.350026123046875,-0.4040120542049408,-1.9745656251907349,0.1223592609167099
1779213671800017200,0.36001708984375,-0.5462836623191833,-1.832836389541626,-0.1659127026796341
1779213671810009300,0.37000927734375,-0.6763705611228943,-1.4557253122329712,-0.5347223877906799
1779213671820001000,0.3800009765625,-0.725670337677002,-1.0235651731491089,-0.8353683352470398
1779213671829992000,0.389991943359375,-0.6907283067703247,-0.6604093909263611,-1.069512128829956
1779213671839984000,0.399984130859375,-0.5438927412033081,-0.5430805087089539,-1.2043070793151855
1779213671849976000,0.40997607421875,-0.3346521556377411,-0.5358366966247559,-1.2280749082565308
1779213671859968300,0.41996826171875,-0.12094322592020035,-0.5407483577728271,-1.1302578449249268
1779213671869959200,0.429959228515625,0.056113846600055695,-0.6418861150741577,-0.9427667856216431
1779213671879951400,0.439951416015625,0.14573989808559418,-0.8003851771354675,-0.7062644362449646
1779213671889943000,0.449943115234375,0.13176707923412323,-0.9107063412666321,-0.4681538939476013
1779213671899935200,0.459935302734375,0.06905870139598846,-0.9985458254814148,-0.23100349307060242
1779213671909926100,0.469926025390625,0.04689054563641548,-0.9202970862388611,-0.023758959025144577
1779213671919918000,0.47991796875,0.09834633767604828,-1.0104799270629883,0.09580975025892258
1779213671929910300,0.48991015625,0.2869753837585449,-1.221205472946167,0.09542865306138992
1779213671939901200,0.499901123046875,0.5536866188049316,-1.1047067642211914,-0.03368818759918213
1779213671949893000,0.50989306640625,0.8079055547714233,-1.163342833518982,-0.29847005009651184
1779213671959885000,0.519885009765625,1.0658092498779297,-1.540334939956665,-0.6549493670463562
1779213671969877200,0.529877197265625,1.1889111995697021,-1.8203927278518677,-1.0329982042312622
1779213671979868200,0.5398681640625,1.2410248517990112,-2.0318570137023926,-1.3063037395477295
1779213671989860000,0.549860107421875,1.167890191078186,-1.9762293100357056,-1.4417680501937866
1779213671999852300,0.559852294921875,0.9706684350967407,-1.6908385753631592,-1.403609037399292
1779213672009844000,0.569843994140625,0.7150995135307312,-1.4788650274276733,-1.1998953819274902
1779213672019835100,0.579835205078125,0.4267173111438751,-1.3789759874343872,-0.8512027859687805
1779213672029827000,0.5898271484375,0.09892717748880386,-1.2263851165771484,-0.4730403423309326
1779213672039819300,0.5998193359375,-0.18248794972896576,-1.1358880996704102,-0.1481471061706543
1779213672049810200,0.60981005859375,-0.23473091423511505,-1.1099891662597656,0.1333727240562439
1779213672059802000,0.619802001953125,-0.08624622970819473,-1.2758055925369263,0.33795619010925293
1779213672069794300,0.629794189453125,0.14333264529705048,-1.4370276927947998,0.397018164396286
1779213672079786000,0.639785888671875,0.3757172226905823,-1.7336421012878418,0.30626967549324036
1779213672089777200,0.649777099609375,0.5100630521774292,-1.8251445293426514,0.16443584859371185
1779213672099769000,0.65976904296875,0.5044304728507996,-1.9132529497146606,0.05468679964542389
1779213672109761300,0.66976123046875,0.4109642207622528,-1.9876915216445923,0.02286815084517002
1779213672119753200,0.679753173828125,0.36752191185951233,-2.0654714107513428,0.06257600337266922
1779213672129744400,0.689744384765625,0.30949029326438904,-2.2203407287597656,0.11270548403263092
1779213672139736000,0.699736083984375,0.2602851092815399,-2.5377469062805176,0.07697174698114395
1779213672149728000,0.70972802734375,0.3308974802494049,-2.682596445083618,0.1118471696972847
1779213672159725000,0.71972509765625,0.48351389169692993,-2.697711944580078,0.18704378604888916
1779213672169716200,0.72971630859375,0.6650798916816711,-2.814459800720215,0.2602421045303345
1779213672179708000,0.7397080078125,0.8734521269798279,-3.043626070022583,0.45689845085144043
1779213672189700000,0.7497001953125,1.119008183479309,-3.5359466075897217,0.6921461820602417
1779213672199691000,0.75969091796875,1.4278379678726196,-4.80436372756958,1.047045350074768
1779213672209683000,0.769682861328125,1.8653308153152466,-6.401376247406006,1.323089361190796
1779213672219675100,0.779675048828125,2.1117782592773438,-7.4989824295043945,1.5737829208374023
1779213672229667000,0.7896669921875,2.086960554122925,-8.208758354187012,1.9306206703186035
1779213672239658200,0.799658203125,1.9895118474960327,-8.658463478088379,2.348318576812744
1779213672249650000,0.80964990234375,2.1324970722198486,-8.775505065917969,2.781533718109131
1779213672259642000,0.81964208984375,2.531001329421997,-8.385465621948242,3.2775027751922607
1779213672269634000,0.829634033203125,3.0569846630096436,-7.25868558883667,3.7899084091186523
1779213672279625000,0.839625,3.5247576236724854,-5.321470260620117,4.041690349578857
1779213672289617200,0.8496171875,3.7056384086608887,-3.2914485931396484,3.5330939292907715
1779213672299608800,0.85960888671875,3.933823823928833,-2.503857374191284,2.376332998275757
1779213672309600000,0.86960009765625,4.51874303817749,-2.122710704803467,1.6363087892532349
1779213672319592000,0.879592041015625,4.896480083465576,-1.9560933113098145,1.2093405723571777
1779213672329584000,0.889584228515625,4.759170055389404,-2.3138136863708496,1.0047754049301147
1779213672339576000,0.899576171875,4.375959396362305,-2.875150680541992,1.1842583417892456
1779213672349567000,0.90956689453125,4.135277271270752,-3.215498685836792,1.778359055519104
1779213672359559200,0.91955908203125,4.088532447814941,-3.212007761001587,2.579010486602783
1779213672369550800,0.92955078125,3.947941303253174,-2.625092029571533,3.2674179077148438
1779213672379543000,0.93954296875,3.6182045936584473,-1.750245451927185,3.6204497814178467
1779213672389534000,0.949533935546875,3.2818100452423096,-0.9474479556083679,3.557173490524292
1779213672399526100,0.959526123046875,3.255793809890747,-0.5628505349159241,3.0348780155181885
1779213672409518000,0.96951806640625,3.3627371788024902,-0.11944883316755295,2.468766689300537
1779213672419509000,0.979509033203125,3.405517816543579,0.6253446936607361,2.162456750869751
1779213672429501200,0.989501220703125,3.266543388366699,1.2216439247131348,1.9783706665039062
1779213672439492900,0.999492919921875,3.0348353385925293,1.6053556203842163,1.8575668334960938
1779213672449485000,1.009485107421875,2.8330881595611572,1.6603895425796509,1.7337441444396973
1779213672459476000,1.01947607421875,2.5369553565979004,1.3785752058029175,1.5747325420379639
1779213672469468200,1.02946826171875,2.1449592113494873,0.9643567204475403,1.367098093032837
1779213672479460000,1.039460205078125,1.7269225120544434,0.6661791205406189,1.0908496379852295
1779213672489452000,1.0494521484375,1.3301072120666504,0.6214191317558289,0.7048897743225098
1779213672499443000,1.05944287109375,0.9707568883895874,0.8532873392105103,0.15102225542068481
1779213672509435000,1.069434814453125,0.6400173306465149,1.1526989936828613,-0.46467554569244385
1779213672519427000,1.079427001953125,0.36969155073165894,1.0756959915161133,-0.85660719871521
1779213672529418000,1.08941796875,0.22290556132793427,0.8889623284339905,-1.099656105041504
1779213672539410200,1.09941015625,0.11053943634033203,0.8474977016448975,-1.3277322053909302
1779213672549402000,1.109402099609375,-0.06904391199350357,1.036165714263916,-1.6485031843185425
1779213672559394000,1.11939404296875,-0.16804029047489166,1.4055124521255493,-2.1180901527404785
1779213672569385000,1.129385009765625,0.13130487501621246,1.5382477045059204,-2.623246908187866
1779213672579377000,1.139376953125,0.8662635087966919,1.3658677339553833,-3.040074348449707
1779213672589369000,1.149369140625,1.4822686910629272,1.530127763748169,-2.96638560295105
1779213672599361000,1.159361083984375,1.6096895933151245,1.5245041847229004,-2.270857572555542
1779213672609352200,1.169352294921875,1.451330304145813,1.1273740530014038,-1.7949150800704956
1779213672619344000,1.17934375,1.3782142400741577,0.5678582787513733,-1.8551561832427979
1779213672629336000,1.189336181640625,1.3900554180145264,-0.6066160202026367,-2.165372610092163
1779213672639328000,1.199327880859375,1.2065914869308472,-1.9283380508422852,-2.456416130065918
1779213672649319000,1.20931884765625,0.8482942581176758,-2.5325775146484375,-2.65458083152771
1779213672659311000,1.21931103515625,0.41260072588920593,-2.3402247428894043,-2.576526641845703
1779213672669303000,1.229302978515625,-0.256913959980011,-1.5333539247512817,-2.098421096801758
1779213672679294200,1.239294189453125,-1.0651954412460327,-0.37895989418029785,-1.4365804195404053
1779213672689286000,1.249285888671875,-1.5307167768478394,0.10303150117397308,-0.9783465266227722
1779213672699278000,1.259278076171875,-2.07342529296875,0.2857844829559326,-0.7304584383964539
1779213672709270000,1.26927001953125,-2.4103493690490723,0.07504534721374512,-0.46241286396980286
1779213672719261000,1.279260986328125,-2.4335312843322754,-0.300751268863678,-0.5230550169944763
1779213672729253000,1.289253173828125,-2.422368049621582,-0.623217761516571,-0.700024425983429
1779213672739245000,1.2992451171875,-2.199446678161621,-1.2997509241104126,-0.6377955675125122
1779213672749236200,1.309236328125,-1.9871652126312256,-1.129738211631775,-0.4201101064682007
1779213672759228000,1.319227783203125,-1.701772689819336,-0.600242018699646,-0.21835817396640778
1779213672769220000,1.32922021484375,-1.3959099054336548,-0.04013769328594208,-0.0990605503320694
1779213672779212000,1.3392119140625,-1.2120171785354614,0.2263854593038559,0.11194182187318802
1779213672789203200,1.349203125,-1.0811537504196167,0.055128760635852814,0.47890013456344604
1779213672799195100,1.359195068359375,-0.8796947598457336,-0.126450315117836,0.8487204909324646
1779213672809186800,1.369186767578125,-0.6720156073570251,-0.2127886712551117,1.15717351436615
1779213672819179000,1.379178955078125,-0.37303656339645386,-0.3883727788925171,1.4145370721817017
1779213672829170000,1.389169921875,-0.003995666280388832,-0.7285764217376709,1.6330933570861816
1779213672839162000,1.399162109375,0.13581769168376923,-1.1445019245147705,1.7615995407104492
1779213672849154000,1.409154052734375,-0.05993875861167908,-1.3254625797271729,1.5851759910583496
1779213672859145200,1.419145263671875,-0.23979254066944122,-1.1745569705963135,1.1117421388626099
1779213672869137200,1.42913720703125,-0.2245962768793106,-0.9855404496192932,0.4845069944858551
1779213672879128800,1.43912890625,-0.029919099062681198,-0.8661361932754517,0.07114164531230927
1779213672889121000,1.44912109375,0.02459900453686714,-0.690605640411377,0.044612303376197815
1779213672899112000,1.45911181640625,-0.16326400637626648,-0.573849618434906,0.3432188332080841
1779213672909104000,1.469104248046875,-0.34756752848625183,-0.4500805139541626,0.6154268980026245
1779213672919096000,1.479095947265625,-0.31419312953948975,-0.3201636075973511,0.7163577079772949
1779213672929088000,1.489087890625,-0.08397166430950165,-0.3498339056968689,0.645660400390625
1779213672939079200,1.4990791015625,0.19663730263710022,-0.3944668471813202,0.5526881814002991
1779213672949070800,1.50907080078125,0.44819337129592896,-0.24558226764202118,0.5241835713386536
1779213672959063000,1.51906298828125,0.7227619886398315,-0.17598091065883636,0.5863442420959473
1779213672969054000,1.529053955078125,0.9531097412109375,-0.07684260606765747,0.670711100101471
1779213672979046100,1.539046142578125,1.2692667245864868,-0.011138981208205223,0.645022988319397
1779213672989038000,1.5490380859375,1.490028977394104,-0.3404471278190613,0.47420814633369446
1779213672999030000,1.559030029296875,1.2178102731704712,-0.5051339268684387,0.43691638112068176
1779213673009021000,1.56902099609375,0.9254332184791565,-0.6228852868080139,0.5916668176651001
1779213673019013000,1.57901318359375,0.677211582660675,-0.7637661695480347,0.850361704826355
1779213673029005000,1.589005126953125,0.25871872901916504,-0.8746367692947388,1.132415533065796
1779213673038997000,1.5989970703125,0.045349761843681335,-0.9834480881690979,1.2666981220245361
1779213673048988200,1.60898828125,0.5968882441520691,-1.9644235372543335,1.41023588180542
1779213673058980000,1.61897998046875,2.286252021789551,-3.4927282333374023,1.045751929283142
1779213673068972000,1.628971923828125,3.1472535133361816,-3.598327398300171,1.0554757118225098
1779213673078963000,1.638962890625,2.872762441635132,-2.579606771469116,1.552596092224121
1779213673088955100,1.648955078125,2.175781011581421,-1.4602829217910767,1.7953072786331177
1779213673098947000,1.658947021484375,1.8862756490707397,-1.1414413452148438,1.7119197845458984
1779213673108939000,1.66893896484375,1.8392772674560547,-1.0260615348815918,1.3813227415084839
1779213673118930200,1.67893017578125,1.6065387725830078,-1.0622938871383667,0.9514996409416199
1779213673128922000,1.688922119140625,1.089342474937439,-0.9755762219429016,0.5777143239974976
1779213673138914000,1.6989140625,0.43974390625953674,-0.8954398036003113,0.30491527915000916
1779213673148906000,1.708906005859375,-0.009844278916716576,-1.087904691696167,0.1257186233997345
1779213673158892500,1.718892578125,0.14856605231761932,-1.2113279104232788,-0.06580809503793716
1779213673168884700,1.728884765625,0.6135044097900391,-1.347975730895996,-0.08378150314092636
1779213673178876700,1.738876708984375,1.1590453386306763,-1.3437845706939697,0.02225874923169613
1779213673188867600,1.74886767578125,1.5763176679611206,-1.1786576509475708,0.10728523135185242
1779213673198859800,1.75885986328125,1.6341866254806519,-0.8210798501968384,0.07246275991201401
1779213673208851500,1.7688515625,1.2077429294586182,-0.41156771779060364,-0.004662656225264072
1779213673218843600,1.77884375,0.602865993976593,-0.25131019949913025,-0.055315788835287094
1779213673228834600,1.78883447265625,0.10235759615898132,0.004019285086542368,-0.2626340985298157
1779213673238826800,1.79882666015625,-0.2492184340953827,0.624700665473938,-0.5744255185127258
1779213673248818700,1.808818603515625,-0.6079046726226807,1.4943844079971313,-0.8307824730873108
1779213673258811000,1.818810791015625,-1.1371289491653442,2.3635761737823486,-0.8705321550369263
1779213673268801800,1.8288017578125,-1.6404019594192505,2.834674119949341,-0.75794517993927
1779213673278793500,1.83879345703125,-2.0504493713378906,2.9576969146728516,-0.707872748374939
1779213673288785700,1.84878564453125,-2.4245424270629883,2.7728981971740723,-0.660874605178833
1779213673298776600,1.858776611328125,-2.926410436630249,2.6373181343078613,-0.4633623957633972
1779213673308768800,1.868768798828125,-3.0915496349334717,2.500556230545044,-0.05798348784446716
1779213673318760700,1.8787607421875,-2.944070816040039,1.9604456424713135,-0.11028099060058594
1779213673328752600,1.888752685546875,-2.5422215461730957,0.8902440071105957,-0.45137786865234375
1779213673338743800,1.898743896484375,-2.1314215660095215,-0.7172903418540955,-0.8067224025726318
1779213673348735500,1.908735595703125,-1.6853044033050537,-1.481237530708313,-1.0840078592300415
1779213673358727700,1.918727783203125,-1.2282078266143799,-1.283616065979004,-1.2735265493392944
1779213673368718600,1.928718505859375,-0.6815975308418274,-1.184605360031128,-1.3074222803115845
1779213673378710800,1.938710693359375,-0.07049567252397537,-1.0574631690979004,-1.2768476009368896
1779213673388702700,1.94870263671875,0.6034878492355347,-0.7469830513000488,-1.2463661432266235
1779213673398694700,1.958694580078125,1.236572265625,-0.3648919463157654,-1.2508550882339478
1779213673408685600,1.968685546875,1.8987400531768799,-0.004974770825356245,-1.2240227460861206
1779213673418677500,1.978677490234375,2.617115020751953,0.24647566676139832,-1.1274183988571167
1779213673428669700,1.988669677734375,3.321826696395874,0.24149315059185028,-0.9283586144447327
1779213673438661600,1.99866162109375,3.9987854957580566,-0.14184479415416718,-0.5463399887084961
1779213673448652800,2.00865283203125,4.720053195953369,-0.6072617769241333,0.07316432148218155
1779213673458644700,2.018644775390625,5.4576029777526855,-0.9598877429962158,0.8281258940696716
1779213673468636700,2.02863671875,5.962244510650635,-1.188136339187622,1.517557144165039
1779213673478627600,2.038627685546875,6.128632545471191,-1.0665371417999268,2.0158746242523193
1779213673488619500,2.04861962890625,6.109138011932373,-0.5232016444206238,2.3282861709594727
1779213673498611700,2.05861181640625,6.074185371398926,0.08737868070602417,2.557690382003784
1779213673508603600,2.068603759765625,6.153647422790527,0.4618377685546875,2.764165163040161
1779213673518594800,2.0785947265625,6.285848617553711,1.0086112022399902,3.0057530403137207
1779213673528586800,2.088586669921875,6.480608940124512,1.814964771270752,3.1978399753570557
1779213673538578700,2.09857861328125,6.018412113189697,1.4541125297546387,2.7525408267974854
1779213673548570600,2.108570556640625,4.591725826263428,0.08697906881570816,1.780708909034729
1779213673558561500,2.1185615234375,3.561612606048584,-0.4755418300628662,1.1962828636169434
1779213673568553700,2.1285537109375,2.9251725673675537,-0.08394823968410492,1.1552385091781616
1779213673578545700,2.138545654296875,2.415821075439453,0.9077056050300598,1.517255425453186
1779213673588536800,2.148536865234375,1.8111270666122437,2.0531885623931885,2.03232479095459
1779213673598528500,2.158528564453125,1.4951634407043457,2.6394190788269043,2.346064567565918
1779213673608520700,2.168520751953125,1.7040069103240967,2.374023199081421,2.2530629634857178
1779213673618512600,2.1785126953125,2.295447587966919,1.624823808670044,1.9444152116775513
1779213673628503600,2.188503662109375,3.005115509033203,0.8832054138183594,1.7127822637557983
1779213673638495700,2.198495849609375,3.6881346702575684,-0.31453290581703186,1.365683674812317
1779213673648487700,2.20848779296875,3.9454612731933594,-1.909176230430603,0.9517768621444702
1779213673658479600,2.218479736328125,3.531712532043457,-3.8395962715148926,0.4381118416786194
1779213673668470500,2.228470458984375,2.499506711959839,-5.841241836547852,-0.1201825812458992
1779213673678462700,2.238462646484375,1.2432066202163696,-7.389601230621338,-0.5374473333358765
1779213673688454700,2.24845458984375,0.3697233200073242,-7.033019542694092,-0.8487724661827087
1779213673698445600,2.258445556640625,-0.06331921368837357,-4.14285135269165,-1.2446061372756958
1779213673708437800,2.268437744140625,-0.055459164083004,-1.536165475845337,-1.4686232805252075
1779213673718429400,2.278429443359375,0.21261577308177948,0.1856003999710083,-1.4813036918640137
1779213673728421600,2.288421630859375,0.48234736919403076,1.235123634338379,-1.4025609493255615
1779213673738412500,2.29841259765625,0.517728328704834,2.0975265502929688,-1.3186938762664795
1779213673748404700,2.30840478515625,0.3353832960128784,2.5937652587890625,-1.2254384756088257
1779213673758396700,2.318396728515625,-0.01389162428677082,2.769752264022827,-1.0471593141555786
1779213673768388900,2.328388916015625,-0.29927492141723633,2.8910834789276123,-0.7228701710700989
1779213673778379800,2.3383798828125,-0.36291393637657166,2.9220101833343506,-0.3777933716773987
1779213673788371500,2.348371337890625,-0.15122802555561066,1.866829514503479,0.14200642704963684
1779213673798363600,2.35836376953125,0.07660754770040512,0.777597963809967,0.5585392117500305
1779213673808354600,2.3683544921875,0.058699388056993484,0.2477937638759613,0.7217994928359985
1779213673818346800,2.3783466796875,-0.0870751440525055,-0.008239934220910072,0.8090502023696899
1779213673828338700,2.388338623046875,-0.2022632509469986,-0.17650164663791656,0.8865170478820801
1779213673838330600,2.39833056640625,-0.2750681936740875,-0.3614596724510193,0.9376059174537659
1779213673848321800,2.40832177734375,-0.2959668040275574,-0.49647796154022217,0.9533068537712097
1779213673858313500,2.4183134765625,-0.29738420248031616,-0.6209786534309387,0.9133378267288208
1779213673868305700,2.4283056640625,-0.25463008880615234,-0.6999461650848389,0.8192118406295776
1779213673878296600,2.438296630859375,-0.1833728849887848,-0.6904588937759399,0.660691499710083
1779213673888288800,2.448288818359375,-0.10189639776945114,-0.5618777275085449,0.4315243661403656
1779213673898280700,2.45828076171875,-0.033845044672489166,-0.24592824280261993,0.12540070712566376
1779213673908272600,2.468272705078125,0.02185257151722908,0.2235361784696579,-0.19985489547252655
1779213673918263600,2.478263671875,0.0442439503967762,0.6662139296531677,-0.43463265895843506
1779213673928255500,2.48825537109375,0.04009847715497017,0.9542936682701111,-0.5277894735336304
1779213673938247700,2.49824755859375,-0.0010185744613409042,1.0919991731643677,-0.513302743434906
1779213673948239600,2.508239501953125,-0.07458280771970749,1.1466808319091797,-0.4531070590019226
1779213673958230800,2.518230712890625,-0.17893671989440918,1.1763423681259155,-0.4048268496990204
1779213673968222700,2.52822265625,-0.25603869557380676,1.1769325733184814,-0.38385364413261414
1779213673978214700,2.538214599609375,-0.2351042628288269,1.0685217380523682,-0.37971609830856323
1779213673988205600,2.54820556640625,-0.13994500041007996,0.7923681139945984,-0.3662509024143219
1779213673998197500,2.558197509765625,-0.033796314150094986,0.3986716568470001,-0.3024994134902954
1779213674008189700,2.568189697265625,0.034023478627204895,-0.035885922610759735,-0.17718303203582764
1779213674018181600,2.578181640625,0.029992539435625076,-0.41122525930404663,-0.042899053543806076
1779213674028172800,2.5881728515625,-0.008967376314103603,-0.6460433602333069,0.055072516202926636
1779213674038164700,2.598164794921875,-0.04426603764295578,-0.7167453169822693,0.09523232281208038
1779213674048156700,2.60815673828125,-0.06076778471469879,-0.6150416135787964,0.06811735033988953
1779213674058148600,2.618148681640625,-0.05376848205924034,-0.3726421296596527,-0.007978859357535839
1779213674068139800,2.628139892578125,-0.03991365432739258,-0.10411638766527176,-0.10473336279392242
1779213674078131700,2.638131591796875,-0.04591812193393707,0.0735754445195198,-0.1663782149553299
1779213674088123600,2.64812353515625,-0.062229450792074203,0.12296456843614578,-0.16138291358947754
1779213674098114800,2.65811474609375,-0.07071516662836075,0.08251063525676727,-0.10720464587211609
1779213674108106500,2.6681064453125,-0.06838570535182953,0.013278034515678883,-0.03604205325245857
1779213674118098700,2.6780986328125,-0.0559101402759552,-0.03465208038687706,0.01092162448912859
1779213674128090600,2.688090576171875,-0.03423493728041649,-0.053693149238824844,0.018930815160274506
1779213674138081800,2.698081787109375,-0.018755026161670685,-0.03967714682221413,-0.010441143997013569
1779213674148073700,2.70807373046875,-0.01423564087599516,0.012912829406559467,-0.05302562192082405
1779213674158065700,2.718065673828125,-0.013701709918677807,0.07747987657785416,-0.08021675050258636
1779213674168057300,2.728057373046875,-0.006334340665489435,0.10535890609025955,-0.07754373550415039
1779213674178048500,2.738048583984375,-0.001805114559829235,0.09558150172233582,-0.04897823929786682
1779213674188040400,2.74804052734375,0.004848260432481766,0.06833256781101227,-0.009544279426336288
1779213674198032600,2.75803271484375,0.01118746679276228,0.040869325399398804,0.023339973762631416
1779213674208024600,2.768024658203125,0.019359108060598373,0.029519733041524887,0.04407108575105667
1779213674218015500,2.778015380859375,0.03310784697532654,0.04835362732410431,0.05666382610797882
1779213674228007700,2.788007568359375,0.053907670080661774,0.08493586629629135,0.0665111318230629
1779213674237999400,2.797999267578125,0.07698366045951843,0.1166624054312706,0.07148779183626175
1779213674247990500,2.807990478515625,0.08910823613405228,0.15952704846858978,0.06718651950359344
1779213674257982500,2.817982421875,0.08499928563833237,0.23168128728866577,0.05891520529985428
1779213674267974700,2.827974609375,0.08104050159454346,0.31945323944091797,0.046072643250226974
1779213674277966600,2.837966552734375,0.08845110237598419,0.4076100289821625,0.03148515149950981
1779213674287957500,2.84795751953125,0.10544473677873611,0.4558025896549225,0.016449209302663803
1779213674297949400,2.857949462890625,0.10665618628263474,0.4580799639225006,0.023163465782999992
1779213674307941400,2.86794140625,0.09003593027591705,0.40564286708831787,0.042062852531671524
1779213674317933600,2.87793359375,0.07554198801517487,0.35164549946784973,0.06932838261127472
1779213674327924500,2.887924560546875,0.07445941865444183,0.304360032081604,0.09342147409915924
1779213674337916700,2.897916748046875,0.07245912402868271,0.24838492274284363,0.10251601040363312
1779213674347908600,2.90790869140625,0.05290725827217102,0.17776775360107422,0.10190614312887192
1779213674357899800,2.917899658203125,0.02197333425283432,0.13018567860126495,0.10885806381702423
1779213674367891500,2.927891357421875,-0.004488898441195488,0.1269957423210144,0.10702021420001984
1779213674377883400,2.93788330078125,-0.022299181669950485,0.14001399278640747,0.0993225947022438
1779213674387875600,2.94787548828125,-0.025370873510837555,0.1288825124502182,0.07369978725910187
1779213674397866500,2.957866455078125,-0.012559161521494389,0.08127658069133759,0.02714894525706768
1779213674407858700,2.967858642578125,-0.010712791234254837,0.015597699210047722,-0.018420668318867683
1779213674417850400,2.977850341796875,-0.007943849079310894,-0.05900035426020622,-0.03752749040722847
1779213674427842600,2.987842529296875,0.008069472387433052,-0.12620654702186584,-0.02591291069984436
1779213674437833500,2.99783349609375,0.030309749767184258,-0.18657183647155762,0.0029975997749716043
1779213674447825400,3.007825439453125,0.04333287477493286,-0.21298746764659882,0.029256900772452354
1779213674457817600,3.017817626953125,0.03150100260972977,-0.17451395094394684,0.04451247677206993
1779213674467809500,3.0278095703125,0.005663545802235603,-0.08378910273313522,0.0486006923019886
1779213674477800700,3.03780078125,-0.017381448298692703,0.009273182600736618,0.040088921785354614
1779213674487792400,3.04779248046875,-0.0323910228908062,0.07386282831430435,0.023959754034876823
1779213674497784600,3.05778466796875,-0.046168118715286255,0.09917318820953369,0.010189301334321499
1779213674507775500,3.067775390625,-0.04548022150993347,0.0908108651638031,0.007963697426021099
1779213674517767400,3.077767333984375,-0.023896584287285805,0.04801309108734131,0.019225969910621643
1779213674527759600,3.087759521484375,0.000046032480895519257,-0.0002295385202160105,0.04491481930017471
1779213674537751600,3.09775146484375,0.006828342564404011,-0.00044244417222216725,0.07628438621759415
1779213674547742700,3.10774267578125,-0.006969228386878967,0.06233198940753937,0.08028684556484222
1779213674557734400,3.117734375,-0.012876023538410664,0.12687177956104279,0.03510276973247528
1779213674567726600,3.1277265625,-0.012325813993811607,0.15679612755775452,-0.0370585061609745
1779213674577718500,3.137718505859375,0.012324539944529533,0.14318372309207916,-0.10954192280769348
1779213674587709700,3.147709716796875,0.028848921880126,0.04284168407320976,-0.12383218109607697
1779213674597701600,3.15770166015625,0.04197346046566963,-0.11880920827388763,-0.06681813299655914
1779213674607693300,3.167693359375,0.06318074464797974,-0.31545859575271606,0.02008800394833088
1779213674617685500,3.177685546875,0.09817611426115036,-0.4847676157951355,0.06724578142166138
1779213674627676400,3.187676513671875,0.13581563532352448,-0.5560036897659302,0.07361073791980743
1779213674637668600,3.197668701171875,0.14177216589450836,-0.49029168486595154,0.05975789204239845
1779213674647660500,3.20766064453125,0.11640529334545135,-0.32203635573387146,0.04391155019402504
1779213674657652700,3.21765283203125,0.06942156702280045,-0.09374447166919708,0.031191149726510048
1779213674667643600,3.2276435546875,0.038723841309547424,0.10891462862491608,0.02457958646118641
1779213674677635300,3.23763525390625,0.043374203145504,0.19525225460529327,0.014667066745460033
1779213674687627500,3.24762744140625,0.06805530935525894,0.12081609666347504,0.007366277277469635
1779213674697619500,3.257619384765625,0.11171522736549377,-0.030120663344860077,0.017530260607600212
1779213674707610600,3.267610595703125,0.15014943480491638,-0.15559682250022888,0.029591983184218407
1779213674717602600,3.2776025390625,0.16002385318279266,-0.16298586130142212,0.003006354905664921
1779213674727594500,3.287594482421875,0.1453961730003357,-0.07463816553354263,-0.020524537190794945
1779213674737585700,3.297585693359375,0.11527614295482635,-0.04794751852750778,-0.01226246077567339
1779213674747577600,3.30757763671875,0.07961615175008774,-0.08966726809740067,0.014554772526025772
1779213674757569500,3.317569580078125,0.0424019992351532,-0.1163802519440651,0.05126815661787987
1779213674767561500,3.3275615234375,0.05307089164853096,-0.11978829652070999,0.08516380935907364
1779213674777552600,3.337552734375,0.08726141601800919,-0.08894305676221848,0.10307621210813522
1779213674787544600,3.347544677734375,0.12172351777553558,0.0058444347232580185,0.09205126017332077
1779213674797536500,3.35753662109375,0.12488636374473572,0.1505068987607956,0.024489087983965874
1779213674807528400,3.367528564453125,0.0989689975976944,0.24258330464363098,-0.07358074933290482
1779213674817519600,3.37751953125,0.0767163410782814,0.27780717611312866,-0.14488516747951508
1779213674827511600,3.387511474609375,0.04953877627849579,0.16972173750400543,-0.17659196257591248
1779213674837503500,3.39750341796875,0.007890790700912476,-0.06730206310749054,-0.13821110129356384
1779213674847495700,3.40749560546875,-0.028092775493860245,-0.3566145598888397,-0.04990626871585846
1779213674857486600,3.417486572265625,-0.06520511209964752,-0.5894799828529358,0.02420133166015148
1779213674867478500,3.427478515625,-0.10403133928775787,-0.6201696991920471,0.0654052272439003
1779213674877470500,3.437470458984375,-0.1029474064707756,-0.5358819365501404,0.044731952250003815
1779213674887462700,3.447462646484375,-0.11038322001695633,-0.4165251851081848,-0.014879980124533176
1779213674897453600,3.45745361328125,-0.1164383515715599,-0.3499244451522827,-0.08268898725509644
1779213674907445500,3.467445556640625,-0.09785427898168564,-0.3066597878932953,-0.13646751642227173
1779213674917437400,3.4774375,-0.03538103401660919,-0.24873793125152588,-0.14330574870109558
1779213674927429400,3.487429443359375,0.008830102160573006,-0.17596040666103363,-0.10213673114776611
1779213674937420500,3.497420654296875,0.01553177647292614,-0.13497231900691986,-0.05496775731444359
1779213674947412500,3.50741259765625,0.001921159215271473,-0.03943222761154175,0.005493725650012493
1779213674957404700,3.51740478515625,-0.019285986199975014,0.11351309716701508,0.045904286205768585
1779213674967396600,3.527396728515625,-0.023201098665595055,0.25184035301208496,0.04335564002394676
1779213674977387800,3.5373876953125,-0.011953363195061684,0.3106544017791748,0.004540561698377132
1779213674987379500,3.54737939453125,0.0029872367158532143,0.2747933268547058,-0.044747624546289444
1779213674997371400,3.557371337890625,0.014787345193326473,0.16117644309997559,-0.07680361717939377
1779213675007362600,3.567362548828125,0.0383286252617836,0.015314568765461445,-0.07650294899940491
1779213675017354500,3.5773544921875,0.05389825999736786,-0.10022348165512085,-0.04691176488995552
1779213675027346700,3.5873466796875,0.04157288745045662,-0.14888475835323334,-0.016657190397381783
1779213675037338400,3.59733837890625,0.003429400734603405,-0.12596148252487183,-0.0032251423690468073
1779213675047330600,3.60733056640625,-0.029710177332162857,-0.06193908676505089,-0.0018400324042886496
1779213675057321500,3.617321533203125,-0.03977697342634201,0.006566179916262627,-0.002854458289220929
1779213675067313400,3.6273134765625,-0.030516095459461212,0.02727811597287655,0.0086069880053401
1779213675077305600,3.6373056640625,-0.017229527235031128,0.02639167383313179,0.022350342944264412
1779213675087297500,3.647297607421875,0.006028657779097557,0.01791536435484886,0.020683204755187035
1779213675097288700,3.657288818359375,0.005773610435426235,-0.011412116698920727,0.002702925354242325
1779213675107280400,3.6672802734375,-0.013881316408514977,-0.02446826361119747,-0.03317065164446831
1779213675117272600,3.6772724609375,-0.05444832891225815,0.07081068307161331,-0.08401722460985184
1779213675127263500,3.687263427734375,-0.04652142524719238,0.2240268737077713,-0.11129065603017807
1779213675137255400,3.69725537109375,-0.0004929676651954651,0.3136835992336273,-0.08729524165391922
1779213675147247600,3.70724755859375,0.03245938941836357,0.3121086061000824,-0.05389974266290665
1779213675157239800,3.71723974609375,0.024591568857431412,0.2202509343624115,-0.015355960465967655
1779213675167230700,3.727230712890625,0.01609208807349205,0.10962828248739243,0.0033602032344788313
1779213675177222700,3.73722265625,0.025853801518678665,0.05378683656454086,0.023108039051294327
1779213675187214800,3.74721484375,0.020869962871074677,0.044903066009283066,0.017880253493785858
1779213675197206800,3.757206787109375,0.01361602358520031,0.06168756261467934,-0.001320670242421329
1779213675207198000,3.767197998046875,-0.008224560879170895,0.04961864650249481,-0.012737109325826168
1779213675217190000,3.77718994140625,-0.024419225752353668,0.005600710865110159,-0.007376593537628651
1779213675227181800,3.787181884765625,-0.0061374232172966,-0.024734023958444595,0.03230397403240204
1779213675237173800,3.797173828125,-0.003622906282544136,-0.021470636129379272,0.07856542617082596
1779213675247164700,3.80716455078125,-0.04491468518972397,0.004268550779670477,0.08402997255325317
1779213675257156900,3.817156982421875,-0.07193488627672195,0.0667523592710495,0.05305041745305061
1779213675267148800,3.827148681640625,-0.0354975163936615,0.17910873889923096,0.026987126097083092
1779213675277140700,3.837140625,0.02050708420574665,0.2608346939086914,0.00680377334356308
1779213675287132000,3.8471318359375,0.031059058383107185,0.24860067665576935,-0.011510252952575684
1779213675297123800,3.857123779296875,0.009282449260354042,0.17117244005203247,-0.028820278123021126
1779213675307115800,3.86711572265625,-0.01317412406206131,0.09166855365037918,-0.030921777710318565
1779213675317108000,3.87710791015625,-0.024755124002695084,0.04882742837071419,-0.0200783871114254
1779213675327099000,3.887098876953125,-0.03813670948147774,0.03179464861750603,-0.004354285541921854
1779213675337090800,3.8970908203125,-0.055194467306137085,0.019498562440276146,0.008767384104430676
1779213675347082800,3.907082763671875,-0.07102163136005402,0.0007989104487933218,0.017773395404219627
1779213675357074700,3.91707470703125,-0.07680758833885193,-0.018295105546712875,0.0290996003895998
1779213675367065900,3.92706591796875,-0.07394947856664658,-0.03281492739915848,0.042851898819208145
1779213675377057800,3.937057861328125,-0.06583461165428162,-0.03674894571304321,0.05157267674803734
1779213675387050000,3.947050048828125,-0.056627802550792694,-0.032179225236177444,0.054385505616664886
1779213675397042000,3.9570419921875,-0.046821050345897675,-0.01827995479106903,0.05149248242378235
1779213675407032800,3.96703271484375,-0.04155677556991577,0.005939365364611149,0.051180895417928696
1779213675417024800,3.977024658203125,-0.03437994420528412,0.030049089342355728,0.05002174153923988
1779213675427016700,3.9870166015625,-0.01957809552550316,0.04974636062979698,0.045585714280605316
1779213675437009000,3.9970087890625,-0.00851752981543541,0.06212572380900383,0.04553797468543053
1779213675446999800,4.006999755859375,0.003223814070224762,0.0662485659122467,0.04326070472598076
1779213675456992000,4.016991943359375,0.01121145486831665,0.06581519544124603,0.03758092224597931
1779213675466983700,4.026983642578125,0.025980547070503235,0.07451228052377701,0.02549443207681179
1779213675476975600,4.0369755859375,0.04439029097557068,0.0838712826371193,0.009490551427006721
1779213675486966800,4.046966796875,0.06557466834783554,0.08765722811222076,-0.007316391449421644
1779213675496958700,4.056958740234375,0.0915943831205368,0.0753333792090416,-0.015513688325881958
1779213675506951000,4.066950927734375,0.11086848378181458,0.05444620922207832,-0.01607295125722885
1779213675516942800,4.07694287109375,0.11608102172613144,0.022682631388306618,-0.01625196821987629
1779213675526934800,4.086934814453125,0.0994916632771492,-0.011028992012143135,-0.020568951964378357
1779213675536925700,4.09692578125,0.07280544191598892,-0.045732155442237854,-0.031069306656718254
1779213675546918000,4.10691796875,0.05254411697387695,-0.08627612143754959,-0.035830505192279816
1779213675556909800,4.116909912109375,0.048182159662246704,-0.13293065130710602,-0.032591257244348526
1779213675566900700,4.126900634765625,0.056009452790021896,-0.18072587251663208,-0.019304480403661728
1779213675576893000,4.136892822265625,0.07195552438497543,-0.22278033196926117,-0.004202963784337044
1779213675586884900,4.146884765625,0.08210643380880356,-0.24992139637470245,0.0010043152142316103
1779213675596876800,4.156876708984375,0.07574964314699173,-0.25992345809936523,-0.013474506326019764
1779213675606868700,4.16686865234375,0.05119982361793518,-0.2568562924861908,-0.0360511876642704
1779213675616860000,4.17685986328125,0.01734906993806362,-0.24464155733585358,-0.05626896023750305
1779213675626851800,4.186851806640625,-0.021202050149440765,-0.22558344900608063,-0.07083245366811752
1779213675636843800,4.19684375,-0.05345635116100311,-0.20816391706466675,-0.06852798163890839
1779213675646835700,4.206835693359375,-0.07616566121578217,-0.1917697638273239,-0.055685147643089294
1779213675656826600,4.21682666015625,-0.08997954428195953,-0.17354509234428406,-0.036465249955654144
1779213675666818800,4.22681884765625,-0.09513702243566513,-0.14524447917938232,-0.021658873185515404
1779213675676810800,4.236810791015625,-0.09196322411298752,-0.10421803593635559,-0.017291108146309853
1779213675686803000,4.246802978515625,-0.08651866018772125,-0.048639990389347076,-0.01708977296948433
1779213675696793900,4.2567939453125,-0.08652912825345993,0.014150330796837807,-0.00920025259256363
1779213675706785800,4.266785888671875,-0.09189379960298538,0.06226273253560066,0.0036284602247178555
1779213675716777700,4.27677783203125,-0.09720497578382492,0.09078511595726013,0.02041136845946312
1779213675726769700,4.286769775390625,-0.09435486048460007,0.10264523327350616,0.03015480935573578
1779213675736760800,4.2967607421875,-0.08274941891431808,0.11511728167533875,0.035370536148548126
1779213675746752800,4.306752685546875,-0.06496668606996536,0.13307657837867737,0.036869630217552185
1779213675756745000,4.316744873046875,-0.047864362597465515,0.15728074312210083,0.03334922343492508
1779213675766736600,4.326736572265625,-0.04450318589806557,0.18611106276512146,0.02343187853693962
1779213675776727800,4.336727783203125,-0.05168115720152855,0.22420662641525269,0.007777927443385124
1779213675786719700,4.3467197265625,-0.05386974290013313,0.27155202627182007,-0.008040450513362885
1779213675796711700,4.356711669921875,-0.021231872960925102,0.33610787987709045,-0.019232358783483505
1779213675806703900,4.366703857421875,0.04720870405435562,0.4005209803581238,-0.03050152398645878
1779213675816694800,4.37669482421875,0.11310108751058578,0.4433479309082031,-0.05713964253664017
1779213675826687000,4.38668701171875,0.1470649093389511,0.45063352584838867,-0.10002505779266357
1779213675836678700,4.3966787109375,0.1564853936433792,0.4349774420261383,-0.14061501622200012
1779213675846670800,4.4066708984375,0.17396558821201324,0.4168165326118469,-0.16162335872650146
1779213675856661800,4.416661865234375,0.2138058990240097,0.40512338280677795,-0.15176144242286682
1779213675866653700,4.42665380859375,0.2728787958621979,0.38271525502204895,-0.13096216320991516
1779213675876646000,4.43664599609375,0.3308331072330475,0.34075650572776794,-0.11126632988452911
1779213675886637600,4.446637451171875,0.38049599528312683,0.28773802518844604,-0.09935667365789413
1779213675896628700,4.456628662109375,0.44988834857940674,0.22405919432640076,-0.09940379858016968
1779213675906620700,4.46662060546875,0.48523250222206116,0.19301259517669678,-0.10752777010202408
1779213675916612900,4.47661279296875,0.5071176886558533,0.19989514350891113,-0.12599557638168335
1779213675926604800,4.486604736328125,0.5311409831047058,0.2528041899204254,-0.14366911351680756
1779213675936596000,4.496595947265625,0.5729798078536987,0.3262065052986145,-0.16103529930114746
1779213675946588000,4.506587890625,0.6376320719718933,0.39775288105010986,-0.17384350299835205
1779213675956579600,4.51657958984375,0.7175610065460205,0.4431021809577942,-0.18626505136489868
1779213675966571800,4.52657177734375,0.81151282787323,0.45542651414871216,-0.19728468358516693
1779213675976563700,4.536563720703125,0.8799602389335632,0.40207380056381226,-0.20737192034721375
1779213675986555000,4.546554931640625,0.8920107483863831,0.28522789478302,-0.21530388295650482
1779213675996546800,4.556546875,0.8564262986183167,0.12297818064689636,-0.2119467854499817
1779213676006538800,4.566538818359375,0.7878392934799194,-0.07460280507802963,-0.19119197130203247
1779213676016530700,4.57653076171875,0.682768702507019,-0.2850576341152191,-0.15438802540302277
1779213676026521600,4.586521484375,0.5129042863845825,-0.4731612205505371,-0.10259247571229935
1779213676036513800,4.596513671875,0.25519534945487976,-0.5830360054969788,-0.04820664972066879
1779213676046505700,4.606505615234375,-0.08460058271884918,-0.5806615352630615,-0.003839450189843774
1779213676056498000,4.616497802734375,-0.3649913966655731,-0.46490681171417236,0.04334389418363571
1779213676066488800,4.62648876953125,-0.5130399465560913,-0.3704671263694763,0.08442261815071106
1779213676076480800,4.636480712890625,-0.5719026327133179,-0.3862918019294739,0.10251010954380035
1779213676086472700,4.64647265625,-0.5926249623298645,-0.49320653080940247,0.09908288717269897
1779213676096465000,4.65646484375,-0.6085008382797241,-0.6355000138282776,0.08060403913259506
1779213676106455800,4.666455810546875,-0.6302213072776794,-0.749488890171051,0.05639243870973587
1779213676116447700,4.67644775390625,-0.6664454936981201,-0.8327959179878235,0.029166556894779205
1779213676126440000,4.68643994140625,-0.6922507286071777,-0.8470457196235657,0.007655139081180096
1779213676136431600,4.696431640625,-0.6738621592521667,-0.7803979516029358,-0.0067991469986736774
1779213676146422800,4.7064228515625,-0.5680052042007446,-0.6315234899520874,-0.004332260694354773
1779213676156414700,4.716414794921875,-0.3851783573627472,-0.41245126724243164,0.002747001126408577
1779213676166406400,4.726406494140625,-0.17750400304794312,-0.15999026596546173,0.00018157807062380016
1779213676176398300,4.7363984375,-0.0023873504251241684,0.046393755823373795,-0.033359117805957794
1779213676186389500,4.746389404296875,0.07824411243200302,0.1561996042728424,-0.11595413088798523
1779213676196381400,4.75638134765625,0.0963602364063263,0.1784476488828659,-0.202774778008461
1779213676206373400,4.766373291015625,0.0915236696600914,0.144330695271492,-0.2475864589214325
1779213676216365300,4.776365234375,0.06911125779151917,0.06673170626163483,-0.2278064489364624
1779213676226356200,4.786356201171875,0.04188815876841545,-0.03788551315665245,-0.13938283920288086
1779213676236348400,4.796348388671875,0.009629135951399803,-0.13465934991836548,-0.012023177929222584
1779213676246340400,4.80634033203125,-0.026894520968198776,-0.19366274774074554,0.11659152060747147
1779213676256332300,4.816332275390625,-0.07058299332857132,-0.20405319333076477,0.20035742223262787
1779213676266323500,4.826323486328125,-0.09389496594667435,-0.1519545614719391,0.21704824268817902
1779213676276315400,4.8363154296875,-0.08866740763187408,-0.05043666064739227,0.17493869364261627
1779213676286307300,4.846307373046875,-0.0632920041680336,0.06036389246582985,0.09159266948699951
1779213676296299500,4.856299560546875,-0.029132096096873283,0.14307215809822083,0.0015693733002990484
1779213676306291500,4.86629150390625,-0.0036499062553048134,0.17370863258838654,-0.055212948471307755
1779213676316282400,4.876282470703125,0.022985724732279778,0.1738353818655014,-0.06133956462144852
1779213676326274300,4.8862744140625,0.041685640811920166,0.15576983988285065,-0.03315719589591026
1779213676336266200,4.896266357421875,0.05255606025457382,0.13729622960090637,0.007013604510575533
1779213676346258400,4.906258544921875,0.059022217988967896,0.1323254257440567,0.03723835200071335
1779213676356249300,4.916249267578125,0.03925330191850662,0.1222943514585495,0.02582695335149765
1779213676366241500,4.926241455078125,0.032285138964653015,0.12420570105314255,0.0001700587454251945
1779213676376233200,4.936233154296875,0.0407731756567955,0.1392238438129425,-0.010878821834921837
1779213676386225200,4.94622509765625,0.042228858917951584,0.1333843320608139,-0.007302196696400642
1779213676396216300,4.95621630859375,0.013221359811723232,0.11102831363677979,0.011912927962839603
1779213676406208300,4.966208251953125,-0.019949644804000854,0.09388021379709244,0.04050489142537117
1779213676416200400,4.976200439453125,-0.02559329941868782,0.09915419667959213,0.07102403789758682
1779213676426192400,4.9861923828125,-0.003495188429951668,0.10180297493934631,0.08819636702537537
1779213676436183600,4.99618359375,0.01978987082839012,0.081200510263443,0.07961434870958328
1779213676446175200,5.00617529296875,0.02862837165594101,0.03481756150722504,0.046775173395872116
1779213676456167200,5.016167236328125,0.02719721384346485,-0.02603485994040966,0.005705506540834904
1779213676466159400,5.026159423828125,0.020838117226958275,-0.09343893080949783,-0.02745244652032852
1779213676476150300,5.036150390625,0.015362618491053581,-0.1594638079404831,-0.04608982428908348
1779213676486142500,5.046142578125,0.00434485450387001,-0.22550354897975922,-0.04885232076048851
1779213676496134400,5.056134521484375,-0.005368327721953392,-0.27844247221946716,-0.04652906209230423
1779213676506126300,5.066126220703125,0.0010027522221207619,-0.30001193284988403,-0.036397065967321396
1779213676516117200,5.0761171875,0.017372962087392807,-0.28843170404434204,-0.025780633091926575
1779213676526109400,5.086109375,0.03363528847694397,-0.2523016631603241,-0.016457706689834595
1779213676536101400,5.096101318359375,0.04530617594718933,-0.21211391687393188,-0.008680356666445732
1779213676546093300,5.10609326171875,0.04666092246770859,-0.17671598494052887,-0.0030251340940594673
1779213676556085200,5.116085205078125,0.050259388983249664,-0.1512995809316635,0.0006036891136318445
1779213676566076200,5.126076171875,0.04710061103105545,-0.13804768025875092,-0.0049077230505645275
1779213676576068400,5.136068359375,0.026068713515996933,-0.12732113897800446,-0.013694165274500847
1779213676586060300,5.146060302734375,0.022057726979255676,-0.10774797201156616,-0.037024520337581635
1779213676596052500,5.156052490234375,0.02518189139664173,-0.09590299427509308,-0.04866941645741463
1779213676606043400,5.16604345703125,0.03205417841672897,-0.09346753358840942,-0.012964149937033653
1779213676616035300,5.176035400390625,0.035674698650836945,-0.13136279582977295,0.019484782591462135
1779213676626027300,5.18602734375,0.022451573982834816,-0.17353715002536774,0.019762549549341202
1779213676636019200,5.196019287109375,0.006415063515305519,-0.1646496206521988,-0.0017395085887983441
1779213676646010400,5.20601025390625,0.01099676638841629,-0.1020544171333313,-0.017863083630800247
1779213676656002300,5.216002197265625,0.013139310292899609,-0.022241048514842987,-0.0233523678034544
1779213676665994500,5.225994384765625,0.01266713161021471,0.04387751966714859,-0.014707746915519238
1779213676675986200,5.235986083984375,0.007353133521974087,0.09134870767593384,0.0022438792511820793
1779213676685977300,5.245977294921875,0.005212218500673771,0.1225404441356659,0.025289542973041534
1779213676695969300,5.25596923828125,0.0006169779226183891,0.1468450427055359,0.04001500457525253
1779213676705961200,5.265961181640625,-0.003886161372065544,0.15836188197135925,0.04148773476481438
1779213676715953400,5.275953369140625,-0.00881652720272541,0.15744858980178833,0.03333091363310814
1779213676725944300,5.2859443359375,-0.015180682763457298,0.14169839024543762,0.018924545496702194
1779213676735936500,5.2959365234375,-0.016200823709368706,0.11531244218349457,0.010649691335856915
1779213676745928200,5.30592822265625,-0.014202920719981194,0.08963078260421753,0.009167908690869808
1779213676755920400,5.31592041015625,-0.01028224267065525,0.07548192888498306,0.014977057464420795
1779213676765911300,5.325911376953125,-0.007603901904076338,0.0858038067817688,0.02509440667927265
1779213676775903200,5.3359033203125,-0.003731904551386833,0.11049504578113556,0.03203194588422775
1779213676785895400,5.3458955078125,-0.0007718009874224663,0.14073072373867035,0.039085857570171356
1779213676795887000,5.35588720703125,0.00040448084473609924,0.16904275119304657,0.03801284730434418
1779213676805879300,5.36587939453125,0.004184572026133537,0.19067054986953735,0.03099035657942295
1779213676815870200,5.3758701171875,0.005557440221309662,0.1991228312253952,0.027319129556417465
1779213676825862400,5.3858623046875,0.012598570436239243,0.19346654415130615,0.02458752505481243
1779213676835854300,5.395854248046875,0.020086048170924187,0.1771848499774933,0.028494730591773987
1779213676845846500,5.405846435546875,0.029537608847022057,0.16187913715839386,0.030091028660535812
1779213676855837400,5.41583740234375,0.03222069516777992,0.15264615416526794,0.03279620036482811
1779213676865829000,5.4258291015625,0.03573233634233475,0.15133987367153168,0.03341778367757797
1779213676875821300,5.4358212890625,0.035098616033792496,0.15616349875926971,0.0373777374625206
1779213676885813200,5.445813232421875,0.03632447123527527,0.16387708485126495,0.04243108257651329
1779213676895804400,5.455804443359375,0.03724254295229912,0.1706535369157791,0.047526028007268906
1779213676905796400,5.46579638671875,0.03619752079248428,0.1729920655488968,0.05280228331685066
1779213676915788300,5.475788330078125,0.03477546572685242,0.17453759908676147,0.055510301142930984
1779213676925780200,5.4857802734375,0.031046241521835327,0.17321400344371796,0.05764375999569893
1779213676935771100,5.495771240234375,0.028449732810258865,0.16608667373657227,0.05145464465022087
1779213676945763300,5.505763427734375,0.028868649154901505,0.1494821310043335,0.042761288583278656
1779213676955755300,5.51575537109375,0.02969191037118435,0.1291785091161728,0.035903435200452805
1779213676965747500,5.52574755859375,0.02928178198635578,0.10748173296451569,0.03693753853440285
1779213676975738400,5.53573828125,0.025887778028845787,0.09580426663160324,0.040222253650426865
1779213676985730300,5.545730224609375,0.022927941754460335,0.09127476811408997,0.043044138699769974
1779213676995722200,5.55572216796875,0.019738802686333656,0.08864489197731018,0.03541497886180878
1779213677005714400,5.56571435546875,0.020534290000796318,0.08454602211713791,0.026758108288049698
1779213677015705300,5.575705322265625,0.02011031284928322,0.0766177773475647,0.015014080330729485
1779213677025697300,5.585697265625,0.01944585144519806,0.06141192466020584,0.008349252864718437
1779213677035689500,5.595689453125,0.018196528777480125,0.04155346378684044,0.0071222675032913685
1779213677045681200,5.60568115234375,0.019834373146295547,0.026222441345453262,0.014349553734064102
1779213677055673300,5.61567333984375,0.02072230726480484,0.021604590117931366,0.020540138706564903
1779213677065664300,5.625664306640625,0.022381987422704697,0.019326522946357727,0.024050185456871986
1779213677075656400,5.635656494140625,0.022691335529088974,0.017989737913012505,0.02384817786514759
1779213677085648400,5.6456484375,0.01796528697013855,0.014375297352671623,0.01740359328687191
1779213677095640300,5.655640380859375,0.015522722154855728,0.0073145050555467606,0.010723108425736427
1779213677105631200,5.66563134765625,0.01475280150771141,-0.009612013585865498,0.003911541309207678
1779213677115623200,5.675623046875,0.012092256918549538,-0.03161982074379921,-0.0046150884591042995
1779213677125615400,5.685615478515625,0.016475019976496696,-0.05359116569161415,-0.010364321060478687
1779213677135607300,5.695607177734375,0.018484201282262802,-0.05849100649356842,-0.01351845171302557
1779213677145598500,5.705598388671875,0.01792067661881447,-0.05216493457555771,-0.01267849002033472
1779213677155590400,5.71559033203125,0.012711363844573498,-0.03450252115726471,-0.009490098804235458
1779213677165582000,5.72558203125,0.007495828904211521,-0.009677332825958729,-0.004209849517792463
1779213677175574000,5.735573974609375,0.0027677789330482483,0.013316561467945576,-0.0003728700685314834
1779213677185565000,5.74556494140625,0.0014433888718485832,0.026873648166656494,-0.0003638153139036149
1779213677195557000,5.75555712890625,0.0033120047301054,0.026704665273427963,-0.00857315119355917
1779213677205549000,5.765549072265625,0.006507265381515026,0.020030783489346504,-0.0175610538572073
1779213677215541200,5.775541259765625,0.007341224700212479,0.005387797486037016,-0.023428121581673622
1779213677225532200,5.7855322265625,0.011109597980976105,-0.008878489956259727,-0.0243743434548378
1779213677235524000,5.795524169921875,0.015871064737439156,-0.019087718799710274,-0.021107178181409836
1779213677245516000,5.80551611328125,0.018699340522289276,-0.020124221220612526,-0.01513929944485426
1779213677255508200,5.81550830078125,0.020259376615285873,-0.007768863346427679,-0.009051688015460968
1779213677265499100,5.8254990234375,0.01837678626179695,0.01622568443417549,-0.00015779609384480864
1779213677275491000,5.835490966796875,0.012961250729858875,0.040611520409584045,0.009815803728997707
1779213677285483000,5.84548291015625,0.009874380193650723,0.05771620571613312,0.01636451855301857
1779213677295475000,5.855474853515625,0.00701566319912672,0.06569281220436096,0.016152702271938324
1779213677305467100,5.865467041015625,0.008914764039218426,0.0635249987244606,0.009582417085766792
1779213677315458000,5.8754580078125,0.007073679938912392,0.054516274482011795,0.0004240247653797269
1779213677325450200,5.8854501953125,0.007921630516648293,0.044775497168302536,-0.0052506388165056705
1779213677335442200,5.895442138671875,0.010013734921813011,0.03951621428132057,-0.002150526037439704
1779213677345434000,5.90543408203125,0.009247010573744774,0.039890386164188385,0.004583543166518211
1779213677355425000,5.915425048828125,0.007257057353854179,0.04442969709634781,0.01221797987818718
1779213677365417000,5.9254169921875,0.0033179763704538345,0.053479649126529694,0.014520549215376377
1779213677375409200,5.9354091796875,-0.0020491238683462143,0.060616385191679,0.008249864913523197
1779213677385401000,5.945401123046875,-0.004188175313174725,0.059087999165058136,-0.001433388446457684
1779213677395392300,5.955392333984375,-0.0067636859603226185,0.046824678778648376,-0.01624668389558792
1779213677405384000,5.965384033203125,-0.0043599167838692665,0.022152889519929886,-0.0232758317142725
1779213677415376100,5.975376220703125,-0.0011404100805521011,-0.001314579858444631,-0.02540418691933155
1779213677425368000,5.9853681640625,0.0011075641959905624,-0.013083887286484241,-0.02070690505206585
1779213677435359000,5.99535888671875,0.002349388785660267,-0.013394209556281567,-0.015163331292569637
1779213677445351200,6.00535107421875,-0.001928446814417839,-0.0057528018951416016,-0.013189928606152534
1779213677455343000,6.015343017578125,-0.006676751654595137,0.00010121360537596047,-0.01754673942923546
1779213677465335000,6.0253349609375,-0.005543310195207596,-0.0007856190204620361,-0.019619477912783623
1779213677475326000,6.035325927734375,-0.003822603262960911,-0.010613146238029003,-0.01997201330959797
1779213677485318100,6.045318115234375,-0.00574274268001318,-0.023776086047291756,-0.018966136500239372
1779213677495310000,6.05531005859375,-0.004536214750260115,-0.03670965135097504,-0.016451768577098846
1779213677505302300,6.06530224609375,-0.005105065647512674,-0.04593510553240776,-0.018110651522874832
1779213677515293200,6.075293212890625,-0.004496746230870485,-0.05071308836340904,-0.021673152223229408
1779213677525285000,6.08528515625,-0.005137769039720297,-0.052530694752931595,-0.02897500805556774
1779213677535277000,6.095277099609375,-0.005161300301551819,-0.05039725825190544,-0.035227078944444656
1779213677545269000,6.10526904296875,-0.0014155637472867966,-0.049334920942783356,-0.03574266657233238
1779213677555260200,6.11526025390625,-0.000850168988108635,-0.04878786951303482,-0.02769641764461994
1779213677565252000,6.125252197265625,0.002806883305311203,-0.04747466370463371,-0.018574291840195656
1779213677575244300,6.135244384765625,0.0016356967389583588,-0.03775196522474289,-0.006774326786398888
1779213677585236000,6.145236083984375,0.001655670814216137,-0.025046290829777718,-0.0036826631985604763
1779213677595227000,6.155226806640625,0.001778140664100647,-0.012783014215528965,-0.005088326055556536
1779213677605219000,6.165218994140625,0.0005735922604799271,-0.0044739521108567715,-0.0056854067370295525
1779213677615211000,6.1752109375,-0.001580679789185524,-0.005904360208660364,-0.005969060119241476
1779213677625203200,6.185203125,-0.0022864174097776413,-0.006400773301720619,-0.004031077958643436
1779213677635195100,6.195195068359375,-0.001352447085082531,-0.008664460852742195,-0.0011649838415905833
1779213677645186300,6.205186279296875,0.00205133855342865,-0.009556086733937263,0.0018694218015298247
1779213677655178000,6.215177978515625,0.005856350064277649,-0.004368635825812817,0.0047116936184465885
1779213677665170200,6.225170166015625,0.00779220275580883,0.0035220440477132797,0.004778805188834667
1779213677675162000,6.235162109375,0.008032934740185738,0.012015963904559612,-0.0015562830958515406
1779213677685153000,6.245153076171875,0.005288546904921532,0.015965964645147324,-0.006486061029136181
1779213677695145200,6.255145263671875,0.004171871580183506,0.015053546987473965,-0.012599369511008263
1779213677705137000,6.265136962890625,0.002642683684825897,0.00397027051076293,-0.01116978470236063
1779213677715129000,6.275129150390625,0.0001448318362236023,-0.010191960260272026,-0.00852667074650526
1779213677725120000,6.2851201171875,-0.001163313165307045,-0.017160922288894653,-0.0027617255691438913
1779213677735112200,6.2951123046875,-0.005287684500217438,-0.01504897978156805,-0.00004152176552452147
1779213677745104100,6.305104248046875,-0.00740569643676281,-0.004498601425439119,0.001097245840355754
1779213677755096300,6.315096435546875,-0.010113105177879333,0.004729182459414005,-0.0019755768589675426
1779213677765087200,6.325087158203125,-0.00984758697450161,0.010883214883506298,-0.0006328111630864441
1779213677775079000,6.335078857421875,-0.006473930552601814,0.01477697491645813,-0.00021554031991399825
1779213677785071000,6.345071044921875,-0.005956478416919708,0.019178912043571472,-0.0010816003195941448
1779213677795063000,6.35506298828125,-0.0066142394207417965,0.022804632782936096,-0.005308481398969889
1779213677805054200,6.36505419921875,-0.005667752120643854,0.02739112824201584,-0.008588429540395737
1779213677815046100,6.375046142578125,-0.006696381606161594,0.0285574272274971,-0.01054654736071825
1779213677825038000,6.3850380859375,-0.009751027449965477,0.02944772318005562,-0.00895184651017189
1779213677835030000,6.395030029296875,-0.012344595044851303,0.029879556968808174,-0.006163381040096283
1779213677845021000,6.40502099609375,-0.014098286628723145,0.029506448656320572,-0.005103176459670067
1779213677855013000,6.41501318359375,-0.014154978096485138,0.03264760971069336,-0.0034725593868643045
1779213677865005000,6.425005126953125,-0.012025780975818634,0.03102121502161026,-0.001771864597685635
1779213677874997200,6.434997314453125,-0.006891478784382343,0.021665554493665695,-0.002306607784703374
1779213677884988200,6.44498828125,-0.0036227144300937653,0.005926273297518492,-0.00513195525854826
1779213677894980000,6.45497998046875,-0.000572974793612957,-0.008547285571694374,-0.009247949346899986
1779213677904972000,6.464971923828125,0.001711750403046608,-0.016055801883339882,-0.013892236165702343
1779213677914964200,6.474964111328125,-0.001010226085782051,-0.020397307351231575,-0.018177010118961334
1779213677924955100,6.484955078125,-0.0019929325208067894,-0.017732281237840652,-0.018494458869099617
1779213677934947000,6.494947021484375,-0.006713561248034239,-0.008893470279872417,-0.014715112745761871
1779213677944939300,6.504939208984375,-0.007350589614361525,0.005835941061377525,-0.009149106219410896
1779213677954931000,6.514930908203125,-0.009639174677431583,0.01579076610505581,-0.003833517897874117
1779213677964922000,6.524922119140625,-0.01470796950161457,0.019011594355106354,0.0011015859199687839
1779213677974914000,6.5349140625,-0.02061501517891884,0.019441837444901466,0.000029803835786879063
1779213677984906200,6.54490625,-0.025823891162872314,0.01124569308012724,-0.007699222303926945
1779213677994898200,6.554898193359375,-0.03270770609378815,-0.004115781281143427,-0.015977218747138977
1779213678004889000,6.56488916015625,-0.03673733398318291,-0.024858610704541206,-0.02351050265133381
1779213678014881000,6.574881103515625,-0.03515724092721939,-0.040383480489254,-0.0280772652477026
1779213678024873000,6.584873046875,-0.03198115527629852,-0.04898735508322716,-0.024311821907758713
1779213678034865200,6.594865234375,-0.030316181480884552,-0.04305228218436241,-0.02110462449491024
1779213678044856000,6.60485595703125,-0.02729775570333004,-0.027238968759775162,-0.017362084239721298
1779213678054848300,6.61484814453125,-0.024835744872689247,-0.008892766200006008,-0.019210636615753174
1779213678064840200,6.624840087890625,-0.01740153133869171,0.00022403339971788228,-0.020598676055669785
1779213678074832100,6.63483203125,-0.008468561805784702,-0.0006088335067033768,-0.020472800359129906
1779213678084823000,6.644822998046875,-0.0012207692489027977,-0.010598350316286087,-0.015080966055393219
1779213678094815000,6.65481494140625,0.002968495711684227,-0.015355434268712997,-0.009127882309257984
1779213678104807200,6.66480712890625,0.0021833963692188263,-0.013363122940063477,-0.003370660590007901
1779213678114799000,6.674799072265625,-0.0003606090322136879,-0.0022645227145403624,0.004404578357934952
1779213678124791000,6.684791015625,-0.0022898027673363686,0.011739709414541721,0.00806988775730133
1779213678134782000,6.694781982421875,-0.006790350656956434,0.02536378987133503,0.011355582624673843
1779213678144774100,6.704774169921875,-0.009923293255269527,0.0357341393828392,0.013028047047555447
1779213678154766000,6.71476611328125,-0.011021851561963558,0.04280061647295952,0.007751033641397953
1779213678164759000,6.724759033203125,-0.013486607000231743,0.04565365985035896,0.0005636945716105402
1779213678174750000,6.73475,-0.014632945880293846,0.044475868344306946,-0.01078843604773283
1779213678184742000,6.744741943359375,-0.013138378970324993,0.04397652670741081,-0.019314546138048172
1779213678194733800,6.75473388671875,-0.012683357112109661,0.0536937490105629,-0.022895818576216698
1779213678204726000,6.76472607421875,-0.016111643984913826,0.06748945266008377,-0.022170107811689377
1779213678214717000,6.774717041015625,-0.017911367118358612,0.08621032536029816,-0.015666723251342773
1779213678224709000,6.784709228515625,-0.0120995519682765,0.09767816215753555,-0.007625307887792587
1779213678234700800,6.79470068359375,-0.01910720393061638,0.08746977150440216,-0.005116601940244436
1779213678244693000,6.80469287109375,-0.0240500308573246,0.07601045072078705,-0.0010174644412472844
1779213678254684000,6.814683837890625,-0.01878552883863449,0.0688323900103569,-0.0010084558743983507
1779213678264675800,6.82467578125,-0.015555113554000854,0.05630940943956375,-0.004482549615204334
1779213678274668000,6.83466796875,-0.01203917432576418,0.03576423600316048,-0.009018132463097572
1779213678284660000,6.844659912109375,-0.007059063296765089,0.020502189174294472,-0.01676234044134617
1779213678294651100,6.854651123046875,-0.00506956921890378,0.016234859824180603,-0.020595839247107506
1779213678304642800,6.864642822265625,-0.006479979492723942,0.0190570130944252,-0.021480808034539223
1779213678314635000,6.874635009765625,-0.00422054436057806,0.02108578383922577,-0.023414548486471176
1779213678324627000,6.884626953125,-0.0012021176517009735,0.018517164513468742,-0.0251165758818388
1779213678334617900,6.894617919921875,0.0007774364203214645,0.0028527916874736547,-0.026021717116236687
1779213678344610000,6.904610107421875,0.0020696017891168594,-0.01681971363723278,-0.030385039746761322
1779213678354602000,6.91460205078125,-0.0014213845133781433,-0.04185831919312477,-0.03548642620444298
1779213678364594000,6.924593994140625,-0.008557857945561409,-0.06656020134687424,-0.03982764482498169
1779213678374584800,6.934584716796875,-0.013979854062199593,-0.08828799426555634,-0.04641375318169594
1779213678384577000,6.944576904296875,-0.01562116015702486,-0.09937872737646103,-0.04793814569711685
1779213678394569000,6.95456884765625,-0.019381530582904816,-0.10055746138095856,-0.05037975311279297
1779213678404561000,6.964560791015625,-0.023030860349535942,-0.09200552105903625,-0.051069244742393494
1779213678414552000,6.974552001953125,-0.025250915437936783,-0.07983223348855972,-0.04896830394864082
1779213678424543700,6.984543701171875,-0.02734575793147087,-0.07100439071655273,-0.050640769302845
1779213678434536000,6.994535888671875,-0.028989462181925774,-0.06436486542224884,-0.05398783087730408
1779213678444527900,7.00452783203125,-0.02619341015815735,-0.05559054762125015,-0.05889150872826576
1779213678454519000,7.01451904296875,-0.024061789736151695,-0.04730164632201195,-0.06513655930757523
1779213678464511000,7.024510986328125,-0.023083610460162163,-0.0405699759721756,-0.07111188769340515
1779213678474503200,7.034503173828125,-0.020517125725746155,-0.03384680300951004,-0.0714426338672638
1779213678484494800,7.044494873046875,-0.02241782285273075,-0.025500722229480743,-0.06734136492013931
1779213678494485800,7.05448583984375,-0.02091309428215027,-0.010806199163198471,-0.059033360332250595
1779213678504478000,7.06447802734375,-0.017951924353837967,0.008110500872135162,-0.04962734505534172
1779213678514470000,7.074469970703125,-0.014419450424611568,0.031398508697748184,-0.036334965378046036
1779213678524462000,7.084462158203125,-0.014903879724442959,0.0574338398873806,-0.026144379749894142
1779213678534453000,7.094452880859375,-0.015081480145454407,0.0829288586974144,-0.016954829916357994
1779213678544445000,7.10444482421875,-0.015569636598229408,0.10024739801883698,-0.012867411598563194
1779213678554436900,7.114436767578125,-0.01877656951546669,0.11115892231464386,-0.01343117468059063
1779213678564428800,7.1244287109375,-0.019455675035715103,0.11181832104921341,-0.0176517516374588
1779213678574420000,7.134419921875,-0.017062658444046974,0.10745178163051605,-0.027168327942490578
1779213678584412000,7.144411865234375,-0.014805363491177559,0.09687290340662003,-0.035278983414173126
1779213678594404000,7.154404052734375,-0.011436344124376774,0.08602584153413773,-0.04219359531998634
1779213678604395800,7.164395751953125,-0.008785434067249298,0.08090431988239288,-0.044800031930208206
1779213678614387000,7.174386962890625,-0.007779902778565884,0.07892775535583496,-0.043223436921834946
1779213678624379000,7.18437890625,-0.010989278554916382,0.08646290004253387,-0.03709390386939049
1779213678634371000,7.19437109375,-0.016158195212483406,0.09785374999046326,-0.028563283383846283
1779213678644363000,7.204363037109375,-0.02189943939447403,0.11227130144834518,-0.022196197882294655
1779213678654354000,7.21435400390625,-0.02359926700592041,0.12226826697587967,-0.01530712191015482
1779213678664345900,7.224345947265625,-0.026020348072052002,0.1260044127702713,-0.011573903262615204
1779213678674337800,7.234337890625,-0.023891691118478775,0.12110113352537155,-0.010957547463476658
1779213678684330000,7.244330078125,-0.01821250095963478,0.11119470745325089,-0.010638234205543995
1779213678694321000,7.25432080078125,-0.0061547658406198025,0.09888023138046265,-0.011183668859302998
1779213678704313000,7.26431298828125,0.00392343383282423,0.08609039336442947,-0.010975942015647888
1779213678714305000,7.274304931640625,0.014428929425776005,0.07272861897945404,-0.011446421965956688
1779213678724296000,7.2842958984375,0.021516133099794388,0.06582143902778625,-0.009702851064503193
1779213678734288000,7.294287841796875,0.026005595922470093,0.06498558819293976,-0.005654183216392994
1779213678744279800,7.30427978515625,0.024886272847652435,0.06773796677589417,-0.0052818735130131245
1779213678754272000,7.31427197265625,0.024051982909440994,0.06943963468074799,-0.0035352171398699284
1779213678764264000,7.324263916015625,0.01753522828221321,0.06593304872512817,-0.001138105639256537
1779213678774255000,7.334255126953125,0.011659573763608932,0.0538986474275589,0.0017084779683500528
1779213678784247000,7.3442470703125,0.008438479155302048,0.04256902635097504,0.005285636056214571
1779213678794238700,7.35423876953125,0.0018691802397370338,0.0226112250238657,0.005486896727234125
1779213678804230000,7.36422998046875,-0.004460354335606098,0.002769610146060586,-0.00244159996509552
1779213678814221800,7.374221923828125,-0.007275578565895557,-0.014598540030419827,-0.013462682254612446
1779213678824214000,7.384214111328125,-0.005552779417484999,-0.0234863068908453,-0.02213446795940399
1779213678834206000,7.3942060546875,-0.004464911762624979,-0.024351617321372032,-0.02844620682299137
1779213678844197000,7.404197021484375,-0.0031889909878373146,-0.01825058087706566,-0.027091989293694496
1779213678854188800,7.414188720703125,-0.0040946220979094505,-0.011691732332110405,-0.02509644255042076
1779213678864181000,7.424180908203125,-0.003140944056212902,-0.00629457039758563,-0.02069716714322567
1779213678874173000,7.4341728515625,-0.0009147375822067261,-0.009012100286781788,-0.018871108070015907
1779213678884163800,7.444163818359375,-0.0003884974867105484,-0.023274127393960953,-0.01787055842578411
1779213678894156000,7.454156005859375,-0.00007394235581159592,-0.037233270704746246,-0.019550884142518044
1779213678904148000,7.46414794921875,0.00013538263738155365,-0.04756500571966171,-0.018964456394314766
1779213678914140000,7.474139892578125,-0.00038574449717998505,-0.04982725530862808,-0.016519851982593536
1779213678924130800,7.484130859375,-0.0008169105276465416,-0.0500807911157608,-0.014097174629569054
1779213678934123000,7.494123046875,-0.002239607274532318,-0.045003149658441544,-0.008891991339623928
1779213678944115000,7.504114990234375,-0.003861738368868828,-0.038886137306690216,-0.004563289228826761
1779213678954107000,7.51410693359375,-0.005915746558457613,-0.028359228745102882,-0.0021781683899462223
1779213678964098000,7.52409814453125,-0.011909456923604012,-0.01745305210351944,-0.003250889712944627
1779213678974090000,7.534090087890625,-0.014058809727430344,-0.011312713846564293,-0.0065091317519545555
1779213678984082000,7.54408203125,-0.021909276023507118,-0.010880749672651291,-0.011969943530857563
1779213678994073900,7.554073974609375,-0.029366550967097282,-0.0082843117415905,-0.014743506908416748
1779213679004065000,7.56406494140625,-0.035878513008356094,0.0026796567253768444,-0.013000467792153358
1779213679014057000,7.574056884765625,-0.03761083632707596,0.022564249113202095,-0.0038920992519706488
1779213679024049000,7.584048828125,-0.034166302531957626,0.04436328634619713,0.0029200005810707808
1779213679034040800,7.594040771484375,-0.02988765761256218,0.06798780709505081,0.009013500064611435
1779213679044031700,7.60403173828125,-0.022688334807753563,0.08591248095035553,0.011371462605893612
1779213679054024000,7.61402392578125,-0.016092829406261444,0.10505205392837524,0.010927543975412846
1779213679064016000,7.624015869140625,-0.012081576511263847,0.11560403555631638,0.008796482346951962
1779213679074008000,7.634008056640625,-0.005418052431195974,0.1173805519938469,0.008543629199266434
1779213679083999000,7.6439990234375,0.0021445257589221,0.11088590323925018,0.010259237140417099
1779213679093991200,7.6539912109375,0.010400834493339062,0.09620198607444763,0.01412157528102398
1779213679103982800,7.66398291015625,0.01883693039417267,0.08217485249042511,0.022481769323349
1779213679113974800,7.673974853515625,0.026882309466600418,0.06294472515583038,0.030615879222750664
1779213679123966000,7.683966064453125,0.03134017437696457,0.03976989910006523,0.03614486753940582
1779213679133958000,7.6939580078125,0.03366974741220474,0.01636030524969101,0.036156173795461655
1779213679143950000,7.7039501953125,0.033685993403196335,-0.002527897944673896,0.03726910799741745
1779213679153941000,7.71394091796875,0.03305409103631973,-0.015529397875070572,0.03214611858129501
1779213679163936300,7.723936279296875,0.029359489679336548,-0.021816056221723557,0.028362566605210304
1779213679173928000,7.733927978515625,0.027796760201454163,-0.027882369235157967,0.02436169795691967
1779213679183920000,7.743920166015625,0.025351710617542267,-0.03374771401286125,0.020235929638147354
1779213679193911000,7.7539111328125,0.021759983152151108,-0.03935661166906357,0.01933153346180916
1779213679203903000,7.763903076171875,0.016508763656020164,-0.04586617648601532,0.015171407721936703
1779213679213895200,7.773895263671875,0.009137733839452267,-0.04923780634999275,0.012157745659351349
1779213679223886800,7.783886962890625,0.004773079417645931,-0.05116460099816322,0.002126949606463313
1779213679233878000,7.7938779296875,0.0012644566595554352,-0.05173102766275406,-0.00854356586933136
1779213679243870000,7.803869873046875,-0.0027904724702239037,-0.05227111652493477,-0.020421264693140984
1779213679253862100,7.813862060546875,-0.005434086080640554,-0.05536753311753273,-0.02716486155986786
1779213679263854000,7.82385400390625,-0.006232768297195435,-0.059563346207141876,-0.030948681756854057
1779213679273845000,7.833844970703125,-0.00839054211974144,-0.06650574505329132,-0.02778785116970539
1779213679283837200,7.843837158203125,-0.009625449776649475,-0.06925812363624573,-0.022703344002366066
1779213679293828900,7.853828857421875,-0.009843496605753899,-0.067118339240551,-0.01749662682414055
1779213679303821000,7.863821044921875,-0.010722339153289795,-0.06209748238325119,-0.01193221751600504
1779213679313812000,7.87381201171875,-0.009571253322064877,-0.057075049728155136,-0.009814545512199402
1779213679323804200,7.88380419921875,-0.007865498773753643,-0.055189795792102814,-0.006950049195438623
1779213679333796000,7.893796142578125,-0.003828597255051136,-0.05700741708278656,-0.0078107696026563644
1779213679343788000,7.9037880859375,0.0013315435498952866,-0.06491274386644363,-0.006925801280885935
1779213679353779200,7.913779296875,0.00569926667958498,-0.0734291821718216,-0.005006890278309584
1779213679363771000,7.92377099609375,0.006683836691081524,-0.07465982437133789,-0.0034188469871878624
1779213679373763000,7.93376318359375,0.009504512883722782,-0.06855795532464981,-0.001000103773549199
1779213679383754000,7.94375390625,0.011463533155620098,-0.05713805556297302,0.006588573567569256
1779213679393746200,7.95374609375,0.012582519091665745,-0.04514789953827858,0.012405212968587875
1779213679403738000,7.963738037109375,0.012814215384423733,-0.03376448526978493,0.019189614802598953
1779213679413730000,7.97372998046875,0.01399429515004158,-0.024694589897990227,0.020920921117067337
1779213679423721000,7.983720947265625,0.01345686987042427,-0.019860154017806053,0.020616788417100906
1779213679433713000,7.993712890625,0.01820758357644081,-0.011623002588748932,0.02008633501827717
1779213679443705000,8.003705078125,0.020955167710781097,0.0010959883220493793,0.023511692881584167
1779213679453697000,8.013697021484376,0.022896654903888702,0.014431120827794075,0.03103410080075264
1779213679463688200,8.023688232421875,0.024343017488718033,0.029245754703879356,0.03602593019604683
1779213679473680100,8.03368017578125,0.021113157272338867,0.03428008034825325,0.03907783702015877
1779213679483672000,8.043672119140625,0.01590587943792343,0.03213384002447128,0.03922164812684059
1779213679493664000,8.0536640625,0.0057530393823981285,0.029397280886769295,0.04231850057840347
1779213679503655000,8.063655029296875,-0.003573349677026272,0.03009502962231636,0.04911382496356964
1779213679513647000,8.073647216796875,-0.0018970528617501259,0.04088281840085983,0.051050327718257904
1779213679523639000,8.08363916015625,0.007992329075932503,0.05686178430914879,0.044738370925188065
1779213679533631000,8.093630859375,0.019111473113298416,0.057323142886161804,0.026942908763885498
1779213679543622100,8.1036220703125,0.027417339384555817,0.04245711490511894,0.011333055794239044
1779213679553614000,8.113614013671874,0.031777143478393555,0.02209341526031494,0.010855993255972862
1779213679563606000,8.12360595703125,0.02856137603521347,0.0005282025085762143,0.022382155060768127
1779213679573597000,8.133596923828126,0.023981314152479172,-0.011213261634111404,0.037404172122478485
1779213679583589000,8.143589111328126,0.01632285863161087,-0.009486467577517033,0.048960160464048386
1779213679593581000,8.1535810546875,0.01202503964304924,0.0006085976492613554,0.052117396146059036
1779213679603573000,8.163572998046876,0.008691294118762016,0.01553960982710123,0.04626643285155296
1779213679613564000,8.17356396484375,0.008996526710689068,0.0224576685577631,0.03645693138241768
1779213679623556000,8.18355615234375,0.00961118470877409,0.014309195801615715,0.027385670691728592
1779213679633548000,8.193548095703125,0.00820761639624834,-0.0038629549089819193,0.017585963010787964
1779213679643540200,8.203540283203125,0.010202323086559772,-0.021356994286179543,0.010382644832134247
1779213679653531100,8.21353125,0.014018867164850235,-0.034707117825746536,-0.0005576058756560087
1779213679663523000,8.223523193359375,0.014536585658788681,-0.03652392700314522,-0.008960411883890629
1779213679673515000,8.233514892578125,0.013296916149556637,-0.025347208604216576,-0.017065225169062614
1779213679683506000,8.243505859375,0.011899023316800594,-0.011457224376499653,-0.01829187572002411
1779213679693498000,8.253498046875,0.009563412517309189,0.0038749263621866703,-0.01321497093886137
1779213679703490000,8.263489990234374,0.0029321424663066864,0.016695382073521614,-0.008692657575011253
1779213679713482200,8.273482177734374,-0.0017322655767202377,0.02301870658993721,0.0007888898835517466
1779213679723473200,8.28347314453125,-0.0017727455124258995,0.021011749282479286,0.004758863709867001
1779213679733464800,8.29346484375,-0.0008641369640827179,0.014628401957452297,0.0025228436570614576
1779213679743457000,8.30345703125,0.0009662536904215813,0.0019520212663337588,-0.001606121426448226
1779213679753449000,8.313448974609376,0.006523820571601391,-0.007916783913969994,-0.008417881093919277
1779213679763440000,8.323440185546875,0.011424834839999676,-0.014287598431110382,-0.013785747811198235
1779213679773432000,8.33343212890625,0.01771809160709381,-0.016634924337267876,-0.0186481773853302
1779213679783424300,8.34342431640625,0.02102413773536682,-0.01907864212989807,-0.017513403668999672
1779213679793416000,8.353416015625,0.023580998182296753,-0.023564845323562622,-0.014915046282112598
1779213679803406800,8.36340673828125,0.02824978530406952,-0.0364830382168293,-0.01747461035847664
1779213679813399000,8.37339892578125,0.02677314355969429,-0.055179692804813385,-0.02071400359272957
1779213679823391000,8.383390869140625,0.028746813535690308,-0.07418373972177505,-0.030072085559368134
1779213679833382100,8.393382080078124,0.026014065369963646,-0.09402342140674591,-0.036041803658008575
1779213679843374000,8.4033740234375,0.025653207674622536,-0.10667956620454788,-0.03528706356883049
1779213679853366000,8.413365966796874,0.023034095764160156,-0.1102915108203888,-0.024202534928917885
1779213679863358000,8.42335791015625,0.019712604582309723,-0.1001184955239296,-0.0137709341943264
1779213679873348900,8.433348876953126,0.013368206098675728,-0.08184505254030228,-0.003283808007836342
1779213679883341000,8.443341064453126,0.0073675718158483505,-0.05606139451265335,-0.00022010761313140392
1779213679893333000,8.4533330078125,0.005082751624286175,-0.03456069529056549,-0.0024883137084543705
1779213679903325200,8.4633251953125,0.0006049126386642456,-0.020997749641537666,-0.00576719781383872
1779213679913316000,8.473316162109375,-0.0016827024519443512,-0.013521797023713589,-0.010657495819032192
1779213679923308000,8.48330810546875,-0.002380451187491417,-0.012040014378726482,-0.010848444886505604
1779213679933300000,8.493300048828125,-0.004891430027782917,-0.011291364207863808,-0.011674231849610806
1779213679943292200,8.503292236328125,-0.00461099948734045,-0.007347488310188055,-0.009831590577960014
1779213679953283000,8.513282958984375,-0.003988086245954037,0.0025610688608139753,-0.007089067716151476
1779213679963275000,8.52327490234375,-0.0011643366888165474,0.019668949767947197,-0.005188369657844305
1779213679973267200,8.53326708984375,-0.0011617140844464302,0.03982497751712799,-0.0003897073329426348
1779213679983258000,8.543258056640624,0.0020306166261434555,0.062357980757951736,0.006549691781401634
1779213679993250000,8.55325,0.003330984152853489,0.07710587233304977,0.009976251050829887
1779213680003242000,8.563241943359374,0.0064404914155602455,0.08528843522071838,0.012645270675420761
1779213680013234200,8.573234130859374,0.006626312620937824,0.08910194039344788,0.011028269305825233
1779213680023225000,8.58322509765625,0.006011920981109142,0.08603451400995255,0.009932378306984901
1779213680033217000,8.593217041015626,0.0036524003371596336,0.07948949933052063,0.01226049941033125
1779213680043209000,8.603208984375,0.0009242575615644455,0.07533016800880432,0.014055470004677773
1779213680053200100,8.6132001953125,-0.002178712747991085,0.06877993792295456,0.01664869487285614
1779213680063192000,8.623192138671875,-0.007481598760932684,0.0624844990670681,0.019508130848407745
1779213680073184000,8.63318408203125,-0.007487126160413027,0.05212188884615898,0.0200413279235363
1779213680083176200,8.64317626953125,-0.0051651159301400185,0.03903618082404137,0.019503368064761162
1779213680093167000,8.6531669921875,-0.0021352842450141907,0.02315472438931465,0.013946961611509323
1779213680103159000,8.663158935546875,0.006722389720380306,0.003998872824013233,0.007338061463087797
1779213680113151000,8.67315087890625,0.014387520961463451,-0.009703303687274456,0.0020812915172427893
1779213680123143000,8.683142822265625,0.02155221998691559,-0.01595454104244709,0.00027167354710400105
1779213680133134000,8.693134033203124,0.028051510453224182,-0.01195263210684061,0.0007302878075279295
1779213680143126000,8.7031259765625,0.032939210534095764,-0.004680337384343147,0.005710132420063019
1779213680153118200,8.7131181640625,0.036979589611291885,0.0035553472116589546,0.007276721764355898
1779213680163105300,8.723105224609375,0.0408499650657177,0.008907235227525234,0.008669288828969002
1779213680173097200,8.73309716796875,0.042411915957927704,0.010761118493974209,0.010979174636304379
1779213680183089200,8.743089111328125,0.043990105390548706,0.009709969162940979,0.013737677596509457
1779213680193081000,8.7530810546875,0.047907423228025436,0.006281695328652859,0.01631290093064308
1779213680203072300,8.763072265625,0.05352696031332016,-0.00360955111682415,0.013219906017184258
1779213680213064200,8.773064208984374,0.05980067700147629,-0.015229272656142712,0.007224575616419315
1779213680223056400,8.783056396484374,0.06853477656841278,-0.034485526382923126,0.002067630412057042
1779213680233048300,8.79304833984375,0.07486104965209961,-0.05113141983747482,-7.373746484518051e-7
1779213680243039200,8.803039306640626,0.07650288939476013,-0.06910669058561325,-0.00017570705676916987
1779213680253031200,8.81303125,0.074594646692276,-0.08075989782810211,0.0016808329382911325
1779213680263023000,8.823023193359376,0.0726310983300209,-0.08799251168966293,0.0008057181257754564
1779213680273014300,8.83301416015625,0.06955826282501221,-0.08484232425689697,-0.000843119400087744
1779213680283006200,8.843006103515625,0.06464286893606186,-0.07013581693172455,0.0015571877593174577
1779213680292998400,8.852998291015625,0.06126778945326805,-0.051850512623786926,0.009624979458749294
1779213680302990000,8.862989990234375,0.05206310376524925,-0.03015879914164543,0.02075006812810898
1779213680312981200,8.872981201171875,0.04535972699522972,-0.015356136485934258,0.028829332441091537
1779213680322973200,8.88297314453125,0.03806426376104355,-0.008803162723779678,0.032004617154598236
1779213680332965000,8.892965087890625,0.031396158039569855,-0.01274444442242384,0.02643507532775402
1779213680342957300,8.902957275390625,0.028920747339725494,-0.022312916815280914,0.015068436972796917
1779213680352948200,8.9129482421875,0.024975286796689034,-0.031054215505719185,0.002923710271716118
1779213680362940400,8.9229404296875,0.0201317947357893,-0.02830636501312256,-0.0038678832352161407
1779213680372932000,8.93293212890625,0.016144445165991783,-0.013894623145461082,-0.007250354625284672
1779213680382923000,8.942923095703126,0.008792256936430931,0.014143669046461582,-0.003963481169193983
1779213680392915200,8.952915283203126,0.002764146775007248,0.04839654639363289,0.003454541089013219
1779213680402907100,8.9629072265625,-0.001777607947587967,0.08267834782600403,0.008899373933672905
1779213680412899300,8.9728994140625,-0.006226052530109882,0.10215923935174942,0.011220169253647327
1779213680422890200,8.98289013671875,-0.004119492135941982,0.10590390861034393,0.013446838594973087
1779213680432882400,8.99288232421875,-0.0009046373888850212,0.09440945833921432,0.014609822072088718
1779213680442874000,9.0028740234375,0.0036773309111595154,0.07654976844787598,0.01609400287270546
1779213680452865000,9.012864990234375,0.009305521845817566,0.05494783818721771,0.019547736272215843
1779213680462857200,9.022857177734375,0.01318228617310524,0.036543264985084534,0.02169850468635559
1779213680472849200,9.03284912109375,0.018223879858851433,0.01747145690023899,0.02330928109586239
1779213680482841300,9.04284130859375,0.02068357542157173,0.006124261766672134,0.020989933982491493
1779213680492832300,9.052832275390625,0.02188945561647415,-0.002275614533573389,0.018426641821861267
1779213680502824200,9.06282421875,0.022209033370018005,-0.00849516037851572,0.011672863736748695
1779213680512816000,9.072816162109374,0.0202961228787899,-0.015212075784802437,0.005854560993611813
1779213680522807000,9.08280712890625,0.01793469674885273,-0.024950990453362465,0.0006866968469694257
1779213680532799200,9.09279931640625,0.011001178994774818,-0.03650153800845146,0.001537661300972104
1779213680542791200,9.102791259765626,0.005328379571437836,-0.04941600561141968,0.004433582536876202
1779213680552783400,9.112783447265626,-0.0020793844014406204,-0.0653751939535141,0.007308007217943668
1779213680562774300,9.122774169921875,-0.008988689631223679,-0.08416832238435745,0.006468312349170446
1779213680572766200,9.13276611328125,-0.008578840643167496,-0.10973579436540604,-0.0014397203922271729
1779213680582758100,9.142758056640625,-0.009591640904545784,-0.13812480866909027,-0.012515541166067123
1779213680592749000,9.1527490234375,-0.004990229383111,-0.15861624479293823,-0.0241957176476717
1779213680602741200,9.1627412109375,-0.0002711080014705658,-0.1702963411808014,-0.029016038402915
1779213680612733200,9.172733154296875,0.0017728209495544434,-0.168707937002182,-0.027063803747296333
1779213680622725400,9.182725341796875,0.003816797398030758,-0.15585285425186157,-0.02679269388318062
1779213680632716300,9.19271630859375,0.006435424089431763,-0.1373090147972107,-0.021581366658210754
1779213680642708200,9.202708251953124,0.010084753856062889,-0.11442553997039795,-0.01823430508375168
1779213680652700200,9.2127001953125,0.011517130769789219,-0.09106265753507614,-0.011945806443691254
1779213680662691000,9.222691162109374,0.012835129164159298,-0.07073128968477249,-0.001243893289938569
1779213680672683300,9.232683349609376,0.013623371720314026,-0.057564906775951385,0.009439699351787567
1779213680682675200,9.24267529296875,0.01413043774664402,-0.05439601093530655,0.014976677484810352
1779213680692667100,9.252667236328126,0.01183560024946928,-0.05666123703122139,0.020469754934310913
1779213680702658300,9.262658203125,0.011829742230474949,-0.06306879967451096,0.021221565082669258
1779213680712650200,9.272650146484375,0.009838411584496498,-0.06454320251941681,0.02093173936009407
1779213680722642200,9.28264208984375,0.008674344047904015,-0.05943019688129425,0.01665124110877514
1779213680732634400,9.29263427734375,0.008997416123747826,-0.046386927366256714,0.017194386571645737
1779213680742625300,9.302625244140625,0.006116675212979317,-0.03130890801548958,0.01816537417471409
1779213680752617200,9.3126171875,0.0040498413145542145,-0.011562793515622616,0.022347241640090942
1779213680762609200,9.322609130859375,-0.0016152355819940567,0.012250926345586777,0.02619231306016445
1779213680772600000,9.33260009765625,-0.002335021272301674,0.03020816668868065,0.026385115459561348
1779213680782592300,9.34259228515625,-0.002630898728966713,0.044568195939064026,0.025780044496059418
1779213680792584200,9.352584228515624,-0.0017876718193292618,0.05341416597366333,0.024353420361876488
1779213680802576400,9.362576416015624,-0.0000946996733546257,0.05231747776269913,0.02286657877266407
1779213680812567300,9.3725673828125,0.0012345369905233383,0.04779532551765442,0.02142069675028324
1779213680822559200,9.382559326171876,0.0018542539328336716,0.0397280789911747,0.020769286900758743
1779213680832551200,9.39255126953125,0.0028729047626256943,0.03255319967865944,0.017825651913881302
1779213680842542000,9.4025419921875,0.0010635536164045334,0.020673369988799095,0.01848265342414379
1779213680852534300,9.4125341796875,0.0008049039170145988,0.009400845505297184,0.016844062134623528
1779213680862526200,9.422526123046875,0.00014603789895772934,-0.00466011231765151,0.01782037690281868
1779213680872517000,9.43251708984375,-0.0018319636583328247,-0.016173236072063446,0.01623043790459633
1779213680882509300,9.44250927734375,-0.0024130651727318764,-0.025875398889183998,0.013744909316301346
1779213680892501000,9.4525009765625,-0.0022343341261148453,-0.030476227402687073,0.012508801184594631
1779213680902493200,9.4624931640625,-0.004487101919949055,-0.03076411411166191,0.010613962076604366
1779213680912484000,9.472484130859375,-0.0044997986406087875,-0.03160693496465683,0.01010191161185503
1779213680922476300,9.482476318359375,-0.002245166338980198,-0.03364585340023041,0.010972232557833195
1779213680932468200,9.49246826171875,-0.0018273526802659035,-0.03655114397406578,0.0092018973082304
1779213680942459100,9.502459228515624,-0.0001495610922574997,-0.04492491856217384,0.005639920011162758
1779213680952451300,9.512451416015624,0.0016213040798902512,-0.05236401781439781,0.0036590418312698603
1779213680962443000,9.522443115234376,-0.000800042413175106,-0.04748164489865303,0.007263097912073135
1779213680972435200,9.532435302734376,-0.0010259095579385757,-0.03715156018733978,0.010998050682246685
1779213680982426000,9.542426025390625,-0.0008240416646003723,-0.022491656243801117,0.0149091687053442
1779213680992418300,9.552418212890625,0.0003826441243290901,-0.00923116598278284,0.017679620534181595
1779213681002410200,9.56241015625,0.0015408527106046677,0.0007146751740947366,0.017808783799409866
1779213681012401200,9.572401123046875,0.0051322076469659805,0.006748014595359564,0.02117714285850525
1779213681022393300,9.582393310546875,0.005363104864954948,0.007570664864033461,0.024893052875995636
1779213681032385000,9.592385009765625,0.004339579492807388,0.006062687840312719,0.029941430315375328
1779213681042377200,9.602377197265625,0.0003552241250872612,-0.0017419718205928802,0.02376076579093933
1779213681052368100,9.6123681640625,-0.001005205325782299,-0.012698551639914513,0.011016931384801865
1779213681062360300,9.6223603515625,-0.0016462281346321106,-0.020704546943306923,-0.0006596982129849494
1779213681072352300,9.632352294921875,-0.0008916361257433891,-0.024106964468955994,-0.0073189567774534225
1779213681082343200,9.64234326171875,-0.003296203911304474,-0.025122694671154022,-0.0033306069672107697
1779213681092335000,9.652335205078124,-0.004739115480333567,-0.026303330436348915,0.008209627121686935
1779213681102327000,9.6623271484375,-0.0044485642574727535,-0.023615935817360878,0.017400462180376053
1779213681112319200,9.6723193359375,-0.008714308962225914,-0.022157937288284302,0.019005442038178444
1779213681122310100,9.68231005859375,-0.012192930094897747,-0.021032217890024185,0.01407406572252512
1779213681132302300,9.69230224609375,-0.014823390170931816,-0.016242440789937973,0.006378103047609329
1779213681142294300,9.702294189453125,-0.014832977205514908,-0.011677781119942665,0.004068343434482813
1779213681152285200,9.71228515625,-0.012109550647437572,-0.008719777688384056,0.005206357687711716
1779213681162277000,9.722277099609375,-0.009291127324104309,-0.007112027145922184,0.011473573744297028
1779213681172269800,9.732269775390625,-0.0050946795381605625,-0.0007034580921754241,0.011486173607409
1779213681182260700,9.7422607421875,0.0008231308311223984,0.006577091291546822,0.008142308332026005
1779213681192253000,9.7522529296875,0.005359819158911705,0.0133418720215559,0.0034939043689519167
1779213681202244900,9.762244873046875,0.011354859918355942,0.0077569568529725075,0.004110159818083048
1779213681212236800,9.77223681640625,0.013158118352293968,-0.004782651551067829,0.012724176049232483
1779213681222227700,9.782227783203124,0.014322718605399132,-0.023806145414710045,0.023935817182064056
1779213681232219600,9.7922197265625,0.011542637832462788,-0.03494620695710182,0.028685523197054863
1779213681242211800,9.8022119140625,0.0050051091238856316,-0.037794455885887146,0.02440316043794155
1779213681252202800,9.81220263671875,0.0007775211706757545,-0.02999758906662464,0.014327016659080982
1779213681262195000,9.82219482421875,-0.001302141696214676,-0.013910763897001743,0.00005486946611199528
1779213681272187000,9.832186767578126,-0.0024424055591225624,0.0009879439603537321,-0.008892660029232502
1779213681282178800,9.8421787109375,-0.004978533368557692,0.01669340394437313,-0.011854894459247589
1779213681292169700,9.852169677734375,-0.006198208779096603,0.025813911110162735,-0.01023932732641697
1779213681302161700,9.86216162109375,-0.011029715649783611,0.03193705156445503,-0.006413697265088558
1779213681312153900,9.87215380859375,-0.013735398650169373,0.04082222282886505,-0.006265283562242985
1779213681322144800,9.882144775390625,-0.016571132466197014,0.052962776273489,-0.005964080337435007
1779213681332137000,9.892136962890625,-0.018074562773108482,0.06356439739465714,-0.005007691215723753
1779213681342128600,9.902128662109375,-0.01817736029624939,0.06320087611675262,-0.0023610417265444994
1779213681352119800,9.912119873046874,-0.018266677856445312,0.05756937339901924,0.00034426519414409995
1779213681362111700,9.92211181640625,-0.016310319304466248,0.04744403809309006,0.001227635657414794
1779213681372103700,9.932103759765624,-0.01497321855276823,0.0370253287255764,-0.002136420924216509
1779213681382096000,9.942095947265624,-0.01271885260939598,0.03302446007728577,-0.004274140577763319
1779213681392086800,9.952086669921876,-0.0057837264612317085,0.030927902087569237,-0.006532583385705948
1779213681402079000,9.962078857421876,0.00004833005368709564,0.025637533515691757,-0.0037085674703121185
1779213681412070700,9.972070556640626,0.0024072667583823204,0.019664468243718147,-0.0019131803419440985
1779213681422061600,9.9820615234375,0.0057729696854949,0.018666846677660942,0.0020248359069228172
1779213681432053800,9.9920537109375,0.006922565400600433,0.018863258883357048,0.0019458901369944215
1779213681442045700,10.002045654296875,0.004237033426761627,0.020454762503504753,0.0032580296974629164
1779213681452038000,10.012037841796875,0.002636595629155636,0.01679121144115925,0.003480726620182395
1779213681462028800,10.02202880859375,0.0014166021719574928,0.005534029565751553,0.003593644592911005
1779213681472021000,10.03202099609375,-0.0007773451507091522,-0.00915177259594202,0.0023229073267430067
1779213681482012700,10.0420126953125,-0.0023731114342808723,-0.023276647552847862,0.00026508275186643004
1779213681492003800,10.05200390625,-0.0019280994310975075,-0.03240637108683586,-0.006702997721731663
1779213681501995800,10.061995849609374,-0.0026988182216882706,-0.03768262639641762,-0.015424051322042942
1779213681511987700,10.07198779296875,-0.001902618445456028,-0.03303752839565277,-0.01905626617372036
1779213681521979000,10.081978759765626,-0.0015638647601008415,-0.021136926487088203,-0.02302863635122776
1779213681531970800,10.091970703125,-0.004826586693525314,-0.008361979387700558,-0.024040205404162407
1779213681541962800,10.101962646484376,-0.002809242345392704,0.005039313808083534,-0.020879831165075302
1779213681551954700,10.11195458984375,-0.00023787282407283783,0.01441903505474329,-0.01647062785923481
1779213681561945900,10.12194580078125,-0.00029086973518133163,0.026806464418768883,-0.012901724316179752
1779213681571937800,10.131937744140625,0.00018175411969423294,0.03185760974884033,-0.010357148945331573
1779213681581929700,10.1419296875,0.003418560139834881,0.03317880630493164,-0.007475342135876417
1779213681591921000,10.1519208984375,0.0026512956246733665,0.02677931636571884,-0.006072778254747391
1779213681601912800,10.161912841796875,0.005278238095343113,0.012816095724701881,-0.0036282623186707497
1779213681611904800,10.17190478515625,0.005620287731289864,-0.0041135759092867374,-0.0034421351738274097
1779213681621895700,10.181895751953125,0.006460782140493393,-0.01836281828582287,-0.005877329967916012
1779213681631888000,10.191887939453125,0.0037162937223911285,-0.020561302080750465,-0.007885858416557312
1779213681641879800,10.2018798828125,0.0018089376389980316,-0.017384683713316917,-0.011098694987595081
1779213681651871700,10.211871826171874,-0.0007278099656105042,-0.008924894034862518,-0.011395139619708061
1779213681661863000,10.22186279296875,-0.0029355697333812714,0.002420172095298767,-0.008065123111009598
1779213681671854800,10.231854736328126,-0.006332435179501772,0.016445793211460114,-0.0036286849062889814
1779213681681846800,10.2418466796875,-0.007070663385093212,0.02616926096379757,-0.00021637663303408772
1779213681691837700,10.251837646484375,-0.0114133907482028,0.03430061414837837,-0.0024617977906018496
1779213681701830000,10.261829833984375,-0.011792091652750969,0.033184219151735306,-0.008093051612377167
1779213681711821800,10.27182177734375,-0.0100380415096879,0.025939276441931725,-0.015260793268680573
1779213681721812700,10.281812744140625,-0.007020680233836174,0.01469328161329031,-0.021420685574412346
1779213681731805000,10.291804931640625,-0.002956518903374672,0.0020020839292556047,-0.026049310341477394
1779213681741796600,10.301796630859375,-0.0033266982063651085,-0.005392981693148613,-0.023843945935368538
1779213681751788800,10.311788818359375,-0.001400437206029892,-0.005708320066332817,-0.01893904246389866
1779213681761779700,10.32177978515625,-0.000323721207678318,0.0009048415231518447,-0.013540014624595642
1779213681771772000,10.33177197265625,0.001667434349656105,0.007130117621272802,-0.0067304279655218124
1779213681781763800,10.341763916015625,0.0032168617472052574,0.010077971033751965,-0.0026182413566857576
1779213681791754800,10.351754638671874,0.0037395600229501724,0.00883469544351101,-0.00122621632181108
1779213681801747000,10.361746826171874,0.004557949490845203,0.0023751980625092983,-0.002281626919284463
1779213681811738600,10.371738525390626,0.004325716756284237,-0.009404637850821018,-0.006988684646785259
1779213681821729800,10.381729736328126,0.005369941703975201,-0.015716062858700752,-0.01066065113991499
1779213681831721700,10.3917216796875,0.0031707892194390297,-0.02039371430873871,-0.015160172246396542
1779213681841714000,10.4017138671875,0.001407509669661522,-0.018079428002238274,-0.018322410061955452
1779213681851704800,10.411704833984375,-0.004420548677444458,-0.008307838812470436,-0.021713290363550186
1779213681861696800,10.42169677734375,-0.005900200922042131,0.0022920742630958557,-0.021002760156989098
1779213681871689000,10.43168896484375,-0.008780231699347496,0.012024754658341408,-0.01850898563861847
1779213681881680600,10.4416806640625,-0.011216491460800171,0.0184810571372509,-0.014350992627441883
1779213681891671800,10.451671875,-0.011154440231621265,0.02087949961423874,-0.013970160856842995
1779213681901663700,10.461663818359375,-0.012077225372195244,0.020781494677066803,-0.018068499863147736
1779213681911656000,10.471656005859375,-0.012683792039752007,0.0230523943901062,-0.023580310866236687
1779213681921646800,10.481646728515624,-0.01231760811060667,0.02984372153878212,-0.02643495239317417
1779213681931638800,10.491638671875,-0.00895413476973772,0.03523387759923935,-0.026126733049750328
1779213681941630700,10.501630615234374,-0.007698720786720514,0.03690953552722931,-0.022556500509381294
1779213681951622000,10.511621826171876,-0.004913324024528265,0.03453909605741501,-0.01769363135099411
1779213681961613800,10.52161376953125,-0.003578547388315201,0.026339756324887276,-0.019154375419020653
1779213681971605800,10.531605712890626,-0.0018207458779215813,0.017341507598757744,-0.02122233808040619
1779213681981596700,10.5415966796875,-0.00008116848766803741,0.010111558251082897,-0.02127879671752453
1779213681991588900,10.5515888671875,-0.0012519927695393562,0.004727441817522049,-0.017548542469739914
1779213682001580800,10.561580810546875,-0.003393706865608692,0.0009175237501040101,-0.012562306597828865
1779213682011572700,10.57157275390625,-0.004408474545925856,-0.006833218969404697,-0.008100936189293861
1779213682021563600,10.581563720703125,-0.0063517834059894085,-0.01602671667933464,-0.007272426504641771
1779213682031555800,10.591555908203125,-0.00546509912237525,-0.0260297991335392,-0.01019616611301899
1779213682041547800,10.6015478515625,-0.008411620743572712,-0.02423110045492649,-0.015391993336379528
1779213682051538700,10.61153857421875,-0.006936703808605671,-0.017249708995223045,-0.01815045066177845
1779213682061531000,10.62153076171875,-0.007820073515176773,-0.010849867016077042,-0.019328366965055466
1779213682071522800,10.631522705078124,-0.007801077328622341,-0.006209444720298052,-0.019952762871980667
1779213682081514000,10.641513916015626,-0.005741122178733349,-0.0007981677772477269,-0.019394297152757645
1779213682091505700,10.651505615234376,-0.007198939099907875,0.0011673681437969208,-0.021616356447339058
1779213682101497900,10.661497802734376,-0.005855108145624399,0.007709156721830368,-0.025031860917806625
1779213682111488800,10.67148876953125,-0.0042585404589772224,0.012687813490629196,-0.025009572505950928
1779213682121480700,10.681480712890625,-0.0063829440623521805,0.017727579921483994,-0.024980012327432632
1779213682131473000,10.691472900390625,-0.006599430460482836,0.01736847311258316,-0.020523713901638985
1779213682141464800,10.70146484375,-0.007821821607649326,0.015902936458587646,-0.017267201095819473
1779213682151456000,10.7114560546875,-0.007959891110658646,0.009302867576479912,-0.017173295840620995
1779213682161447700,10.72144775390625,-0.006596885155886412,0.001705401809886098,-0.01949930004775524
1779213682171443000,10.73144287109375,-0.0026739127933979034,-0.004040807485580444,-0.02532280795276165
1779213682181433900,10.741433837890625,0.0006899256259202957,-0.0074776168912649155,-0.026671433821320534
1779213682191426000,10.751426025390625,0.003864297643303871,-0.00696536572650075,-0.021638017147779465
1779213682201418000,10.76141796875,0.00250129122287035,-0.003755191108211875,-0.015923673287034035
1779213682211409000,10.771408935546875,-0.001651037484407425,0.005695621948689222,-0.009568603709340096
1779213682221401000,10.781401123046875,-0.00497439643368125,0.014041435904800892,-0.00768388481810689
1779213682231392800,10.791392822265625,-0.005767349619418383,0.019341014325618744,-0.005702692084014416
1779213682241384000,10.801384033203124,-0.004580644890666008,0.018549524247646332,-0.007326954044401646
1779213682251375900,10.8113759765625,-0.002476966008543968,0.013949896208941936,-0.007233166601508856
1779213682261368000,10.8213681640625,-0.004329727031290531,0.010108286514878273,-0.006182549521327019
1779213682271360000,10.831360107421874,-0.0033777328208088875,0.003026277758181095,-0.009024257771670818
1779213682281351000,10.841350830078126,-0.0032986365258693695,-0.00345052988268435,-0.012445353902876377
1779213682291342800,10.8513427734375,-0.004061787389218807,-0.0044426810927689075,-0.018826862797141075
1779213682301334800,10.861334716796875,-0.0034966645762324333,-0.005083970259875059,-0.025977184996008873
1779213682311326000,10.871325927734375,-0.004818146117031574,-0.006725883577018976,-0.027365906164050102
1779213682321318000,10.88131787109375,-0.00551482941955328,-0.006522152107208967,-0.025559483096003532
1779213682331310000,10.89131005859375,-0.006144224666059017,-0.005943781230598688,-0.02103671245276928
1779213682341301000,10.901301025390625,-0.006330112926661968,-0.004009260796010494,-0.01773705519735813
1779213682351293000,10.91129296875,-0.006963512860238552,-0.0005981643917039037,-0.015489303506910801
1779213682361284900,10.921284912109375,-0.008370727300643921,0.009888831526041031,-0.014764923602342606
1779213682371275800,10.93127587890625,-0.009280543774366379,0.019205378368496895,-0.013287330977618694
1779213682381268000,10.94126806640625,-0.014481697231531143,0.02471945434808731,-0.010613517835736275
1779213682391260000,10.951260009765624,-0.014021940529346466,0.02124190330505371,-0.008852865546941757
1779213682401250800,10.961250732421876,-0.012500477023422718,0.004845352377742529,-0.007693324703723192
1779213682411243000,10.971242919921876,-0.009676787070930004,-0.013429049402475357,-0.00984086375683546
1779213682421235000,10.98123486328125,-0.0052346340380609035,-0.03131590411067009,-0.012453158386051655
1779213682431227000,10.991226806640626,0.002607179805636406,-0.04159832000732422,-0.0190962553024292
1779213682441217800,11.0012177734375,0.006959850899875164,-0.04425855353474617,-0.021853690966963768
1779213682451210000,11.0112099609375,0.009953509084880352,-0.04155357927083969,-0.020452601835131645
1779213682461202000,11.021201904296875,0.008595298044383526,-0.033749718219041824,-0.014413883909583092
1779213682471192800,11.03119287109375,0.008225763216614723,-0.026017948985099792,-0.006229006685316563
1779213682481185000,11.04118505859375,0.007265161722898483,-0.01823699288070202,0.001365529838949442
1779213682491177000,11.051177001953125,0.00603938102722168,-0.009899442084133625,0.007201241794973612
1779213682501168000,11.061168212890625,0.001610543578863144,-0.003038073657080531,0.005491758696734905
1779213682511159800,11.071159912109374,0.0023767007514834404,0.005563152953982353,0.0028796482365578413
1779213682521152000,11.081152099609374,-0.0016888808459043503,0.00993925891816616,-0.0004961746744811535
1779213682531143000,11.091142822265626,-0.004383027087897062,0.010324551723897457,-0.002640095306560397
1779213682541134800,11.101134765625,-0.005850428715348244,0.006734876893460751,-0.0039823283441364765
1779213682551127000,11.111126953125,-0.006858814042061567,0.002964968793094158,-0.00496316934004426
1779213682561118000,11.121117919921875,-0.008042056113481522,0.0015220680506899953,-0.007626863196492195
1779213682571110000,11.13110986328125,-0.004506133496761322,0.005811627022922039,-0.008864320814609528
1779213682581101800,11.141101806640625,-0.0006195157766342163,0.005839589983224869,-0.007297051604837179
1779213682591092700,11.1510927734375,0.002611828036606312,0.006968165282160044,-0.005628769285976887
1779213682601085000,11.1610849609375,0.006787131540477276,0.006423282437026501,-0.005377899389714003
1779213682611076900,11.171076904296875,0.008069801144301891,0.002755644265562296,-0.003985789138823748
1779213682621068000,11.181068115234375,0.007286299951374531,-0.0007405536016449332,-0.0017407444538548589
1779213682631060000,11.19106005859375,0.005349094979465008,-0.004460797645151615,-0.0014378257328644395
1779213682641052000,11.201052001953125,0.0010784491896629333,-0.0043673207983374596,-0.000675362825859338
1779213682651043800,11.2110439453125,-0.0033855093643069267,-0.0064544277265667915,0.0017303047934547067
1779213682661034800,11.22103466796875,-0.005576225463300943,-0.00806590635329485,0.002914612414315343
1779213682671027000,11.23102685546875,-0.008124686777591705,-0.013628053478896618,0.0036096591502428055
1779213682681019000,11.241018798828126,-0.00663012033328414,-0.01819217950105667,0.0029324174392968416
1779213682691010000,11.251010009765626,-0.007233354263007641,-0.01980239897966385,0.0002645790227688849
1779213682701002000,11.261001953125,-0.0064969900995492935,-0.017675597220659256,-0.005344837438315153
1779213682710994000,11.270993896484375,-0.0040698884986341,-0.016542894765734673,-0.00840400718152523
1779213682720984800,11.28098486328125,-0.00409758510068059,-0.013053089380264282,-0.010924156755208969
1779213682730976800,11.290976806640625,-0.001810627058148384,-0.012868916615843773,-0.009394289925694466
1779213682740969000,11.300968994140625,0.00017768889665603638,-0.010281922295689583,-0.006166272796690464
1779213682750959900,11.3109599609375,-0.00020325090736150742,-0.010292308405041695,-0.0018916713306680322
1779213682760952000,11.3209521484375,0.0011869193986058235,-0.010201760567724705,0.001431953744031489
1779213682770944000,11.330944091796875,-0.0007846448570489883,-0.007517428603023291,0.007004694081842899
1779213682780935000,11.340934814453124,-0.0004581417888402939,-0.0059126075357198715,0.013109192252159119
1779213682790926800,11.3509267578125,-0.0028601596131920815,-0.006452899891883135,0.01799742504954338
1779213682800918800,11.360918701171874,-0.002227925695478916,-0.011023416183888912,0.014127852395176888
1779213682810910000,11.370909912109376,-0.0006360793486237526,-0.015954121947288513,0.009585069492459297
1779213682820902000,11.38090185546875,-0.0012347577139735222,-0.016496075317263603,0.0028336900286376476
1779213682830894000,11.39089404296875,0.0040513211861252785,-0.01385408639907837,-0.003726399037986994
1779213682840885000,11.400885009765625,0.006394636817276478,-0.003617694368585944,-0.001635817694477737
1779213682850877000,11.410876953125,0.007529272697865963,0.01056915894150734,0.003225860418751836
1779213682860868900,11.420868896484375,0.00630768109112978,0.026672229170799255,0.00845311302691698
1779213682870860800,11.43086083984375,0.004357385449111462,0.03883941471576691,0.014179782941937447
1779213682880852000,11.44085205078125,0.003688400611281395,0.044181451201438904,0.01625438593327999
1779213682890844000,11.450843994140625,-0.00008735712617635727,0.04910716786980629,0.013749759644269943
1779213682900836000,11.460836181640625,-0.0005560731515288353,0.04593347758054733,0.009112663567066193
1779213682910827000,11.470826904296874,-0.003448205068707466,0.041704047471284866,0.0054565612226724625
1779213682920818700,11.480818603515624,-0.002941671758890152,0.03567145764827728,0.002565433271229267
1779213682930811000,11.490810791015624,-0.002708735875785351,0.029348835349082947,0.0019351041410118341
1779213682940801800,11.5008017578125,-0.002932441420853138,0.022064024582505226,0.0035351314581930637
1779213682950794000,11.5107939453125,-0.0025649117305874825,0.016042493283748627,0.006824246607720852
1779213682960786000,11.520785888671876,-0.003308200277388096,0.0038026045076549053,0.0069874986074864864
1779213682970777000,11.530777099609375,-0.002570049837231636,-0.009515468031167984,0.006054821889847517
1779213682980769000,11.54076904296875,-0.00512109138071537,-0.02339479699730873,0.005168521776795387
1779213682990761000,11.550760986328125,-0.0048087844625115395,-0.0346827395260334,0.00380220590159297
1779213683000751900,11.560751953125,-0.0031653475016355515,-0.04443709924817085,0.002825624542310834
1779213683010743800,11.570743896484375,-0.004759545437991619,-0.05604008585214615,-0.0004761628806591034
1779213683020736000,11.580736083984375,-0.006928157526999712,-0.06613080203533173,-0.0038471922744065523
1779213683030727000,11.590726806640625,-0.004913330543786287,-0.07551439106464386,-0.009159931913018227
1779213683040719000,11.600718994140625,-0.007342400029301643,-0.08092859387397766,-0.01360474806278944
1779213683050711000,11.6107109375,-0.008141320198774338,-0.0861746221780777,-0.016251472756266594
1779213683060702000,11.620701904296874,-0.01094989012926817,-0.08886947482824326,-0.01808745600283146
1779213683070694000,11.63069384765625,-0.012301694601774216,-0.08748682588338852,-0.016547922044992447
1779213683080685800,11.640685791015626,-0.01714145764708519,-0.08315546065568924,-0.011230386793613434
1779213683090677000,11.650677001953126,-0.01804223656654358,-0.07982618361711502,-0.010131905786693096
1779213683100669000,11.6606689453125,-0.02015545591711998,-0.07417042553424835,-0.007494311314076185
1779213683110661000,11.6706611328125,-0.02032766304910183,-0.0684574767947197,-0.005941083189100027
1779213683120652000,11.680652099609375,-0.019226180389523506,-0.05835690721869469,-0.0042678192257881165
1779213683130644000,11.69064404296875,-0.015692759305238724,-0.045540910214185715,-0.0007648483151569963
1779213683140636000,11.700635986328125,-0.016645638272166252,-0.026233525946736336,0.0008439673110842705
1779213683150626800,11.710626708984375,-0.012234347872436047,-0.007968434132635593,0.001143267028965056
1779213683160619000,11.720618896484375,-0.008528292179107666,0.010115761309862137,0.002920394530519843
1779213683170607600,11.730607666015626,-0.006324339658021927,0.023139817640185356,0.003325879806652665
1779213683180598500,11.7405986328125,-0.0050947582349181175,0.03597066178917885,0.0010273054940626025
1779213683190590700,11.7505908203125,-0.0012751184403896332,0.042116038501262665,-0.00015856174286454916
1779213683200582400,11.76058251953125,0.00067085400223732,0.04421194642782211,-0.0010336764389649034
1779213683210573300,11.7705732421875,-0.00030278973281383514,0.035501010715961456,-0.00019831756071653217
1779213683220565500,11.7805654296875,-0.0031861942261457443,0.022255245596170425,-0.00028087556711398065
1779213683230557400,11.790557373046875,-0.004966326989233494,0.00035434094024822116,-0.0015079074073582888
1779213683240548600,11.800548583984375,-0.01089985016733408,-0.033785782754421234,-0.003908214624971151
1779213683250540500,11.81054052734375,-0.014681290835142136,-0.07391902059316635,-0.013354675844311714
1779213683260532700,11.82053271484375,-0.022259848192334175,-0.11067570745944977,-0.024791087955236435
1779213683270524400,11.8305244140625,-0.027958784252405167,-0.14049939811229706,-0.03887699916958809
1779213683280515300,11.840515380859374,-0.03271865099668503,-0.16155700385570526,-0.049681179225444794
1779213683290507500,11.850507568359374,-0.03677886724472046,-0.17365173995494843,-0.05670534446835518
1779213683300499500,11.86049951171875,-0.038195669651031494,-0.17796233296394348,-0.05892562121152878
1779213683310490600,11.87049072265625,-0.03959008306264877,-0.17995204031467438,-0.0604252852499485
1779213683320482600,11.880482666015626,-0.03836822509765625,-0.1741383671760559,-0.058104339987039566
1779213683330474500,11.890474609375,-0.035808540880680084,-0.16420011222362518,-0.056154873222112656
1779213683340465700,11.900465576171875,-0.03636780381202698,-0.16001948714256287,-0.0552683062851429
1779213683350457300,11.910457275390625,-0.03569120541214943,-0.15604764223098755,-0.05210983753204346
1779213683360449500,11.920449462890625,-0.03424084559082985,-0.15187233686447144,-0.050165463238954544
1779213683370440400,11.9304404296875,-0.033010877668857574,-0.14680534601211548,-0.049967050552368164
1779213683380432600,11.9404326171875,-0.03154107928276062,-0.14339490234851837,-0.049960922449827194
1779213683390424600,11.950424560546875,-0.028123406693339348,-0.13614417612552643,-0.05218687281012535
1779213683400415700,11.960415771484374,-0.02476542629301548,-0.12366674095392227,-0.05938220024108887
1779213683410407400,11.970407470703124,-0.018196584656834602,-0.10502475500106812,-0.06403211504220963
1779213683420399600,11.980399658203124,-0.013720610179007053,-0.08920451253652573,-0.0656057819724083
1779213683430390500,11.990390625,-0.012123811058700085,-0.07402554154396057,-0.06178167462348938
1779213683440382500,12.000382568359376,-0.012700119987130165,-0.06200909987092018,-0.05317007750272751
1779213683450374700,12.010374755859376,-0.016095956787467003,-0.05071930214762688,-0.04327528551220894
1779213683460365600,12.020365478515625,-0.022250521928071976,-0.039217375218868256,-0.03541523218154907
1779213683470357800,12.030357666015625,-0.03145056962966919,-0.03679642453789711,-0.034198395907878876
1779213683480349400,12.040349365234375,-0.04132583737373352,-0.03474445641040802,-0.037385936826467514
1779213683490340400,12.05034033203125,-0.050608791410923004,-0.035680752247571945,-0.04205689579248428
1779213683500332500,12.06033251953125,-0.05998631566762924,-0.031830355525016785,-0.04200150445103645
1779213683510324500,12.070324462890625,-0.06854964047670364,-0.022862965241074562,-0.04139045625925064
1779213683520315600,12.080315673828125,-0.07634551078081131,-0.006251231301575899,-0.04155903309583664
