time,seconds_elapsed,z,y,x
1779958304559303700,0.1043037109375,0.03606128692626953,-0.07368302345275879,0.9103550910949707
1779958304575633200,0.120633056640625,-0.8498430252075195,-0.08153033256530762,0.45040270686149597
1779958304591970600,0.136970458984375,-0.4542093276977539,-1.0179716348648071,-0.36955589056015015
1779958304608302600,0.153302490234375,0.6761713027954102,-0.7443089485168457,-0.4886065721511841
1779958304624635100,0.16963525390625,1.0603609085083008,-0.8379850387573242,0.45218634605407715
1779958304640992500,0.185992431640625,1.4431591033935547,-0.7097294330596924,0.36595582962036133
1779958304657313800,0.202313720703125,-0.8404130935668945,-0.1769697666168213,0.3366272747516632
1779958304673646600,0.218646484375,-2.940772533416748,-0.4839167594909668,0.8115172982215881
1779958304689966600,0.234966552734375,-2.9289612770080566,-1.20658278465271,1.5864847898483276
1779958304706313200,0.251313232421875,-1.7913823127746582,-0.39235687255859375,1.6400752067565918
1779958304722644000,0.26764404296875,0.6166868209838867,0.6571567058563232,0.20147576928138733
1779958304738992600,0.28399267578125,-0.5866966247558594,2.8113174438476562,-1.651853084564209
1779958304755307500,0.3003076171875,-2.847710609436035,0.7555270195007324,0.7177342772483826
1779958304771640300,0.316640380859375,-2.94818115234375,0.11204743385314941,0.9209436774253845
1779958304787975000,0.332974853515625,-2.0514392852783203,-1.7025196552276611,3.1442558765411377
1779958304804308200,0.34930810546875,-4.188275337219238,-1.4037007093429565,1.2717477083206177
1779958304820638700,0.365638671875,-5.672839164733887,-0.01076650619506836,-0.008379697799682617
1779958304836975000,0.38197509765625,-7.612983703613281,-0.5139727592468262,0.3270230293273926
1779958304853311200,0.398311279296875,-9.491717338562012,-0.414878249168396,-0.08475923538208008
1779958304869640200,0.41464013671875,-9.06142520904541,-1.3401967287063599,-0.029217958450317383
1779958304885982500,0.430982421875,-7.753398418426514,-3.734182357788086,-0.4084315299987793
1779958304902307800,0.447307861328125,-8.424763679504395,-4.605953216552734,-1.5659995079040527
1779958304918652000,0.46365185546875,-10.21966552734375,-5.089550018310547,-2.3591723442077637
1779958304934982400,0.479982421875,-8.644804000854492,-4.998662948608398,-1.379763126373291
1779958304951315700,0.496315673828125,-5.101047515869141,-5.273651123046875,-2.2067675590515137
1779958304967648000,0.51264794921875,-4.575811386108398,-7.5560994148254395,-2.848177433013916
1779958304983968500,0.528968505859375,-3.4171950817108154,-10.67640495300293,-0.0021696090698242188
1779958305000311800,0.545311767578125,-0.6598730683326721,-9.367288589477539,1.968597412109375
1779958305016635000,0.561634765625,0.1564435064792633,-9.993338584899902,4.90036678314209
1779958305032969500,0.577969482421875,1.2143540382385254,-5.131086349487305,7.094768524169922
1779958305049299000,0.594298828125,2.5659303665161133,-4.353092670440674,6.8348894119262695
1779958305065632500,0.610632568359375,2.276731252670288,-4.496167182922363,8.69896125793457
1779958305081968000,0.626968017578125,3.7893426418304443,-3.7115893363952637,11.24228286743164
1779958305098297300,0.64329736328125,4.849013328552246,-2.6543073654174805,14.070807456970215
1779958305114631400,0.65963134765625,5.222894668579102,-1.2574825286865234,14.4993896484375
1779958305130965500,0.675965576171875,3.249338150024414,-0.02243661880493164,14.713957786560059
1779958305147294000,0.6922939453125,1.3754031658172607,1.1500473022460938,15.326910972595215
1779958305163649500,0.7086494140625,0.990068793296814,7.185234069824219,19.40276527404785
1779958305179949600,0.724949462890625,-1.3884189128875732,17.31251335144043,23.818117141723633
1779958305196271600,0.741271728515625,-2.2367000579833984,8.855051040649414,14.18856430053711
1779958305212626700,0.757626708984375,-0.2464137077331543,1.6316890716552734,6.504653453826904
1779958305228976600,0.7739765625,-2.4377822875976562,-0.18881988525390625,7.021998882293701
1779958305245304800,0.790304931640625,-3.7242448329925537,0.061312198638916016,7.12030553817749
1779958305261649200,0.806649169921875,2.630727529525757,0.6965951919555664,3.377514362335205
1779958305277958100,0.822958251953125,1.682888150215149,-0.9476380348205566,3.6606645584106445
1779958305294291700,0.839291748046875,0.15495240688323975,-1.3379449844360352,2.4671168327331543
1779958305310625500,0.85562548828125,-2.252199411392212,2.482844829559326,-3.0031890869140625
1779958305326966800,0.871966796875,-0.8677349090576172,-1.1574645042419434,0.022075653076171875
1779958305343290400,0.888290283203125,-1.1191881895065308,-0.5748233795166016,-0.3472781181335449
1779958305359625000,0.904625,2.7327377796173096,0.2930593490600586,0.3770718574523926
1779958305375985000,0.92098486328125,9.140996932983398,-0.6907601356506348,1.7932863235473633
1779958305392307200,0.93730712890625,-4.871618747711182,-1.5341005325317383,0.07758331298828125
1779958305408639500,0.953639404296875,1.7220816612243652,-0.3567495346069336,-0.6293735504150391
1779958305424966000,0.9699658203125,-5.406073570251465,-1.4602084159851074,-4.804786682128906
1779958305441292000,0.9862919921875,-5.535419464111328,5.830062389373779,-2.2294907569885254
1779958305457646600,1.002646484375,-10.089133262634277,8.971528053283691,-4.45409631729126
1779958305473961000,1.0189609375,-0.7859686613082886,3.7298924922943115,-2.339369297027588
1779958305490271700,1.035271728515625,-0.47604620456695557,1.4728856086730957,0.9402890205383301
1779958305506607400,1.051607421875,-0.7627803087234497,0.2797737121582031,0.7364692687988281
1779958305522951000,1.067950927734375,0.15719199180603027,1.923959732055664,-1.2623634338378906
1779958305539282400,1.084282470703125,-1.9299615621566772,7.407744884490967,-1.7594690322875977
1779958305555616500,1.100616455078125,-0.9906600713729858,15.112527847290039,0.8954401016235352
1779958305571949000,1.116948974609375,-3.420435667037964,3.253227710723877,2.0575051307678223
1779958305588280600,1.133280517578125,-2.230820655822754,0.2801518440246582,3.024662494659424
1779958305604614400,1.149614501953125,-2.0469937324523926,1.1365084648132324,1.545790672302246
1779958305620947200,1.165947265625,-2.093280076980591,4.052003860473633,2.0197386741638184
1779958305637267500,1.182267333984375,-3.716644525527954,0.7910323143005371,3.4927968978881836
1779958305653629400,1.19862939453125,-1.8177711963653564,-1.7260775566101074,4.950775623321533
1779958305669983500,1.2149833984375,-0.4124809503555298,0.6786131858825684,1.3431096076965332
1779958305686272000,1.23127197265625,-3.8735358715057373,-1.9783716201782227,-4.863683700561523
1779958305702630400,1.24763037109375,7.838288307189941,4.222661972045898,-2.4994068145751953
1779958305718955800,1.263955810546875,-1.8263757228851318,-1.6047334671020508,4.379317283630371
1779958305735290600,1.28029052734375,-0.13088345527648926,-2.430680274963379,4.933441162109375
1779958305751604000,1.29660400390625,1.706870675086975,-3.1264028549194336,0.13880538940429688
1779958305767942000,1.31294189453125,-3.6874654293060303,-0.16803741455078125,6.8011884689331055
1779958305784275000,1.32927490234375,-1.9672231674194336,-1.8324670791625977,6.333652496337891
1779958305800592100,1.345592041015625,-0.39725303649902344,-2.620147705078125,3.2315316200256348
1779958305816936700,1.361936767578125,1.2377710342407227,0.044363975524902344,2.1022629737854004
1779958305833277400,1.37827734375,2.399427652359009,1.5894536972045898,0.7088990211486816
1779958305849605400,1.39460546875,-0.30222535133361816,6.882784366607666,1.6501026153564453
1779958305865951200,1.410951171875,6.5860700607299805,3.8471364974975586,0.5541439056396484
1779958305882269700,1.427269775390625,1.7723246812820435,3.8275246620178223,-0.8471047878265381
1779958305898607600,1.443607666015625,1.2868118286132812,1.3647794723510742,-0.0037031173706054688
1779958305914936000,1.45993603515625,0.7353338003158569,2.251523017883301,1.5901341438293457
1779958305931271200,1.476271240234375,0.3231254816055298,1.949854850769043,2.001037359237671
1779958305947597300,1.492597412109375,2.889754295349121,0.9499750137329102,2.8850297927856445
1779958305963935000,1.50893505859375,2.3653597831726074,1.2156190872192383,4.937526702880859
1779958305980257800,1.5252578125,0.2604243755340576,3.472276210784912,3.923110246658325
1779958305996601600,1.5416015625,-1.6230026483535767,2.9027581214904785,1.0557751655578613
1779958306012924400,1.55792431640625,-0.3341876268386841,3.7268781661987305,-3.1758739948272705
1779958306029266400,1.574266357421875,0.8169187903404236,5.317528247833252,-4.196348667144775
1779958306045600000,1.59060009765625,2.8219172954559326,6.408381938934326,-4.223443984985352
1779958306061932000,1.60693212890625,7.068767547607422,4.387169361114502,-3.142524003982544
1779958306078271500,1.623271484375,6.626657485961914,-0.5696554183959961,-3.9781088829040527
1779958306094595800,1.639595947265625,5.652988433837891,-3.2640581130981445,-2.1746387481689453
1779958306110924000,1.655924072265625,1.5898377895355225,-2.3140954971313477,-1.6272056102752686
1779958306127251700,1.672251708984375,-3.519343137741089,0.6761388778686523,-1.1591280698776245
1779958306143613400,1.688613525390625,-8.139419555664062,1.6645088195800781,-0.04796731472015381
1779958306159922000,1.704921875,-1.0305752754211426,1.4875669479370117,0.6461488604545593
1779958306176273200,1.721273193359375,-1.4462369680404663,5.453074932098389,5.887225151062012
1779958306192612900,1.73761279296875,0.12279993295669556,1.6709489822387695,3.416569232940674
1779958306208941600,1.753941650390625,1.6444844007492065,-3.292856216430664,2.75691294670105
1779958306225275400,1.770275390625,0.8753007650375366,-29.087812423706055,-1.5054211616516113
1779958306241606100,1.786606201171875,-2.071864128112793,-5.085127830505371,-1.0686564445495605
1779958306257917200,1.802917236328125,-2.8433520793914795,3.378007411956787,-1.100053310394287
1779958306274262500,1.819262451171875,-1.3367226123809814,2.303072929382324,-0.6149479746818542
1779958306290593000,1.835593017578125,0.14191925525665283,-1.7246370315551758,0.3657090961933136
1779958306306923500,1.851923583984375,-0.5114454627037048,-1.7084684371948242,1.2090389728546143
1779958306323258000,1.868258056640625,-1.7398159503936768,-0.6400766372680664,1.4065752029418945
1779958306339593000,1.884593017578125,-2.14815354347229,-0.23937606811523438,1.6909798383712769
1779958306355924000,1.900924072265625,-2.315805673599243,-0.9954414367675781,2.204914093017578
1779958306372275500,1.917275390625,-1.9358869791030884,-2.3022470474243164,2.9265308380126953
1779958306388597800,1.93359765625,-1.451956868171692,-2.592121124267578,4.127215385437012
1779958306404938200,1.949938232421875,-2.1334543228149414,-4.2213544845581055,5.0739946365356445
1779958306421273000,1.966273193359375,-1.8008403778076172,-4.566464424133301,5.783463478088379
1779958306437585400,1.98258544921875,-2.6133675575256348,-4.231045722961426,5.477721214294434
1779958306453934000,1.99893408203125,-3.487069606781006,-4.945348739624023,4.509956359863281
1779958306470237200,2.0152373046875,-3.0124716758728027,-5.355852127075195,3.427380084991455
1779958306486586400,2.03158642578125,-1.9665088653564453,-3.0106239318847656,2.962465763092041
1779958306502917400,2.04791748046875,-1.4243868589401245,-0.41031837463378906,3.3651652336120605
1779958306519250200,2.064250244140625,-1.9318245649337769,0.3962688446044922,3.5181684494018555
1779958306535581700,2.080581787109375,-1.4306539297103882,-0.8142013549804688,3.214895725250244
1779958306551919600,2.096919677734375,-0.2541968524456024,-2.363374710083008,2.042999505996704
1779958306568262000,2.113261962890625,1.4250450134277344,-3.1781511306762695,1.1300621032714844
1779958306584583000,2.1295830078125,3.4138851165771484,-3.9011049270629883,0.6475867033004761
1779958306600915000,2.1459150390625,3.4589908123016357,-3.189835548400879,-0.12184619903564453
1779958306617248800,2.162248779296875,2.847729206085205,-2.675722122192383,-0.899994432926178
1779958306633581300,2.178581298828125,1.3926355838775635,-2.381863594055176,-1.2602357864379883
1779958306649902000,2.194902099609375,-0.8759331703186035,-2.169301986694336,-1.5302854776382446
1779958306666234400,2.211234375,-0.17049527168273926,-1.017094612121582,-1.369753360748291
1779958306682566700,2.227566650390625,1.3199958801269531,0.6789073944091797,0.30369389057159424
1779958306698902000,2.243902099609375,3.8128132820129395,1.1479272842407227,1.2103102207183838
1779958306715248400,2.260248291015625,2.476329803466797,0.4592399597167969,1.1175296306610107
1779958306731565600,2.276565673828125,1.193390130996704,0.20716190338134766,1.400148630142212
1779958306747910000,2.292909912109375,2.932872772216797,1.6800651550292969,1.8091247081756592
1779958306764243700,2.30924365234375,5.74167537689209,3.246237277984619,2.4870686531066895
1779958306780577300,2.325577392578125,6.809714317321777,4.63723087310791,2.0205984115600586
1779958306796908300,2.341908203125,6.713663101196289,5.00156307220459,0.9348808526992798
1779958306813242600,2.35824267578125,4.937073707580566,5.407918453216553,0.01248311996459961
1779958306829574100,2.37457421875,4.320567607879639,5.826409339904785,-0.7718220949172974
1779958306845904000,2.39090380859375,4.136058807373047,5.185843467712402,-0.9886603355407715
1779958306862285000,2.40728515625,3.0085084438323975,3.8508005142211914,-0.8423559665679932
1779958306878564400,2.423564453125,0.23552370071411133,2.763091564178467,0.047768592834472656
1779958306894925600,2.439925537109375,-3.0261473655700684,1.8999180793762207,1.4093596935272217
1779958306911255800,2.456255859375,-5.464554786682129,0.09332752227783203,3.446866512298584
1779958306927569700,2.472569580078125,-4.639071941375732,-2.8073978424072266,4.134007453918457
1779958306943918000,2.48891796875,-5.527780532836914,-6.48374080657959,1.7629735469818115
1779958306960221400,2.505221435546875,-4.799754619598389,-4.916365623474121,-0.8054077625274658
1779958306976571100,2.521571044921875,-2.2907094955444336,-1.4315481185913086,-2.8439674377441406
1779958306992899300,2.5378994140625,-2.0122480392456055,-1.0542964935302734,-4.448208808898926
1779958307009235700,2.554235595703125,-1.7307424545288086,-5.087311744689941,-5.538138389587402
1779958307025571600,2.570571533203125,0.8920159339904785,-9.588127136230469,-3.387744665145874
1779958307041901300,2.5869013671875,-0.12974309921264648,-4.809739112854004,-6.132476329803467
1779958307058233900,2.60323388671875,4.580516338348389,5.44893217086792,-2.947194814682007
1779958307074567700,2.619567626953125,5.143637657165527,5.774911880493164,-2.776719570159912
1779958307090900200,2.635900146484375,3.9979681968688965,4.469188213348389,-1.7799674272537231
1779958307107232500,2.652232421875,6.803294658660889,3.7495975494384766,0.5211449861526489
1779958307123569200,2.668569091796875,8.461750030517578,1.2945842742919922,2.3979251384735107
1779958307139914500,2.68491455078125,7.272876262664795,-1.6259708404541016,2.756000280380249
1779958307156239000,2.701239013671875,2.351390838623047,-6.268162727355957,2.984046459197998
1779958307172581400,2.717581298828125,-0.5655207633972168,-9.773723602294922,3.070821523666382
1779958307188905000,2.733905029296875,0.6273922920227051,-7.705428123474121,3.6561644077301025
1779958307205247500,2.75024755859375,0.6172257661819458,-2.3905019760131836,3.7356951236724854
1779958307221562000,2.76656201171875,0.31209826469421387,0.7588558197021484,2.653465747833252
1779958307237895400,2.7828955078125,0.9428756833076477,2.9558768272399902,1.6970102787017822
1779958307254243300,2.799243408203125,1.2445011138916016,3.4814348220825195,1.2089526653289795
1779958307270558700,2.815558837890625,1.8475511074066162,2.6242518424987793,0.17865455150604248
1779958307286898000,2.83189794921875,1.9395060539245605,1.6315650939941406,-0.9711830615997314
1779958307303225000,2.84822509765625,2.1799352169036865,1.3171024322509766,-1.9810901880264282
1779958307319543800,2.864543701171875,0.5322636365890503,2.0304694175720215,-1.6003904342651367
1779958307335882500,2.880882568359375,-1.2458906173706055,2.212395668029785,-0.7337707281112671
1779958307352211500,2.89721142578125,-1.4057519435882568,2.7047886848449707,-0.19559472799301147
1779958307368548900,2.913548828125,-0.6209068298339844,2.979170799255371,0.30195802450180054
1779958307384892700,2.929892578125,-0.1949537694454193,2.741783618927002,1.0184619426727295
1779958307401224200,2.94622412109375,-0.7275566458702087,2.0072731971740723,1.5842455625534058
1779958307417557000,2.962556884765625,-1.744194746017456,0.8963088989257812,2.128582239151001
1779958307433889300,2.97888916015625,-1.5450748205184937,0.020826339721679688,2.6592743396759033
1779958307450253600,2.995253662109375,-0.7401484251022339,-0.6169500350952148,2.8629419803619385
1779958307466555600,3.0115556640625,-2.3830573558807373,-1.3726062774658203,2.638709545135498
1779958307482888200,3.02788818359375,-3.9178307056427,-2.335141181945801,2.1307930946350098
1779958307499207700,3.044207763671875,-2.2893152236938477,-2.9456634521484375,2.8748645782470703
1779958307515554000,3.060553955078125,-1.615014910697937,-2.8961381912231445,3.98655366897583
1779958307531875000,3.076875,-2.980269193649292,-2.61666202545166,4.978808403015137
1779958307548217900,3.0932177734375,-3.1009035110473633,-2.698777198791504,5.322838306427002
1779958307564552400,3.109552490234375,-2.9297330379486084,-3.2790746688842773,5.784483432769775
1779958307580885000,3.125885009765625,-0.8950616717338562,-3.4708147048950195,6.141181945800781
1779958307597218600,3.142218505859375,-1.7619431018829346,-4.0581464767456055,4.363080978393555
1779958307613564000,3.15856396484375,-1.1603204011917114,-4.3184051513671875,3.9763498306274414
1779958307629905000,3.17490478515625,-1.145768642425537,-2.075807571411133,2.3672237396240234
1779958307646221300,3.19122119140625,-2.2162342071533203,-1.5162248611450195,0.5839672088623047
1779958307662560000,3.20756005859375,-2.584998846054077,-1.6814756393432617,-1.477705478668213
1779958307678892500,3.223892578125,-1.0846672058105469,-3.0829763412475586,-2.7293002605438232
1779958307695229200,3.240229248046875,2.0261006355285645,-5.081240653991699,-3.5855166912078857
1779958307711561200,3.256561279296875,3.180459499359131,-6.434383392333984,-3.8039047718048096
1779958307727893000,3.27289306640625,1.569175362586975,-6.398004531860352,-3.6084721088409424
1779958307744228000,3.28922802734375,-0.8274019956588745,-5.969661712646484,-3.2602672576904297
1779958307760527000,3.305527099609375,0.05318498611450195,-4.180048942565918,-2.537693500518799
1779958307776879600,3.321879638671875,1.3042649030685425,-2.1634445190429688,-1.301758050918579
1779958307793199900,3.338199951171875,2.51070499420166,0.5217609405517578,0.3236047625541687
1779958307809530400,3.3545302734375,2.270242214202881,0.9118337631225586,2.2864017486572266
1779958307825875000,3.370875,2.8644843101501465,0.10238075256347656,3.398360252380371
1779958307842214100,3.387214111328125,3.7703325748443604,-0.13858604431152344,2.804014205932617
1779958307858542800,3.40354296875,3.86740779876709,0.7578115463256836,2.198218584060669
1779958307874876400,3.41987646484375,3.9623053073883057,2.4721364974975586,1.703264594078064
1779958307891225300,3.436225341796875,5.3955817222595215,3.8806514739990234,1.346911072731018
1779958307907549000,3.452548828125,5.915582180023193,5.206514358520508,1.3995599746704102
1779958307923894300,3.468894287109375,7.596052169799805,6.678450584411621,0.7888374328613281
1779958307940203500,3.48520361328125,6.381681442260742,8.096921920776367,0.21165120601654053
1779958307956542000,3.5015419921875,5.0531511306762695,8.460437774658203,-0.6308600902557373
1779958307972873000,3.517873046875,4.576230525970459,7.319839954376221,-0.9079897403717041
1779958307989205200,3.534205322265625,2.530965566635132,5.083106994628906,-0.3941216468811035
1779958308005539600,3.55053955078125,-0.6240601539611816,4.84881067276001,0.10842704772949219
1779958308021872400,3.566872314453125,-4.257007598876953,2.4300527572631836,1.4518680572509766
1779958308038200000,3.583199951171875,-4.187315464019775,-2.159008026123047,2.4497504234313965
1779958308054538000,3.5995380859375,-5.093812942504883,-8.269014358520508,2.7592556476593018
1779958308070865400,3.615865478515625,-11.001436233520508,-12.695267677307129,0.4746476411819458
1779958308087192800,3.63219287109375,-7.484446048736572,-7.095955848693848,-4.841176509857178
1779958308103524900,3.64852490234375,-2.042426586151123,1.2430915832519531,-6.179790019989014
1779958308119857200,3.664857177734375,-0.09531259536743164,1.6993837356567383,-7.298219203948975
1779958308136191700,3.681191650390625,1.8362374305725098,-2.6089468002319336,-5.900445938110352
1779958308152521500,3.697521484375,4.611586570739746,-9.775458335876465,-3.8996880054473877
1779958308168856800,3.71385693359375,-1.337113857269287,-12.595978736877441,-2.8160629272460938
1779958308185189000,3.730189208984375,2.6922013759613037,0.31784534454345703,0.08583652973175049
1779958308201521400,3.746521484375,10.258689880371094,5.736120700836182,1.5423007011413574
1779958308217857500,3.762857421875,5.920523643493652,5.589206695556641,0.5471171140670776
1779958308234189800,3.77918994140625,5.442986011505127,4.578162670135498,1.204044222831726
1779958308250533600,3.79553369140625,7.40989875793457,2.6193509101867676,2.433701753616333
1779958308266865000,3.811864990234375,7.777783393859863,-0.7478752136230469,3.116715431213379
1779958308283198200,3.8281982421875,7.1143341064453125,-4.199158668518066,2.438937187194824
1779958308299529700,3.84452978515625,2.23388934135437,-8.770848274230957,1.8672873973846436
1779958308315862500,3.860862548828125,-3.331125020980835,-8.255245208740234,3.3853402137756348
1779958308332199200,3.87719921875,-5.825311660766602,-1.1875810623168945,3.317150592803955
1779958308348528600,3.893528564453125,-2.5375869274139404,2.989076614379883,2.3081116676330566
1779958308364880000,3.9098798828125,2.5948939323425293,4.041510581970215,1.1846017837524414
1779958308381207800,3.926207763671875,2.6669116020202637,4.571011066436768,0.7849210500717163
1779958308397541000,3.942541015625,3.0549240112304688,3.8744564056396484,-0.20695257186889648
1779958308413877200,3.958877197265625,3.797956943511963,1.600189208984375,-1.16818368434906
1779958308430201300,3.975201416015625,1.418877124786377,1.7745790481567383,-0.43339765071868896
1779958308446524000,3.99152392578125,-1.7030448913574219,1.5294122695922852,-0.04300302267074585
1779958308462860500,4.007860595703125,-2.161355495452881,1.8120355606079102,-0.3662889003753662
1779958308479191300,4.02419140625,-1.8109610080718994,2.30983304977417,-0.03084796667098999
1779958308495525400,4.040525390625,-1.044036865234375,1.677536964416504,0.6660093069076538
1779958308511860200,4.056860107421875,-1.076521635055542,0.5976629257202148,1.4777472019195557
1779958308528190200,4.073190185546875,-2.435520648956299,-0.5083723068237305,2.3005056381225586
1779958308544523500,4.0895234375,-2.3317360877990723,-1.318328857421875,2.594851016998291
1779958308560844500,4.105844482421875,-1.7573426961898804,-1.5824766159057617,2.3136253356933594
1779958308577190400,4.1221904296875,-1.0746073722839355,-1.3447999954223633,2.2234718799591064
1779958308593540400,4.138540283203125,-1.5354894399642944,-1.533193588256836,2.253767490386963
1779958308609863700,4.15486376953125,-1.9846888780593872,-2.1157636642456055,2.53836727142334
1779958308626204200,4.1712041015625,-2.025674343109131,-2.01474666595459,2.538315773010254
1779958308642534400,4.187534423828125,-2.4973902702331543,-2.3088245391845703,3.330728769302368
1779958308658851000,4.20385107421875,-2.439983367919922,-2.622579574584961,4.185912609100342
1779958308675201300,4.220201171875,-2.5708625316619873,-2.221583366394043,4.1645097732543945
1779958308691531800,4.23653173828125,-3.3200254440307617,-2.587435722351074,4.646151065826416
1779958308707864800,4.25286474609375,-3.4124808311462402,-3.0352020263671875,5.0396342277526855
1779958308724199700,4.26919970703125,-2.490448474884033,-2.800969123840332,3.8077850341796875
1779958308740516400,4.285516357421875,-1.8940448760986328,-2.4908628463745117,4.01072883605957
1779958308756862700,4.30186279296875,-1.444119930267334,-1.3393239974975586,3.7006421089172363
1779958308773187600,4.3181875,-1.5400803089141846,-0.5762434005737305,2.2020726203918457
1779958308789515500,4.334515625,-1.9522861242294312,-0.7080326080322266,-0.39430683851242065
1779958308805855700,4.350855712890625,-1.0131609439849854,-2.408693313598633,-2.5606064796447754
1779958308822181400,4.367181396484375,2.345721483230591,-4.202675819396973,-2.8650662899017334
1779958308838514200,4.38351416015625,3.5616564750671387,-5.427084922790527,-3.1781225204467773
1779958308854838000,4.399838134765625,1.4938637018203735,-4.317019462585449,-2.819721221923828
1779958308871203800,4.416203857421875,0.14239907264709473,-3.2194204330444336,-2.1036317348480225
1779958308887521000,4.43252099609375,0.49802303314208984,-3.5105199813842773,-1.1401126384735107
1779958308903865300,4.448865234375,0.5867063999176025,-3.2583513259887695,0.2805079221725464
1779958308920173600,4.465173583984375,-0.19139957427978516,-0.7023134231567383,1.7411936521530151
1779958308936507400,4.48150732421875,0.6591620445251465,1.0353126525878906,2.8972785472869873
1779958308952853000,4.49785302734375,1.0873324871063232,1.3374261856079102,3.372346878051758
1779958308969177600,4.514177490234375,3.1869969367980957,1.539487361907959,3.0905568599700928
1779958308985511200,4.53051123046875,3.617504835128784,1.3007283210754395,2.700784683227539
1779958309001843500,4.546843505859375,3.679368257522583,1.1772284507751465,2.1657814979553223
1779958309018179600,4.5631796875,4.784177303314209,2.5730786323547363,1.4051402807235718
1779958309034507300,4.57950732421875,5.834036350250244,4.218372344970703,0.6773518323898315
1779958309050848500,4.5958486328125,6.916877746582031,5.304247856140137,0.10086214542388916
1779958309067163400,4.612163330078125,7.059596061706543,6.043222427368164,-0.1602078676223755
1779958309083525600,4.628525634765625,6.295327186584473,6.463316917419434,-0.17000651359558105
1779958309099851000,4.64485107421875,4.772425651550293,6.733676433563232,-0.423734188079834
1779958309116187000,4.661186767578125,3.015756368637085,6.872565746307373,-1.2559767961502075
1779958309132525300,4.677525390625,0.3600921630859375,6.139218330383301,-1.9004061222076416
1779958309148838000,4.693837890625,-2.3213701248168945,3.9488277435302734,-1.902323842048645
1779958309165186800,4.710186767578125,-4.334490776062012,-0.8438711166381836,-0.9136365652084351
1779958309181518600,4.7265185546875,-4.615985870361328,-7.759299278259277,1.2732107639312744
1779958309197853000,4.74285302734375,-7.015074729919434,-17.1256103515625,-1.1369421482086182
1779958309214184700,4.759184814453125,-10.618083953857422,-9.928789138793945,-4.197879791259766
1779958309230505700,4.775505615234375,-5.186367988586426,1.6594843864440918,-4.093210697174072
1779958309246852600,4.7918525390625,-3.235989809036255,6.025483131408691,-2.7104077339172363
1779958309263163600,4.80816357421875,-2.2501816749572754,3.876899242401123,-3.194467544555664
1779958309279505000,4.8245048828125,-3.4003028869628906,-4.433699607849121,0.11519515514373779
1779958309295832800,4.840832763671875,4.501168251037598,-8.777971267700195,4.696054458618164
1779958309312178000,4.857177978515625,6.299318313598633,-16.57032585144043,2.646434783935547
1779958309328500700,4.873500732421875,8.88016128540039,-1.793914794921875,-2.2496390342712402
1779958309344834800,4.889834716796875,4.345322132110596,4.899421691894531,-3.9122750759124756
1779958309361171700,4.906171630859375,-4.053991794586182,5.008183002471924,-4.055975437164307
1779958309377496600,4.92249658203125,1.8999947309494019,4.921374797821045,-1.8850164413452148
1779958309393846800,4.9388466796875,10.260891914367676,3.945964813232422,0.09221309423446655
1779958309410173400,4.95517333984375,9.637689590454102,2.2034144401550293,1.0447885990142822
1779958309426506500,4.971506591796875,7.707705497741699,-0.4212198257446289,1.251289963722229
1779958309442832000,4.987831787109375,4.803917407989502,-6.540911674499512,0.9204428791999817
1779958309459166700,5.004166748046875,-1.2002534866333008,-10.596179962158203,2.7369766235351562
1779958309475497200,5.020497314453125,-5.040144920349121,-2.8035659790039062,6.486770153045654
1779958309491831600,5.03683154296875,-1.7535943984985352,1.0247993469238281,5.133224964141846
1779958309508176000,5.05317578125,2.1044673919677734,3.3991317749023438,2.6233582496643066
1779958309524495600,5.06949560546875,2.800729751586914,3.7679643630981445,0.07014405727386475
1779958309540830000,5.085829833984375,3.554553270339966,2.990237236022949,-1.4976638555526733
1779958309557162200,5.102162353515625,4.420281887054443,1.9847707748413086,-1.9694483280181885
1779958309573512000,5.118511962890625,0.3652794361114502,2.0565342903137207,-1.7929775714874268
1779958309589839400,5.13483935546875,-4.158570766448975,1.8443608283996582,-1.8657574653625488
1779958309606158300,5.151158447265625,-4.770783424377441,2.5030746459960938,-1.5485506057739258
1779958309622509000,5.167509033203125,-3.299138307571411,1.8401708602905273,0.01753324270248413
1779958309638839600,5.183839599609375,-0.9616402387619019,0.47228431701660156,2.170964241027832
1779958309655172000,5.200172119140625,-0.20036906003952026,-0.2621736526489258,3.7426233291625977
1779958309671505000,5.2165048828125,-0.12541663646697998,-0.36432838439941406,4.140111446380615
1779958309687821800,5.23282177734375,-2.5885801315307617,-0.5526266098022461,3.7245001792907715
1779958309704145700,5.249145751953125,-3.7876875400543213,-0.31194400787353516,2.6936211585998535
1779958309720503600,5.265503662109375,-2.959233283996582,-0.5072822570800781,2.3718831539154053
1779958309736838000,5.281837890625,-1.1396491527557373,-2.0051469802856445,3.1686997413635254
1779958309753171000,5.2981708984375,-1.3205057382583618,-2.5100622177124023,4.341326713562012
1779958309769484000,5.314484130859375,-3.714292526245117,-2.4097890853881836,5.268926620483398
1779958309785822200,5.330822265625,-4.468327522277832,-2.4154281616210938,5.625677585601807
1779958309802155500,5.347155517578125,-2.918790340423584,-2.6093835830688477,4.975635051727295
1779958309818487300,5.3634873046875,-2.3777828216552734,-3.345508575439453,4.81721830368042
1779958309834820000,5.379820068359375,-2.12752103805542,-3.3389244079589844,4.180558681488037
1779958309851154000,5.39615380859375,-1.4659535884857178,-2.621750831604004,3.243083953857422
1779958309867520500,5.4125205078125,-1.228273868560791,-3.1312665939331055,3.7746996879577637
1779958309883835400,5.42883544921875,-1.2157225608825684,-2.180354118347168,2.6561856269836426
1779958309900138000,5.445137939453125,-1.3142352104187012,-0.8159751892089844,-0.0341835618019104
1779958309916494800,5.461494873046875,-0.8670833110809326,-1.354893684387207,-2.4933066368103027
1779958309932818200,5.477818115234375,0.3020979166030884,-4.243355751037598,-3.343109130859375
1779958309949151000,5.49415087890625,3.222954034805298,-5.154730796813965,-3.087559461593628
1779958309965483300,5.510483154296875,4.409650802612305,-3.6681041717529297,-2.099435806274414
1779958309981817000,5.526817138671875,3.5564255714416504,-2.284653663635254,-1.2108666896820068
1779958309998148600,5.543148681640625,1.735083818435669,-2.26181697845459,-0.7177287340164185
1779958310014485000,5.559485107421875,-0.6482341289520264,-3.501535415649414,-0.02278757095336914
1779958310030815200,5.575815185546875,-2.823187828063965,-2.925002098083496,1.2466450929641724
1779958310047149000,5.592149169921875,-1.331578016281128,0.7480278015136719,2.7294435501098633
1779958310063465200,5.60846533203125,0.5113475322723389,1.810591697692871,3.641129493713379
1779958310079824600,5.62482470703125,3.539748191833496,1.511648178100586,3.8416922092437744
1779958310096159500,5.641159423828125,3.147092342376709,0.48687267303466797,3.4767491817474365
1779958310112494600,5.65749462890625,3.1377134323120117,1.6440258026123047,2.1722981929779053
1779958310128824300,5.67382421875,4.273649215698242,3.4891462326049805,1.2662841081619263
1779958310145152800,5.69015283203125,5.28022575378418,4.896480560302734,0.5368608236312866
1779958310161469700,5.7064697265625,5.796431064605713,5.384664535522461,-0.35229790210723877
1779958310177798700,5.722798583984375,5.337230205535889,5.34844970703125,-0.9987884163856506
1779958310194133800,5.7391337890625,5.322929859161377,5.08175802230835,-1.3019481897354126
1779958310210462200,5.755462158203125,5.283779621124268,4.988597393035889,-1.2875542640686035
1779958310226798600,5.771798583984375,4.428557872772217,5.213726043701172,-1.1459827423095703
1779958310243130000,5.788130126953125,2.9727954864501953,5.421818256378174,-1.2141259908676147
1779958310259478300,5.804478271484375,1.0441222190856934,4.919858932495117,-1.13253653049469
1779958310275809500,5.8208095703125,-1.0799622535705566,4.052981853485107,-0.4113576412200928
1779958310292141600,5.8371416015625,-3.4475862979888916,0.713770866394043,-0.2103264331817627
1779958310308473000,5.85347314453125,-9.191898345947266,-7.575242042541504,-0.586986780166626
1779958310324807700,5.8698076171875,-11.974028587341309,-16.572586059570312,0.4438091516494751
1779958310341140500,5.886140380859375,-9.285992622375488,-10.618246078491211,0.9604078531265259
1779958310357472800,5.90247265625,-7.576712608337402,-1.0507526397705078,-0.16686499118804932
1779958310373823200,5.9188232421875,-8.361776351928711,4.569586277008057,-0.06596040725708008
1779958310390134500,5.935134521484375,-5.1060686111450195,3.7406458854675293,0.3423882722854614
1779958310406490000,5.951489990234375,-0.015742778778076172,-4.125118255615234,4.7947492599487305
1779958310422801200,5.96780126953125,7.70784854888916,-11.006333351135254,8.519375801086426
1779958310439136300,5.98413623046875,10.352920532226562,-16.31723403930664,4.987163066864014
1779958310455470600,6.000470703125,11.474567413330078,-2.2296886444091797,-2.5223124027252197
1779958310471805700,6.0168056640625,0.19142460823059082,5.535770416259766,-5.445000171661377
1779958310488133400,6.03313330078125,-7.843494415283203,8.91912841796875,-5.7276411056518555
1779958310504469000,6.049468994140625,4.472870826721191,7.914923667907715,-4.412351608276367
1779958310520803000,6.065802978515625,11.693338394165039,5.036297798156738,-1.5599923133850098
1779958310537135400,6.08213525390625,8.153997421264648,2.5371665954589844,-0.01504373550415039
1779958310553484300,6.098484375,5.580224990844727,-3.645522117614746,0.5771732330322266
1779958310569806800,6.114806884765625,5.991125106811523,-14.697931289672852,0.49702775478363037
1779958310586143700,6.131143798828125,-4.475152969360352,-6.911062240600586,4.2362060546875
1779958310602467800,6.1474677734375,-2.483323335647583,0.7539844512939453,5.814690113067627
1779958310618811000,6.163810791015625,0.9777894616127014,2.4593448638916016,4.185094356536865
1779958310635146000,6.18014599609375,1.7714295387268066,2.988476276397705,1.0952047109603882
1779958310651478000,6.19647802734375,0.37318694591522217,2.6949939727783203,-0.6781603097915649
1779958310667810800,6.212810791015625,1.177266240119934,2.2273359298706055,-0.8979114294052124
1779958310684144600,6.22914453125,1.033613681793213,2.226909637451172,-1.426712989807129
1779958310700471000,6.245470947265625,-1.0760834217071533,2.6579651832580566,-2.365617275238037
1779958310716798700,6.261798828125,-2.3879778385162354,2.5559158325195312,-2.36004900932312
1779958310733127000,6.278126953125,-3.4893956184387207,1.9295845031738281,-1.6417546272277832
1779958310749461200,6.294461181640625,-3.6681313514709473,0.5348854064941406,-0.38901787996292114
1779958310765794800,6.310794921875,-1.92818021774292,0.38891124725341797,1.181965708732605
1779958310782128000,6.327128173828125,-0.13992440700531006,0.28818225860595703,3.2030372619628906
1779958310798440700,6.343440673828125,-0.07557642459869385,0.17713451385498047,4.084151268005371
1779958310814781200,6.35978125,-2.5371766090393066,0.05771350860595703,3.450714588165283
1779958310831124000,6.3761240234375,-4.932340621948242,0.18348217010498047,2.6512722969055176
1779958310847447300,6.392447265625,-4.200631618499756,-1.2627906799316406,2.7457621097564697
1779958310863781000,6.408781005859375,-1.707882285118103,-2.824151039123535,3.6093099117279053
1779958310880118500,6.425118408203125,-1.6032360792160034,-2.999894142150879,4.917911052703857
1779958310896446000,6.441446044921875,-4.111607551574707,-2.1661157608032227,5.57676887512207
1779958310912778200,6.4577783203125,-4.0929341316223145,-1.9983043670654297,6.083831787109375
1779958310929116400,6.474116455078125,-2.004155158996582,-3.2344579696655273,6.831478118896484
1779958310945456600,6.49045654296875,-0.40728211402893066,-3.856295585632324,6.15681791305542
1779958310961790000,6.5067900390625,-1.8558447360992432,-4.048737525939941,4.705380916595459
1779958310978110200,6.523110107421875,-2.9629085063934326,-4.743430137634277,3.8002071380615234
1779958310994445600,6.539445556640625,-1.281252384185791,-3.5281200408935547,0.988098680973053
1779958311010788400,6.555788330078125,-1.643953561782837,-1.8718786239624023,-1.515128493309021
1779958311027121700,6.57212158203125,-1.5470857620239258,-3.0502567291259766,-4.053515911102295
1779958311043454500,6.588454345703125,1.75784432888031,-4.61375617980957,-4.606184005737305
1779958311059786000,6.604785888671875,4.010583400726318,-5.488128662109375,-4.2550201416015625
1779958311076132900,6.6211328125,2.697540044784546,-5.741829872131348,-3.867640495300293
1779958311092462000,6.637462158203125,0.471785306930542,-5.021329879760742,-3.296085834503174
1779958311108798200,6.653798095703125,-1.2298682928085327,-3.7064056396484375,-1.733896255493164
1779958311125132800,6.6701328125,-0.5574328899383545,-1.9962282180786133,0.5790343880653381
1779958311141449000,6.686448974609375,0.5708038806915283,-0.29218292236328125,2.205890417098999
1779958311157796400,6.70279638671875,0.9398496150970459,1.330296516418457,2.97826886177063
1779958311174131000,6.719130859375,1.403801441192627,1.9910550117492676,3.9384260177612305
1779958311190448400,6.735448486328125,3.61358642578125,1.5265345573425293,3.603363513946533
1779958311206784500,6.751784423828125,4.829051971435547,2.4411463737487793,2.672128677368164
1779958311223136000,6.768135986328125,4.5946946144104,3.40364408493042,1.3343256711959839
1779958311239460900,6.7844609375,4.458629608154297,4.2595534324646,0.5618767142295837
1779958311255796000,6.8007958984375,4.628211498260498,5.176802635192871,-0.07510435581207275
1779958311272111400,6.817111328125,5.564669132232666,5.654986381530762,-0.1514524221420288
1779958311288446500,6.833446533203125,5.518811225891113,5.700762748718262,0.25448083877563477
1779958311304780800,6.84978076171875,5.9298415184021,6.030412673950195,0.4676135182380676
1779958311321113600,6.866113525390625,5.454319953918457,6.492999076843262,0.01103365421295166
1779958311337443000,6.882443115234375,4.325046062469482,6.28562593460083,-1.162036657333374
1779958311353782500,6.898782470703125,1.4465384483337402,6.773765563964844,-2.323570966720581
1779958311370100500,6.9151005859375,-0.6762905120849609,6.067147731781006,-2.232113838195801
1779958311386458600,6.931458740234375,-3.2476251125335693,1.8852415084838867,-1.3471214771270752
1779958311402788900,6.947788818359375,-8.833572387695312,-9.813576698303223,-0.7219647169113159
1779958311419094000,6.964093994140625,-15.537598609924316,-27.482690811157227,0.24712824821472168
1779958311435446800,6.98044677734375,-6.127436637878418,-11.910436630249023,-3.5795624256134033
1779958311451777300,6.99677734375,-4.424123764038086,2.7304039001464844,-5.269655704498291
1779958311468100000,7.01310009765625,-8.088861465454102,5.458837509155273,-6.4751691818237305
1779958311484442000,7.029442138671875,-4.5820112228393555,-3.7098569869995117,-3.601733684539795
1779958311500775700,7.045775634765625,-1.2409977912902832,-13.122666358947754,1.8142194747924805
1779958311517108200,7.062108154296875,5.085391521453857,-14.86008071899414,7.425067901611328
1779958311533458000,7.0784580078125,15.328503608703613,-0.9862489700317383,1.7597761154174805
1779958311549786400,7.094786376953125,8.905291557312012,7.893459320068359,-1.8458924293518066
1779958311566112000,7.111112060546875,3.901465654373169,10.585845947265625,-3.328383684158325
1779958311582438400,7.1274384765625,2.0542259216308594,6.543863296508789,-1.4981895685195923
1779958311598759700,7.143759765625,6.358139991760254,2.982509136199951,0.0597914457321167
1779958311615092000,7.160092041015625,7.437298774719238,0.12780189514160156,0.09611213207244873
1779958311631433700,7.176433837890625,7.807621002197266,-2.756826400756836,0.08989846706390381
1779958311647759600,7.192759521484375,6.331912994384766,-12.378633499145508,-0.930890679359436
1779958311664092000,7.209091796875,1.2094805240631104,-7.446165084838867,2.739114761352539
1779958311680423700,7.225423583984375,-5.0061354637146,0.6329727172851562,5.720884323120117
1779958311696758500,7.241758544921875,-1.4627119302749634,2.1224546432495117,3.25858736038208
1779958311713090600,7.258090576171875,1.44502592086792,3.0962090492248535,0.9132850170135498
1779958311729424600,7.274424560546875,0.5482541918754578,3.0228190422058105,-0.23656946420669556
1779958311745757200,7.290757080078125,1.9263412952423096,2.02200984954834,-1.1473218202590942
1779958311762090000,7.307090087890625,3.239103317260742,2.464841365814209,-1.2166316509246826
1779958311778423000,7.323423095703125,2.9761404991149902,3.2485055923461914,-1.2761640548706055
1779958311794754300,7.33975439453125,-1.9948657751083374,2.8165364265441895,-0.9741542935371399
1779958311811087000,7.356087158203125,-8.324305534362793,2.332000732421875,-1.290238380432129
1779958311827436000,7.37243603515625,-6.437946319580078,1.2899436950683594,-0.47907698154449463
1779958311843766000,7.38876611328125,-1.2084437608718872,-0.16266441345214844,1.6236937046051025
1779958311860076300,7.405076171875,0.8278919458389282,-1.5960359573364258,4.3998799324035645
1779958311876431600,7.421431640625,0.5513575077056885,-0.5360069274902344,4.875391960144043
1779958311892765400,7.437765380859375,-2.573617935180664,-0.33655834197998047,4.276021957397461
1779958311909095400,7.454095458984375,-5.177870273590088,-0.5787220001220703,2.9441850185394287
1779958311925429500,7.470429443359375,-2.8997995853424072,0.03540802001953125,1.905137062072754
1779958311941764900,7.486764892578125,-1.2072705030441284,-0.7999639511108398,2.6971118450164795
1779958311958093300,7.50309326171875,-0.9957881569862366,-1.2255678176879883,3.9812865257263184
1779958311974429000,7.519428955078125,-2.9984655380249023,-1.4166679382324219,5.164888858795166
1779958311990763300,7.53576318359375,-4.283293724060059,-1.8446931838989258,5.596765995025635
1779958312007093500,7.552093505859375,-3.323068141937256,-1.563736915588379,4.985004901885986
1779958312023444200,7.5684443359375,-2.738704204559326,-1.198695182800293,4.068811416625977
1779958312039769000,7.58476904296875,-3.284698009490967,-2.094015121459961,4.01032829284668
1779958312056107000,7.60110693359375,-2.463029384613037,-3.1585159301757812,3.928367853164673
1779958312072449800,7.61744970703125,-2.37473726272583,-3.70404052734375,4.060194969177246
1779958312088756500,7.633756591796875,-2.6018247604370117,-3.918919563293457,4.059285640716553
1779958312105106400,7.6501064453125,-1.7597808837890625,-3.17832088470459,3.215672254562378
1779958312121437400,7.6664375,-0.9510347843170166,-1.9320545196533203,1.1203570365905762
1779958312137770200,7.682770263671875,-0.7584298849105835,-2.031487464904785,-1.6565618515014648
1779958312154110000,7.69910986328125,1.6733427047729492,-4.516692161560059,-3.312716245651245
1779958312170421500,7.71542138671875,4.322994232177734,-4.703922271728516,-3.109525680541992
1779958312186770200,7.731770263671875,3.896054267883301,-3.500185966491699,-2.628124475479126
1779958312203111400,7.748111328125,2.3951213359832764,-2.796815872192383,-2.4832234382629395
1779958312219427800,7.764427734375,1.5670650005340576,-3.2532711029052734,-2.0645058155059814
1779958312235765500,7.780765625,-0.8805787563323975,-3.49355411529541,-0.5453431010246277
1779958312252108800,7.79710888671875,-3.004892349243164,-0.520665168762207,2.0128989219665527
1779958312268429300,7.81342919921875,-0.9760239124298096,1.3240795135498047,3.6422348022460938
1779958312284754400,7.82975439453125,2.941999673843384,1.0501174926757812,3.9283602237701416
1779958312301087200,7.846087158203125,2.7949042320251465,0.36885929107666016,4.031033039093018
1779958312317419500,7.86241943359375,2.523878574371338,0.9588432312011719,2.682757616043091
1779958312333752000,7.878751953125,3.0274243354797363,1.8279309272766113,1.4599639177322388
1779958312350076400,7.895076416015625,4.950084686279297,2.874141216278076,0.6184979677200317
1779958312366417200,7.911417236328125,5.145993709564209,4.092357635498047,-0.015812158584594727
1779958312382759200,7.92775927734375,5.292673110961914,4.992169380187988,-0.4443349242210388
1779958312399075800,7.944075927734375,6.164454936981201,5.753574371337891,-0.7336295247077942
1779958312415420000,7.960419921875,5.761237621307373,6.136562824249268,-0.8847882747650146
1779958312431737300,7.9767373046875,4.866950511932373,6.71619176864624,-1.1524662971496582
1779958312448076500,7.99307666015625,3.7249443531036377,6.96562385559082,-1.5564990043640137
1779958312464415500,8.00941552734375,2.3283352851867676,6.370120525360107,-2.002821922302246
1779958312480748800,8.025748779296874,0.4179856777191162,5.256996154785156,-1.9673054218292236
1779958312497081600,8.04208154296875,-1.8450431823730469,2.2712016105651855,-1.4465434551239014
1779958312513430800,8.0584306640625,-4.646968841552734,-5.650514602661133,-0.934734582901001
1779958312529759200,8.07475927734375,-8.902365684509277,-20.944156646728516,-0.4592934846878052
1779958312546113500,8.091113525390625,-13.481420516967773,-15.615971565246582,-1.8116178512573242
1779958312562443300,8.107443359375,-7.74738073348999,-1.1059417724609375,-2.086562156677246
1779958312578754600,8.123754638671874,-9.87302017211914,4.906238079071045,-0.3758785128593445
1779958312595082200,8.140082275390625,-6.675392150878906,8.08888053894043,1.6020731925964355
1779958312611409000,8.156408935546875,0.964648962020874,2.956695556640625,5.602014541625977
1779958312627756500,8.172756591796874,7.053867816925049,-5.841568946838379,8.707184791564941
1779958312644091600,8.189091552734375,16.877960205078125,-18.670516967773438,6.076597213745117
1779958312660407800,8.20540771484375,8.205117225646973,-13.298483848571777,-2.4375596046447754
1779958312676756500,8.221756591796876,-5.34426212310791,-1.204209327697754,-7.571937561035156
1779958312693090800,8.2380908203125,-11.617493629455566,7.620776653289795,-11.484186172485352
1779958312709418000,8.25441796875,5.8465118408203125,6.945182800292969,-4.755736827850342
1779958312725759000,8.270759033203126,9.760690689086914,7.078097343444824,-0.003521442413330078
1779958312742084400,8.28708447265625,10.001218795776367,4.385915279388428,0.0946950912475586
1779958312758405000,8.303405029296876,7.015414714813232,0.9012212753295898,-0.15976589918136597
1779958312774753500,8.31975341796875,4.030950546264648,-7.213210105895996,-1.7866177558898926
1779958312791070000,8.336070068359374,3.786083459854126,-7.450855255126953,0.6226897239685059
1779958312807406300,8.35240625,-4.388331413269043,-1.4218254089355469,5.534284591674805
1779958312823739100,8.3687392578125,1.0459181070327759,1.470423698425293,5.721900939941406
1779958312840070700,8.385070556640626,3.9986252784729004,2.770413398742676,3.9089345932006836
1779958312856405000,8.401405029296875,1.4891425371170044,3.0423645973205566,1.6613781452178955
1779958312872737800,8.41773779296875,-1.377339243888855,1.9355525970458984,-0.47157448530197144
1779958312889069600,8.434069580078125,-2.5066871643066406,0.8966455459594727,-1.5507707595825195
1779958312905403100,8.450403076171876,-2.9294638633728027,1.6517829895019531,-2.3041789531707764
1779958312921736400,8.466736328125,-2.5349462032318115,2.695805072784424,-1.6122567653656006
1779958312938067700,8.483067626953124,-1.7972140312194824,2.7948427200317383,-0.2112429141998291
1779958312954402300,8.49940234375,-2.299689769744873,1.2152633666992188,1.3245407342910767
1779958312970735400,8.5157353515625,-2.4138216972351074,0.10494136810302734,2.425720691680908
1779958312987065600,8.532065673828125,-2.1954078674316406,0.3181610107421875,2.9797487258911133
1779958313003417600,8.54841748046875,-2.622447967529297,0.848968505859375,3.019286870956421
1779958313019738000,8.564738037109375,-2.8165507316589355,0.7493267059326172,2.6090409755706787
1779958313036080600,8.58108056640625,-1.660493016242981,0.4159536361694336,2.345388889312744
1779958313052404700,8.59740478515625,-1.4487261772155762,-0.43037986755371094,2.325493335723877
1779958313068729600,8.6137294921875,-2.0483853816986084,-1.134359359741211,2.4815139770507812
1779958313085080000,8.630080078125,-2.2257626056671143,-1.584676742553711,3.6851489543914795
1779958313101403600,8.646403564453125,-2.5732574462890625,-1.7103080749511719,5.023102760314941
1779958313117742600,8.66274267578125,-3.0021262168884277,-1.9708032608032227,5.518807888031006
1779958313134078500,8.679078369140624,-3.1855673789978027,-2.2741613388061523,5.265170097351074
1779958313150390500,8.695390625,-2.7218356132507324,-2.3460235595703125,3.9620375633239746
1779958313166747100,8.7117470703125,-2.73270845413208,-3.6694469451904297,3.9351868629455566
1779958313183078700,8.72807861328125,-3.190001964569092,-4.635852813720703,4.033195495605469
1779958313199403500,8.744403564453124,-3.1245741844177246,-5.380631446838379,3.9257750511169434
1779958313215750100,8.760750244140626,-1.7868046760559082,-3.4478960037231445,2.0744564533233643
1779958313232074500,8.777074462890624,-1.4034572839736938,-1.3905229568481445,-0.9597573280334473
1779958313248392000,8.793391845703125,-2.118147134780884,-1.5615911483764648,-4.451704502105713
1779958313264740000,8.809739990234375,1.887624740600586,-3.9930191040039062,-6.426916122436523
1779958313281044000,8.8260439453125,5.07040548324585,-4.436022758483887,-5.67775821685791
1779958313297392600,8.842392578125,4.017522811889648,-3.6725292205810547,-4.771725654602051
1779958313313725200,8.85872509765625,1.4412975311279297,-2.968130111694336,-4.004884243011475
1779958313330054100,8.87505419921875,-0.7430565357208252,-3.735300064086914,-2.846839427947998
1779958313346395100,8.89139501953125,-1.460418701171875,-4.098038673400879,-0.47706857323646545
1779958313362723800,8.907723876953124,-1.4058494567871094,-1.4995183944702148,1.8443267345428467
1779958313379043800,8.9240439453125,-0.36493897438049316,0.6102809906005859,3.1853268146514893
1779958313395389700,8.9403896484375,0.7968921661376953,1.4596333503723145,4.103896617889404
1779958313411723500,8.9567236328125,3.953557014465332,1.3285350799560547,3.8734188079833984
1779958313428049400,8.97304931640625,4.150219917297363,1.4793758392333984,2.4880211353302
1779958313444388600,8.989388671875,2.942908763885498,2.4701313972473145,0.9723349809646606
1779958313460722000,9.005721923828125,3.2698967456817627,3.7399702072143555,0.2897876501083374
1779958313477055000,9.022054931640625,4.389562129974365,4.9254841804504395,-0.12615543603897095
1779958313493399800,9.03839990234375,5.335318565368652,5.909783363342285,-0.3097093105316162
1779958313509736200,9.054736083984375,5.264749526977539,6.672789573669434,-0.3965033292770386
1779958313526063600,9.071063720703124,4.8605875968933105,7.0407185554504395,-0.3648034334182739
1779958313542407400,9.087407470703125,3.946974039077759,7.482669353485107,-0.7383582592010498
1779958313558715600,9.103715576171876,2.550004005432129,7.555639743804932,-1.1068177223205566
1779958313575066400,9.12006640625,1.2496092319488525,7.075372219085693,-1.2705163955688477
1779958313591365400,9.136365478515625,-1.417114019393921,6.032176494598389,-1.3942950963974
1779958313607729400,9.1527294921875,-4.302006721496582,3.0641732215881348,-1.1152833700180054
1779958313624065300,9.169065185546875,-8.189370155334473,-6.034902572631836,-0.027932941913604736
1779958313640377300,9.18537744140625,-9.699996948242188,-23.033702850341797,1.2070708274841309
1779958313656733400,9.2017333984375,-9.409832954406738,-15.670756340026855,-1.1121407747268677
1779958313673042200,9.218042236328126,-4.0732831954956055,-1.0277681350708008,-3.3919808864593506
1779958313689369000,9.234369140625,-7.386529922485352,5.625514030456543,-3.4379806518554688
1779958313705701600,9.25070166015625,-5.848804950714111,4.68101167678833,-3.1360557079315186
1779958313722034700,9.26703466796875,0.0695505142211914,-3.2941293716430664,-0.20157122611999512
1779958313738382300,9.28338232421875,9.451647758483887,-9.053428649902344,6.751782417297363
1779958313754712600,9.299712646484375,12.065978050231934,-13.53184700012207,1.1034685373306274
1779958313771046700,9.316046630859375,4.763692855834961,-3.8094377517700195,-4.388368606567383
1779958313787379500,9.33237939453125,-2.613778591156006,3.527798652648926,-6.324752330780029
1779958313803711700,9.348711669921874,-0.7656667232513428,5.694112777709961,-5.575860023498535
1779958313820043500,9.36504345703125,5.200435638427734,5.167990207672119,-1.4001623392105103
1779958313836378000,9.381378173828125,8.407278060913086,3.7654457092285156,0.2756917476654053
1779958313852710400,9.39771044921875,7.791297435760498,2.49759578704834,1.0151994228363037
1779958313869042200,9.414042236328125,6.355991363525391,-2.522357940673828,1.3027690649032593
1779958313885376300,9.430376220703126,6.182335376739502,-8.08591365814209,2.3236489295959473
1779958313901709600,9.44670947265625,0.9837114810943604,-3.3859243392944336,4.649492263793945
1779958313918040800,9.463040771484375,-3.0752439498901367,0.2407207489013672,4.7798261642456055
1779958313934375700,9.479375732421875,-2.140989065170288,2.882634162902832,1.846447229385376
1779958313950696000,9.495696044921875,0.5447539687156677,2.8551177978515625,-0.351287841796875
1779958313967041000,9.512041015625,2.1949877738952637,1.4822053909301758,-1.9328643083572388
1779958313983387000,9.528386962890625,2.987581729888916,0.4726581573486328,-2.249415874481201
1779958313999720000,9.544719970703126,0.5063369274139404,1.4262104034423828,-2.0948898792266846
1779958314016051700,9.5610517578125,-2.8066911697387695,2.172132968902588,-1.7742407321929932
1779958314032384500,9.577384521484374,-5.828981399536133,2.9889135360717773,-1.0995465517044067
1779958314048717000,9.593717041015625,-4.014137268066406,2.6399641036987305,0.1178525984287262
1779958314065050400,9.61005029296875,-1.6154757738113403,1.377598762512207,1.37693452835083
1779958314081352700,9.626352783203124,-1.4873378276824951,0.17959022521972656,2.908886194229126
1779958314097715500,9.642715576171875,-0.5763152837753296,-0.36608028411865234,3.8955845832824707
1779958314114034200,9.6590341796875,-0.9163516759872437,-0.3728017807006836,4.351080894470215
1779958314130361300,9.675361328125,-3.944725275039673,-0.30918312072753906,3.9184861183166504
1779958314146721500,9.691721435546874,-5.5138349533081055,-0.13169574737548828,1.5812357664108276
1779958314163015700,9.708015625,-3.2641141414642334,-1.3426494598388672,1.8277950286865234
1779958314179355000,9.72435498046875,-1.0768120288848877,-1.8531761169433594,3.3789596557617188
1779958314195704300,9.740704345703126,-1.9593045711517334,-0.8984241485595703,4.71315860748291
1779958314212034000,9.757033935546875,-4.7001543045043945,-0.7096424102783203,5.3228960037231445
1779958314228365800,9.77336572265625,-4.739415645599365,-2.1697092056274414,5.458207607269287
1779958314244699400,9.789699462890624,-3.1081221103668213,-3.3034191131591797,5.289046764373779
1779958314261035800,9.806035888671875,-1.8178138732910156,-3.618410110473633,4.745739936828613
1779958314277356500,9.8223564453125,-1.9253243207931519,-3.6953725814819336,3.986140251159668
1779958314293692200,9.838692138671876,-3.0106372833251953,-4.310764312744141,3.4618515968322754
1779958314310034700,9.85503466796875,-2.4464635848999023,-3.9635801315307617,2.7912070751190186
1779958314326362000,9.871362060546875,-0.24265465140342712,-3.0570554733276367,1.2746778726577759
1779958314342699300,9.88769921875,-0.5696219801902771,-2.9894161224365234,-1.3067512512207031
1779958314359028500,9.904028564453125,0.20803727209568024,-4.620842933654785,-4.414011001586914
1779958314375347200,9.92034716796875,3.552703380584717,-5.00026798248291,-4.591142654418945
1779958314391683600,9.93668359375,3.2546820640563965,-3.156961441040039,-3.590639352798462
1779958314408015400,9.953015380859375,2.8969497680664062,-2.060800552368164,-2.987039804458618
1779958314424349000,9.969348876953125,2.2354371547698975,-2.409933090209961,-2.3143563270568848
1779958314440681200,9.98568115234375,0.5314377546310425,-3.207225799560547,-0.6399422883987427
1779958314457030100,10.002030029296876,-1.5117583274841309,-1.5099124908447266,1.9990535974502563
1779958314473359400,10.018359375,-0.5645451545715332,0.24666500091552734,3.713531494140625
1779958314489691400,10.03469140625,2.9722750186920166,-0.2988700866699219,5.362483024597168
1779958314506021400,10.051021484375,2.2080202102661133,0.2221670150756836,4.376437187194824
1779958314522363100,10.067363037109375,1.4142413139343262,1.544827938079834,2.2235021591186523
1779958314538690000,10.08368994140625,2.6044797897338867,2.9115123748779297,0.6735052466392517
1779958314555035000,10.100034912109376,3.713095188140869,3.8830456733703613,-0.007620424032211304
1779958314571372500,10.11637255859375,5.242109775543213,5.144991874694824,-0.4712207317352295
1779958314587707400,10.132707275390626,5.681146621704102,5.7805328369140625,-0.21076864004135132
1779958314604032800,10.14903271484375,6.471132278442383,5.767005920410156,-0.11870044469833374
1779958314620351200,10.165351318359376,6.381232261657715,6.194014549255371,-0.1520482897758484
1779958314636702000,10.181701904296874,5.261247634887695,6.73013973236084,-0.5245439410209656
1779958314653018600,10.1980185546875,3.990738868713379,7.234192371368408,-0.800823986530304
1779958314669353200,10.214353271484375,2.6903719902038574,6.950156211853027,-1.2723479270935059
1779958314685684200,10.230684326171875,0.7127552032470703,5.634863376617432,-1.110376238822937
1779958314702023400,10.2470234375,-2.1043121814727783,2.8714699745178223,-0.6357589960098267
1779958314718352100,10.26335205078125,-6.091892242431641,-5.219011306762695,-0.4107339382171631
1779958314734685400,10.279685546875,-13.185632705688477,-24.81087303161621,-0.40034860372543335
1779958314751005200,10.296005126953125,-11.908303260803223,-14.706231117248535,-1.0629431009292603
1779958314767369500,10.312369384765624,-3.1977744102478027,-1.7221403121948242,-2.883329391479492
1779958314783668000,10.32866796875,-7.393380641937256,5.441880702972412,-3.283932685852051
1779958314800004400,10.34500439453125,-8.2223539352417,7.118215560913086,-2.2943203449249268
1779958314816350500,10.3613505859375,-0.65533447265625,-0.18207931518554688,1.1162441968917847
1779958314832680000,10.377679931640625,4.954368591308594,-9.588428497314453,5.902797698974609
1779958314849017900,10.394017822265624,9.3687105178833,-17.890953063964844,6.049410343170166
1779958314865348400,10.410348388671874,9.304810523986816,-7.7110700607299805,-1.5049521923065186
1779958314881671700,10.426671630859374,3.20898175239563,3.9529223442077637,-5.161643028259277
1779958314898013200,10.44301318359375,-4.183011054992676,8.097757339477539,-5.757938861846924
1779958314914345200,10.45934521484375,2.3163375854492188,7.976105690002441,-3.1619222164154053
1779958314930683600,10.47568359375,7.939258575439453,6.559063911437988,0.026196300983428955
1779958314947013600,10.492013671875,8.459107398986816,3.6289501190185547,0.6355524063110352
1779958314963346000,10.508345947265624,8.420454978942871,-0.8662748336791992,0.4512077569961548
1779958314979681500,10.524681640625,6.707319259643555,-9.3576078414917,0.5719677805900574
1779958314996023300,10.541023193359376,6.123070240020752,-7.264495849609375,2.2974209785461426
1779958315012357000,10.557357177734374,-7.998073577880859,-0.6488189697265625,2.873216152191162
1779958315028690000,10.57368994140625,-2.7629997730255127,1.6998424530029297,1.072692632675171
1779958315045022700,10.590022705078125,2.3797249794006348,1.5095205307006836,-0.7882155776023865
1779958315061339100,10.606339111328126,1.8427022695541382,1.407745361328125,-0.5447234511375427
1779958315077692000,10.62269189453125,1.2137163877487183,0.9223709106445312,-0.4876280426979065
1779958315093990000,10.638989990234375,0.9012473821640015,1.911332130432129,-0.15872228145599365
1779958315110329900,10.655329833984375,0.2573736608028412,2.702451705932617,0.13264086842536926
1779958315126661600,10.67166162109375,-0.4434761106967926,3.1355223655700684,0.2635766267776489
1779958315142995000,10.687994873046875,-2.5459907054901123,2.8805899620056152,0.10556626319885254
1779958315159327700,10.70432763671875,-5.883517742156982,2.0662851333618164,-0.3331550657749176
1779958315175662000,10.720662109375,-4.820255756378174,0.9020671844482422,0.011196494102478027
1779958315191992800,10.736992919921875,-1.5584752559661865,-0.22715377807617188,1.7082210779190063
1779958315208327000,10.753326904296875,0.5632146596908569,-1.2855949401855469,3.8592371940612793
1779958315224660200,10.76966015625,-0.501266598701477,-0.7594242095947266,4.179542064666748
1779958315240991700,10.78599169921875,-4.587913513183594,-0.19928836822509766,3.111663818359375
1779958315257324800,10.80232470703125,-4.926372528076172,-0.6085844039916992,1.9824162721633911
1779958315273658600,10.81865869140625,-1.8608367443084717,-1.3784942626953125,2.6739425659179688
1779958315289991000,10.834990966796875,-0.944953978061676,-1.4920930862426758,4.031492233276367
1779958315306324500,10.851324462890625,-3.2502589225769043,-0.682891845703125,5.526611804962158
1779958315322672400,10.86767236328125,-4.8625969886779785,-0.9086227416992188,6.624711990356445
1779958315339000800,10.884000732421875,-4.1461944580078125,-1.7514562606811523,6.48854923248291
1779958315355335000,10.9003349609375,-3.1913723945617676,-2.0604209899902344,5.152867794036865
1779958315371659000,10.916658935546875,-3.376791477203369,-3.2308578491210938,4.36630916595459
1779958315387999500,10.93299951171875,-2.951023578643799,-3.765115737915039,3.8058674335479736
1779958315404333000,10.9493330078125,-2.1456079483032227,-3.6384334564208984,3.5507333278656006
1779958315420667000,10.9656669921875,-1.759277105331421,-3.449650764465332,3.0821986198425293
1779958315437000000,10.982,-0.11578315496444702,-3.0287742614746094,1.289257526397705
1779958315453332200,10.998332275390625,-1.1647114753723145,-3.232541084289551,-1.9548697471618652
1779958315469663700,11.014663818359375,-0.8202186226844788,-5.122323989868164,-4.728234767913818
1779958315485995500,11.03099560546875,2.870241403579712,-5.899599075317383,-4.869048118591309
1779958315502345500,11.047345458984376,3.9094674587249756,-4.592074394226074,-4.106146812438965
1779958315518683600,11.06368359375,2.76786732673645,-3.102895736694336,-3.2321393489837646
1779958315534994000,11.079993896484375,1.754145860671997,-2.6379213333129883,-2.310441017150879
1779958315551329300,11.096329345703126,1.0242302417755127,-2.8769845962524414,-1.1679446697235107
1779958315567674600,11.112674560546875,-0.5527563095092773,-1.7045831680297852,0.8421874642372131
1779958315584006700,11.129006591796875,-1.2495007514953613,0.8989906311035156,3.025864839553833
1779958315600325600,11.14532568359375,0.3839857578277588,0.7048120498657227,4.1449737548828125
1779958315616674600,11.161674560546874,3.3002865314483643,0.48756980895996094,3.8419840335845947
1779958315632978000,11.17797802734375,3.6433069705963135,0.8612995147705078,2.411234140396118
1779958315649325000,11.194324951171875,3.5628740787506104,2.1832385063171387,0.8048827648162842
1779958315665659400,11.210659423828124,3.988980531692505,3.7520852088928223,-0.018006324768066406
1779958315681979600,11.226979736328126,4.234903335571289,4.814970970153809,-0.463134229183197
1779958315698324500,11.243324462890625,4.792980670928955,5.652160167694092,-0.47659730911254883
1779958315714657300,11.2596572265625,5.820296287536621,5.9085612297058105,0.08318209648132324
1779958315730995200,11.2759951171875,5.793052673339844,6.174865245819092,0.3828597068786621
1779958315747337500,11.29233740234375,5.383205413818359,6.343301773071289,-0.17367583513259888
1779958315763654000,11.30865380859375,4.484771728515625,6.73568058013916,-0.9991570711135864
1779958315779987500,11.324987548828124,2.83412766456604,7.105882167816162,-1.6638997793197632
1779958315796321500,11.341321533203125,1.2173237800598145,6.483967304229736,-2.139496326446533
1779958315812652500,11.357652587890625,-1.4399356842041016,4.856623649597168,-2.006486654281616
1779958315828988400,11.373988525390626,-5.274084091186523,-0.4133119583129883,-1.3312244415283203
1779958315845308400,11.390308349609375,-10.99985408782959,-16.28931427001953,-0.05932837724685669
1779958315861654300,11.406654296875,-11.591691017150879,-22.597328186035156,0.2114269733428955
1779958315877985500,11.422985595703125,-2.8353524208068848,-8.126928329467773,-2.4468369483947754
1779958315894319900,11.43931982421875,-3.7430531978607178,3.5676026344299316,-4.253070831298828
1779958315910652700,11.455652587890626,-9.673154830932617,8.001194953918457,-4.805881500244141
1779958315926987300,11.4719873046875,-4.164055824279785,4.106926918029785,-1.1305134296417236
1779958315943318300,11.488318359375,0.8437433242797852,-4.530732154846191,1.545295238494873
1779958315959650000,11.504650146484375,7.141514301300049,-16.321365356445312,5.25270938873291
1779958315976000500,11.52100048828125,9.538585662841797,-14.155306816101074,0.23668843507766724
1779958315992347100,11.53734716796875,6.917050361633301,1.9023628234863281,-3.254014015197754
1779958316008662300,11.553662353515625,0.6016099452972412,7.557095527648926,-3.4847846031188965
1779958316024981200,11.569981201171874,0.37963175773620605,8.617505073547363,-0.816695511341095
1779958316041323800,11.58632373046875,5.940912246704102,6.639888763427734,0.9893937110900879
1779958316057660400,11.602660400390626,8.204381942749023,3.433694362640381,1.41916823387146
1779958316073993700,11.61899365234375,7.75439453125,-1.1192665100097656,1.555079698562622
1779958316090312400,11.6353125,5.530389785766602,-10.832427024841309,1.8309781551361084
1779958316106664700,11.651664794921874,2.749415874481201,-7.953081130981445,3.428159236907959
1779958316122990600,11.667990478515625,-5.533478736877441,0.2862567901611328,3.605745553970337
1779958316139322600,11.684322509765625,-3.3088412284851074,3.020092010498047,1.7219951152801514
1779958316155641900,11.700641845703124,2.898749828338623,3.334615707397461,-0.7857245802879333
1779958316171971800,11.716971923828124,2.7798938751220703,1.583160400390625,-1.2487484216690063
1779958316188327200,11.7333271484375,2.850189685821533,0.8454456329345703,-1.4874069690704346
1779958316204638700,11.749638671875,1.434251308441162,1.5016021728515625,-1.1812223196029663
1779958316220980200,11.765980224609375,-1.2457010746002197,2.2564187049865723,-0.684779942035675
1779958316237309700,11.782309814453125,-2.0748753547668457,2.740715980529785,-0.669386625289917
1779958316253642500,11.798642578125,-2.9672725200653076,2.715397834777832,-0.6822503209114075
1779958316269962800,11.814962646484375,-3.427061080932617,1.846198558807373,-0.40469494462013245
1779958316286311400,11.8313115234375,-2.7957701683044434,1.105717658996582,0.5078154802322388
1779958316302638300,11.847638427734376,-1.5166085958480835,0.5200920104980469,2.562636613845825
1779958316318975500,11.8639755859375,-0.565711498260498,0.23070907592773438,3.897852659225464
1779958316335306500,11.880306396484375,-2.1817731857299805,0.42186737060546875,3.8268275260925293
1779958316351640300,11.896640380859376,-3.6154391765594482,0.6924600601196289,2.867776870727539
1779958316367971300,11.912971435546876,-3.2425553798675537,-0.34357547760009766,2.269193649291992
1779958316384306400,11.929306396484375,-1.9418725967407227,-1.9528751373291016,2.8181660175323486
1779958316400638200,11.94563818359375,-1.5600371360778809,-2.292872428894043,4.429186820983887
1779958316416972500,11.96197265625,-3.478313446044922,-1.5995159149169922,6.214106559753418
1779958316433302000,11.978302001953125,-4.609858512878418,-1.5062637329101562,6.781888961791992
1779958316449639200,11.99463916015625,-3.4692280292510986,-2.3188352584838867,6.4373698234558105
1779958316465980400,12.01098046875,-1.9069777727127075,-2.8115692138671875,5.683424949645996
1779958316482289700,12.02728955078125,-1.6479192972183228,-3.662862777709961,4.2022480964660645
1779958316498648000,12.04364794921875,-2.1908931732177734,-5.66999626159668,4.020665168762207
1779958316514980400,12.05998046875,-2.1118369102478027,-5.43773078918457,3.824843168258667
1779958316531313700,12.076313720703125,-1.1724621057510376,-3.0630416870117188,1.2990927696228027
1779958316547647000,12.09264697265625,-1.650575041770935,-1.4905595779418945,-1.3239350318908691
1779958316563976400,12.1089765625,-2.38400936126709,-2.879720687866211,-3.7643258571624756
1779958316580302600,12.125302490234375,0.7590569853782654,-4.407995223999023,-4.546486854553223
1779958316596646700,12.141646728515624,3.6073195934295654,-4.488533973693848,-4.158036231994629
1779958316612979500,12.1579794921875,3.061234951019287,-3.7344512939453125,-3.461787700653076
1779958316629310700,12.174310791015625,1.966976284980774,-3.0664491653442383,-2.8787240982055664
1779958316645654000,12.190654052734375,0.5413988828659058,-2.7012948989868164,-1.691122055053711
1779958316661972700,12.20697265625,-0.4331643581390381,-2.29702091217041,-0.4565728008747101
1779958316678305300,12.22330517578125,-1.3472306728363037,-1.306941032409668,0.8836275339126587
1779958316694647000,12.23964697265625,-0.16717219352722168,0.015915870666503906,2.2138566970825195
1779958316710972700,12.25597265625,2.573570966720581,0.7759256362915039,2.8376352787017822
1779958316727310600,12.272310546875,4.3165693283081055,0.6521205902099609,3.101728677749634
1779958316743641600,12.2886416015625,3.4345388412475586,1.4375,2.304290771484375
1779958316759983400,12.3049833984375,4.227307319641113,2.672234058380127,1.196082592010498
1779958316776286700,12.32128662109375,4.007103443145752,3.8103208541870117,0.22752106189727783
1779958316792649500,12.3376494140625,4.201608180999756,5.139803886413574,-0.3873060345649719
1779958316808959000,12.353958984375,4.885876655578613,5.7608642578125,-0.6993203163146973
1779958316825292500,12.37029248046875,5.697210311889648,5.727364540100098,-0.42058467864990234
1779958316841626400,12.38662646484375,6.1068315505981445,5.671745300292969,-0.1863115429878235
1779958316857957600,12.40295751953125,5.587770462036133,6.1178412437438965,-0.8503453135490417
1779958316874288600,12.41928857421875,4.159643650054932,7.009407997131348,-1.6435564756393433
1779958316890627300,12.43562744140625,2.3368258476257324,6.996582984924316,-2.168724775314331
1779958316906959000,12.451958984375,0.33591175079345703,5.925555229187012,-1.8753559589385986
1779958316923274800,12.468274658203125,-2.306360960006714,3.2552900314331055,-1.3044171333312988
1779958316939622000,12.484621826171875,-6.613057613372803,-4.835552215576172,-1.2793662548065186
1779958316955967200,12.50096728515625,-13.40501594543457,-24.405170440673828,-0.9637582898139954
1779958316972279300,12.517279296875,-12.342743873596191,-16.114219665527344,-1.765559196472168
1779958316988633000,12.533633056640625,-3.476681709289551,-1.3856124877929688,-2.7937874794006348
1779958317004970500,12.549970458984374,-6.848757743835449,5.022921085357666,-2.621899127960205
1779958317021292300,12.566292236328126,-4.740542411804199,7.223562717437744,-2.398303985595703
1779958317037658400,12.582658447265626,-1.4718146324157715,1.5159382820129395,-0.39480656385421753
1779958317053965800,12.5989658203125,3.177785634994507,-5.654559135437012,4.20263671875
1779958317070286000,12.6152861328125,14.18942642211914,-14.892448425292969,5.531263828277588
1779958317086625500,12.63162548828125,10.724283218383789,-9.991578102111816,-1.4049590826034546
1779958317102943200,12.647943115234375,-0.7556610107421875,0.7891988754272461,-6.015856742858887
1779958317119297300,12.66429736328125,-5.722689628601074,5.712425708770752,-7.132587909698486
1779958317135630300,12.68063037109375,1.1652336120605469,6.502257347106934,-3.792780637741089
1779958317151962600,12.696962646484375,8.220590591430664,6.028254508972168,-0.436396062374115
1779958317168292400,12.713292236328124,10.09607982635498,3.651251792907715,0.22343885898590088
1779958317184595500,12.729595458984376,8.441730499267578,-0.9463520050048828,0.08538532257080078
1779958317200939300,12.745939208984375,5.636441230773926,-9.711394309997559,-0.40036505460739136
1779958317217269200,12.762269287109374,4.233473777770996,-8.982638359069824,1.678843379020691
1779958317233601500,12.7786015625,-5.586015701293945,-1.2232122421264648,5.481115341186523
1779958317249934300,12.794934326171875,-1.3497376441955566,1.9067268371582031,4.054316997528076
1779958317266268000,12.811267822265625,3.3356573581695557,2.9780163764953613,1.5495909452438354
1779958317282615300,12.827615234375,2.7287158966064453,2.2239065170288086,-0.29726046323776245
1779958317298945300,12.8439453125,1.8168797492980957,1.9721388816833496,-1.6495089530944824
1779958317315278000,12.860278076171875,0.5589159727096558,1.6233243942260742,-2.0008654594421387
1779958317331612200,12.876612060546876,-1.9040725231170654,2.0822806358337402,-2.1530401706695557
1779958317347943200,12.892943115234376,-2.474473476409912,2.4430370330810547,-1.9521609544754028
1779958317364261400,12.909261474609375,-2.2482376098632812,2.430919647216797,-0.9488773345947266
1779958317380600800,12.925600830078125,-2.4475531578063965,1.884939193725586,0.5060678720474243
1779958317396930000,12.941929931640624,-2.5161948204040527,0.9750089645385742,2.2023839950561523
1779958317413273900,12.95827392578125,-1.6861345767974854,0.5390090942382812,3.4695491790771484
1779958317429607700,12.974607666015626,-0.8692786693572998,0.27287864685058594,3.9031901359558105
1779958317445940700,12.990940673828124,-2.6199111938476562,0.8833951950073242,3.721627712249756
1779958317462292000,13.0072919921875,-4.8512678146362305,0.8041820526123047,3.278151512145996
1779958317478622700,13.023622802734375,-3.6285085678100586,-0.28900909423828125,2.696146011352539
1779958317494951700,13.03995166015625,-2.0436017513275146,-1.8970890045166016,3.047201156616211
1779958317511286300,13.056286376953125,-1.8603997230529785,-1.7915925979614258,4.7670111656188965
1779958317527617800,13.07261767578125,-3.706766366958618,-0.8792619705200195,6.2220025062561035
1779958317543933400,13.088933349609375,-4.8544602394104,-1.098318099975586,6.352815628051758
1779958317560255500,13.10525537109375,-3.844602584838867,-2.1918907165527344,5.663925647735596
1779958317576593000,13.121593017578125,-3.349785089492798,-2.0314111709594727,3.958049774169922
1779958317592937000,13.13793701171875,-3.7568204402923584,-3.192737579345703,2.4955897331237793
1779958317609268700,13.154268798828125,-2.7826976776123047,-4.977158546447754,2.630959987640381
1779958317625603000,13.17060302734375,-1.3041768074035645,-4.903351783752441,3.3682243824005127
1779958317641934800,13.186934814453124,-0.9443364143371582,-3.961031913757324,3.0966477394104004
1779958317658267000,13.203266845703125,-0.6946371793746948,-2.3717851638793945,0.6687877774238586
1779958317674602200,13.219602294921875,-1.4215407371520996,-2.332273483276367,-2.6403369903564453
1779958317690939600,13.235939697265625,-1.0977463722229004,-4.753824234008789,-4.548908710479736
1779958317707272700,13.252272705078125,1.758896827697754,-5.740323066711426,-5.101642608642578
1779958317723585500,13.26858544921875,2.4459807872772217,-4.688445091247559,-4.776405334472656
1779958317739922400,13.28492236328125,2.1489179134368896,-2.5989084243774414,-4.181391716003418
1779958317756276200,13.301276123046875,1.8958532810211182,-1.5741157531738281,-3.476384162902832
1779958317772617000,13.317616943359376,0.7804183959960938,-0.9992160797119141,-2.389822006225586
1779958317788944100,13.333944091796875,-1.022766351699829,-0.7961349487304688,-1.2035998106002808
1779958317805277700,13.350277587890625,-0.48798346519470215,0.800786018371582,1.1158530712127686
1779958317821595400,13.366595458984374,1.2365765571594238,0.42199039459228516,2.758439302444458
1779958317837923800,13.382923828125,2.5674095153808594,0.4354991912841797,3.740191698074341
1779958317854249200,13.399249267578124,2.6563258171081543,0.27468204498291016,3.412356376647949
1779958317870596000,13.41559619140625,2.1445486545562744,1.0958261489868164,2.5879666805267334
1779958317886927000,13.431927001953126,3.653477191925049,3.138495922088623,1.4356001615524292
1779958317903258000,13.448258056640626,4.588876247406006,4.245433330535889,0.7918592691421509
1779958317919582000,13.46458203125,5.47374153137207,4.866879463195801,-0.060084402561187744
1779958317935914800,13.480914794921874,5.741003513336182,5.208176612854004,-0.20060914754867554
1779958317952248800,13.497248779296875,5.656286239624023,5.994159698486328,-0.4788001775741577
1779958317968580600,13.51358056640625,4.987074375152588,7.198300361633301,-0.8393648266792297
1779958317984917500,13.52991748046875,3.2514901161193848,8.4330472946167,-1.2375030517578125
1779958318001258500,13.546258544921875,1.8392283916473389,8.268736839294434,-1.237546682357788
1779958318017593300,13.56259326171875,0.3177304267883301,7.5190629959106445,-0.8814159035682678
1779958318033914600,13.57891455078125,-1.7168033123016357,4.576882362365723,-0.43679362535476685
1779958318050235400,13.5952353515625,-6.524314880371094,-5.158461570739746,-0.5511143803596497
1779958318066589700,13.611589599609376,-12.782533645629883,-29.685792922973633,-0.039621055126190186
1779958318082921700,13.627921630859374,-13.192863464355469,-17.248558044433594,-0.47096675634384155
1779958318099268600,13.6442685546875,-1.3579657077789307,-0.4429445266723633,-3.430976390838623
1779958318115598300,13.660598388671875,-8.366215705871582,6.431530475616455,-4.868871688842773
1779958318131939000,13.67693896484375,-4.514385223388672,6.384385108947754,-3.385082960128784
1779958318148266800,13.693266845703125,0.2489643096923828,-3.23270320892334,-1.6869277954101562
1779958318164598500,13.7095986328125,8.657838821411133,-13.684487342834473,5.81010103225708
1779958318180938200,13.725938232421875,10.970973014831543,-15.020479202270508,1.8353668451309204
1779958318197267000,13.742266845703124,9.809074401855469,2.032351016998291,-3.704918384552002
1779958318213600000,13.75860009765625,2.0328369140625,7.046857833862305,-4.665889739990234
1779958318229921000,13.774921142578124,0.0026781558990478516,6.791599273681641,-3.6067991256713867
1779958318246261800,13.79126171875,5.224145889282227,4.812052249908447,-1.2797327041625977
1779958318262602800,13.807602783203125,8.421241760253906,1.3880538940429688,-0.57480788230896
1779958318278929000,13.823928955078125,7.724348068237305,-0.822108268737793,-0.976124107837677
1779958318295247400,13.840247314453125,4.918184757232666,-6.655282020568848,-1.5839332342147827
1779958318311580200,13.856580078125,4.710086345672607,-11.195113182067871,-0.6311488151550293
1779958318327912000,13.872911865234375,-3.727806568145752,-2.8837718963623047,5.548273086547852
1779958318344251000,13.8892509765625,-1.3628123998641968,1.4292984008789062,5.374233722686768
1779958318360581400,13.905581298828125,2.360074281692505,2.7429304122924805,3.298851728439331
1779958318376913400,13.921913330078125,2.9704949855804443,2.57435941696167,1.170729637145996
1779958318393246500,13.93824658203125,2.0051419734954834,2.633923053741455,-0.46387979388237
1779958318409578800,13.954578857421875,1.8828849792480469,2.4422173500061035,-1.9424798488616943
1779958318425908700,13.97090869140625,-0.506604790687561,2.3673996925354004,-3.6404001712799072
1779958318442260000,13.987260009765626,-4.205779075622559,3.28847599029541,-4.538461208343506
1779958318458606600,14.003606689453125,-4.132603168487549,3.2390084266662598,-2.9224276542663574
1779958318474923300,14.01992333984375,-2.215618371963501,2.32027530670166,0.23444347083568573
1779958318491256300,14.03625634765625,-1.2525532245635986,0.7313365936279297,2.9923667907714844
1779958318507591700,14.052591796875,0.013965308666229248,0.1066579818725586,4.8558526039123535
1779958318523927000,14.068927001953124,-1.1071784496307373,-0.09958457946777344,5.01008939743042
1779958318540248000,14.085248046875,-3.5898852348327637,-0.8693923950195312,4.003808975219727
1779958318556587300,14.101587158203126,-2.6965749263763428,0.3459329605102539,1.8189542293548584
1779958318572924200,14.117924072265625,-2.6225733757019043,0.46054840087890625,1.5699694156646729
1779958318589222000,14.134221923828125,-3.468444347381592,-0.49757862091064453,1.9953299760818481
1779958318605561600,14.1505615234375,-2.8536171913146973,-1.6552886962890625,2.8891398906707764
1779958318621894100,14.16689404296875,-1.6269314289093018,-1.4072980880737305,4.470909595489502
1779958318638228000,14.18322802734375,-2.5300846099853516,-1.1048402786254883,5.055185317993164
1779958318654560800,14.199560791015625,-3.140204429626465,-1.636652946472168,4.669707775115967
1779958318670892500,14.215892578125,-2.1662955284118652,-1.2104682922363281,3.0743093490600586
1779958318687225900,14.232225830078125,-3.7948155403137207,-1.4341354370117188,2.1237592697143555
1779958318703558700,14.24855859375,-4.082263946533203,-3.498385429382324,1.8213396072387695
1779958318719891700,14.2648916015625,-2.933922529220581,-4.39768123626709,2.408728837966919
1779958318736223700,14.2812236328125,-3.4037046432495117,-4.078604698181152,3.1410465240478516
1779958318752556800,14.297556884765624,-2.131087303161621,-3.2485923767089844,3.023428440093994
1779958318768892200,14.31389208984375,0.37957072257995605,-1.5242786407470703,1.2879998683929443
1779958318785223000,14.330222900390625,-0.6191380620002747,-1.3281879425048828,-1.6693990230560303
1779958318801558000,14.34655810546875,-0.9895046949386597,-4.192177772521973,-4.296160697937012
1779958318817887500,14.362887451171876,1.6043133735656738,-4.9680376052856445,-4.5351152420043945
1779958318834238200,14.37923828125,1.9765620231628418,-4.603665351867676,-4.118498802185059
1779958318850567000,14.39556689453125,1.5004767179489136,-3.3686676025390625,-3.4713947772979736
1779958318866895600,14.4118955078125,1.5562716722488403,-3.26849365234375,-3.461503505706787
1779958318883235600,14.428235595703125,0.87397301197052,-3.767449378967285,-2.34953236579895
1779958318899564000,14.44456396484375,-0.24345612525939941,-3.1042051315307617,-1.047275185585022
1779958318915895800,14.460895751953124,0.7267885208129883,-0.16637706756591797,0.6430807709693909
1779958318932236500,14.477236572265625,1.3387422561645508,1.4610705375671387,2.0901989936828613
1779958318948577800,14.493577880859375,2.5307087898254395,1.83905029296875,2.7431647777557373
1779958318964904200,14.509904296875,2.8562841415405273,1.5121488571166992,2.6882524490356445
1779958318981245700,14.52624560546875,3.4084486961364746,1.7015228271484375,1.6939598321914673
1779958318997587700,14.542587646484375,2.7297325134277344,3.0629940032958984,1.5179595947265625
1779958319013899500,14.5588994140625,4.2792558670043945,4.433516025543213,1.3142778873443604
1779958319030223600,14.5752236328125,6.296961784362793,5.2453413009643555,1.1378973722457886
1779958319046573600,14.591573486328125,6.617391586303711,6.0405073165893555,0.5437701940536499
1779958319062902300,14.60790234375,5.933938503265381,6.462815761566162,-0.4281095862388611
1779958319079242200,14.6242421875,5.240444183349609,6.808355331420898,-1.1868577003479004
1779958319095573200,14.6405732421875,3.2839720249176025,7.704127311706543,-1.4373096227645874
1779958319111904500,14.656904541015624,1.4518582820892334,8.135016441345215,-1.5211447477340698
1779958319128237000,14.673237060546874,-1.0692412853240967,7.334102153778076,-1.025251865386963
1779958319144571600,14.689571533203125,-3.13071608543396,4.871923923492432,-0.23295003175735474
1779958319160903200,14.705903076171875,-7.806723117828369,-3.5925464630126953,0.05293989181518555
1779958319177237500,14.722237548828126,-12.613213539123535,-24.407695770263672,2.6800613403320312
1779958319193554000,14.738553955078125,-7.834317207336426,-20.062854766845703,0.8370842337608337
1779958319209901000,14.754901123046874,-3.011319160461426,-3.1960668563842773,-2.89411997795105
1779958319226235600,14.771235595703125,-7.330519676208496,4.804992198944092,-3.894185781478882
1779958319242550800,14.78755078125,-4.191332817077637,6.845486164093018,-3.284285068511963
1779958319258903800,14.80390380859375,0.3921988010406494,-0.06743335723876953,-1.2182202339172363
1779958319275234600,14.820234619140624,6.645143508911133,-7.986693382263184,3.0260322093963623
1779958319291550500,14.836550537109375,9.531822204589844,-13.805367469787598,2.3821399211883545
1779958319307885300,14.85288525390625,2.538278818130493,-6.134124755859375,-3.6768605709075928
1779958319324218600,14.869218505859376,1.1385815143585205,3.968552589416504,-5.4706292152404785
1779958319340552200,14.88555224609375,0.4573376178741455,6.107108116149902,-4.101436614990234
1779958319356884000,14.901884033203125,4.236891746520996,5.89616060256958,-1.136030673980713
1779958319373217300,14.91821728515625,8.08271312713623,5.024606227874756,0.2803824245929718
1779958319389552000,14.93455224609375,7.804502487182617,2.2270846366882324,0.580460786819458
1779958319405876000,14.9508759765625,6.812891006469727,-1.1523456573486328,0.6173115372657776
1779958319422223000,14.96722314453125,4.874233245849609,-9.488007545471191,0.43195825815200806
1779958319438561800,14.983561767578125,-1.2498977184295654,-8.316572189331055,4.174811840057373
1779958319454878500,14.99987841796875,-3.509580612182617,-0.6179351806640625,5.3753886222839355
1779958319471227600,15.0162275390625,-0.9370221495628357,2.207542896270752,3.4712963104248047
1779958319487565600,15.032565673828126,2.0841736793518066,2.587977409362793,0.9472291469573975
1779958319503892500,15.048892578125,1.4909509420394897,1.9160447120666504,-0.5037257671356201
1779958319520215800,15.0652158203125,1.7617688179016113,1.9065308570861816,-1.1770094633102417
1779958319536555800,15.0815556640625,3.2385611534118652,1.7932167053222656,-1.713781476020813
1779958319552891400,15.097891357421876,1.2253930568695068,2.598325729370117,-1.5964527130126953
1779958319569227500,15.1142275390625,-2.2455546855926514,2.7916722297668457,-1.2968961000442505
1779958319585558000,15.13055810546875,-5.4870781898498535,2.577310085296631,-1.2794742584228516
1779958319601889000,15.146888916015625,-4.552382946014404,2.0881528854370117,-0.7555519342422485
1779958319618204700,15.16320458984375,-2.1042728424072266,0.6924257278442383,1.2900784015655518
1779958319634559700,15.179559814453125,-0.5346688628196716,-0.12473297119140625,3.5305333137512207
1779958319650888000,15.195887939453126,0.2935965061187744,-0.32016563415527344,4.431268692016602
1779958319667222800,15.212222900390625,-1.4751405715942383,-0.4185609817504883,4.504345417022705
1779958319683552300,15.22855224609375,-5.133884429931641,-0.4348268508911133,3.518852710723877
1779958319699895000,15.24489501953125,-5.8196120262146,-0.18132305145263672,1.7770359516143799
1779958319716213200,15.261213134765624,-2.6855082511901855,-1.0304241180419922,2.780149459838867
1779958319732554000,15.277553955078124,-0.6574753522872925,-1.6613883972167969,4.382439136505127
1779958319748889600,15.2938896484375,-3.0275142192840576,-0.950688362121582,5.512211322784424
1779958319765219600,15.310219482421875,-5.776142597198486,-0.6919393539428711,6.037840843200684
1779958319781535500,15.326535400390625,-4.437731742858887,-1.2806568145751953,4.792885780334473
1779958319797870800,15.342870849609374,-3.4849843978881836,-2.1613664627075195,4.335176944732666
1779958319814204200,15.3592041015625,-3.245743989944458,-3.3593673706054688,3.907848358154297
1779958319830537200,15.375537109375,-2.0766983032226562,-3.596369743347168,3.395475149154663
1779958319846868500,15.391868408203125,-1.8768348693847656,-3.4378232955932617,3.1589195728302
1779958319863186000,15.40818603515625,-1.0782686471939087,-3.4235610961914062,2.4702305793762207
1779958319879537700,15.42453759765625,0.24013423919677734,-3.7905025482177734,1.1208730936050415
1779958319895863600,15.440863525390625,-0.45972058176994324,-4.863306045532227,-1.6720629930496216
1779958319912191200,15.457191162109375,0.869113564491272,-5.529335021972656,-4.459252834320068
1779958319928552400,15.473552490234376,2.678140640258789,-4.97556209564209,-4.744908809661865
1779958319944879400,15.48987939453125,2.7699570655822754,-2.5179319381713867,-3.5912580490112305
1779958319961212200,15.506212158203125,2.4447128772735596,-1.5714435577392578,-2.7400102615356445
1779958319977546200,15.522546142578125,2.6745223999023438,-2.076963424682617,-2.5345215797424316
1779958319993904400,15.538904296875,0.053565025329589844,-2.697481155395508,-1.3853583335876465
1779958320010206700,15.555206787109375,-0.9517049789428711,-2.106337547302246,0.3203815519809723
1779958320026540800,15.571540771484376,-0.020383358001708984,-0.7412137985229492,2.2582221031188965
1779958320042880800,15.587880859375,2.4835762977600098,0.015535354614257812,3.31253981590271
1779958320059209500,15.60420947265625,2.4922866821289062,0.7629175186157227,3.167389392852783
1779958320075543000,15.62054296875,1.9328970909118652,1.4109387397766113,2.21484637260437
1779958320091859200,15.636859130859374,2.5462653636932373,2.863861083984375,1.2404375076293945
1779958320108207600,15.65320751953125,4.375319480895996,4.17508602142334,1.0210672616958618
1779958320124541400,15.66954150390625,5.0858893394470215,4.9584550857543945,0.8047399520874023
1779958320140875300,15.685875244140625,5.838131904602051,5.257526874542236,0.46025869250297546
1779958320157201200,15.702201171875,6.156611442565918,5.461822509765625,0.002879321575164795
1779958320173548500,15.718548583984376,6.074387073516846,5.978646278381348,-0.34124958515167236
1779958320189869300,15.734869384765625,5.182678699493408,6.783719062805176,-0.6858202815055847
1779958320206190000,15.751190185546875,3.6342267990112305,7.452700614929199,-1.2433315515518188
1779958320222524400,15.7675244140625,1.3862862586975098,6.943304061889648,-1.5172351598739624
1779958320238861800,15.78386181640625,-0.426985502243042,5.7202863693237305,-1.0995397567749023
1779958320255176200,15.80017626953125,-3.092721939086914,1.0555915832519531,-0.6513583660125732
1779958320271524000,15.816524169921875,-7.605695724487305,-13.236878395080566,-0.17832106351852417
1779958320287846100,15.83284619140625,-15.572582244873047,-25.354541778564453,0.5347055792808533
1779958320304189000,15.84918896484375,-7.724721431732178,-9.62636661529541,-2.1736690998077393
1779958320320522200,15.865522216796874,-5.158067226409912,2.646512508392334,-3.4105443954467773
1779958320336856800,15.88185693359375,-7.990114688873291,7.809262752532959,-1.3668639659881592
1779958320353187800,15.898187744140625,-1.1129319667816162,8.980817794799805,1.0995041131973267
1779958320369519000,15.91451904296875,1.5048009157180786,2.1027212142944336,3.7176785469055176
1779958320385857800,15.93085791015625,11.37222957611084,-6.677912712097168,5.955467224121094
1779958320402186000,15.94718603515625,14.056605339050293,-16.834815979003906,2.0035061836242676
1779958320418537500,15.963537353515624,-3.4959158897399902,-11.92843246459961,-3.640183925628662
1779958320434868000,15.979867919921874,-2.362804412841797,0.17713165283203125,-6.637939453125
1779958320451196400,15.996196533203126,0.9439733028411865,6.601744174957275,-7.4016523361206055
1779958320467531000,16.012531005859376,4.577895164489746,6.041285514831543,-1.476889729499817
1779958320483868000,16.028867919921876,7.5417633056640625,4.506279468536377,0.28234267234802246
1779958320500173000,16.045173095703124,7.99501371383667,3.2817506790161133,-0.28536152839660645
1779958320516529200,16.061529052734375,5.80061149597168,-0.5942211151123047,-0.47603482007980347
1779958320532843000,16.077843017578125,5.10908317565918,-8.361011505126953,-0.029884696006774902
1779958320549170000,16.094169921875,0.881767749786377,-6.375770568847656,3.17423415184021
1779958320565517300,16.110517333984376,-3.1545305252075195,-1.2841854095458984,5.778719902038574
1779958320581852000,16.126851806640627,0.8149918913841248,1.6954469680786133,5.13093376159668
1779958320598179000,16.143178955078124,3.551949977874756,2.7223563194274902,2.8149325847625732
1779958320614511900,16.159511962890626,1.8999297618865967,2.7776870727539062,0.5986248850822449
1779958320630824200,16.17582421875,-0.4011884927749634,2.6558613777160645,-1.1008445024490356
1779958320647181800,16.192181884765624,-1.8975661993026733,1.617304801940918,-3.105743646621704
1779958320663525000,16.208525146484376,-2.1121068000793457,2.0602035522460938,-4.986077785491943
1779958320679858400,16.2248583984375,-2.304889678955078,2.8175034523010254,-4.546869277954102
1779958320696157700,16.24115771484375,-1.9310609102249146,2.5117130279541016,-1.921134352684021
1779958320712496600,16.25749658203125,-1.436481237411499,0.9282312393188477,1.2426178455352783
1779958320728831500,16.27383154296875,-0.453277587890625,-0.2210836410522461,3.7404861450195312
1779958320745165600,16.29016552734375,-1.1357370615005493,-0.17214584350585938,4.925295829772949
1779958320761508400,16.30650830078125,-3.0227675437927246,-0.40032196044921875,4.093232154846191
1779958320777841000,16.3228408203125,-2.5812230110168457,0.12339496612548828,2.278254985809326
1779958320794174200,16.33917431640625,-1.7684868574142456,0.11955738067626953,2.2466959953308105
1779958320810494000,16.355493896484376,-3.0468947887420654,-0.575800895690918,3.4255905151367188
1779958320826826000,16.371825927734374,-3.1265053749084473,-1.9093456268310547,4.736051082611084
1779958320843173000,16.388173095703124,-1.7827867269515991,-1.7836809158325195,5.92577600479126
1779958320859503000,16.404503173828125,-2.5050907135009766,-0.6929769515991211,6.090665817260742
1779958320875840000,16.420840087890625,-3.4290804862976074,-0.6923465728759766,5.231838226318359
1779958320892169700,16.437169677734374,-2.796567440032959,-1.5325431823730469,4.731356143951416
1779958320908501500,16.45350146484375,-3.0074901580810547,-3.155458450317383,4.108156204223633
1779958320924833300,16.469833251953126,-3.2519283294677734,-4.682950019836426,2.5119497776031494
1779958320941182000,16.486181884765625,-2.2764153480529785,-4.851062774658203,2.472651481628418
1779958320957515300,16.502515380859375,-1.5938090085983276,-3.8969621658325195,3.1553897857666016
1779958320973848600,16.5188486328125,-0.5267274975776672,-3.1505250930786133,2.1997082233428955
1779958320990171100,16.535171142578125,-0.6096750497817993,-2.745656967163086,-0.28752100467681885
1779958321006514000,16.551513916015626,-1.1374804973602295,-4.485729217529297,-2.95125675201416
1779958321022847000,16.567846923828125,1.2106431722640991,-4.682552337646484,-3.2819952964782715
1779958321039167500,16.58416748046875,2.6844754219055176,-3.323552131652832,-3.089669942855835
1779958321055495200,16.6004951171875,2.0865471363067627,-1.7645463943481445,-2.8114490509033203
1779958321071832300,16.616832275390625,1.00178861618042,-1.0627260208129883,-2.6660268306732178
1779958321088169700,16.633169677734376,0.49659955501556396,-1.4436702728271484,-2.307196855545044
1779958321104497400,16.649497314453125,-1.363081932067871,-2.061063766479492,-1.363348364830017
1779958321120831000,16.6658310546875,-0.7140974998474121,-1.9940710067749023,0.24809908866882324
1779958321137163000,16.6821630859375,1.704586148262024,0.31424808502197266,1.2017252445220947
1779958321153500700,16.698500732421873,3.3247580528259277,1.744466781616211,2.2558555603027344
1779958321169841200,16.714841064453125,3.3225343227386475,2.2321691513061523,2.66740083694458
1779958321186172400,16.73117236328125,2.782058000564575,1.9936027526855469,2.6248936653137207
1779958321202504000,16.74750390625,3.7181875705718994,2.284701347351074,2.058417797088623
1779958321218839300,16.76383935546875,4.819647312164307,3.209197998046875,1.543914794921875
1779958321235174100,16.780174072265623,5.588310241699219,3.7460618019104004,0.6155397891998291
1779958321251489800,16.79648974609375,5.133677959442139,3.8493523597717285,0.06595909595489502
1779958321267824000,16.81282421875,5.059935092926025,4.514247894287109,-0.32084131240844727
1779958321284160000,16.829159912109375,5.0564680099487305,5.307729721069336,-0.8072391748428345
1779958321300477700,16.845477783203126,4.452208042144775,6.032647132873535,-1.2549885511398315
1779958321316823800,16.86182373046875,3.098668336868286,6.714372634887695,-1.4411104917526245
1779958321333157000,16.8781572265625,1.153235912322998,6.6239423751831055,-1.6788426637649536
1779958321349488400,16.89448828125,-1.1326754093170166,5.885318279266357,-1.2466901540756226
1779958321365821700,16.91082177734375,-4.360909461975098,1.8674750328063965,-0.6434929966926575
1779958321382156000,16.927156005859374,-10.432432174682617,-9.89599895477295,-0.3498871922492981
1779958321398486800,16.94348681640625,-13.465614318847656,-22.771921157836914,1.9861186742782593
1779958321414818300,16.959818359375,-3.5067665576934814,-12.77996826171875,-0.8300145864486694
1779958321431164000,16.976163818359375,-2.619943618774414,-0.2409048080444336,-4.200350761413574
1779958321447474000,16.992473876953124,-6.225254535675049,6.9007673263549805,-5.141216278076172
1779958321463806000,17.008805908203126,-2.2613468170166016,8.833537101745605,-2.7611465454101562
1779958321480141800,17.025141845703125,-1.4538993835449219,2.7213134765625,-1.020526647567749
1779958321496473000,17.04147314453125,1.1388483047485352,-3.0170106887817383,1.2144478559494019
1779958321512807200,17.05780712890625,12.263837814331055,-12.153905868530273,3.1955573558807373
1779958321529141500,17.0741416015625,6.77819299697876,-14.5430269241333,-1.6451727151870728
1779958321545469700,17.0904697265625,-0.02173018455505371,-3.159311294555664,-3.9244437217712402
1779958321561816300,17.10681640625,1.1922718286514282,3.455117702484131,-4.384636402130127
1779958321578150700,17.123150634765626,3.5889554023742676,5.531148910522461,-2.36324405670166
1779958321594481200,17.139481201171876,6.166092872619629,4.867806911468506,0.8941912651062012
1779958321610814700,17.155814697265626,6.973764419555664,3.1166558265686035,1.715046763420105
1779958321627147500,17.1721474609375,6.79109525680542,-0.07376289367675781,1.7948417663574219
1779958321643498500,17.18849853515625,5.860844135284424,-4.187897682189941,1.9744558334350586
1779958321659824600,17.20482470703125,3.9775876998901367,-3.8407106399536133,3.3600974082946777
1779958321676139800,17.221139892578126,-2.105900764465332,-1.7344017028808594,3.9940598011016846
1779958321692499000,17.2374990234375,-1.95002019405365,1.1574592590332031,2.7310612201690674
1779958321708825000,17.2538251953125,0.64789879322052,2.568896770477295,0.44702252745628357
1779958321725156400,17.27015625,2.3476450443267822,1.9467263221740723,-1.3030779361724854
1779958321741474300,17.286474365234376,1.9545527696609497,1.1629438400268555,-2.0673255920410156
1779958321757809000,17.302808837890623,0.9349611401557922,0.9063997268676758,-2.1559948921203613
1779958321774144300,17.319144287109374,-1.0618528127670288,1.4215478897094727,-1.6002660989761353
1779958321790474000,17.335473876953124,-2.284360408782959,2.087390899658203,-0.49066194891929626
1779958321806805800,17.3518056640625,-2.2737152576446533,2.259308338165283,0.5082219839096069
1779958321823128600,17.368128662109374,-2.2515950202941895,1.3436660766601562,1.2934901714324951
1779958321839476500,17.3844765625,-1.9131286144256592,0.763026237487793,2.0095553398132324
1779958321855806700,17.400806640625,-0.6135147213935852,0.5145883560180664,2.8529529571533203
1779958321872139800,17.417139892578124,-0.5946583151817322,0.3014249801635742,3.40847110748291
1779958321888471300,17.43347119140625,-2.5485873222351074,0.029366493225097656,3.622905731201172
1779958321904805600,17.4498056640625,-3.2554938793182373,0.46762752532958984,2.930746078491211
1779958321921138200,17.46613818359375,-2.547584056854248,0.70709228515625,2.137941837310791
1779958321937487600,17.482487548828125,-2.672426223754883,-0.3340425491333008,2.591413974761963
1779958321953818400,17.498818359375,-3.3378653526306152,-1.6591501235961914,3.3019542694091797
1779958321970137300,17.515137451171874,-2.0622546672821045,-1.8090333938598633,4.325435638427734
1779958321986482400,17.531482421875,-1.7912911176681519,-1.1609678268432617,5.218502044677734
1779958322002838300,17.54783837890625,-2.8749794960021973,-0.9322137832641602,5.446882247924805
1779958322019143700,17.564143798828123,-2.9272165298461914,-1.3018989562988281,5.1961517333984375
1779958322035485400,17.5804853515625,-3.4420006275177,-1.7351570129394531,4.872865676879883
1779958322051778800,17.59677880859375,-3.10868501663208,-2.7671051025390625,3.488860607147217
1779958322068143000,17.61314306640625,-2.5199737548828125,-4.274840354919434,3.2905828952789307
1779958322084447500,17.629447509765626,-1.9768517017364502,-4.538829803466797,4.073254585266113
1779958322100788000,17.6457880859375,-2.0320634841918945,-3.7881736755371094,3.7411441802978516
1779958322117118200,17.6621181640625,-0.9153644442558289,-1.8142127990722656,0.9255452752113342
1779958322133454000,17.6784541015625,-1.8569344282150269,-1.7254714965820312,-2.2692244052886963
1779958322149785900,17.694785888671873,-1.4923772811889648,-4.527701377868652,-4.390057563781738
1779958322166117600,17.71111767578125,1.69157075881958,-5.694361686706543,-4.609945297241211
1779958322182450200,17.7274501953125,2.698396921157837,-4.822493553161621,-4.0575151443481445
1779958322198783500,17.743783447265624,2.239861488342285,-3.260110855102539,-3.34480357170105
1779958322215116000,17.760115966796874,1.661545991897583,-2.5750770568847656,-2.6481003761291504
1779958322231448800,17.77644873046875,0.8186355829238892,-2.4186954498291016,-1.527740478515625
1779958322247782000,17.792781982421875,-0.2463688850402832,-1.580306053161621,-0.3044368028640747
1779958322264130000,17.809130126953125,-0.9872221946716309,-0.2657890319824219,1.4611581563949585
1779958322280501200,17.825501220703124,0.19058704376220703,1.2314424514770508,2.8561651706695557
1779958322296792800,17.841792724609373,2.799114465713501,1.366776466369629,3.4617838859558105
1779958322313126000,17.8581259765625,3.4189467430114746,0.6330661773681641,3.842461585998535
1779958322329457000,17.874456787109374,3.979813575744629,1.3194069862365723,2.520005464553833
1779958322345791000,17.890791015625,3.3103537559509277,2.60111665725708,1.3120367527008057
1779958322362124500,17.90712451171875,3.4239771366119385,3.3564610481262207,0.6901916861534119
1779958322378455000,17.923455078125,5.491197109222412,4.721593856811523,-0.19376075267791748
1779958322394789000,17.9397890625,5.925211429595947,5.781500816345215,-0.5290430784225464
1779958322411139800,17.956139892578125,5.58059024810791,6.218952178955078,-0.4517127275466919
1779958322427454200,17.9724541015625,4.801028251647949,6.23000431060791,-0.3740382194519043
1779958322443802000,17.988802001953125,4.691361427307129,6.780404090881348,-0.9054582118988037
1779958322460133000,18.005133056640624,3.3261122703552246,7.316686630249023,-1.3748668432235718
1779958322476467000,18.021467041015626,1.1770265102386475,7.233083724975586,-1.8116222620010376
1779958322492801500,18.037801513671877,-0.9425699710845947,6.18214750289917,-1.6214929819107056
1779958322509131500,18.054131591796875,-5.032069206237793,1.4928865432739258,-1.396045446395874
1779958322525464800,18.07046484375,-14.063154220581055,-13.329591751098633,-0.7443142533302307
1779958322541795600,18.086795654296875,-12.618849754333496,-26.648189544677734,2.1656031608581543
1779958322558131500,18.10313134765625,-0.7618787288665771,-12.548432350158691,-1.2076466083526611
1779958322574463700,18.119463623046876,-3.4284777641296387,2.021005630493164,-4.809060573577881
1779958322590784500,18.135784423828124,-7.5088090896606445,9.162814140319824,-7.328197956085205
1779958322607110400,18.1521103515625,-2.728175640106201,6.2658257484436035,-4.282817840576172
1779958322623465000,18.16846484375,0.37784242630004883,-2.1104555130004883,-2.0739808082580566
1779958322639793000,18.18479296875,7.015397071838379,-11.110074043273926,3.2786145210266113
1779958322656126500,18.20112646484375,10.054431915283203,-14.809226989746094,0.5415514707565308
1779958322672474400,18.217474365234374,2.4225704669952393,-1.1082687377929688,-3.808643341064453
1779958322688772000,18.233772216796876,3.693847894668579,4.408102989196777,-1.9334242343902588
1779958322705126100,18.250126220703127,3.9605937004089355,6.186941623687744,-0.005341947078704834
1779958322721442800,18.26644287109375,5.4248151779174805,5.799005508422852,1.8082255125045776
1779958322737777700,18.282777587890624,7.100612163543701,2.8419761657714844,2.025846242904663
1779958322754111000,18.299111083984375,7.767464637756348,0.10205554962158203,1.7453727722167969
1779958322770431000,18.315430908203126,6.6097092628479,-6.204122543334961,1.2569537162780762
1779958322786777600,18.331777587890624,4.145595073699951,-8.84465503692627,2.3756096363067627
1779958322803109400,18.348109375,-3.9501729011535645,-2.7929563522338867,4.231959819793701
1779958322819441700,18.364441650390624,-2.68234920501709,1.579594612121582,2.7084946632385254
1779958322835775500,18.380775390625,0.7866857647895813,2.9096226692199707,0.48490411043167114
1779958322852107800,18.397107666015625,1.9170478582382202,2.1852869987487793,-0.8715214133262634
1779958322868439600,18.413439453125,2.5310447216033936,1.5623130798339844,-1.5241339206695557
1779958322884774700,18.429774658203126,2.902541399002075,1.3833341598510742,-1.7954424619674683
1779958322901106000,18.44610595703125,0.8682752251625061,2.216919422149658,-0.9801982045173645
1779958322917456100,18.4624560546875,-1.2511684894561768,2.516969680786133,-0.4906463623046875
1779958322933784300,18.478784423828124,-3.80767822265625,2.988050937652588,-0.23534096777439117
1779958322950119700,18.49511962890625,-4.5107316970825195,2.4851508140563965,-0.19530817866325378
1779958322966453800,18.511453857421873,-2.4511096477508545,1.2518138885498047,0.9146130084991455
1779958322982784300,18.5277841796875,-0.8298184871673584,0.5566377639770508,3.0354502201080322
1779958322999091000,18.544091064453124,-0.06164991855621338,-0.11860370635986328,4.293175220489502
1779958323015449600,18.56044970703125,-2.3337717056274414,0.10407638549804688,4.235546112060547
1779958323031787000,18.576787109375,-3.997706890106201,0.531590461730957,3.4385788440704346
1779958323048111900,18.59311181640625,-2.608725070953369,0.1254730224609375,2.2092671394348145
1779958323064431600,18.609431640625,-1.834181785583496,-2.130825996398926,2.0038743019104004
1779958323080781300,18.62578125,-1.92060387134552,-2.4624881744384766,2.70660400390625
1779958323097113900,18.64211376953125,-2.569545269012451,-1.1070499420166016,4.433709621429443
1779958323113451500,18.658451416015627,-3.662097930908203,-0.7299690246582031,5.728695392608643
1779958323129779000,18.674779052734376,-3.941549777984619,-1.9704914093017578,6.230685234069824
1779958323146093300,18.69109326171875,-2.877753973007202,-2.0269947052001953,5.042154788970947
1779958323162431500,18.707431396484374,-3.5177688598632812,-2.017669677734375,4.085144519805908
1779958323178764000,18.723763916015624,-3.3481321334838867,-3.4726390838623047,3.4221110343933105
1779958323195095000,18.740094970703126,-2.4700465202331543,-4.044686317443848,3.850031852722168
1779958323211430400,18.756430419921877,-1.9695063829421997,-3.681136131286621,4.229923248291016
1779958323227749000,18.7727490234375,-0.6494585871696472,-2.40067195892334,2.3698394298553467
1779958323244098600,18.7890986328125,-1.428701400756836,-1.9455680847167969,-0.47747766971588135
1779958323260428500,18.805428466796876,-2.2975354194641113,-4.483334541320801,-3.5521862506866455
1779958323276762400,18.821762451171875,1.7331278324127197,-6.338544845581055,-4.187831878662109
1779958323293092600,18.838092529296876,3.6884636878967285,-5.726661682128906,-3.7842888832092285
1779958323309425200,18.854425048828126,3.445056438446045,-3.697540283203125,-2.8869705200195312
1779958323325759200,18.87075927734375,1.6783396005630493,-2.454914093017578,-2.34346079826355
1779958323342092500,18.887092529296876,0.24221837520599365,-3.1192092895507812,-1.5499427318572998
1779958323358423300,18.90342333984375,-2.0456180572509766,-3.266383171081543,-0.3472769260406494
1779958323374757400,18.91975732421875,-1.0058434009552002,-0.46868228912353516,2.421409845352173
1779958323391079700,18.93607958984375,1.420652985572815,1.1183137893676758,3.916269302368164
1779958323407424000,18.952424072265625,3.5108249187469482,1.2076683044433594,4.242439270019531
1779958323423772400,18.9687724609375,3.1145267486572266,1.0471429824829102,3.4156179428100586
1779958323440107000,18.98510693359375,2.878645420074463,1.3256983757019043,2.012819528579712
1779958323456431400,19.001431396484374,4.314703464508057,2.487936496734619,0.8659768104553223
1779958323472768000,19.01776806640625,5.062438488006592,3.8972573280334473,0.251075804233551
1779958323489117200,19.0341171875,5.958279609680176,5.226903915405273,-0.30723971128463745
1779958323505433000,19.05043310546875,7.067372798919678,5.937190055847168,-0.4482240676879883
1779958323521768400,19.0667685546875,6.411386489868164,6.248422622680664,-0.354164183139801
1779958323538097700,19.08309765625,5.476154804229736,6.766144752502441,-1.065646767616272
1779958323554416400,19.09941650390625,4.274909019470215,7.620937347412109,-1.9741830825805664
1779958323570763500,19.115763427734375,2.340440273284912,7.938926696777344,-2.432389736175537
1779958323587108900,19.13210888671875,1.1115498542785645,7.1915998458862305,-1.99727463722229
1779958323603410700,19.14841064453125,-0.7719166278839111,5.226591110229492,-1.0686888694763184
1779958323619765000,19.164764892578123,-4.1154704093933105,-0.7086524963378906,-0.1914946436882019
1779958323636104000,19.18110400390625,-7.3774333000183105,-16.46210479736328,0.4997832775115967
1779958323652478500,19.197478515625,-14.18006706237793,-24.549163818359375,0.6318891048431396
1779958323668760300,19.21376025390625,-5.386298179626465,-7.8062238693237305,-2.4005489349365234
1779958323685110500,19.230110595703124,-5.082006931304932,3.478240966796875,-3.8326146602630615
1779958323701410600,19.24641064453125,-8.043085098266602,7.35319709777832,-4.684704780578613
1779958323717745200,19.2627451171875,-1.0288684368133545,1.9874701499938965,-1.9800869226455688
1779958323734063000,19.27906298828125,2.1493923664093018,-6.53270149230957,1.1513521671295166
1779958323750401500,19.295401611328124,11.321822166442871,-18.162601470947266,4.812946319580078
1779958323766744800,19.311744873046877,8.888486862182617,-11.59595775604248,-0.5008716583251953
1779958323783077400,19.328077392578123,2.5517160892486572,4.241270542144775,-4.444324016571045
1779958323799409400,19.344409423828125,1.6926255226135254,8.154867172241211,-3.3014371395111084
1779958323815742500,19.360742431640624,2.7731523513793945,8.45429515838623,-0.6662911772727966
1779958323832076300,19.377076171875,7.099416255950928,5.500055313110352,0.5879737138748169
1779958323848407600,19.393407470703124,8.990256309509277,2.8278937339782715,0.3278971314430237
1779958323864741400,19.409741455078127,8.127851486206055,0.10394096374511719,-0.04844319820404053
1779958323881074200,19.42607421875,5.306733131408691,-5.966649055480957,-0.3067060112953186
1779958323897394000,19.442393798828125,3.8221144676208496,-9.124985694885254,0.11927515268325806
1779958323913737700,19.45873779296875,-5.729014873504639,-1.611464500427246,4.227376461029053
1779958323930073900,19.475073974609376,-0.43657445907592773,2.1488094329833984,3.443263292312622
1779958323946417000,19.4914169921875,3.629558563232422,2.60121488571167,1.7569615840911865
1779958323962756900,19.5077568359375,2.350224256515503,1.9726839065551758,0.8852629661560059
1779958323979055000,19.52405517578125,1.5490782260894775,1.5278167724609375,-0.31148695945739746
1779958323995403800,19.54040380859375,1.5641762018203735,1.2282466888427734,-0.6379609107971191
1779958324011736800,19.55673681640625,-1.8818390369415283,1.7239856719970703,-0.10074222087860107
1779958324028072000,19.573072021484375,-3.989590644836426,2.3022780418395996,0.011711716651916504
1779958324044401400,19.5894013671875,-4.066267490386963,2.200634002685547,-0.37181252241134644
1779958324060722400,19.605722412109376,-3.1764883995056152,1.1777257919311523,0.025804102420806885
1779958324077070300,19.6220703125,-2.0358476638793945,0.1740550994873047,1.7997846603393555
1779958324093414700,19.63841455078125,-0.719040036201477,-0.3162546157836914,3.157440423965454
1779958324109746000,19.654745849609377,-0.2888542413711548,-0.1826639175415039,3.756383180618286
1779958324126073000,19.671072998046874,-3.31648588180542,-0.34481239318847656,3.8492066860198975
1779958324142427000,19.687427001953125,-5.317575454711914,0.22266864776611328,2.239840507507324
1779958324158747100,19.7037470703125,-3.4932708740234375,0.2611246109008789,1.208526849746704
1779958324175078100,19.720078125,-1.6985251903533936,-0.9576711654663086,2.8968594074249268
1779958324191394600,19.73639453125,-1.1524358987808228,-1.3641529083251953,4.374523639678955
1779958324207715000,19.752715087890625,-2.7424380779266357,-0.27361488342285156,5.338136196136475
1779958324224050400,19.769050537109376,-4.208949565887451,-0.3196449279785156,5.7767333984375
1779958324240383000,19.785383056640626,-3.5445148944854736,-1.538609504699707,5.87380313873291
1779958324256715300,19.80171533203125,-2.3200864791870117,-2.7202911376953125,5.812779426574707
1779958324273050400,19.81805029296875,-2.0450034141540527,-2.999788284301758,4.582546234130859
1779958324289393400,19.834393310546876,-3.6132283210754395,-4.1215972900390625,3.001387119293213
1779958324305724000,19.850723876953126,-3.706112861633301,-4.722773551940918,2.639326333999634
1779958324322062800,19.867062744140625,-1.4575812816619873,-3.154033660888672,1.9758915901184082
1779958324338390800,19.883390869140626,0.37195390462875366,-2.0734615325927734,-0.28127381205558777
1779958324354724600,19.899724609375,-1.3014780282974243,-3.2425403594970703,-2.8329837322235107
1779958324371058000,19.916057861328124,0.46178731322288513,-5.390298843383789,-4.256945610046387
1779958324387379000,19.93237890625,1.9959895610809326,-5.2767333984375,-4.449976921081543
1779958324403722500,19.948722412109376,1.5261561870574951,-3.754666328430176,-3.804631471633911
1779958324420058600,19.96505859375,1.7357019186019897,-2.706005096435547,-3.243889331817627
1779958324436402200,19.981402099609376,1.5901025533676147,-2.4825735092163086,-2.2065505981445312
1779958324452732400,19.997732421875,1.8272327184677124,-2.977288246154785,-0.39467084407806396
1779958324469075700,20.01407568359375,0.07430243492126465,-1.5743474960327148,1.7660765647888184
1779958324485398300,20.030398193359375,-0.1925976276397705,-0.2969980239868164,3.096353769302368
1779958324501732900,20.04673291015625,1.6357405185699463,0.12075424194335938,3.7214341163635254
1779958324518075400,20.063075439453126,3.489192247390747,0.92120361328125,2.7815661430358887
1779958324534400300,20.079400146484375,3.092440366744995,1.3224749565124512,1.5928351879119873
1779958324550719700,20.0957197265625,3.189579725265503,2.1757631301879883,0.7591585516929626
1779958324567065000,20.112065185546875,3.804697275161743,3.588420867919922,0.3058512806892395
1779958324583398700,20.128398681640626,4.487100601196289,4.538600921630859,0.4430510997772217
1779958324599723000,20.144722900390626,5.789242744445801,5.720186710357666,0.2972726821899414
1779958324616068000,20.161068115234375,6.117379665374756,5.950931549072266,1.029335856437683
1779958324632427800,20.177427734375,5.72805118560791,6.24781608581543,0.8396040201187134
1779958324648734200,20.193734130859376,4.928520202636719,6.844782829284668,-0.21732831001281738
1779958324665055500,20.210055419921876,3.7578277587890625,7.385909080505371,-1.071031928062439
1779958324681377800,20.226377685546876,3.122790813446045,7.398010730743408,-1.640649676322937
1779958324697712000,20.242712158203126,1.3981413841247559,6.709712982177734,-1.5733073949813843
1779958324714046200,20.259046142578125,-1.3134000301361084,4.4855241775512695,-1.2434464693069458
1779958324730366000,20.275365966796876,-6.403037071228027,-2.6853647232055664,-0.8672358989715576
1779958324746712000,20.291712158203126,-13.080514907836914,-24.15064239501953,-0.5799232721328735
1779958324763044900,20.308044921875,-12.49675464630127,-21.08681297302246,-0.5600904822349548
1779958324779376000,20.324376220703126,0.12574124336242676,-4.323345184326172,-3.2120652198791504
1779958324795709700,20.340709716796876,-4.967660903930664,5.451809883117676,-4.805177688598633
1779958324812035300,20.357035400390625,-6.659920692443848,8.53872299194336,-5.165072441101074
1779958324828371000,20.373370849609376,-0.6631646156311035,3.169895648956299,-1.4396697282791138
1779958324844709000,20.389709228515624,-0.41753172874450684,-4.673489570617676,0.22432208061218262
1779958324861040000,20.4060400390625,8.962594032287598,-14.045157432556152,3.6931424140930176
1779958324877375700,20.422375732421877,11.244603157043457,-15.046174049377441,0.18539226055145264
1779958324893706800,20.438706787109375,0.5674910545349121,1.077723503112793,-4.2048821449279785
1779958324910038800,20.455038818359377,2.040060520172119,6.864701271057129,-2.2667155265808105
1779958324926368300,20.4713681640625,2.6702651977539062,8.155410766601562,-0.4339072108268738
1779958324942706700,20.487706787109374,5.682129859924316,6.636207580566406,1.2422963380813599
1779958324959050000,20.504050048828127,7.676374435424805,3.2183637619018555,1.3962383270263672
1779958324975352000,20.52035205078125,7.704007148742676,0.6094865798950195,1.2776672840118408
1779958324991690800,20.536690673828126,5.889834880828857,-6.3050537109375,0.9654076099395752
1779958325008023300,20.553023193359376,2.599821090698242,-10.12975025177002,1.6646203994750977
1779958325024359200,20.569359130859375,-5.5900139808654785,-2.699183464050293,4.1078057289123535
1779958325040702200,20.5857021484375,-1.6001536846160889,1.9654974937438965,3.8337395191192627
1779958325057034500,20.602034423828126,2.3306708335876465,2.8558030128479004,1.870927095413208
1779958325073367600,20.618367431640625,1.7598322629928589,2.1119980812072754,0.5939161777496338
1779958325089699000,20.634698974609375,2.2979469299316406,2.2853293418884277,-0.32553333044052124
1779958325106036500,20.651036376953126,3.164208173751831,1.3726835250854492,-0.8384619951248169
1779958325122389500,20.667389404296873,-0.16591942310333252,1.807668685913086,-0.5711789131164551
1779958325138710500,20.68371044921875,-2.550950527191162,2.008899688720703,-0.5488982200622559
1779958325155028200,20.7000283203125,-4.409149646759033,1.9577393531799316,-0.8964605331420898
1779958325171361500,20.716361572265626,-4.33934211730957,1.4420890808105469,-1.0973176956176758
1779958325187695000,20.732695068359376,-2.606192111968994,1.018564224243164,0.47419244050979614
1779958325204029400,20.749029541015624,-1.2037228345870972,0.613499641418457,2.705406427383423
1779958325220375300,20.765375244140625,-0.486619234085083,0.13025283813476562,4.106096267700195
