time,seconds_elapsed,z,y,x
1779958304563401500,0.1084013671875,-0.023518312722444534,0.11133018881082535,-0.6805039048194885
1779958304587883300,0.13288330078125,-0.46471574902534485,-0.14187344908714294,-0.2955060601234436
1779958304604221400,0.149221435546875,-0.8078693151473999,-0.24953845143318176,0.012980886735022068
1779958304620552700,0.165552734375,-0.9492846131324768,-0.43386703729629517,0.3520110845565796
1779958304636903700,0.181903564453125,-0.8558222055435181,-0.23716843128204346,0.7919867634773254
1779958304653229800,0.198229736328125,-0.8009970784187317,0.23518311977386475,1.0978775024414062
1779958304669564200,0.214564208984375,-0.9647089242935181,-0.08292495459318161,1.1562151908874512
1779958304685894000,0.230893798828125,-1.182482361793518,-0.7107416987419128,1.2353222370147705
1779958304702233900,0.24723388671875,-1.254717230796814,-1.1267409324645996,1.3141238689422607
1779958304718561300,0.263561279296875,-1.2163853645324707,-1.5766432285308838,1.2041680812835693
1779958304734911200,0.2799111328125,-0.15485434234142303,-1.1939361095428467,0.8379544019699097
1779958304751236400,0.296236328125,0.7444919943809509,-1.0555751323699951,0.20387627184391022
1779958304767563000,0.31256298828125,0.461355984210968,-1.5940529108047485,-0.6673702597618103
1779958304783904800,0.32890478515625,0.403323769569397,-1.8718438148498535,-1.3871222734451294
1779958304800222200,0.34522216796875,1.0580185651779175,-2.255620002746582,-1.635897159576416
1779958304816559000,0.36155908203125,1.3306171894073486,-2.9547553062438965,-1.5749633312225342
1779958304832894000,0.37789404296875,1.0106765031814575,-3.442225694656372,-1.2489140033721924
1779958304849223000,0.394222900390625,0.7993171811103821,-4.18167781829834,-0.508087158203125
1779958304865571600,0.410571533203125,0.6299547553062439,-5.050939083099365,0.4534147381782532
1779958304881903600,0.426903564453125,0.5736024379730225,-5.5428385734558105,1.3829989433288574
1779958304898239000,0.443239013671875,0.646906316280365,-5.992740631103516,2.0305161476135254
1779958304914546000,0.4595458984375,0.8411614298820496,-6.982647895812988,2.3435845375061035
1779958304930903600,0.475903564453125,1.3413074016571045,-8.1619234085083,2.5198190212249756
1779958304947235000,0.492235107421875,1.8364136219024658,-7.979427337646484,2.274709463119507
1779958304963569200,0.508569091796875,2.099543809890747,-6.9162163734436035,1.3710870742797852
1779958304979896300,0.524896240234375,2.872441053390503,-6.828251838684082,0.5542075037956238
1779958304996222500,0.541222412109375,4.23986291885376,-6.7862548828125,0.4509712755680084
1779958305012550400,0.55755029296875,5.105764389038086,-6.017480850219727,0.8003861904144287
1779958305028885500,0.573885498046875,5.581323146820068,-4.908607482910156,1.3280210494995117
1779958305045217000,0.590217041015625,5.458539009094238,-3.748879909515381,1.5732834339141846
1779958305061539000,0.6065390625,5.072625160217285,-3.6882517337799072,0.9576839804649353
1779958305077882600,0.622882568359375,4.8837151527404785,-3.8015670776367188,0.5134322643280029
1779958305094216400,0.639216552734375,4.70213508605957,-3.218648910522461,0.7773260474205017
1779958305110549500,0.655549560546875,4.237113952636719,-2.4746150970458984,1.3075571060180664
1779958305126881800,0.6718818359375,3.6439638137817383,-2.149940252304077,1.9967657327651978
1779958305143214600,0.688214599609375,3.0468430519104004,-2.5694520473480225,2.647031784057617
1779958305159550500,0.704550537109375,2.380847215652466,-2.90649676322937,3.0031661987304688
1779958305175885300,0.72088525390625,0.5264131426811218,-1.855197787284851,2.8370108604431152
1779958305192225000,0.73722509765625,-0.9089674949645996,-1.5097534656524658,2.0364720821380615
1779958305208566300,0.753566162109375,-0.7293730974197388,-0.33689218759536743,0.9104946255683899
1779958305224880600,0.769880615234375,-0.2373211532831192,0.6809620261192322,-0.1667662113904953
1779958305241224000,0.786223876953125,0.36300668120384216,0.4323398768901825,-0.4830417037010193
1779958305257555700,0.8025556640625,0.907898485660553,1.2223412990570068,0.3588833212852478
1779958305273870000,0.8188701171875,0.6831000447273254,3.3877060413360596,1.504713773727417
1779958305290203000,0.835202880859375,0.782976508140564,3.9623773097991943,2.6870434284210205
1779958305306542600,0.85154248046875,0.17547103762626648,2.7394251823425293,3.1648929119110107
1779958305322877700,0.867877685546875,-0.9343183636665344,0.4164573848247528,2.5384504795074463
1779958305339204400,0.884204345703125,-0.5111414790153503,-0.204487144947052,2.9014573097229004
1779958305355541200,0.900541259765625,-0.2612976133823395,0.7681630253791809,3.2982141971588135
1779958305371892000,0.91689208984375,-0.22540926933288574,1.5916093587875366,2.9181032180786133
1779958305388200400,0.933200439453125,0.39553526043891907,3.02011775970459,2.1293234825134277
1779958305404553200,0.94955322265625,1.129184365272522,1.5902349948883057,1.8425222635269165
1779958305420874500,0.96587451171875,1.7026340961456299,1.914909839630127,2.1481075286865234
1779958305437218300,0.98221826171875,2.2116377353668213,1.0783299207687378,1.2628111839294434
1779958305461723400,1.006723388671875,1.1084150075912476,-1.2651019096374512,-0.08628471940755844
1779958305478032400,1.023032470703125,0.5526803135871887,-0.6215553879737854,-1.265865445137024
1779958305494366500,1.039366455078125,0.9740246534347534,0.2018909603357315,-1.7449365854263306
1779958305510703600,1.05570361328125,2.1762075424194336,0.260992169380188,-1.5265522003173828
1779958305527035100,1.07203515625,3.523165225982666,0.4509712755680084,-1.2296717166900635
1779958305543367700,1.08836767578125,3.6115880012512207,-0.6094908118247986,-1.3293955326080322
1779958305559699200,1.10469921875,0.48288896679878235,-2.5274548530578613,-1.5248724222183228
1779958305576034000,1.121033935546875,-1.0254900455474854,-3.6329684257507324,-0.9662361145019531
1779958305592366600,1.13736669921875,-0.5737552046775818,-3.5611915588378906,-0.7515169382095337
1779958305608697900,1.15369775390625,0.4317290186882019,-2.975219249725342,-1.0343475341796875
1779958305625032200,1.1700322265625,0.8469646573066711,-2.2145392894744873,-1.0766500234603882
1779958305641365800,1.18636572265625,0.6104071140289307,-2.5086708068847656,-0.8504771590232849
1779958305657712400,1.20271240234375,0.5273294448852539,-3.2707252502441406,-0.16722436249256134
1779958305674043100,1.219043212890625,0.4538728892803192,-3.7316231727600098,0.014355333521962166
1779958305690360600,1.235360595703125,1.8541287183761597,-4.4906229972839355,-1.036943793296814
1779958305706710300,1.251710205078125,0.9767735004425049,-3.01202392578125,-1.3246612548828125
1779958305723036200,1.2680361328125,-0.2122756689786911,-3.6273179054260254,0.02382374368607998
1779958305739379200,1.284379150390625,0.5593998432159424,-4.496273517608643,0.21670444309711456
1779958305755690000,1.30068994140625,2.0195205211639404,-2.2605068683624268,0.3003929853439331
1779958305772028700,1.317028564453125,0.5157229900360107,-0.8998045325279236,0.703411340713501
1779958305788358400,1.3333583984375,0.22189679741859436,-1.2681562900543213,0.8199338912963867
1779958305804692200,1.349692138671875,0.7666358947753906,-1.1129964590072632,1.0332785844802856
1779958305821012700,1.3660126953125,1.0780243873596191,-1.0772608518600464,1.1746938228607178
1779958305837358800,1.38235888671875,1.3129020929336548,-0.965319812297821,1.3222178220748901
1779958305853691000,1.39869091796875,2.208430528640747,-0.5607742667198181,1.860695481300354
1779958305870021400,1.415021484375,1.1859948635101318,0.015882495790719986,0.6849326491355896
1779958305886343200,1.43134326171875,0.7405213713645935,-0.22617286443710327,1.0407617092132568
1779958305902686700,1.447686767578125,0.6327036619186401,-0.9318749308586121,1.4857770204544067
1779958305919024000,1.464024169921875,0.06704246252775192,-1.3724614381790161,1.7878499031066895
1779958305935354400,1.480354248046875,-0.6207917928695679,-1.1342240571975708,1.6325373649597168
1779958305951688000,1.49668798828125,-0.9275988936424255,0.12767083942890167,1.1281154155731201
1779958305968020200,1.513020263671875,-1.0332785844802856,1.6551393270492554,0.7367035150527954
1779958305984351500,1.5293515625,-0.9650143980979919,2.395355224609375,0.6478226184844971
1779958306000687900,1.54568798828125,-0.39187005162239075,1.9620991945266724,0.8414669036865234
1779958306017019000,1.562018798828125,0.10751228034496307,0.3289509415626526,1.3712397813796997
1779958306033350100,1.57835009765625,0.328340083360672,-1.5180001258850098,1.902539849281311
1779958306049685800,1.594685791015625,-0.1609629988670349,-2.563037872314453,1.9753854274749756
1779958306066016000,1.61101611328125,-0.1846340149641037,-1.4558446407318115,1.8878790140151978
1779958306082363600,1.62736376953125,0.7837401032447815,0.5874996781349182,1.3232868909835815
1779958306098682600,1.6436826171875,2.079843521118164,1.7457001209259033,0.08429940044879913
1779958306115015200,1.66001513671875,3.221856117248535,1.5375478267669678,-1.4414892196655273
1779958306131346000,1.676345947265625,4.0992112159729,0.13973543047904968,-2.0696115493774414
1779958306147699500,1.692699462890625,4.4457244873046875,-0.878576934337616,-0.43737950921058655
1779958306164027100,1.709027099609375,4.338365077972412,-0.3058907687664032,1.5099061727523804
1779958306180348700,1.7253486328125,3.20169734954834,0.23625212907791138,1.076344609260559
1779958306196693000,1.74169287109375,1.8805487155914307,1.1218540668487549,0.964403510093689
1779958306213031000,1.758031005859375,0.4112650156021118,1.2834278345108032,1.3119858503341675
1779958306229352700,1.774352783203125,-1.1814134120941162,0.7799221873283386,1.5456417798995972
1779958306245691100,1.790691162109375,-0.1696678251028061,0.23396138846874237,1.9310977458953857
1779958306261994800,1.806994873046875,0.4934264123439789,-0.21914790570735931,1.5161675214767456
1779958306278342400,1.82334228515625,0.4847215712070465,-0.20433442294597626,1.2307407855987549
1779958306294677500,1.839677490234375,0.37858372926712036,0.5949827432632446,1.0841331481933594
1779958306311009800,1.856009765625,0.40164390206336975,1.430799126625061,0.8345946669578552
1779958306327342000,1.872342041015625,0.355981707572937,1.6811012029647827,0.4833471179008484
1779958306343677200,1.88867724609375,0.24572055041790009,1.5372424125671387,0.33857205510139465
1779958306360016600,1.9050166015625,0.06918048858642578,1.296408772468567,0.5174028873443604
1779958306376348400,1.921348388671875,-0.0006108652451075613,1.040150761604309,0.5630650520324707
1779958306392671500,1.93767138671875,0.04199698567390442,1.0709995031356812,0.22372940182685852
1779958306409024300,1.954024169921875,0.09300423413515091,0.8570439219474792,-0.0780380368232727
1779958306425351000,1.970350830078125,0.03130684420466423,0.48945578932762146,-0.10812314599752426
1779958306441684200,1.986684326171875,-0.06948592513799667,-0.06627888232469559,-0.11927144229412079
1779958306458017500,2.003017578125,-0.24877487123012543,-0.5688682794570923,-0.28206703066825867
1779958306474336300,2.019336181640625,-0.3871358633041382,-0.7127270102500916,-0.841619610786438
1779958306490668300,2.035668212890625,-0.4115704596042633,-0.6806566119194031,-1.6308574676513672
1779958306507000000,2.052,-0.5258022546768188,-0.8442157506942749,-2.286621332168579
1779958306523339000,2.068339111328125,-0.7473936080932617,-1.247844934463501,-2.6595544815063477
1779958306539655700,2.08465576171875,-0.7843509912490845,-1.7163785696029663,-2.8930578231811523
1779958306556000500,2.10100048828125,-0.43279802799224854,-2.054187059402466,-2.925739049911499
1779958306572336000,2.117336181640625,0.060322944074869156,-2.163532018661499,-2.7348437309265137
1779958306588663000,2.1336630859375,0.5580254197120667,-1.8762725591659546,-2.4300220012664795
1779958306605002200,2.150002197265625,0.7719809412956238,-1.5326608419418335,-2.188119411468506
1779958306621334300,2.166334228515625,0.7768678665161133,-1.2638801336288452,-2.305405378341675
1779958306637661000,2.182660888671875,0.8854491710662842,-1.3672691583633423,-2.6928467750549316
1779958306653987600,2.198987548828125,1.0838276147842407,-1.952783465385437,-3.0892982482910156
1779958306670317300,2.2153173828125,1.2066116333007812,-2.406045436859131,-3.1706960201263428
1779958306686646800,2.231646728515625,0.8171849846839905,-2.2962424755096436,-2.6473371982574463
1779958306702984400,2.247984375,-0.1316414624452591,-0.784503698348999,-2.1844542026519775
1779958306719331300,2.264331298828125,-1.0766500234603882,0.39935314655303955,-1.7087428569793701
1779958306735662300,2.280662353515625,-1.441641926765442,-0.15974126756191254,-1.1734721660614014
1779958306751996700,2.29699658203125,-1.240820050239563,-1.0819950103759766,-1.3457361459732056
1779958306768326700,2.31332666015625,-0.8602510094642639,-2.0760254859924316,-1.9488128423690796
1779958306784660700,2.32966064453125,-0.7635815739631653,-2.7065911293029785,-2.3461806774139404
1779958306800994300,2.345994384765625,-0.7110471725463867,-2.8400652408599854,-2.4384212493896484
1779958306817327600,2.36232763671875,-0.5322163701057434,-2.5535695552825928,-2.001958131790161
1779958306833660000,2.378659912109375,-0.35781431198120117,-2.1308507919311523,-1.2768610715866089
1779958306849980400,2.39498046875,-0.2594650089740753,-1.6746870279312134,-0.5592471361160278
1779958306866337800,2.411337890625,-0.2154827117919922,-1.306793451309204,0.01664607785642147
1779958306882646800,2.427646728515625,-0.3488040566444397,-1.098793864250183,0.45524731278419495
1779958306898998300,2.443998291015625,-0.6808093190193176,-0.8613200187683105,0.8309294581413269
1779958306915341600,2.460341552734375,-0.922711968421936,-0.5572618246078491,1.1510227918624878
1779958306931669800,2.476669677734375,-0.9373727440834045,-0.39416080713272095,0.8965974450111389
1779958306948003600,2.493003662109375,-0.7278459668159485,-0.6905831694602966,0.20631973445415497
1779958306964313600,2.509313720703125,-0.5497786998748779,-1.2166908979415894,-0.17058411240577698
1779958306980658700,2.52565869140625,-0.475253164768219,-1.3849842548370361,-0.27382034063339233
1779958306996975000,2.54197509765625,-0.2997821271419525,-1.4126259088516235,-0.5412266254425049
1779958307013311000,2.55831103515625,-0.26542094349861145,-0.8330674767494202,-0.8912523984909058
1779958307029652000,2.57465185546875,-0.11041389405727386,0.702800452709198,-0.6496551632881165
1779958307045986600,2.590986572265625,0.30711251497268677,0.8967501521110535,0.3413209617137909
1779958307062319600,2.607319580078125,0.28099802136421204,0.8150469660758972,0.5027421116828918
1779958307078651400,2.6236513671875,0.13469578325748444,1.2096658945083618,0.8648324608802795
1779958307094987800,2.63998779296875,0.26404649019241333,1.5370897054672241,1.298241376876831
1779958307111321000,2.656321044921875,0.3488040566444397,2.1894936561584473,1.9538525342941284
1779958307127666700,2.672666748046875,0.5500841736793518,2.685516357421875,2.7113254070281982
1779958307143998200,2.688998291015625,0.7186829447746277,2.8432722091674805,3.3200526237487793
1779958307160317000,2.70531689453125,0.7195992469787598,2.364201307296753,3.3298263549804688
1779958307176662000,2.721662109375,0.5690209865570068,1.1146763563156128,2.5224153995513916
1779958307192978200,2.737978271484375,0.22449298202991486,-0.051770828664302826,1.5848898887634277
1779958307209332700,2.754332763671875,-0.10903944820165634,-0.46761733293533325,1.3859004974365234
1779958307225660400,2.770660400390625,-0.2474004179239273,-0.5586362481117249,1.8012888431549072
1779958307241993200,2.7869931640625,-0.5413793325424194,-0.43936482071876526,2.1810944080352783
1779958307258319600,2.803319580078125,-0.7939720749855042,-0.16401731967926025,2.375196695327759
1779958307274648600,2.819648681640625,-0.764345109462738,0.35414913296699524,2.412154197692871
1779958307290991900,2.835991943359375,-0.5593998432159424,0.8756753206253052,2.0134117603302
1779958307307309600,2.8523095703125,-0.35033121705055237,1.8112154006958008,1.380402684211731
1779958307323631600,2.868631591796875,-0.3170390725135803,2.581821918487549,1.253495454788208
1779958307339970300,2.88497021484375,-0.16401731967926025,2.546391725540161,1.5231925249099731
1779958307356297500,2.90129736328125,-0.00015271631127689034,1.9318612813949585,1.8376353979110718
1779958307372646700,2.917646728515625,0.15561792254447937,1.2111930847167969,1.9162843227386475
1779958307388977400,2.933977294921875,0.3058907687664032,0.8411614298820496,1.7844901084899902
1779958307405309000,2.950308837890625,0.4222606122493744,0.9234755635261536,1.5859588384628296
1779958307421641700,2.966641845703125,0.4738787114620209,1.1264355182647705,1.5146403312683105
1779958307437973000,2.982972900390625,0.4434881806373596,1.2991576194763184,1.4798210859298706
1779958307454310000,2.999309814453125,0.385303258895874,1.4848606586456299,1.1786644458770752
1779958307470641400,3.015641357421875,0.35521814227104187,1.3474160432815552,0.7883216142654419
1779958307486974500,3.031974365234375,0.28099802136421204,0.9434813857078552,0.6281222105026245
1779958307503305700,3.0483056640625,0.1996002197265625,0.9682214260101318,0.39416080713272095
1779958307519637000,3.064636962890625,0.13836097717285156,1.250593900680542,0.1963931769132614
1779958307535973600,3.0809736328125,0.03481931984424591,0.8573493957519531,0.30314189195632935
1779958307552304400,3.097304443359375,0.020922135561704636,0.15164729952812195,0.34697145223617554
1779958307568632800,3.1136328125,-0.03680463135242462,-0.4196644127368927,-0.017867809161543846
1779958307584973800,3.129973876953125,-0.235030397772789,-0.4680754840373993,-0.43799036741256714
1779958307601304000,3.146303955078125,-0.6623306274414062,-0.5542075037956238,-0.8110763430595398
1779958307617635600,3.162635498046875,-1.0587822198867798,-0.9892962574958801,-1.4008667469024658
1779958307633999600,3.17899951171875,-1.3092368841171265,-1.118036150932312,-1.9619464874267578
1779958307650294300,3.195294189453125,-1.2412781715393066,-1.288162112236023,-2.5089762210845947
1779958307666648000,3.21164794921875,-1.098183035850525,-1.7143932580947876,-2.886949062347412
1779958307682979800,3.227979736328125,-0.8930850028991699,-2.091297149658203,-3.020576000213623
1779958307699311600,3.2443115234375,-0.503047525882721,-1.7472273111343384,-2.934138536453247
1779958307715645700,3.260645751953125,0.04841107130050659,-0.9847147464752197,-2.8092164993286133
1779958307731979300,3.276979248046875,0.5224425196647644,-0.6902777552604675,-2.8127291202545166
1779958307748307500,3.293307373046875,0.868803083896637,-0.931569516658783,-2.9188668727874756
1779958307764629800,3.309629638671875,1.1142182350158691,-0.8150469660758972,-3.034778594970703
1779958307780962800,3.325962890625,1.2348641157150269,-0.36392298340797424,-3.1946725845336914
1779958307797286100,3.3422861328125,0.9699012637138367,-0.18387043476104736,-2.913980007171631
1779958307813632800,3.3586328125,0.33307427167892456,-0.5813909769058228,-2.509739875793457
1779958307829950200,3.3749501953125,-0.07009678333997726,-1.1398745775222778,-2.331367254257202
1779958307846292000,3.3912919921875,-0.20723603665828705,-1.0697777271270752,-2.3049473762512207
1779958307862632700,3.4076328125,-0.3741549551486969,-1.1198687553405762,-2.197740316390991
1779958307878959400,3.42395947265625,-0.588263213634491,-1.6896532773971558,-2.021505832672119
1779958307895310300,3.440310302734375,-0.6670648455619812,-2.199267625808716,-1.9028452634811401
1779958307911610600,3.456610595703125,-0.7275404930114746,-2.789363384246826,-1.8151860237121582
1779958307927967000,3.472967041015625,-0.6747006773948669,-2.7146852016448975,-1.7189748287200928
1779958307944287000,3.489286865234375,-0.5624541640281677,-2.3093760013580322,-1.2622003555297852
1779958307960624600,3.505624755859375,-0.4740314185619354,-1.8836029767990112,-0.4466952085494995
1779958307976959700,3.521959716796875,-0.5199990272521973,-1.3226759433746338,0.34147366881370544
1779958307993292300,3.538292236328125,-0.569631814956665,-0.8546004891395569,1.0178542137145996
1779958308009622300,3.554622314453125,-0.8026769161224365,-0.3608686327934265,1.7253888845443726
1779958308025958400,3.57095849609375,-0.9138544201850891,0.15974126756191254,2.534785270690918
1779958308042290200,3.587290283203125,-0.6814202070236206,0.8092437386512756,2.476447820663452
1779958308058622200,3.603622314453125,-0.4911356568336487,1.654223084449768,0.8918632864952087
1779958308074933800,3.619933837890625,-0.4332561790943146,0.23105977475643158,-0.39736783504486084
1779958308091275800,3.63627587890625,-0.3674354553222656,-1.9530888795852661,-0.5839871764183044
1779958308107608300,3.6526083984375,-0.18127426505088806,-2.822044610977173,-0.8187121152877808
1779958308123943000,3.66894287109375,0.18646661937236786,-2.297006130218506,-0.8358163833618164
1779958308140281300,3.68528125,0.46364670991897583,-0.6575964093208313,-0.43050727248191833
1779958308156607700,3.701607666015625,0.584750771522522,2.196671485900879,-0.5485569834709167
1779958308172940800,3.71794091796875,0.8837692737579346,2.4770586490631104,0.006719517521560192
1779958308189273600,3.734273681640625,0.4999932050704956,1.2747230529785156,0.23869559168815613
1779958308205606000,3.75060595703125,-0.0685696229338646,2.331367254257202,0.7591527700424194
1779958308221939500,3.766939453125,-0.3068070709705353,2.1620047092437744,1.1362093687057495
1779958308238280200,3.7832802734375,-0.37140607833862305,1.712866187095642,2.132836103439331
1779958308254620400,3.799620361328125,-0.24434609711170197,1.6177239418029785,3.4581081867218018
1779958308270949400,3.815949462890625,0.19685132801532745,1.7751743793487549,4.147316932678223
1779958308287279000,3.832279052734375,0.846659243106842,2.414750337600708,3.642589569091797
1779958308303618600,3.84861865234375,1.1065824031829834,1.8605427742004395,1.6281086206436157
1779958308319936300,3.864936279296875,0.44287729263305664,0.42302417755126953,0.15027284622192383
1779958308336290000,3.8812900390625,-0.1111774742603302,-0.5952881574630737,1.1145236492156982
1779958308352608300,3.897608154296875,-0.5436700582504272,-1.0836749076843262,1.9897408485412598
1779958308368966400,3.91396630859375,-0.784503698348999,-0.2301434874534607,2.2708916664123535
1779958308385290500,3.93029052734375,-0.9789115786552429,0.7663304209709167,2.281123638153076
1779958308401611000,3.946611083984375,-0.9511171579360962,1.2829697132110596,1.9633208513259888
1779958308417961000,3.9629609375,-0.46303585171699524,2.104888916015625,1.474017858505249
1779958308434291500,3.97929150390625,-0.17608191072940826,2.6873488426208496,1.238223910331726
1779958308450609000,3.99560888671875,0.0708603709936142,2.2547035217285156,1.666898488998413
1779958308466942700,4.011942626953125,0.2165517359972,1.1719449758529663,2.029141664505005
1779958308483276500,4.028276611328125,0.33047810196876526,0.2548835277557373,1.8738291263580322
1779958308499608000,4.044608154296875,0.5247332453727722,0.14798210561275482,1.558011770248413
1779958308515939800,4.06093994140625,0.5528330206871033,0.7386888265609741,1.2916746139526367
1779958308532277800,4.07727783203125,0.44577890634536743,1.2151637077331543,1.2945761680603027
1779958308548606700,4.093606689453125,0.3197879493236542,1.4891366958618164,1.3513866662979126
1779958308564939500,4.109939453125,0.2926044464111328,1.534035325050354,0.9779952764511108
1779958308581275600,4.126275634765625,0.34055736660957336,1.5758795738220215,0.33567044138908386
1779958308597628000,4.1426279296875,0.28435778617858887,1.7605136632919312,0.08811730891466141
1779958308613952300,4.1589521484375,0.18066339194774628,1.5838208198547363,0.11530081182718277
1779958308630291200,4.175291259765625,0.12476922571659088,1.1200214624404907,0.2125810980796814
1779958308646620000,4.191619873046875,0.03451388701796532,0.631481945514679,0.3830125033855438
1779958308662950000,4.207949951171875,-0.05757404863834381,0.4489859640598297,0.37079519033432007
1779958308679279400,4.224279296875,-0.10873401165008545,0.6090326309204102,0.18967366218566895
1779958308695618000,4.2406181640625,-0.096211276948452,0.4109596014022827,-0.21395555138587952
1779958308711946500,4.256946533203125,-0.14569136500358582,-0.09789115190505981,-0.6290385127067566
1779958308728288300,4.273288330078125,-0.40775254368782043,-0.5537493228912354,-1.0381654500961304
1779958308744616000,4.289615966796875,-0.7806857824325562,-0.9552405476570129,-1.6169602870941162
1779958308760919600,4.30591943359375,-1.1056660413742065,-1.1717922687530518,-2.135584831237793
1779958308777269000,4.32226904296875,-1.059393048286438,-1.3883439302444458,-2.7397305965423584
1779958308793600800,4.338600830078125,-0.6869179606437683,-1.7469218969345093,-3.1201469898223877
1779958308809940700,4.354940673828125,-0.4366159439086914,-2.0900754928588867,-3.1163289546966553
1779958308826261800,4.37126171875,-0.24419337511062622,-1.8361082077026367,-2.8131871223449707
1779958308842603800,4.387603759765625,0.08124507963657379,-1.0288498401641846,-2.493399143218994
1779958308858934300,4.403934326171875,0.19914206862449646,-0.6356052756309509,-2.492482900619507
1779958308875305000,4.420304931640625,0.0403171069920063,-0.5326744914054871,-2.6561946868896484
1779958308891611100,4.436611083984375,0.056810468435287476,-0.1498146951198578,-2.726902484893799
1779958308907944000,4.45294384765625,0.26251932978630066,0.2838996350765228,-2.735454559326172
1779958308924274200,4.469274169921875,0.23579397797584534,0.02015855349600315,-2.5592198371887207
1779958308940580400,4.485580322265625,-0.10781771689653397,-0.7483099102973938,-2.2182044982910156
1779958308956929000,4.501928955078125,-0.4662429094314575,-1.855197787284851,-1.8220583200454712
1779958308973263600,4.518263671875,-0.6572909951210022,-2.1232149600982666,-1.7577646970748901
1779958308989594000,4.534593994140625,-0.6722571849822998,-2.0586159229278564,-1.621999979019165
1779958309005911000,4.5509111328125,-0.6638578176498413,-2.3524420261383057,-1.2162326574325562
1779958309022260700,4.5672607421875,-0.6994407176971436,-2.4833199977874756,-0.9228646755218506
1779958309038582000,4.58358203125,-0.8532260060310364,-2.610074520111084,-0.8003861904144287
1779958309054925300,4.59992529296875,-0.9538660645484924,-2.6737570762634277,-0.8084801435470581
1779958309071260400,4.616260498046875,-0.9393580555915833,-2.6250407695770264,-0.7944302558898926
1779958309087610600,4.632610595703125,-0.8232936263084412,-2.4472789764404297,-0.5830708742141724
1779958309103922400,4.64892236328125,-0.6666067242622375,-2.0286834239959717,-0.03680463135242462
1779958309120251600,4.665251708984375,-0.599564254283905,-1.3738359212875366,0.8133670687675476
1779958309136605200,4.681605224609375,-0.6647741198539734,-0.746630072593689,1.5874860286712646
1779958309152938800,4.697938720703125,-0.7574729323387146,-0.28008171916007996,2.2062926292419434
1779958309169270500,4.7142705078125,-0.6171266436576843,0.1846340149641037,2.501340389251709
1779958309185598500,4.730598388671875,-0.3497203588485718,1.3274102210998535,1.5754214525222778
1779958309201941800,4.746941650390625,0.030695978552103043,1.986533761024475,0.13408492505550385
1779958309218267600,4.763267578125,-0.12034045159816742,-0.7043276429176331,-0.6811147332191467
1779958309234603300,4.779603271484375,-0.5313000679016113,-2.559983491897583,-1.1649199724197388
1779958309250935800,4.795935791015625,-0.10903944820165634,-3.118467092514038,-0.9656252264976501
1779958309267239000,4.812239013671875,0.23884831368923187,-2.2490530014038086,-0.6165157556533813
1779958309283586800,4.8285869140625,0.37659841775894165,-0.46822822093963623,-0.18677204847335815
1779958309299904500,4.844904541015625,-0.6159048676490784,2.7007880210876465,-0.020922135561704636
1779958309316252700,4.861252685546875,-0.2724458873271942,3.888615369796753,1.1962268352508545
1779958309332586200,4.877586181640625,-0.23655757308006287,3.632357358932495,0.7509061098098755
1779958309348916000,4.893916015625,-0.5316054821014404,2.604729413986206,0.27840182185173035
1779958309365270800,4.910270751953125,-0.1794416606426239,0.025961773470044136,0.33505958318710327
1779958309381597400,4.926597412109375,0.3594942092895508,-1.4651602506637573,1.1343767642974854
1779958309397928400,4.942928466796875,0.6644686460494995,-0.023518312722444534,2.2398900985717773
1779958309414264000,4.95926416015625,0.9634872078895569,1.7227927446365356,3.1928398609161377
1779958309430568400,4.975568359375,1.3420709371566772,2.9379563331604004,3.5388951301574707
1779958309446902800,4.99190283203125,1.4057536125183105,2.0987801551818848,2.4801127910614014
1779958309463249000,5.008248779296875,0.4674646258354187,-0.3927863538265228,0.722348153591156
1779958309479580400,5.024580322265625,-0.30543261766433716,-0.8428413271903992,1.7757853269577026
1779958309495911400,5.040911376953125,-0.7307475209236145,-0.5319108963012695,2.3831379413604736
1779958309512244700,5.05724462890625,-1.0352638959884644,0.15500704944133759,2.2047653198242188
1779958309528584700,5.073584716796875,-1.0306823253631592,0.9208793640136719,2.0398318767547607
1779958309544911600,5.08991162109375,-0.8252789378166199,1.6377297639846802,1.4457653760910034
1779958309561247200,5.106247314453125,-0.3969096839427948,3.296534299850464,1.1702650785446167
1779958309577597200,5.12259716796875,0.015882495790719986,3.8394408226013184,1.3923145532608032
1779958309593923800,5.138923828125,0.45753806829452515,2.2789855003356934,1.7273741960525513
1779958309610251000,5.1552509765625,0.7197519540786743,0.11835514008998871,1.6727017164230347
1779958309626592500,5.171592529296875,0.6855435371398926,-0.6160575747489929,1.5436564683914185
1779958309642923800,5.187923828125,0.593913733959198,0.6922630667686462,1.3284791707992554
1779958309659259600,5.204259765625,0.4827362596988678,2.2818870544433594,1.0404561758041382
1779958309675589400,5.22058935546875,0.32910364866256714,3.0694451332092285,0.8248208165168762
1779958309691922000,5.236921875,0.35842517018318176,2.3527474403381348,0.750142514705658
1779958309708254200,5.253254150390625,0.4954117238521576,0.9010262489318848,0.7779368758201599
1779958309724584400,5.26958447265625,0.4508185386657715,0.43875396251678467,0.7347181439399719
1779958309740924000,5.285923828125,0.35659259557724,1.0334312915802002,0.4254676401615143
1779958309757249000,5.3022490234375,0.22861631214618683,1.647045373916626,0.04001167416572571
1779958309773576400,5.318576416015625,0.060322944074869156,1.3185526132583618,0.031001411378383636
1779958309789901000,5.334901123046875,0.005192354787141085,0.2866485118865967,0.12400564551353455
1779958309806239700,5.35123974609375,-0.10002918541431427,-0.2168571650981903,-0.06902777403593063
1779958309822576600,5.36757666015625,-0.25793784856796265,-0.19135354459285736,-0.49495357275009155
1779958309838903800,5.38390380859375,-0.4219551682472229,-0.2854267954826355,-0.9563095569610596
1779958309855237400,5.4002373046875,-0.769690215587616,-0.7205155491828918,-1.5004377365112305
1779958309871587300,5.41658740234375,-1.084285855293274,-1.3697125911712646,-1.9773707389831543
1779958309887917600,5.43291748046875,-1.094059705734253,-1.8547395467758179,-2.4220807552337646
1779958309904250000,5.44925,-0.849255383014679,-1.990351676940918,-2.9665143489837646
1779958309920564000,5.46556396484375,-0.6310238242149353,-1.7647897005081177,-3.2514829635620117
1779958309936899800,5.48189990234375,-0.46700647473335266,-1.5260940790176392,-3.0274481773376465
1779958309953235200,5.498235107421875,-0.2541199326515198,-0.8292495608329773,-2.5859453678131104
1779958309969563400,5.5145634765625,-0.26633724570274353,0.23151792585849762,-2.3080015182495117
1779958309985899800,5.530899658203125,-0.45066583156585693,1.0238101482391357,-2.2844831943511963
1779958310002237200,5.5472373046875,-0.540921151638031,1.1042916774749756,-2.4083361625671387
1779958310018566400,5.56356640625,-0.35094207525253296,0.4964807331562042,-2.4530820846557617
1779958310034900200,5.579900146484375,0.047189339995384216,-0.9124799370765686,-2.3017401695251465
1779958310051230700,5.596230712890625,-0.15164729952812195,-2.4106268882751465,-1.7854063510894775
1779958310067586800,5.6125869140625,-0.7026477456092834,-3.118467092514038,-1.5575536489486694
1779958310083911200,5.6289111328125,-1.073595643043518,-2.4613287448883057,-1.6788103580474854
1779958310100240100,5.645240234375,-1.0690141916275024,-1.9905043840408325,-1.5294538736343384
1779958310116577000,5.661576904296875,-0.755182147026062,-2.1795670986175537,-1.12506103515625
1779958310132909600,5.67790966796875,-0.6189591884613037,-2.2626447677612305,-0.8228355050086975
1779958310149243100,5.6942431640625,-0.6099489331245422,-2.2823452949523926,-0.7394523620605469
1779958310165543700,5.710543701171875,-0.5731443166732788,-2.3209824562072754,-0.7492262125015259
1779958310181883100,5.726883056640625,-0.5140430927276611,-2.4303274154663086,-0.6531676650047302
1779958310198217000,5.743217041015625,-0.4210388660430908,-2.462244987487793,-0.38896843791007996
1779958310214549800,5.7595498046875,-0.26343563199043274,-2.12397837638855,0.0757472887635231
1779958310230882000,5.775882080078125,-0.12171489745378494,-1.6238325834274292,0.6632469296455383
1779958310247213600,5.792213623046875,-0.11301007121801376,-1.1357512474060059,1.2377656698226929
1779958310263562800,5.808562744140625,-0.17348572611808777,-0.6281222105026245,1.797776460647583
1779958310279895300,5.824895263671875,-0.27779096364974976,-0.11484266817569733,2.3860397338867188
1779958310296224300,5.841224365234375,-0.19608774781227112,0.4841107130050659,2.8516716957092285
1779958310312559600,5.8575595703125,0.12110403180122375,0.9837985038757324,2.0147862434387207
1779958310328893000,5.873892822265625,0.08827003091573715,0.385303258895874,-0.1840231567621231
1779958310345225000,5.890224853515625,-0.043218716979026794,-1.4937182664871216,-1.320385217666626
1779958310361557200,5.90655712890625,-0.24984388053417206,-2.869234085083008,-1.845423936843872
1779958310377905200,5.9229052734375,-0.4127921760082245,-3.9619193077087402,-1.618945598602295
1779958310394220000,5.939219970703125,-0.37201693654060364,-3.148399591445923,-0.9094256162643433
1779958310410569700,5.95556982421875,-0.5926920175552368,0.0757472887635231,0.04581489413976669
1779958310426885400,5.971885498046875,-1.4561500549316406,3.0214922428131104,0.45875978469848633
1779958310443221200,5.98822119140625,-0.7237225770950317,3.0083587169647217,0.7799221873283386
1779958310459553300,6.00455322265625,0.016493361443281174,2.5773932933807373,-0.04642575979232788
1779958310475893500,6.0208935546875,0.24953845143318176,0.8929322957992554,-0.4132503271102905
1779958310492223500,6.037223388671875,0.25641068816185,-3.0085113048553467,-0.3527746796607971
1779958310508552000,6.053552001953125,0.2974913716316223,-4.017508029937744,0.5083925724029541
1779958310524885000,6.069885009765625,0.5059491395950317,-1.2596040964126587,1.6105462312698364
1779958310541220000,6.08622021484375,0.7765624523162842,0.9182831645011902,2.428952932357788
1779958310557568300,6.102568359375,1.2432634830474854,1.8125898838043213,2.7149906158447266
1779958310573897500,6.1188974609375,0.566730260848999,0.42562034726142883,1.4237741231918335
1779958310590216700,6.135216796875,-0.6982190012931824,-1.0254900455474854,1.7904460430145264
1779958310606564600,6.151564697265625,-1.1433870792388916,-1.320385217666626,3.4881932735443115
1779958310622895000,6.16789501953125,-1.1217013597488403,-0.7014260292053223,3.3200526237487793
1779958310639229000,6.18422900390625,-1.1572842597961426,0.48517972230911255,2.211179494857788
1779958310655560400,6.200560546875,-1.1507173776626587,1.020297646522522,1.4359915256500244
1779958310671896600,6.216896484375,-1.0073168277740479,1.9259053468704224,0.9990701079368591
1779958310688226800,6.233226806640625,-0.5230533480644226,2.891836166381836,1.4223997592926025
1779958310704539600,6.24953955078125,0.025045474991202354,2.7838656902313232,2.1290180683135986
1779958310720893200,6.26589306640625,0.35353827476501465,1.300837516784668,2.1169536113739014
1779958310737211400,6.28221142578125,0.6722571849822998,-0.22342395782470703,1.7426458597183228
1779958310753546800,6.298546630859375,0.8400924205780029,-0.3173444867134094,1.6818647384643555
1779958310769877800,6.314877685546875,0.8016079068183899,0.5371032953262329,1.1803443431854248
1779958310786210000,6.3312099609375,0.7519751191139221,1.8744399547576904,0.8623890280723572
1779958310802545200,6.347545166015625,0.5545129179954529,2.8078420162200928,0.9636399149894714
1779958310818877200,6.363877197265625,0.385303258895874,2.1734585762023926,1.073595643043518
1779958310835194600,6.380194580078125,0.34315356612205505,0.8726209998130798,0.9958630800247192
1779958310851532500,6.396532470703125,0.32330042123794556,0.39385536313056946,0.7733554244041443
1779958310867864600,6.412864501953125,0.2721404731273651,0.9418014883995056,0.28619036078453064
1779958310884197000,6.429197021484375,0.19288070499897003,1.61100435256958,-0.0858265683054924
1779958310900530200,6.4455302734375,0.058184914290905,1.2405146360397339,-0.13316862285137177
1779958310916863500,6.461863525390625,-0.05864306539297104,0.22800545394420624,-0.2606867551803589
1779958310933213000,6.478212890625,-0.35353827476501465,-0.37919458746910095,-0.6154467463493347
1779958310949539600,6.49453955078125,-0.8077165484428406,-0.5256495475769043,-1.000749945640564
1779958310965869600,6.51086962890625,-1.2544118165969849,-1.0384708642959595,-1.3405437469482422
1779958310982195500,6.527195556640625,-1.523956060409546,-1.8179349899291992,-1.690264105796814
1779958310998542800,6.54354296875,-1.5166256427764893,-2.023949384689331,-2.440101146697998
1779958311014871600,6.55987158203125,-1.166752576828003,-2.0456349849700928,-2.9529225826263428
1779958311031205400,6.576205322265625,-0.7817547917366028,-2.1927008628845215,-2.903595209121704
1779958311047538400,6.592538330078125,-0.5077817440032959,-1.6949983835220337,-2.6841418743133545
1779958311063870700,6.60887060546875,-0.3407101035118103,-0.5549710988998413,-2.6219863891601562
1779958311080206600,6.62520654296875,-0.2542726695537567,0.1440114825963974,-2.7310256958007812
1779958311096550400,6.64155029296875,-0.19578230381011963,0.3553708493709564,-2.8565585613250732
1779958311112879600,6.657879638671875,-0.05009094998240471,0.2678644061088562,-2.80845308303833
1779958311129220400,6.674220458984375,0.33796119689941406,0.21212296187877655,-2.677422285079956
1779958311145549000,6.690549072265625,0.6133087277412415,0.15057829022407532,-2.584876298904419
1779958311161882600,6.706882568359375,0.12782354652881622,-0.7425066828727722,-2.1897990703582764
1779958311178213400,6.72321337890625,-0.5442809462547302,-2.203085422515869,-1.9321668148040771
1779958311194549800,6.7395498046875,-0.4761694669723511,-2.8153252601623535,-1.8710802793502808
1779958311210856200,6.755856201171875,-0.1290452778339386,-2.459343433380127,-1.7722728252410889
1779958311227214300,6.77221435546875,-0.09407325088977814,-2.2146918773651123,-1.5170838832855225
1779958311243546600,6.788546630859375,-0.2431243658065796,-2.2295055389404297,-1.2489140033721924
1779958311259880700,6.804880615234375,-0.5731443166732788,-2.479349374771118,-0.9908234477043152
1779958311276192800,6.82119287109375,-0.8994990587234497,-2.593581199645996,-0.8100073337554932
1779958311292535000,6.83753515625,-1.0183123350143433,-2.674215316772461,-0.5490151643753052
1779958311308861000,6.85386083984375,-0.8808676600456238,-2.563190460205078,-0.13744467496871948
1779958311325202000,6.870201904296875,-0.7531968355178833,-2.211332082748413,0.42791110277175903
1779958311341517800,6.886517822265625,-0.6388123035430908,-1.5387696027755737,1.0644327402114868
1779958311357862000,6.90286181640625,-0.7003570199012756,-0.8987354636192322,1.8020524978637695
1779958311374213600,6.919213623046875,-0.8962920308113098,-0.3608686327934265,2.7204883098602295
1779958311390544600,6.935544677734375,-0.7828238010406494,0.05054909735918045,3.526219606399536
1779958311406859000,6.95185888671875,-0.24862214922904968,1.076344609260559,2.1539108753204346
1779958311423182000,6.96818212890625,-0.026419922709465027,0.826500654220581,-0.5283984541893005
1779958311439526700,6.984526611328125,0.08536841720342636,-1.4643967151641846,-1.5112806558609009
1779958311455861000,7.000861083984375,-0.15195272862911224,-1.8777997493743896,-1.5974125862121582
1779958311472195000,7.017195068359375,-0.096211276948452,-3.1115949153900146,-1.4205671548843384
1779958311488525000,7.033525146484375,0.6994407176971436,-1.869094967842102,-1.2450960874557495
1779958311504860000,7.04985986328125,0.4576907753944397,1.7582229375839233,-1.3924673795700073
1779958311521193700,7.06619384765625,-0.44226643443107605,2.509892463684082,-0.3527746796607971
1779958311537541600,7.082541748046875,-0.6618725061416626,3.444821834564209,0.1794416606426239
1779958311553873700,7.098873779296875,-0.8225300312042236,2.9964468479156494,-0.18066339194774628
1779958311570172000,7.115171875,-0.7382306456565857,1.8393152952194214,0.28237244486808777
1779958311586505500,7.13150537109375,-0.2116648107767105,0.23105977475643158,1.3535246849060059
1779958311602845200,7.14784521484375,0.612850546836853,-0.3738495409488678,2.696817398071289
1779958311619176700,7.1641767578125,1.597107172012329,0.29245173931121826,3.625790596008301
1779958311635511300,7.18051123046875,2.363895893096924,1.5613715648651123,3.6497671604156494
1779958311651844000,7.196843994140625,1.5709927082061768,0.20265454053878784,1.6675094366073608
1779958311668176100,7.213176025390625,-0.14935655891895294,-1.0639744997024536,0.9999864101409912
1779958311684511000,7.229510986328125,-0.8023715019226074,-0.4147774875164032,2.869844913482666
1779958311700842000,7.245842041015625,-0.9558513760566711,0.4934264123439789,2.931389570236206
1779958311717174000,7.262174072265625,-1.1885910034179688,1.4347697496414185,1.9781343936920166
1779958311733509000,7.278509033203125,-1.1003210544586182,1.471421718597412,1.3318389654159546
1779958311749841700,7.294841552734375,-0.8567385077476501,1.6537649631500244,0.888961672782898
1779958311766174200,7.31117431640625,-0.5018258094787598,2.682461977005005,0.9766207933425903
1779958311782508300,7.32750830078125,-0.019089538604021072,3.7250561714172363,1.657124638557434
1779958311798839800,7.34383984375,0.39767327904701233,2.9770517349243164,2.032806873321533
1779958311815174000,7.360173828125,0.717308521270752,-0.052381694316864014,1.7498234510421753
1779958311831517400,7.376517333984375,0.8529205918312073,-1.9040669202804565,1.6293302774429321
1779958311847849500,7.392849365234375,0.6989825367927551,-0.3378084897994995,1.260367751121521
1779958311864182800,7.409182861328125,0.5662720799446106,2.0274617671966553,0.735634446144104
1779958311880516000,7.42551611328125,0.3306308090686798,3.3903021812438965,0.49617528915405273
1779958311896853500,7.441853515625,0.15515977144241333,2.84189772605896,0.4853324294090271
1779958311913182500,7.458182373046875,0.33948835730552673,1.0198395252227783,0.5775730609893799
1779958311929513000,7.474512939453125,0.40454551577568054,0.23945917189121246,0.5786421298980713
1779958311945854000,7.49085400390625,0.3930917978286743,0.8400924205780029,0.42898011207580566
1779958311962178000,7.507177978515625,0.25182920694351196,1.4628695249557495,-0.005192354787141085
1779958311978513000,7.523512939453125,0.04108068719506264,1.3662000894546509,-0.0913243517279625
1779958311994849800,7.539849853515625,-0.05115996301174164,0.4447098970413208,0.11530081182718277
1779958312011179500,7.556179443359375,-0.010842857882380486,-0.28099802136421204,0.24129177629947662
1779958312027528400,7.572528564453125,-0.09483683109283447,-0.27550023794174194,0.05451972410082817
1779958312043843800,7.58884375,-0.19226983189582825,-0.4069889783859253,-0.46181413531303406
1779958312060172300,7.60517236328125,-0.39156460762023926,-0.7974845767021179,-1.0363328456878662
1779958312076523500,7.6215234375,-0.8874344825744629,-1.3057245016098022,-1.476613998413086
1779958312092860400,7.6378603515625,-1.3303117752075195,-1.8803958892822266,-1.9236146211624146
1779958312109188900,7.65418896484375,-1.3921618461608887,-2.2484421730041504,-2.6647469997406006
1779958312125518800,7.670518798828125,-1.0500773191452026,-2.2206478118896484,-3.1470251083374023
1779958312141860600,7.686860595703125,-0.7073819637298584,-2.149787425994873,-3.0268373489379883
1779958312158186200,7.703186279296875,-0.4915938079357147,-1.777006983757019,-2.691319465637207
1779958312174522400,7.7195224609375,-0.2223549485206604,-0.7695375084877014,-2.414444923400879
1779958312190855400,7.73585546875,-0.10751228034496307,0.13637566566467285,-2.373364210128784
1779958312207187000,7.75218701171875,-0.12370020896196365,0.4308127164840698,-2.5080599784851074
1779958312223521300,7.768521240234375,-0.08994990587234497,0.379652738571167,-2.5842654705047607
1779958312239838000,7.784837890625,0.13026700913906097,-0.27748554944992065,-2.5382978916168213
1779958312256181500,7.801181396484375,0.30894508957862854,-1.6052011251449585,-2.3712260723114014
1779958312272508000,7.8175078125,-0.14874568581581116,-2.590832233428955,-1.9834794998168945
1779958312288833800,7.833833740234375,-0.7073819637298584,-2.115731716156006,-1.8121317625045776
1779958312305169000,7.8501689453125,-0.8278751373291016,-1.6253596544265747,-1.5670220851898193
1779958312321507000,7.866507080078125,-0.7444919943809509,-1.7884607315063477,-1.1995866298675537
1779958312337835300,7.882835205078125,-0.7365507483482361,-2.205070734024048,-0.7959573864936829
1779958312354170400,7.89917041015625,-0.7730499505996704,-2.1894936561584473,-0.5994115471839905
1779958312370496800,7.915496826171875,-0.8768970370292664,-2.160630464553833,-0.5044219493865967
1779958312386848000,7.931847900390625,-0.9291260242462158,-2.3707680702209473,-0.4311181604862213
1779958312403155700,7.94815576171875,-0.8228355050086975,-2.3486242294311523,-0.33368512988090515
1779958312419499800,7.964499755859375,-0.5827654600143433,-2.0945041179656982,-0.05115996301174164
1779958312435832600,7.98083251953125,-0.4001167416572571,-1.7292068004608154,0.4486805200576782
1779958312452170000,7.997169921875,-0.3465133011341095,-1.3057245016098022,1.0583239793777466
1779958312468498200,8.013498291015624,-0.30833423137664795,-0.7615962624549866,1.716684103012085
1779958312484833300,8.029833251953125,-0.2727513313293457,-0.1563815027475357,2.4307854175567627
1779958312501166800,8.046166748046875,-0.23396138846874237,0.29046642780303955,3.293938159942627
1779958312517515000,8.062514892578125,-0.05345070734620094,1.0305296182632446,3.595094680786133
1779958312533845500,8.078845458984375,0.0685696229338646,1.7553212642669678,1.3435981273651123
1779958312550194200,8.095194091796875,0.10552696883678436,-0.6663012504577637,-1.5549575090408325
1779958312566495000,8.111494873046874,-0.12308934330940247,-2.3606886863708496,-2.4769058227539062
1779958312582814500,8.127814453125,-0.1944078654050827,-3.5752415657043457,-2.5746443271636963
1779958312599175400,8.144175537109374,-0.18768835067749023,-3.3072245121002197,-1.645671010017395
1779958312615509000,8.160509033203125,-0.6818783283233643,0.38117989897727966,0.408363401889801
1779958312631842800,8.1768427734375,-1.3435981273651123,3.5219435691833496,2.2287418842315674
1779958312648173600,8.193173583984375,-0.44425174593925476,5.370727062225342,2.4678955078125
1779958312664504600,8.209504638671875,0.9292787313461304,4.3672285079956055,0.6046038866043091
1779958312680843800,8.22584375,1.2725850343704224,0.49785518646240234,-1.2855658531188965
1779958312697171200,8.242171142578124,-0.014966198243200779,-4.063781261444092,-1.2747230529785156
1779958312713494800,8.258494873046875,-0.27382034063339233,-4.061490535736084,0.126143679022789
1779958312729842000,8.274842041015624,-0.11942415684461594,-1.3784173727035522,1.6033685207366943
1779958312746171600,8.291171630859376,0.4427245855331421,1.6165021657943726,2.5802948474884033
1779958312762508800,8.3075087890625,1.2605204582214355,3.6555702686309814,3.0305025577545166
1779958312778833400,8.32383349609375,1.1971431970596313,2.5030202865600586,1.6830865144729614
1779958312795157500,8.340157470703126,0.35094207525253296,-0.1745547503232956,0.1560760736465454
1779958312811490800,8.35649072265625,-0.10445795953273773,-1.4353805780410767,1.8936822414398193
1779958312827822600,8.372822509765625,-0.9805914163589478,-0.9222537875175476,2.7986791133880615
1779958312844155400,8.3891552734375,-1.3849842548370361,0.6065891981124878,2.5228734016418457
1779958312860490000,8.405489990234376,-1.2024881839752197,1.6772832870483398,1.595579981803894
1779958312876821200,8.4218212890625,-0.8384125232696533,2.0558669567108154,0.807563841342926
1779958312893156000,8.438156005859375,-0.42088615894317627,2.2902865409851074,0.9185886383056641
1779958312909486300,8.454486328125,0.014049900695681572,1.9683605432510376,1.2264647483825684
1779958312925820200,8.470820068359375,0.36483925580978394,1.1174252033233643,1.2133311033248901
1779958312942154000,8.487154052734375,0.5858197808265686,0.6055201888084412,1.078635334968567
1779958312958485800,8.50348583984375,0.6516404747962952,0.7136433124542236,1.0925325155258179
1779958312974822000,8.51982177734375,0.6133087277412415,1.1609493494033813,1.0974193811416626
1779958312991149600,8.536149658203126,0.5419901609420776,1.613600492477417,1.034194827079773
1779958313007497700,8.552497802734376,0.5032002329826355,1.5499178171157837,0.9610437750816345
1779958313023804200,8.56880419921875,0.5364924073219299,1.0723739862442017,0.8509352803230286
1779958313040137200,8.58513720703125,0.5922338366508484,0.8865181803703308,0.670577347278595
1779958313056496600,8.60149658203125,0.6038402915000916,1.0390818119049072,0.5207626223564148
1779958313072831200,8.617831298828126,0.5546656250953674,0.9020952582359314,0.39553526043891907
1779958313089163000,8.6341630859375,0.4008803069591522,0.6241515874862671,0.34926220774650574
1779958313105495300,8.650495361328124,0.154396191239357,0.46410486102104187,0.3827070891857147
1779958313121823200,8.6668232421875,-0.07070764899253845,0.13072516024112701,0.3066543638706207
1779958313138162400,8.683162353515625,-0.2513710558414459,-0.3104722499847412,0.1469130963087082
1779958313154476800,8.699476806640625,-0.4714352488517761,-0.6307183504104614,-0.1391245573759079
1779958313170830300,8.715830322265624,-0.6163630485534668,-0.978606104850769,-0.6604980230331421
1779958313187160300,8.732160400390624,-1.0193814039230347,-1.3756685256958008,-1.1838568449020386
1779958313203478800,8.748478759765625,-1.3536773920059204,-1.8023579120635986,-1.7114917039871216
1779958313219823400,8.7648232421875,-1.2844969034194946,-1.9463694095611572,-2.6140451431274414
1779958313236153000,8.781153076171876,-1.025948166847229,-1.9967657327651978,-3.2898147106170654
1779958313252498700,8.797498779296875,-0.6956228017807007,-2.3541219234466553,-3.366478443145752
1779958313268822800,8.81382275390625,-0.3323107063770294,-2.018604278564453,-2.93154239654541
1779958313285138400,8.830138427734376,-0.06765332818031311,-0.7134906053543091,-2.562121629714966
1779958313301480200,8.846480224609374,-0.0377209298312664,0.4138612151145935,-2.448347806930542
1779958313317808600,8.86280859375,-0.10094548016786575,0.698677122592926,-2.514779567718506
1779958313334130000,8.8791298828125,0.025503624230623245,0.30512720346450806,-2.671008348464966
1779958313350476300,8.895476318359375,0.5436700582504272,-0.03298672288656235,-2.7685940265655518
1779958313366808000,8.91180810546875,0.7441865801811218,-0.2834414839744568,-2.5219571590423584
1779958313383142000,8.928141845703125,0.21349740028381348,-0.88361656665802,-2.0008890628814697
1779958313399473000,8.944472900390625,-0.29474249482154846,-1.8991800546646118,-1.7282904386520386
1779958313415807700,8.960807861328124,-0.3510948121547699,-1.8391625881195068,-1.777006983757019
1779958313432140300,8.977140380859375,-0.10384709388017654,-1.2258538007736206,-1.7537940740585327
1779958313448471300,8.99347119140625,-0.018936822190880775,-1.4572190046310425,-1.3820825815200806
1779958313464805600,9.0098056640625,-0.22968533635139465,-1.9883663654327393,-0.9456194043159485
1779958313481139700,9.0261396484375,-0.5751296281814575,-2.303114652633667,-0.5714644193649292
1779958313497471200,9.04247119140625,-0.7586946487426758,-2.2543981075286865,-0.3597996234893799
1779958313513817600,9.058817626953125,-0.7333437204360962,-2.0706803798675537,-0.15302173793315887
1779958313530137600,9.0751376953125,-0.566730260848999,-1.7996090650558472,0.16371189057826996
1779958313546484200,9.091484130859374,-0.4138612151145935,-1.4017829895019531,0.613461434841156
1779958313562816500,9.10781640625,-0.4080579876899719,-1.0595457553863525,1.1884382963180542
1779958313579148000,9.12414794921875,-0.45875978469848633,-0.6244570016860962,1.7765488624572754
1779958313595483100,9.140483154296875,-0.5551238059997559,-0.2197587788105011,2.447736978530884
1779958313611814000,9.15681396484375,-0.6742424964904785,-0.036193765699863434,3.1248812675476074
1779958313628147200,9.173147216796876,-0.37751471996307373,0.5345070958137512,2.8432722091674805
1779958313644470300,9.18947021484375,-0.18646661937236786,1.668120265007019,0.2938261926174164
1779958313660808700,9.20580859375,0.030695978552103043,-0.35185837745666504,-1.3226759433746338
1779958313677115000,9.222114990234376,-0.26542094349861145,-1.6058119535446167,-1.8964312076568604
1779958313693454300,9.238454345703126,-0.4541783034801483,-3.2456798553466797,-1.6265814304351807
1779958313709787100,9.254787109375,0.05207626149058342,-3.3822081089019775,-1.1823296546936035
1779958313726120000,9.271119873046874,0.18417587876319885,-0.5681046843528748,-0.37262779474258423
1779958313742468000,9.287468017578124,-0.877966046333313,2.9408578872680664,0.6388123035430908
1779958313758795800,9.303795654296875,-0.10919216275215149,4.461301803588867,1.7577646970748901
1779958313775130000,9.320130126953124,0.3367394804954529,3.5130860805511475,0.6902777552604675
1779958313791464000,9.3364638671875,0.1846340149641037,0.7037167549133301,-0.12889257073402405
1779958313807795500,9.35279541015625,0.10155634582042694,-1.3466523885726929,0.15515977144241333
1779958313824129800,9.3691298828125,0.29657506942749023,-1.4350751638412476,1.1566733121871948
1779958313840461300,9.38546142578125,0.3744603991508484,-0.34758231043815613,2.364353895187378
1779958313856794400,9.40179443359375,0.6415612101554871,0.977689802646637,3.18581485748291
1779958313873129000,9.41812890625,0.9772316813468933,1.1508700847625732,2.7953193187713623
1779958313889459200,9.434459228515625,0.4433354437351227,-0.2539672255516052,1.1424707174301147
1779958313905789000,9.450788818359374,-0.4786129295825958,0.18967366218566895,1.3267992734909058
1779958313922130400,9.46713037109375,-0.7438811659812927,1.1914926767349243,2.6749789714813232
1779958313938460200,9.483460205078124,-1.0832167863845825,0.7822129726409912,2.596482753753662
1779958313954792000,9.4997919921875,-1.1830933094024658,0.5907067060470581,1.9845484495162964
1779958313971125500,9.51612548828125,-0.9224064946174622,1.1385000944137573,1.2565498352050781
1779958313987465000,9.53246484375,-0.55069500207901,2.42360782623291,0.8246681094169617
1779958314003805400,9.548805419921875,-0.13576480746269226,3.3854150772094727,1.183398723602295
1779958314020135700,9.5651357421875,0.20723603665828705,2.959489345550537,1.6752979755401611
1779958314036469800,9.5814697265625,0.4360050559043884,1.0670288801193237,1.6169602870941162
1779958314052803600,9.597803466796876,0.5732970237731934,-0.1059851199388504,1.3712397813796997
1779958314069131300,9.61413134765625,0.6041457056999207,0.5050328373908997,1.1328495740890503
1779958314085470700,9.630470703125,0.5613851547241211,1.4972307682037354,0.9888381361961365
1779958314101802200,9.64680224609375,0.4335615932941437,2.2455406188964844,1.0432051420211792
1779958314118132200,9.66313232421875,0.2713768780231476,2.5048530101776123,1.0102183818817139
1779958314134444300,9.6794443359375,0.36621370911598206,1.7427985668182373,0.8268061280250549
1779958314150799600,9.695799560546876,0.49098294973373413,0.6553056836128235,0.6455318331718445
1779958314167100000,9.712099853515625,0.4784601926803589,0.7535023093223572,0.4599815309047699
1779958314183440600,9.728440673828125,0.33276882767677307,1.4504995346069336,-0.025045474991202354
1779958314199783400,9.744783447265625,0.0708603709936142,1.7357735633850098,-0.24236078560352325
1779958314216123400,9.761123291015625,-0.18478673696517944,0.8938485980033875,-0.03955352306365967
1779958314232448800,9.77744873046875,-0.24174992740154266,-0.318566232919693,0.08567385375499725
1779958314248782600,9.793782470703125,-0.2860376536846161,-0.8219192028045654,-0.11652254313230515
1779958314265127700,9.810127685546876,-0.48808133602142334,-0.7316638231277466,-0.665232241153717
1779958314281436700,9.826436767578125,-0.8547531962394714,-0.9622654914855957,-1.2705997228622437
1779958314297781200,9.84278125,-1.3069461584091187,-1.6409367322921753,-1.6899586915969849
1779958314314115000,9.859114990234374,-1.4569135904312134,-2.380694627761841,-2.3883304595947266
1779958314330440200,9.875440185546875,-1.2383766174316406,-2.613434314727783,-3.1803171634674072
1779958314346781200,9.89178125,-0.8069530129432678,-2.5703682899475098,-3.277750253677368
1779958314363110700,9.908110595703125,-0.4108068645000458,-2.4378104209899902,-2.869234085083008
1779958314379435000,9.92443505859375,0.09987647086381912,-1.34115469455719,-2.465452194213867
1779958314395768800,9.940768798828126,0.2964223623275757,-0.15256360173225403,-2.375807762145996
1779958314412099800,9.957099853515626,0.21930062770843506,0.4763221740722656,-2.5497515201568604
1779958314428433200,9.97343310546875,0.08261952549219131,0.755182147026062,-2.6922359466552734
1779958314444767000,9.98976708984375,0.18417587876319885,0.23335053026676178,-2.5251641273498535
1779958314461115400,10.006115478515625,0.3556762933731079,-1.1120802164077759,-2.303267478942871
1779958314477444000,10.022444091796874,-0.001679879380390048,-2.157728672027588,-2.274709463119507
1779958314493773600,10.038773681640626,-0.318566232919693,-1.7941112518310547,-2.1624629497528076
1779958314510096000,10.055095947265626,-0.42531493306159973,-1.1873693466186523,-1.9665279388427734
1779958314526440700,10.071440673828125,-0.5578727126121521,-1.4857770204544067,-1.5395331382751465
1779958314542779100,10.087779052734374,-0.6441574096679688,-1.7968600988388062,-1.05404794216156
1779958314559097600,10.10409765625,-0.7008151412010193,-1.9454530477523804,-0.6386595964431763
1779958314575438000,10.12043798828125,-0.7710646390914917,-1.968207836151123,-0.43646320700645447
1779958314591788800,10.136788818359374,-0.8743008971214294,-2.1728477478027344,-0.3303253948688507
1779958314608126500,10.15312646484375,-0.7519751191139221,-2.3521366119384766,-0.3165809214115143
1779958314624453400,10.169453369140625,-0.4804455041885376,-2.1838431358337402,-0.14508049190044403
1779958314640786000,10.185785888671875,-0.23396138846874237,-1.8115209341049194,0.33475416898727417
1779958314657103600,10.202103515625,-0.10201449692249298,-1.5370897054672241,0.9294314980506897
1779958314673437200,10.218437255859374,-0.04795292019844055,-1.1786644458770752,1.4874569177627563
1779958314689759200,10.23475927734375,-0.04612032696604729,-0.750142514705658,2.0532708168029785
1779958314706102000,10.25110205078125,-0.09911288321018219,-0.4178318381309509,2.8099801540374756
1779958314722439700,10.267439697265624,-0.14126259088516235,0.3723223805427551,3.3909130096435547
1779958314738769700,10.283769775390626,-0.40591996908187866,0.8843801617622375,1.0015136003494263
1779958314755102000,10.30010205078125,-0.01664607785642147,-1.6647604703903198,-1.4744759798049927
1779958314771448800,10.31644873046875,-0.02535090781748295,-2.1180224418640137,-2.1319196224212646
1779958314787766500,10.3327666015625,-0.3901901841163635,-2.500576972961426,-1.9153679609298706
1779958314804100400,10.349100341796875,-0.26832255721092224,-3.050966501235962,-1.1943942308425903
1779958314820434000,10.365433837890626,0.050854530185461044,-0.4723515510559082,-0.06444628536701202
1779958314836755000,10.3817548828125,-0.5380195379257202,2.718655824661255,0.8315402865409851
1779958314853101600,10.3981015625,-0.42638394236564636,3.707493782043457,0.9873109459877014
1779958314869431000,10.41443115234375,0.05390885844826698,2.8037188053131104,0.1612684279680252
1779958314885766400,10.430766357421875,-0.13973543047904968,1.574352502822876,-0.5630650520324707
1779958314902098000,10.447097900390625,-0.1722639948129654,-1.2709051370620728,-0.3985895812511444
1779958314918431500,10.463431396484374,0.12507465481758118,-2.484541654586792,0.4395175576210022
1779958314934765000,10.47976513671875,0.3202461004257202,-1.7145460844039917,1.6120734214782715
1779958314951096800,10.496096923828125,0.47418415546417236,-0.385303258895874,2.523178815841675
1779958314967430400,10.512430419921875,0.9967793822288513,1.2389874458312988,2.6371052265167236
1779958314983781000,10.528781005859376,0.7606799602508545,0.5653557777404785,1.2643383741378784
1779958315000103700,10.545103759765626,-0.34284812211990356,-0.13209961354732513,0.6841690540313721
1779958315016443000,10.56144287109375,-0.8626944422721863,-0.7489207983016968,3.011565685272217
1779958315032780500,10.577780517578125,-0.9793696999549866,-0.8768970370292664,3.7290267944335938
1779958315049109800,10.59410986328125,-1.094365119934082,0.14126259088516235,2.5784621238708496
1779958315065424600,10.610424560546875,-1.1099421977996826,1.4836390018463135,1.3584115505218506
1779958315081767000,10.626766845703125,-0.9086620807647705,2.256078004837036,0.7884743213653564
1779958315098081300,10.643081298828125,-0.611934244632721,3.059365749359131,1.023352026939392
1779958315114415600,10.65941552734375,-0.2664899528026581,3.3848042488098145,1.6407840251922607
1779958315130748200,10.675748046875,-0.006872233934700489,2.86388897895813,1.8713856935501099
1779958315147083000,10.6920830078125,0.28267788887023926,1.5567901134490967,1.6559029817581177
1779958315163408000,10.708407958984376,0.5855143666267395,-0.11010845750570297,1.481042742729187
1779958315179746000,10.72474609375,0.6640105247497559,-0.6276640295982361,1.4633276462554932
1779958315196078600,10.74107861328125,0.5566509366035461,0.5335907936096191,1.2009611129760742
1779958315212409300,10.757409423828125,0.5090034604072571,2.3182334899902344,0.9298896193504333
1779958315228745000,10.773744873046875,0.4121813178062439,3.054020881652832,0.6249151229858398
1779958315245078000,10.790078125,0.460897833108902,1.9341521263122559,0.44913867115974426
1779958315261409500,10.806409423828125,0.5305364727973938,0.6655376553535461,0.4248567819595337
1779958315277743600,10.82274365234375,0.447000652551651,0.7359399199485779,0.3323107063770294
1779958315294076200,10.839076171875,0.2704605758190155,1.3321443796157837,0.1186605766415596
1779958315310409000,10.855408935546874,-0.038637228310108185,1.2504411935806274,0.03191770985722542
1779958315326756900,10.8717568359375,-0.26908615231513977,0.3599523603916168,0.11484266817569733
1779958315343086300,10.88808642578125,-0.20463985204696655,-0.45891252160072327,0.17379115521907806
1779958315359417900,10.90441796875,-0.27091872692108154,-0.633009135723114,-0.015118914656341076
1779958315375753000,10.9207529296875,-0.41493022441864014,-0.7866417169570923,-0.49067750573158264
1779958315392085500,10.93708544921875,-0.6426302194595337,-1.2142473459243774,-1.1140655279159546
1779958315408416500,10.95341650390625,-1.0627528429031372,-1.7780760526657104,-1.734704613685608
1779958315424750600,10.96975048828125,-1.322981357574463,-2.246915102005005,-2.4306328296661377
1779958315441085000,10.9860849609375,-1.1830933094024658,-2.2968533039093018,-3.0020971298217773
1779958315457418800,11.002418701171875,-0.8512406945228577,-2.4883596897125244,-3.022866725921631
1779958315473750500,11.01875048828125,-0.5346598029136658,-3.028364419937134,-2.7324001789093018
1779958315490084600,11.035084716796876,-0.017867809161543846,-2.42360782623291,-2.4471261501312256
1779958315506395000,11.051394775390625,0.35124751925468445,-0.9272934198379517,-2.347249746322632
1779958315522766300,11.067766357421876,0.304669052362442,0.09224065393209457,-2.473546028137207
1779958315539095300,11.08409521484375,0.19364428520202637,0.46532660722732544,-2.6734516620635986
1779958315555426600,11.100426513671875,0.2747366428375244,0.4534147381782532,-2.7814221382141113
1779958315571760600,11.1167607421875,0.5064072608947754,-0.07284568250179291,-2.8009698390960693
1779958315588091100,11.133091064453126,0.3410155177116394,-1.5096007585525513,-2.381305456161499
1779958315604427000,11.149427001953125,-0.11148291081190109,-2.62076473236084,-1.9561432600021362
1779958315620756700,11.1657568359375,-0.3139847218990326,-2.2757785320281982,-1.8887953758239746
1779958315637075700,11.18207568359375,-0.35063666105270386,-1.6300939321517944,-1.7490599155426025
1779958315653410800,11.198410888671875,-0.3205515444278717,-1.4902057647705078,-1.454470157623291
1779958315669742300,11.214742431640625,-0.389426589012146,-1.6061174869537354,-1.1475104093551636
1779958315686073000,11.231072998046875,-0.5887213945388794,-1.8903224468231201,-0.8191702961921692
1779958315702413600,11.24741357421875,-0.9133962392807007,-2.2568416595458984,-0.4763221740722656
1779958315718741000,11.263740966796876,-0.9611964821815491,-2.2855522632598877,-0.3159700334072113
1779958315735092500,11.280092529296875,-0.7704538106918335,-2.052201747894287,-0.1371392458677292
1779958315751421200,11.296421142578126,-0.5584835410118103,-1.7067575454711914,0.19303341209888458
1779958315767750400,11.31275048828125,-0.3943135142326355,-1.2597568035125732,0.6959282159805298
1779958315784092400,11.329092529296876,-0.347276896238327,-0.8891143798828125,1.3127493858337402
1779958315800415500,11.34541552734375,-0.3292563557624817,-0.4202753007411957,1.9463694095611572
1779958315816739600,11.361739501953124,-0.4079052805900574,-0.05513058975338936,2.652224063873291
1779958315833073400,11.378073486328125,-0.38606682419776917,-0.07223481684923172,3.1954360008239746
1779958315849404200,11.394404052734375,-0.3150537610054016,0.6461427211761475,2.0838141441345215
1779958315865738000,11.410738037109375,-0.11026117950677872,-0.5018258094787598,-0.27580565214157104
1779958315882069500,11.427069580078125,0.1411098688840866,-1.2026410102844238,-1.560302495956421
1779958315898405000,11.443405029296875,0.007788531947880983,-1.1630873680114746,-1.8057177066802979
1779958315914736400,11.459736328125,-0.004734205547720194,-2.422996997833252,-1.5347989797592163
1779958315931070200,11.4760703125,0.47739118337631226,-1.420719861984253,-0.8332201838493347
1779958315947402500,11.492402587890625,0.22510384023189545,1.8197675943374634,0.3182607889175415
1779958315963736000,11.508736083984376,-0.20891591906547546,3.6664133071899414,0.8845328688621521
1779958315980090000,11.525090087890625,0.34987306594848633,3.459329843521118,0.7382306456565857
1779958315996414500,11.54141455078125,-0.304210901260376,2.7006351947784424,-0.19593502581119537
1779958316012748800,11.557748779296874,-0.4787656366825104,0.8875871896743774,-0.052839845418930054
1779958316029081900,11.574081787109375,-0.2710714638233185,-0.8958339095115662,0.8242099285125732
1779958316045412600,11.59041259765625,-0.02977968007326126,-1.326341152191162,2.1305453777313232
1779958316061744600,11.60674462890625,0.3445279896259308,-0.3095559775829315,2.925891876220703
1779958316078073900,11.623073974609374,0.9772316813468933,1.098488450050354,2.8344147205352783
1779958316094418400,11.63941845703125,1.0474811792373657,0.4677700698375702,1.2496775388717651
1779958316110755000,11.655755126953125,0.06352998316287994,0.01863138936460018,0.6530149579048157
1779958316127094800,11.6720947265625,-0.6264423131942749,0.7434229850769043,2.417041063308716
1779958316143411500,11.688411376953125,-0.880104124546051,-0.019089538604021072,2.7572929859161377
1779958316159742700,11.70474267578125,-1.1162035465240479,0.308792382478714,2.1033618450164795
1779958316176055000,11.721054931640625,-0.9753990769386292,1.0586295127868652,1.3625348806381226
1779958316192413400,11.737413330078125,-0.7415903806686401,1.9509508609771729,0.7605272531509399
1779958316208717000,11.753717041015625,-0.4537201523780823,3.1144964694976807,0.8184067010879517
1779958316225062700,11.770062744140626,-0.09269879758358002,3.3206634521484375,1.5086843967437744
1779958316241394400,11.78639453125,0.2197587788105011,2.425898551940918,1.8892534971237183
1779958316257723400,11.802723388671875,0.4456261992454529,0.9298896193504333,1.6478090286254883
1779958316274062800,11.819062744140625,0.6907358765602112,0.0027488935738801956,1.4253013134002686
1779958316290404900,11.83540478515625,0.7874053120613098,0.40653082728385925,1.3200798034667969
1779958316306725400,11.851725341796875,0.7541131377220154,1.44057297706604,1.0760390758514404
1779958316323058700,11.86805859375,0.6467535495758057,2.3793201446533203,0.936609148979187
1779958316339390000,11.884389892578126,0.5592471361160278,2.0749564170837402,0.8677340745925903
1779958316355724800,11.900724853515625,0.578489363193512,1.120632290840149,0.784503698348999
1779958316372057600,11.9170576171875,0.5809328556060791,0.6316346526145935,0.6925684809684753
1779958316388388900,11.933388916015625,0.5351179838180542,0.7542658448219299,0.4918992519378662
1779958316404725500,11.9497255859375,0.3969096839427948,1.1091785430908203,0.29275718331336975
1779958316421052700,11.966052734375,0.12751811742782593,1.0297660827636719,0.26710084080696106
1779958316437375200,11.982375244140625,-0.08933904021978378,0.30222558975219727,0.2770273983478546
1779958316453721000,11.99872119140625,-0.17318029701709747,-0.4060726761817932,0.08811730891466141
1779958316470113000,12.015113037109375,-0.28878653049468994,-0.6782131195068359,-0.24236078560352325
1779958316486397200,12.031397216796876,-0.5710062980651855,-0.8263479471206665,-0.6467535495758057
1779958316502738700,12.04773876953125,-0.8907942175865173,-1.3724614381790161,-1.1412489414215088
1779958316519067100,12.064067138671875,-1.2290608882904053,-1.8266397714614868,-1.6285667419433594
1779958316535398700,12.080398681640625,-1.3408491611480713,-1.7985399961471558,-2.2686007022857666
1779958316551728400,12.096728271484375,-1.1917980909347534,-1.781130313873291,-2.7565293312072754
1779958316568049700,12.113049560546875,-0.9453139901161194,-2.2539401054382324,-2.810743808746338
1779958316584403700,12.12940380859375,-0.5525276064872742,-2.2382102012634277,-2.5859453678131104
1779958316600728800,12.145728759765625,-0.2519819140434265,-1.2904528379440308,-2.397798776626587
1779958316617065200,12.162065185546876,-0.17867808043956757,-0.4323398768901825,-2.414444923400879
1779958316633397800,12.178397705078124,-0.16142113506793976,-0.04092797264456749,-2.52944016456604
1779958316649727700,12.194727783203126,-0.08964447677135468,-0.018020525574684143,-2.6931521892547607
1779958316666061800,12.211061767578125,0.15745051205158234,-0.2742784917354584,-2.7345383167266846
1779958316682376000,12.2273759765625,0.28466320037841797,-1.0502300262451172,-2.4885122776031494
1779958316698726000,12.243725830078125,0.15424346923828125,-2.378098487854004,-1.9162843227386475
1779958316715050000,12.260050048828125,-0.2197587788105011,-2.679865837097168,-1.7539467811584473
1779958316731388400,12.276388427734375,-0.38377609848976135,-1.9170478582382202,-1.956906795501709
1779958316747710500,12.29271044921875,-0.35292738676071167,-1.5671747922897339,-1.8504635095596313
1779958316764062000,12.30906201171875,-0.44287729263305664,-1.5015068054199219,-1.471268892288208
1779958316780376000,12.3253759765625,-0.5455026626586914,-1.5738942623138428,-1.2258538007736206
1779958316796718300,12.34171826171875,-0.7006624341011047,-1.8553504943847656,-1.0236574411392212
1779958316813048600,12.358048583984376,-0.9135489463806152,-2.286621332168579,-0.7800748944282532
1779958316829372400,12.374372314453124,-0.9570731520652771,-2.4741568565368652,-0.5204572081565857
1779958316845713400,12.39071337890625,-0.7455610036849976,-2.355648994445801,-0.21884247660636902
1779958316862043000,12.40704296875,-0.4873177409172058,-1.9324722290039062,0.24342979490756989
1779958316878360800,12.42336083984375,-0.35384368896484375,-1.423621416091919,0.903775155544281
1779958316894711600,12.439711669921875,-0.33292156457901,-0.85994553565979,1.6488779783248901
1779958316911041800,12.456041748046875,-0.33948835730552673,-0.2474004179239273,2.411543369293213
1779958316927374000,12.4723740234375,-0.38927388191223145,0.2125810980796814,3.1723759174346924
1779958316943708000,12.4887080078125,-0.2623666226863861,0.7353290319442749,3.243694543838501
1779958316960083500,12.50508349609375,-0.1595885455608368,1.4178181886672974,0.5751296281814575
1779958316976388600,12.521388671875,-0.038026362657547,-1.013272762298584,-1.1844676733016968
1779958316992696800,12.53769677734375,-0.13820825517177582,-1.2533427476882935,-1.676672339439392
1779958317009054700,12.5540546875,-0.23258693516254425,-1.996002197265625,-1.6783522367477417
1779958317025356800,12.570356689453124,0.019394971430301666,-2.3035728931427,-1.34283447265625
1779958317041741800,12.586741943359375,0.22907446324825287,-0.23686300218105316,-0.34956762194633484
1779958317058072600,12.603072509765624,-0.43386703729629517,2.0951151847839355,0.8217664957046509
1779958317074385200,12.61938525390625,-0.5166392922401428,4.552626132965088,1.434922456741333
1779958317090714000,12.635714111328125,0.2444988191127777,4.489096164703369,1.0149526596069336
1779958317107048000,12.6520478515625,0.27030786871910095,2.1563544273376465,-0.061391957104206085
1779958317123383300,12.66838330078125,0.14935655891895294,-1.4182764291763306,-0.39996400475502014
1779958317139714300,12.68471435546875,0.29077184200286865,-2.9277243614196777,0.1837177276611328
1779958317156046800,12.701046875,0.4271475374698639,-1.8800904750823975,1.3611605167388916
1779958317172382200,12.71738232421875,0.5849034786224365,0.7924449443817139,2.5114197731018066
1779958317188672300,12.73367236328125,1.136362075805664,3.221856117248535,3.059213161468506
1779958317205020000,12.75002001953125,0.9216429591178894,2.7734808921813965,2.104430675506592
1779958317221355300,12.766355224609375,-0.10476338863372803,1.2431107759475708,0.945772111415863
1779958317237687000,12.78268701171875,-0.5170974135398865,0.8856018781661987,2.375196695327759
1779958317254020900,12.799020751953124,-0.8678867816925049,0.28267788887023926,2.7070493698120117
1779958317270356700,12.815356689453125,-1.2817480564117432,0.5763513445854187,2.202169179916382
1779958317286697000,12.831697021484375,-1.1676689386367798,1.280220866203308,1.6998852491378784
1779958317303030300,12.8480302734375,-0.7887797355651855,1.7881553173065186,1.1892019510269165
1779958317319361500,12.864361572265626,-0.3666718602180481,2.6471846103668213,0.9402743577957153
1779958317335696400,12.8806962890625,0.07666359096765518,3.107471466064453,1.2292135953903198
1779958317352025600,12.897025634765624,0.43050727248191833,2.725222587585449,1.441641926765442
1779958317368349000,12.913348876953124,0.7177666425704956,1.7840319871902466,1.2609785795211792
1779958317384697000,12.929697021484374,0.893390417098999,1.0557278394699097,1.0858129262924194
1779958317401028900,12.94602880859375,0.8834638595581055,0.9980010986328125,1.1797335147857666
1779958317417356800,12.962356689453125,0.6542366743087769,1.6977472305297852,1.3874276876449585
1779958317433695700,12.97869580078125,0.41981714963912964,2.4524712562561035,1.246165156364441
1779958317450025000,12.99502490234375,0.380721777677536,2.23591947555542,0.8720101118087769
1779958317466372900,13.011372802734375,0.5267185568809509,1.258840560913086,0.6870706677436829
1779958317482705400,13.027705322265625,0.5766568183898926,0.7594582438468933,0.6383541822433472
1779958317499037200,13.044037109375,0.5241223573684692,1.0114401578903198,0.5044219493865967
1779958317515372800,13.060372802734374,0.3223841190338135,1.3616186380386353,0.26710084080696106
1779958317531703300,13.076703369140626,-0.021532999351620674,1.1772900819778442,0.25763240456581116
1779958317548020000,13.09302001953125,-0.2269364446401596,0.4509712755680084,0.43279802799224854
1779958317564370700,13.10937060546875,-0.10186178237199783,-0.13148874044418335,0.45494189858436584
1779958317580669000,13.1256689453125,-0.13836097717285156,-0.19089539349079132,0.20066922903060913
1779958317597019100,13.14201904296875,-0.3142901659011841,-0.3119994103908539,-0.285121351480484
1779958317613349600,13.158349609375,-0.4384485185146332,-0.7284567952156067,-0.9799805879592896
1779958317629690400,13.1746904296875,-0.8289441466331482,-1.1349875926971436,-1.782657504081726
1779958317646017800,13.191017822265625,-1.243721604347229,-1.3658946752548218,-2.366950035095215
1779958317662339300,13.20733935546875,-1.297935962677002,-1.47844660282135,-2.72491717338562
1779958317678672600,13.223672607421875,-1.2034045457839966,-1.7954856157302856,-2.82769513130188
1779958317695034400,13.240034423828124,-0.9364564418792725,-2.3938281536102295,-2.6983444690704346
1779958317711364000,13.256364013671876,-0.49724429845809937,-2.059837579727173,-2.5308146476745605
1779958317727688400,13.2726884765625,-0.04337143152952194,-1.0308351516723633,-2.4553728103637695
1779958317744028000,13.28902783203125,0.17501288652420044,-0.14324790239334106,-2.5132522583007812
1779958317760351200,13.305351318359374,0.31871894001960754,0.50335294008255,-2.5896105766296387
1779958317776694500,13.321694580078125,0.5216789245605469,0.5510004758834839,-2.69651198387146
1779958317793028900,13.33802880859375,0.7687739133834839,-0.3865249752998352,-2.820059299468994
1779958317809349600,13.354349609375,0.5195409059524536,-1.4640913009643555,-2.6749789714813232
1779958317825685000,13.37068505859375,0.06429356336593628,-1.8159496784210205,-2.4529294967651367
1779958317842014700,13.3870146484375,-0.36132678389549255,-1.5121968984603882,-2.2818870544433594
1779958317858347300,13.40334716796875,-0.5517640113830566,-1.2424999475479126,-2.0619757175445557
1779958317874679600,13.419679443359374,-0.3933972120285034,-1.6247488260269165,-1.538158655166626
1779958317891014400,13.436014404296875,-0.4882340431213379,-1.96133553981781,-1.129184365272522
1779958317907329300,13.452329345703125,-0.7457137703895569,-2.252718210220337,-0.9115636348724365
1779958317923666200,13.468666259765625,-0.935081958770752,-2.3570234775543213,-0.7733554244041443
1779958317939998200,13.484998291015625,-0.8759807348251343,-2.4356725215911865,-0.5894849896430969
1779958317956332500,13.50133251953125,-0.6444628238677979,-2.2285890579223633,-0.2096794992685318
1779958317972664300,13.517664306640626,-0.4288274049758911,-1.8391625881195068,0.3579670190811157
1779958317989011700,13.53401171875,-0.44104471802711487,-1.4077389240264893,1.0977247953414917
1779958318005345500,13.550345458984374,-0.5407684445381165,-0.8243626356124878,1.9007072448730469
1779958318021676000,13.566676025390626,-0.6333145499229431,-0.18585574626922607,2.6765060424804688
1779958318038007000,13.583007080078126,-0.684779942035675,0.2678644061088562,3.5584428310394287
1779958318054342100,13.599342041015625,-0.3341432809829712,0.7771732807159424,3.554166793823242
1779958318070674700,13.6156748046875,-0.12736541032791138,1.9158260822296143,0.24159720540046692
1779958318087007000,13.632007080078125,-0.047189339995384216,-1.5416711568832397,-1.652695894241333
1779958318103357000,13.64835693359375,-0.2626720666885376,-1.748907208442688,-2.0563251972198486
1779958318119667700,13.664667724609375,-0.4349360466003418,-2.810896396636963,-1.9492709636688232
1779958318136022800,13.681022705078124,-0.1339322030544281,-2.426051378250122,-1.4306464195251465
1779958318152349200,13.69734912109375,0.11530081182718277,0.5855143666267395,-0.48716503381729126
1779958318168672000,13.713672119140625,-0.8347473740577698,3.4161112308502197,0.30512720346450806
1779958318185013800,13.730013671875,-0.3303253948688507,3.9377901554107666,1.171334147453308
1779958318201353700,13.746353759765626,-0.6754642724990845,3.307682514190674,0.1514945775270462
1779958318217680100,13.76268017578125,-0.7163922190666199,1.5225815773010254,-0.050243668258190155
1779958318234014500,13.779014404296875,-0.07987063378095627,-0.5195409059524536,0.4108068645000458
1779958318250334200,13.795334228515625,0.6527095437049866,-1.1688905954360962,1.5218180418014526
1779958318266681900,13.811681884765624,1.432020902633667,-0.18799377977848053,2.478891134262085
1779958318283016000,13.828015869140625,2.1172590255737305,1.5404493808746338,2.9599475860595703
1779958318299340300,13.84434033203125,2.144442558288574,1.7805194854736328,2.4303274154663086
1779958318315667500,13.86066748046875,0.4964807331562042,0.26053401827812195,0.7863363027572632
1779958318331986700,13.876986572265626,-0.4184426963329315,0.7631233930587769,2.052354574203491
1779958318348334800,13.8933349609375,-0.9967793822288513,0.9210320711135864,2.6531405448913574
1779958318364666400,13.909666259765626,-1.4301882982254028,0.6157521605491638,2.2676844596862793
1779958318381001700,13.926001708984375,-1.5137240886688232,0.7154759168624878,1.7486017942428589
1779958318397331200,13.942331298828124,-1.2357803583145142,0.911410927772522,1.333213448524475
1779958318413663700,13.958663818359375,-0.7328855991363525,1.856572151184082,1.1065824031829834
1779958318429984500,13.974984619140624,-0.10644327104091644,2.789210796356201,1.3634512424468994
1779958318446328600,13.99132861328125,0.427452951669693,2.3512203693389893,1.3865114450454712
1779958318462680600,14.0076806640625,0.8556694984436035,1.2421945333480835,0.9112582206726074
1779958318479008000,14.024008056640625,1.0529789924621582,1.0143417119979858,0.6565274000167847
1779958318495341600,14.040341552734375,0.888350784778595,1.4729487895965576,0.7782423496246338
1779958318511674000,14.056674072265626,0.4691445231437683,2.073582172393799,0.9382890462875366
1779958318528009200,14.07300927734375,0.11942415684461594,2.154979944229126,0.960280179977417
1779958318544327700,14.08932763671875,0.23716843128204346,1.3125966787338257,1.0088438987731934
1779958318560657400,14.105657470703125,0.33108896017074585,0.8165740966796875,0.8689557909965515
1779958318577006600,14.122006591796875,0.44684791564941406,0.9654725193977356,0.6055201888084412
1779958318593304800,14.138304931640626,0.5320636034011841,1.054964303970337,0.455705463886261
1779958318609646300,14.154646240234374,0.5221370458602905,0.9024006724357605,0.31902438402175903
1779958318625976300,14.170976318359376,0.3727805018424988,0.8710938692092896,0.2480112910270691
1779958318642313500,14.1873134765625,0.06719517707824707,0.6409503817558289,0.37537670135498047
1779958318658645800,14.203645751953125,-0.08261952549219131,0.1635591685771942,0.5360342264175415
1779958318674977300,14.219977294921875,-0.09117163717746735,0.11575896292924881,0.498924195766449
1779958318691312600,14.236312744140625,-0.1088867336511612,0.11316278576850891,0.17150041460990906
1779958318707643400,14.252643310546874,-0.1310305893421173,-0.2802344262599945,-0.4440990388393402
1779958318723976000,14.268975830078125,-0.3741549551486969,-0.6420193910598755,-1.0980303287506104
1779958318740307700,14.2853076171875,-0.8158105611801147,-1.1016954183578491,-1.7568484544754028
1779958318756640800,14.301640869140625,-1.1107057332992554,-1.2614367008209229,-2.551889657974243
1779958318772975000,14.31797509765625,-1.2006556987762451,-0.7895433306694031,-3.0162999629974365
1779958318789307600,14.3343076171875,-1.144914150238037,-0.8275696635246277,-2.9407052993774414
1779958318805655300,14.3506552734375,-0.911410927772522,-1.689195156097412,-2.616488456726074
1779958318821966800,14.366966796875,-0.6236934065818787,-1.7730363607406616,-2.5083653926849365
1779958318838319400,14.3833193359375,-0.4329507350921631,-1.2092077732086182,-2.468353748321533
1779958318854650400,14.399650390625,-0.39248090982437134,-0.6233879923820496,-2.475836753845215
1779958318870971600,14.4159716796875,-0.3208569586277008,-0.042760565876960754,-2.5526530742645264
1779958318887316500,14.43231640625,0.022907447069883347,0.29397889971733093,-2.6403121948242188
1779958318903650300,14.448650390625,0.554818332195282,-0.11957687139511108,-2.7033841609954834
1779958318919975700,14.4649755859375,0.737772524356842,-0.6583600044250488,-2.565481424331665
1779958318936329700,14.481329833984375,0.4732678532600403,-1.0283915996551514,-2.258826971054077
1779958318952669200,14.497669189453125,0.14004085958003998,-1.1627819538116455,-2.077247381210327
1779958318968979200,14.513979248046875,-0.10919216275215149,-1.168585181236267,-1.8648189306259155
1779958318985326800,14.530326904296874,-0.21212296187877655,-1.2243266105651855,-1.5173892974853516
1779958319001659600,14.54665966796875,-0.29764407873153687,-1.6751452684402466,-1.0438159704208374
1779958319017956000,14.5629560546875,-0.6097962260246277,-2.339155673980713,-0.7267768979072571
1779958319034330400,14.579330322265625,-0.6459900140762329,-2.319302558898926,-0.7483099102973938
1779958319050658000,14.595657958984376,-0.48609602451324463,-2.1711678504943848,-0.6424775123596191
1779958319066971000,14.611970947265625,-0.2373211532831192,-1.873218297958374,-0.25534167885780334
1779958319083328000,14.628327880859375,-0.022449297830462456,-1.4110987186431885,0.31612277030944824
1779958319099656200,14.64465625,-0.033139441162347794,-0.9611964821815491,1.0393872261047363
1779958319115984100,14.660984130859376,-0.22479841113090515,-0.4184426963329315,1.859015703201294
1779958319132326000,14.677325927734374,-0.44486260414123535,0.20906862616539001,2.7757716178894043
1779958319148654000,14.693654052734376,-0.6021603941917419,0.5612324476242065,3.659540891647339
1779958319164987400,14.7099873046875,-0.2877175211906433,0.6053674817085266,3.5081992149353027
1779958319181320200,14.7263203125,-0.15012013912200928,0.9816604256629944,0.875064492225647
1779958319197652000,14.74265185546875,-0.08659014850854874,-0.7241807579994202,-1.268614411354065
1779958319213985800,14.75898583984375,-0.3594942092895508,-1.501812219619751,-2.0282254219055176
1779958319230317800,14.77531787109375,-0.5195409059524536,-2.9356656074523926,-1.8787161111831665
1779958319246635800,14.7916357421875,-0.16920967400074005,-2.973691940307617,-1.061989188194275
1779958319262984200,14.807984130859374,0.19333885610103607,-0.2935207486152649,-0.005955935921519995
1779958319279313400,14.8243134765625,-0.313373863697052,2.805856704711914,0.6982190012931824
1779958319295638000,14.840637939453124,-0.3068070709705353,4.035223007202148,1.059393048286438
1779958319311972600,14.85697265625,-0.00427605677396059,2.475989580154419,0.3274237811565399
1779958319328302000,14.873302001953125,-0.3452915847301483,0.8150469660758972,-0.2932153046131134
1779958319344635600,14.8896357421875,-0.1466076523065567,-0.4938845634460449,-0.09315694868564606
1779958319360971800,14.9059716796875,0.30085113644599915,-0.8196284174919128,0.8185594081878662
1779958319377301800,14.9223017578125,0.6354525685310364,0.19975294172763824,1.9769126176834106
1779958319393647000,14.938647216796875,1.0758863687515259,1.3698652982711792,2.8742737770080566
1779958319409954600,14.95495458984375,1.5329663753509521,2.233170509338379,3.0103440284729004
1779958319426314200,14.971314208984374,1.231046199798584,0.8196284174919128,1.4735597372055054
1779958319442652200,14.987652099609376,0.2451096773147583,-0.30405816435813904,1.0932960510253906
1779958319458978300,15.003978271484375,-0.39706242084503174,-0.11010845750570297,2.373058795928955
1779958319475311600,15.0203115234375,-0.8225300312042236,-0.007941247895359993,2.406656265258789
1779958319491641300,15.036641357421875,-1.0758863687515259,0.43249258399009705,1.9138407707214355
1779958319507980500,15.05298046875,-1.0923798084259033,0.8576548099517822,1.568701982498169
1779958319524310800,15.069310791015624,-0.8823948502540588,1.1081095933914185,1.3461942672729492
1779958319540627700,15.085627685546875,-0.555429220199585,2.278374671936035,1.190729022026062
1779958319556961500,15.10196142578125,-0.17058411240577698,3.324786901473999,1.415069341659546
1779958319573310000,15.11831005859375,0.15225815773010254,2.995377779006958,1.5893186330795288
1779958319589640700,15.134640625,0.48655417561531067,1.1577423810958862,1.4494304656982422
1779958319605969000,15.150968994140625,0.7267768979072571,-0.270766019821167,1.2713632583618164
1779958319622296800,15.167296875,0.6887505650520325,0.01191187184303999,1.1429288387298584
1779958319638645000,15.18364501953125,0.5271766781806946,1.2446379661560059,1.0971139669418335
1779958319654971100,15.19997119140625,0.2919935882091522,2.481945514678955,1.0816895961761475
1779958319671305700,15.2163056640625,0.16035212576389313,2.610532522201538,0.99250328540802
1779958319687624200,15.232624267578124,0.40393465757369995,1.3613132238388062,0.841619610786438
1779958319703990500,15.248990478515625,0.6070473194122314,0.19562959671020508,0.6969972252845764
1779958319720290600,15.26529052734375,0.5429064631462097,0.570853590965271,0.4836525619029999
1779958319736621000,15.28162109375,0.3127630054950714,1.5703818798065186,0.01878410577774048
1779958319752970500,15.297970458984375,0.014508049935102463,1.6314682960510254,-0.17928895354270935
1779958319769298700,15.314298583984375,-0.1488984078168869,0.5598580241203308,0.06230825558304787
1779958319785619700,15.33061962890625,-0.18387043476104736,-0.41630467772483826,0.11698069423437119
1779958319801958700,15.346958740234374,-0.3478877544403076,-0.4859432876110077,-0.21349740028381348
1779958319818288000,15.3632880859375,-0.5450445413589478,-0.5180137157440186,-0.7881689071655273
1779958319834621000,15.379620849609376,-0.7900014519691467,-0.8999572396278381,-1.4387403726577759
1779958319850954800,15.395954833984375,-1.104138970375061,-1.621694564819336,-2.012648344039917
1779958319867273000,15.41227294921875,-1.2947288751602173,-2.330909013748169,-2.6143505573272705
1779958319883620400,15.428620361328125,-1.1872166395187378,-2.556471109390259,-3.0250046253204346
1779958319899940000,15.444940185546875,-0.8440630435943604,-2.671924591064453,-2.8942794799804688
1779958319916285200,15.46128515625,-0.5375614166259766,-2.395813465118408,-2.5495989322662354
1779958319932637200,15.47763720703125,-0.03039054572582245,-1.333060622215271,-2.3266329765319824
1779958319948958000,15.4939580078125,0.09086620807647705,-0.27320948243141174,-2.3680191040039062
1779958319965303600,15.510303466796875,-0.012675453908741474,0.34055736660957336,-2.5257749557495117
1779958319981629000,15.52662890625,0.03130684420466423,0.8419250249862671,-2.5999951362609863
1779958319997960700,15.542960693359374,0.28985556960105896,0.13041973114013672,-2.2438607215881348
1779958320014297600,15.559297607421875,0.579405665397644,-1.2696833610534668,-2.1817052364349365
1779958320030612500,15.575612548828126,0.34284812211990356,-2.1148154735565186,-2.3800837993621826
1779958320046959400,15.59195947265625,-0.049785517156124115,-1.4633276462554932,-2.442239284515381
1779958320063295000,15.608294921875,-0.3523165285587311,-0.8234463334083557,-2.052201747894287
1779958320079626800,15.624626708984374,-0.5105306506156921,-0.880104124546051,-1.4242323637008667
1779958320095954000,15.640953857421875,-0.5710062980651855,-1.2919800281524658,-0.9329439401626587
1779958320112291000,15.657291015625,-0.669966459274292,-1.6029103994369507,-0.6855435371398926
1779958320128628500,15.67362841796875,-0.7620543837547302,-1.7944166660308838,-0.5739079117774963
1779958320144957400,15.68995751953125,-0.6907358765602112,-2.15849232673645,-0.5123631954193115
1779958320161263600,15.706263671875,-0.5160284042358398,-2.2791383266448975,-0.4053090810775757
1779958320177626400,15.72262646484375,-0.308792382478714,-2.1458168029785156,-0.060322944074869156
1779958320193940700,15.738940673828125,-0.08933904021978378,-1.8431332111358643,0.5047274231910706
1779958320210262000,15.755261962890625,-0.008857546374201775,-1.4734070301055908,1.1829406023025513
1779958320226595800,15.771595947265626,-0.001832595793530345,-0.9447031021118164,1.9295705556869507
1779958320242941000,15.78794091796875,-0.08384125679731369,-0.29626965522766113,2.7849347591400146
1779958320259273500,15.8042734375,-0.14446963369846344,0.33796119689941406,3.706730365753174
1779958320275607600,15.820607666015626,-0.17256943881511688,1.7702875137329102,3.218648910522461
1779958320291941000,15.836941162109374,-0.2971859276294708,0.6333145499229431,-0.3052799105644226
1779958320308272400,15.8532724609375,0.01114829070866108,-1.5777121782302856,-2.1252002716064453
1779958320324605000,15.86960498046875,-0.31642818450927734,-1.8193094730377197,-2.2745566368103027
1779958320340939300,15.885939208984375,-0.2793181240558624,-3.095407009124756,-1.9851592779159546
1779958320357271800,15.902271728515625,0.002138028386980295,-1.7854063510894775,-0.9353874325752258
1779958320373604000,15.91860400390625,-0.275347501039505,0.8032878041267395,0.6907358765602112
1779958320389939000,15.93493896484375,-0.912021815776825,3.7261252403259277,1.9567540884017944
1779958320406268000,15.951267822265624,0.0809396430850029,5.375919818878174,2.21056866645813
1779958320422627600,15.967627685546875,1.1073459386825562,2.3463335037231445,0.25503623485565186
1779958320438947600,15.983947509765626,0.8686503767967224,-0.8159632682800293,-0.9256135821342468
1779958320455282000,16.000281982421875,-0.17699819803237915,-1.6736180782318115,-0.46547931432724
1779958320471615000,16.016614990234373,-0.23686300218105316,-1.4103351831436157,0.5873469114303589
1779958320487941600,16.032941650390626,0.14569136500358582,-0.035582900047302246,1.6953037977218628
1779958320504281000,16.049281005859374,0.6487388610839844,1.7803667783737183,2.4998133182525635
1779958320520613000,16.065613037109376,1.0268645286560059,2.596482753753662,2.528982162475586
1779958320536925400,16.081925537109374,0.566119372844696,1.0534371137619019,1.232573390007019
1779958320553252900,16.0982529296875,-0.13775011897087097,0.13026700913906097,1.0980303287506104
1779958320569600300,16.114600341796876,-0.4940372705459595,0.2767219543457031,2.7317893505096436
1779958320585929500,16.130929443359374,-1.10139000415802,0.1693623960018158,2.780047655105591
1779958320602265600,16.147265625,-1.5260940790176392,0.6239988207817078,2.208430528640747
1779958320618595600,16.163595703125,-1.3877331018447876,1.2873984575271606,1.547932505607605
1779958320634928000,16.17992822265625,-0.9747881889343262,1.9747745990753174,1.1207849979400635
1779958320651278800,16.19627880859375,-0.4476115107536316,2.6583328247070312,1.2735012769699097
1779958320667608000,16.212608154296873,0.17379115521907806,2.5175282955169678,1.395521640777588
1779958320683941600,16.228941650390624,0.7486153841018677,1.6658295392990112,1.1163562536239624
1779958320700242400,16.245242431640627,1.09024178981781,0.8979719281196594,0.8286387324333191
1779958320716580400,16.261580322265626,0.9856310486793518,0.9535606503486633,0.9479101300239563
1779958320732915200,16.277915283203125,0.6351471543312073,1.6939293146133423,1.123686671257019
1779958320749261800,16.29426171875,0.3094032406806946,2.2647829055786133,1.085965633392334
1779958320765592000,16.310592041015624,0.35094207525253296,1.9556851387023926,0.9414960741996765
1779958320781921000,16.326921142578126,0.5196936130523682,1.3016011714935303,0.7715228199958801
1779958320798257700,16.343257568359373,0.6337726712226868,1.0497719049453735,0.5852088928222656
1779958320814594000,16.359593994140624,0.5575672388076782,0.9578366875648499,0.5910121202468872
1779958320830922800,16.3759228515625,0.40393465757369995,0.8391761183738708,0.47708576917648315
1779958320847256000,16.392256103515624,0.23289237916469574,0.988990843296051,0.1872301995754242
1779958320863593500,16.408593505859375,0.04306599870324135,0.9715811610221863,0.12522737681865692
1779958320879927800,16.424927734375,-0.04260785132646561,0.38835757970809937,0.21533000469207764
1779958320896255000,16.4412548828125,-0.11728613078594208,-0.07360926270484924,0.11988230794668198
1779958320912587000,16.4575869140625,-0.2718350291252136,-0.308792382478714,-0.1823432743549347
1779958320928933600,16.47393359375,-0.41141775250434875,-0.7834346890449524,-0.7367035150527954
1779958320945267200,16.49026708984375,-0.6342308521270752,-1.3237450122833252,-1.4941763877868652
1779958320961595000,16.506594970703127,-1.0009026527404785,-1.5125023126602173,-2.241722822189331
1779958320977934800,16.522934814453127,-1.1678216457366943,-1.28434419631958,-2.7403414249420166
1779958320994267000,16.539266845703125,-1.0512990951538086,-1.1090258359909058,-2.665357828140259
1779958321010597600,16.55559765625,-0.8897252082824707,-1.627497673034668,-2.5416576862335205
1779958321026929000,16.571928955078125,-0.6230825781822205,-1.7544050216674805,-2.509587049484253
1779958321043265000,16.58826513671875,-0.46364670991897583,-1.0656543970108032,-2.458885431289673
1779958321059579400,16.604579345703126,-0.512210488319397,-0.4395175576210022,-2.464535713195801
1779958321075911200,16.6209111328125,-0.5589417219161987,-0.2454151064157486,-2.5196664333343506
1779958321092252000,16.637251953125,-0.37659841775894165,-0.24877487123012543,-2.598620653152466
1779958321108580000,16.653580078125,-0.07437284290790558,-0.8678867816925049,-2.478585720062256
1779958321124916500,16.66991650390625,0.204487144947052,-1.8342756032943726,-2.179719924926758
1779958321141245200,16.6862451171875,0.20173825323581696,-2.048841953277588,-2.0890064239501953
1779958321157601300,16.702601318359374,-0.0607810914516449,-1.6430747509002686,-2.0981693267822266
1779958321173929500,16.718929443359375,-0.2588541507720947,-1.4410310983657837,-2.0089831352233887
1779958321190246400,16.735246337890626,-0.2606867551803589,-1.8264870643615723,-1.7310394048690796
1779958321206591500,16.751591552734375,-0.18738290667533875,-2.2237021923065186,-1.3300063610076904
1779958321222923300,16.76792333984375,-0.37430769205093384,-2.3518311977386475,-1.065043568611145
1779958321239253200,16.784253173828127,-0.6423248052597046,-2.247678756713867,-1.0044151544570923
1779958321255577600,16.80057763671875,-0.6922630667686462,-2.2062926292419434,-0.8936958312988281
1779958321271909000,16.8169091796875,-0.5537493228912354,-2.127643585205078,-0.5923865437507629
1779958321288244200,16.833244140625,-0.3770565688610077,-1.768149495124817,-0.0887281745672226
1779958321304578600,16.84957861328125,-0.2528982162475586,-1.2602150440216064,0.5623014569282532
1779958321320908300,16.865908203125,-0.26603180170059204,-0.7780895829200745,1.2565498352050781
1779958321337239600,16.882239501953126,-0.35262197256088257,-0.3052799105644226,1.927890658378601
1779958321353575200,16.8985751953125,-0.5242751240730286,0.024587325751781464,2.630385637283325
1779958321369903900,16.91490380859375,-0.594524621963501,0.055894169956445694,3.1868839263916016
1779958321386237400,16.931237548828125,-0.27488934993743896,0.11285735666751862,2.1152737140655518
1779958321402575600,16.94757568359375,-0.2721404731273651,-0.9427177906036377,-0.45402559638023376
1779958321418893000,16.96389306640625,-0.06902777403593063,-1.5253305435180664,-1.5180001258850098
1779958321435222800,16.980222900390626,-0.10399980843067169,-1.2113457918167114,-1.4995214939117432
1779958321451560000,16.996559814453125,-0.2626720666885376,-2.065335512161255,-1.0965031385421753
1779958321467891000,17.012890869140627,0.054825156927108765,-1.5606080293655396,-0.5766568183898926
1779958321484225800,17.029225830078126,0.3471241891384125,-0.09040805697441101,-0.19013181328773499
1779958321500557000,17.04555712890625,-0.2695443034172058,1.2646437883377075,0.49785518646240234
1779958321516890600,17.061890625,-0.3292563557624817,3.140610933303833,1.3376421928405762
1779958321533238000,17.078238037109376,0.7991644740104675,3.8545596599578857,1.4975361824035645
1779958321549563000,17.09456298828125,0.7910705208778381,1.5974125862121582,0.3517056703567505
1779958321565899300,17.110899169921876,0.3825543522834778,0.18997909128665924,0.006261368747800589
1779958321582237400,17.127237548828123,0.1088867336511612,-0.07376197725534439,0.6004805564880371
1779958321598564600,17.143564697265624,-0.09300423413515091,0.2967278063297272,1.6586518287658691
1779958321614900700,17.159900634765624,0.12110403180122375,0.9699012637138367,2.4633140563964844
1779958321631232800,17.176232666015625,0.45814892649650574,1.380555510520935,2.4544565677642822
1779958321647579600,17.19257958984375,0.44394633173942566,0.7922922372817993,1.3135130405426025
1779958321663910000,17.208909912109377,-0.18356500566005707,0.7396050691604614,0.7834346890449524
1779958321680215600,17.225215576171873,-0.5853615999221802,1.9022343158721924,1.9911152124404907
1779958321696576000,17.241575927734374,-0.8710938692092896,1.4842498302459717,2.3183863162994385
1779958321712912000,17.257911865234377,-1.1916453838348389,0.5943718552589417,2.0868682861328125
1779958321729240800,17.27424072265625,-1.0548115968704224,0.7249443531036377,1.710117220878601
1779958321745561000,17.29056103515625,-0.7160868048667908,1.4663820266723633,1.2014192342758179
1779958321761895700,17.306895751953125,-0.43967026472091675,2.5390613079071045,0.9795224070549011
1779958321778234000,17.323234130859376,-0.1085812970995903,3.29134202003479,1.1745411157608032
1779958321794556700,17.339556640625,0.20876319706439972,2.9495627880096436,1.188132882118225
1779958321810883600,17.355883544921873,0.49724429845809937,1.9533942937850952,1.0377073287963867
1779958321827212500,17.372212646484375,0.6688974499702454,1.132238745689392,0.9830349087715149
1779958321843559000,17.388558837890624,0.6858489513397217,0.8752171993255615,1.0299187898635864
1779958321859892500,17.404892578125,0.5393940210342407,1.3698652982711792,1.0629055500030518
1779958321876224000,17.42122412109375,0.3828597962856293,1.9391916990280151,1.0612256526947021
1779958321892556300,17.437556396484375,0.4082106947898865,1.7321083545684814,1.1591167449951172
1779958321908890400,17.453890380859374,0.5968153476715088,1.105513334274292,1.0684033632278442
1779958321925224700,17.470224609375,0.7113525867462158,0.9640980958938599,0.7644978761672974
1779958321941567200,17.486567138671877,0.7258606553077698,1.1913399696350098,0.5812382698059082
1779958321957899800,17.502899658203123,0.6110179424285889,1.0819950103759766,0.47082439064979553
1779958321974235400,17.5192353515625,0.4389066696166992,0.9410378932952881,0.31444287300109863
1779958321990562300,17.535562255859375,0.1722639948129654,0.9269880056381226,0.266184538602829
1779958322006902000,17.551902099609375,-0.07101308554410934,0.5853615999221802,0.34987306594848633
1779958322023216600,17.568216552734373,-0.1313360333442688,0.15195272862911224,0.38499781489372253
1779958322039565600,17.584565673828124,-0.13820825517177582,-0.20799961686134338,0.17608191072940826
1779958322055895800,17.600895751953125,-0.29306259751319885,-0.4928155243396759,-0.3121521472930908
1779958322072230000,17.61722998046875,-0.5844452977180481,-0.7667886018753052,-0.9824240207672119
1779958322088531500,17.633531494140627,-1.0374019145965576,-1.163851022720337,-1.6241379976272583
1779958322104876800,17.649876708984376,-1.2649492025375366,-1.5702290534973145,-2.1794145107269287
1779958322121203500,17.666203369140625,-1.1618657112121582,-1.6531540155410767,-2.679713010787964
1779958322137536800,17.682536865234376,-1.041067123413086,-1.8164077997207642,-2.8791606426239014
1779958322153869600,17.69886962890625,-0.8028296232223511,-2.266615390777588,-2.6667323112487793
1779958322170203400,17.715203369140625,-0.4764748811721802,-1.9236146211624146,-2.448806047439575
1779958322186535000,17.731534912109375,-0.2252565622329712,-1.0305296182632446,-2.3933699131011963
1779958322202867700,17.74786767578125,-0.13866640627384186,-0.2454151064157486,-2.4608707427978516
1779958322219200500,17.764200439453123,-0.06398813426494598,0.2866485118865967,-2.571284532546997
1779958322235534600,17.78053466796875,0.19776763021945953,0.5306891798973083,-2.738814353942871
1779958322251866600,17.79686669921875,0.4709770977497101,0.2405281960964203,-2.928182601928711
1779958322268211200,17.813211181640625,0.49846604466438293,-0.841619610786438,-2.6931521892547607
1779958322284545800,17.8295458984375,0.0607810914516449,-2.121687650680542,-2.2178990840911865
1779958322300878000,17.845878173828126,-0.2623666226863861,-2.4248294830322266,-2.1004600524902344
1779958322317209000,17.862208984375,-0.2889392673969269,-1.9694294929504395,-2.14428973197937
1779958322333542100,17.878542236328126,-0.08720101416110992,-1.6662876605987549,-1.9058995246887207
1779958322349875200,17.894875244140625,-0.17088955640792847,-1.8530597686767578,-1.3686435222625732
1779958322366205400,17.911205322265626,-0.5057964324951172,-2.4830145835876465,-0.9419541954994202
1779958322382544400,17.92754443359375,-0.8118399381637573,-2.4718661308288574,-0.7451028823852539
1779958322398872800,17.943872802734376,-0.9472993016242981,-2.2545509338378906,-0.5549710988998413
1779958322415222800,17.960222900390626,-0.813825249671936,-2.0841195583343506,-0.23396138846874237
1779958322431553500,17.976553466796876,-0.5262604355812073,-2.001041889190674,0.2246456891298294
1779958322447883800,17.9928837890625,-0.3833179473876953,-1.5431983470916748,0.755793035030365
1779958322464219100,18.00921923828125,-0.42439863085746765,-0.9795224070549011,1.341460108757019
1779958322480550700,18.025550537109375,-0.5459607839584351,-0.37659841775894165,2.0109684467315674
1779958322496885200,18.04188525390625,-0.7240280508995056,0.09239336848258972,2.7508788108825684
1779958322513218600,18.058218505859376,-0.6145304441452026,0.04398229718208313,3.2285754680633545
1779958322529548300,18.07454833984375,-0.11927144229412079,0.15454891324043274,1.3119858503341675
1779958322545878300,18.090878173828123,-0.3139847218990326,-0.33200526237487793,-0.5303837656974792
1779958322562208300,18.107208251953125,-0.09376781433820724,-0.7238753437995911,-1.0780243873596191
1779958322578562300,18.123562255859376,-0.05390885844826698,-0.656069278717041,-1.272737741470337
1779958322594878500,18.13987841796875,-0.13377949595451355,-2.2994494438171387,-1.1742357015609741
1779958322611213300,18.15621337890625,0.4827362596988678,-1.6711746454238892,-1.0658071041107178
1779958322627551700,18.1725517578125,0.6293439269065857,0.45494189858436584,-0.275958389043808
1779958322643880400,18.18888037109375,0.1010981947183609,2.7067439556121826,0.6313292384147644
1779958322660205000,18.205205078125,0.5962044596672058,4.279874801635742,1.1050552129745483
1779958322676568300,18.221568359375,-0.024892758578062057,2.6619980335235596,0.24205535650253296
1779958322692880100,18.237880126953126,-0.3729332387447357,1.3547463417053223,0.0630718395113945
1779958322709206000,18.2542060546875,-0.09926560521125793,0.7793113589286804,0.6644686460494995
1779958322725531100,18.27053125,-0.018936822190880775,0.3646865487098694,1.8391625881195068
1779958322741862400,18.2868623046875,0.28435778617858887,0.5997169613838196,2.889392614364624
1779958322758195500,18.303195556640624,0.8790351152420044,1.4967725276947021,3.249650478363037
1779958322774527700,18.31952783203125,1.1591167449951172,1.4265230894088745,2.1652119159698486
1779958322790862000,18.335862060546877,0.513126790523529,0.3222314119338989,0.712574303150177
1779958322807190800,18.352190673828126,-0.2736676335334778,0.8524624705314636,1.751808762550354
1779958322823530500,18.368530517578126,-0.8538368940353394,0.8712465763092041,2.5331053733825684
1779958322839860500,18.384860595703124,-1.218676209449768,0.7202101349830627,2.3409883975982666
1779958322856189400,18.401189453125,-1.1435397863388062,0.7811439037322998,1.94713294506073
1779958322872528400,18.4175283203125,-0.7857254147529602,1.1372783184051514,1.395827054977417
1779958322888857300,18.433857421875,-0.49128836393356323,2.258063316345215,0.8827002644538879
1779958322905193700,18.45019384765625,-0.20570887625217438,3.4746015071868896,1.073595643043518
1779958322921539600,18.46653955078125,0.11056660860776901,3.751934289932251,1.5476270914077759
1779958322937859300,18.482859375,0.4331034719944,2.3774874210357666,1.5428929328918457
1779958322954203600,18.49920361328125,0.7539604306221008,0.5308418869972229,1.1953105926513672
1779958322970539500,18.51553955078125,0.8996517658233643,0.17867808043956757,1.0894781351089478
1779958322986878700,18.531878662109374,0.7481572031974792,1.2851077318191528,1.1733194589614868
1779958323003187500,18.5481875,0.5349652171134949,2.3492350578308105,1.1003210544586182
1779958323019518200,18.564518310546877,0.4590652287006378,2.141388177871704,0.9836457371711731
1779958323035866600,18.58086669921875,0.5852088928222656,1.0974193811416626,0.880104124546051
1779958323052204800,18.597204833984375,0.5998696684837341,0.7525860071182251,0.7144069075584412
1779958323068530700,18.61353076171875,0.6027712821960449,1.0995573997497559,0.5845980644226074
1779958323084870100,18.6298701171875,0.5406157374382019,1.386358618736267,0.3393356502056122
1779958323101177300,18.64617724609375,0.3075706362724304,1.439045786857605,0.13759739696979523
1779958323117534200,18.6625341796875,-0.041233405470848083,1.0893254280090332,0.17027868330478668
1779958323133869000,18.678869140625,-0.14935655891895294,0.45204028487205505,0.32559117674827576
1779958323150179300,18.695179443359375,-0.09162978827953339,0.13148874044418335,0.2041817009449005
1779958323166515500,18.711515380859375,-0.22968533635139465,0.007024950347840786,-0.23884831368923187
1779958323182850800,18.727850830078125,-0.3897320330142975,-0.44089198112487793,-0.9312640428543091
1779958323199182300,18.744182373046876,-0.7744244337081909,-1.0074695348739624,-1.6658295392990112
1779958323215514400,18.760514404296874,-1.2751811742782593,-1.451415777206421,-2.289675712585449
1779958323231834000,18.776834228515625,-1.3854423761367798,-1.4987578392028809,-2.9107728004455566
1779958323248178400,18.793178466796874,-1.2203559875488281,-1.7017178535461426,-3.126102924346924
1779958323264512000,18.809511962890625,-1.01617431640625,-2.526844024658203,-2.8652634620666504
1779958323280850400,18.825850341796876,-0.6641632318496704,-2.4054346084594727,-2.5413520336151123
1779958323297177900,18.842177734375,-0.28787025809288025,-1.0934487581253052,-2.4333817958831787
1779958323313511700,18.85851171875,-0.15225815773010254,0.10125091671943665,-2.582280158996582
1779958323329843000,18.874843017578126,-0.16859880089759827,0.6559165716171265,-2.7346909046173096
1779958323346174500,18.891174560546876,-0.028405234217643738,0.6794348955154419,-2.7849347591400146
1779958323362512100,18.90751220703125,0.2854267954826355,-0.39904773235321045,-2.6253461837768555
1779958323378841600,18.923841552734373,0.4054618179798126,-1.9393444061279297,-2.2933409214019775
1779958323395174400,18.94017431640625,-0.0006108652451075613,-2.481945514678955,-2.110844850540161
1779958323411509000,18.956509033203126,-0.4021020531654358,-1.973552942276001,-2.1737639904022217
1779958323427852300,18.972852294921875,-0.5597052574157715,-1.7085901498794556,-2.079843521118164
1779958323444190700,18.989190673828126,-0.5586362481117249,-2.105499744415283,-1.5758795738220215
1779958323460503300,19.00550341796875,-0.58062744140625,-2.300823926925659,-1.1021536588668823
1779958323476832000,19.02183203125,-0.7757988572120667,-2.48988676071167,-0.7834346890449524
1779958323493190100,19.038190185546874,-1.0062477588653564,-2.7507262229919434,-0.6475171446800232
1779958323509516300,19.054516357421875,-1.020297646522522,-2.7204883098602295,-0.679740309715271
1779958323525848000,19.07084814453125,-0.8367326855659485,-2.543642997741699,-0.49296826124191284
1779958323542186000,19.08718603515625,-0.5955936312675476,-2.0593793392181396,0.01160643994808197
1779958323558509000,19.103509033203125,-0.45005497336387634,-1.4401148557662964,0.7586946487426758
1779958323574857200,19.119857177734374,-0.461355984210968,-0.7973318696022034,1.6499470472335815
1779958323591181300,19.136181396484375,-0.4990769028663635,-0.11850785464048386,2.4048237800598145
1779958323607497700,19.152497802734374,-0.542142927646637,0.2600758671760559,3.159700393676758
1779958323623851000,19.16885107421875,-0.3459024429321289,0.14538592100143433,3.4466543197631836
1779958323640159500,19.185159423828125,-0.02672535367310047,1.310916781425476,1.5034921169281006
1779958323656516600,19.2015166015625,0.04886921867728233,0.16249015927314758,-0.9040805697441101
1779958323672848000,19.217847900390623,0.08552113175392151,-1.5552629232406616,-1.6733126640319824
1779958323689173800,19.234173828125,-0.10064005106687546,-1.8970420360565186,-1.6560556888580322
1779958323705497300,19.250497314453124,-0.06948592513799667,-2.6535985469818115,-1.317789077758789
1779958323721828400,19.266828369140626,0.19486601650714874,-0.5736024379730225,-0.30604347586631775
1779958323738152200,19.283152099609374,0.024892758578062057,1.9336938858032227,0.940732479095459
1779958323754498800,19.299498779296876,0.2921462953090668,4.3281331062316895,0.8721628785133362
1779958323770829600,19.31582958984375,0.2571742534637451,4.267352104187012,0.28069257736206055
1779958323787161900,19.332161865234376,-0.6979135274887085,2.356412649154663,-0.09529497474431992
1779958323803495200,19.3484951171875,-0.6126978397369385,0.4528038501739502,0.16340644657611847
1779958323827992300,19.372992431640625,0.09529497474431992,-1.0645854473114014,1.6103935241699219
1779958323844327000,19.389326904296876,0.5618433356285095,-0.38377609848976135,2.6873488426208496
1779958323860659700,19.40565966796875,1.1320860385894775,1.426675796508789,3.031113386154175
1779958323876993000,19.421992919921873,1.7360789775848389,2.6679539680480957,2.596024513244629
1779958323893321500,19.438321533203126,1.2594513893127441,1.26067316532135,0.8746063113212585
1779958323909660400,19.454660400390626,0.3159700334072113,0.08704829961061478,1.020603060722351
1779958323926001400,19.47100146484375,-0.41813725233078003,0.2151772826910019,2.6671903133392334
1779958323942340600,19.487340576171874,-1.0430524349212646,0.7199047207832336,2.6813929080963135
1779958323958653200,19.503653076171876,-1.2596040964126587,1.5218180418014526,2.1195497512817383
1779958323974981400,19.5199814453125,-1.0123564004898071,1.4282029867172241,1.6183347702026367
1779958323991324700,19.53632470703125,-0.7174612283706665,1.7307339906692505,1.117730736732483
1779958324007654700,19.552654541015624,-0.4309654235839844,2.5645649433135986,1.0083857774734497
1779958324023991000,19.568990966796875,-0.04948008432984352,2.6451992988586426,1.325730323791504
1779958324040321500,19.585321533203125,0.3049744665622711,1.8373299837112427,1.4424055814743042
1779958324056649200,19.601649169921874,0.57436603307724,0.8689557909965515,1.1921035051345825
1779958324072994600,19.61799462890625,0.684779942035675,0.5206099152565002,0.9181304574012756
1779958324089333800,19.634333740234375,0.5707008838653564,1.0293079614639282,0.9871582388877869
1779958324105667600,19.65066748046875,0.3387247920036316,1.9207130670547485,1.073595643043518
1779958324121996000,19.66699609375,0.20570887625217438,2.392606496810913,1.0421360731124878
1779958324138302200,19.68330224609375,0.4040873646736145,1.591456651687622,0.8888089060783386
1779958324154661000,19.6996611328125,0.6351471543312073,0.6217080950737,0.5352706909179688
1779958324170995500,19.715995361328126,0.6453791260719299,0.9225592613220215,0.3292563557624817
1779958324187311000,19.73231103515625,0.4352414906024933,1.7095063924789429,0.07681630551815033
1779958324203634000,19.748634033203125,0.13500121235847473,1.8260289430618286,-0.1495092660188675
1779958324219969800,19.7649697265625,-0.11209376901388168,1.1743884086608887,0.050243668258190155
1779958324236302600,19.781302490234374,-0.21930062770843506,0.14828753471374512,0.19578230381011963
1779958324252633300,19.79763330078125,-0.3026837408542633,-0.45142942667007446,0.07177666574716568
1779958324268967700,19.8139677734375,-0.4917465150356293,-0.46990808844566345,-0.27458393573760986
1779958324285314600,19.830314453125,-0.7483099102973938,-0.6742424964904785,-0.8356636762619019
1779958324301645800,19.846645751953126,-0.9807441234588623,-1.5644259452819824,-1.4563027620315552
1779958324317976000,19.86297607421875,-1.078635334968567,-2.345264434814453,-2.221869707107544
1779958324334310700,19.879310546875,-1.0074695348739624,-2.2317962646484375,-2.984534978866577
1779958324350644200,19.895644287109373,-0.7974845767021179,-1.832595705986023,-3.162907600402832
1779958324366977800,19.911977783203124,-0.5681046843528748,-2.1505510807037354,-2.8608345985412598
1779958324383305200,19.92830517578125,-0.13607023656368256,-1.9744691848754883,-2.4607179164886475
1779958324399643600,19.9446435546875,0.2197587788105011,-1.4689781665802002,-2.3402247428894043
1779958324415975400,19.960975341796875,0.2739730477333069,-0.9251554012298584,-2.467437505722046
1779958324432326700,19.97732666015625,0.19898934662342072,-0.14065171778202057,-2.526691436767578
1779958324448651500,19.993651611328126,0.26511552929878235,0.585667073726654,-2.5245532989501953
1779958324464985300,20.0099853515625,0.6001750826835632,0.7281513810157776,-2.6335928440093994
1779958324481317000,20.026317138671875,0.5103778839111328,-0.2727513313293457,-2.6007587909698486
1779958324497650400,20.042650390625,0.09743300825357437,-1.877647042274475,-2.216524600982666
1779958324513985800,20.05898583984375,-0.12736541032791138,-2.1563544273376465,-2.032196044921875
1779958324530295600,20.075295654296873,-0.24083362519741058,-1.5679383277893066,-1.9217820167541504
1779958324546647000,20.09164697265625,-0.2396118938922882,-1.4385876655578613,-1.5929838418960571
1779958324562987800,20.10798779296875,-0.29245173931121826,-1.5184582471847534,-1.1937834024429321
1779958324579313400,20.1243134765625,-0.5630650520324707,-1.898263692855835,-0.7774787545204163
1779958324595648000,20.14064794921875,-0.9048441648483276,-2.3040308952331543,-0.5280929803848267
1779958324611980800,20.156980712890626,-1.0225883722305298,-2.280970811843872,-0.45295658707618713
1779958324628322800,20.17332275390625,-0.8119926452636719,-2.2036964893341064,-0.2831360399723053
1779958324644638200,20.18963818359375,-0.5653557777404785,-1.9633208513259888,0.058948494493961334
1779958324660979700,20.205979736328125,-0.44287729263305664,-1.7212655544281006,0.6858489513397217
1779958324677294800,20.222294921875,-0.4063780903816223,-1.2583824396133423,1.3684908151626587
1779958324693632000,20.238632080078126,-0.3937026560306549,-0.5595525503158569,1.9659171104431152
1779958324709951700,20.25495166015625,-0.5056437253952026,0.01542434748262167,2.5703682899475098
1779958324726294300,20.271294189453126,-0.5581781268119812,0.11850785464048386,3.0280590057373047
1779958324742632700,20.2876328125,-0.3804163336753845,0.7904596328735352,2.2489004135131836
1779958324758967600,20.303967529296877,-0.37201693654060364,0.5670356750488281,-0.38835757970809937
1779958324775294500,20.32029443359375,0.03527746722102165,-1.1545352935791016,-1.2293663024902344
1779958324791629300,20.33662939453125,-0.08139779418706894,-0.446389764547348,-1.3581061363220215
1779958324807944700,20.35294482421875,-0.21533000469207764,-1.606575608253479,-1.1882855892181396
1779958324824297000,20.369296875,0.30604347586631775,-1.6690365076065063,-0.7328855991363525
1779958324840626400,20.38562646484375,0.6514877676963806,0.5406157374382019,0.1918116807937622
1779958324856962000,20.401962158203126,0.16783522069454193,2.3457224369049072,0.8901833891868591
1779958324873292000,20.4182919921875,0.2692388594150543,4.319886207580566,0.9147707223892212
1779958324889624000,20.4346240234375,0.06230825558304787,3.908010482788086,0.35033121705055237
1779958324905958400,20.45095849609375,-0.6177374720573425,1.757459282875061,0.13484850525856018
1779958324922304000,20.467303955078126,-0.32986724376678467,0.45524731278419495,0.35262197256088257
