time,seconds_elapsed,z,y,x
1779958304575633200,0.120633056640625,8.656634330749512,2.221735715866089,-0.29730820655822754
1779958304591970600,0.136970458984375,9.06700325012207,1.2239288091659546,-1.1162517070770264
1779958304608302600,0.153302490234375,10.201799392700195,1.4799607992172241,-1.2317054271697998
1779958304624635100,0.16963525390625,10.581061363220215,1.41834557056427,-0.2566302418708801
1779958304640992500,0.185992431640625,10.938788414001465,1.6522440910339355,-0.33499518036842346
1779958304657313800,0.202313720703125,8.609973907470703,2.341975212097168,-0.4265206456184387
1779958304673646600,0.218646484375,6.460621356964111,2.20737886428833,0.03170489892363548
1779958304689966600,0.234966552734375,6.426523208618164,1.6600207090377808,0.882951557636261
1779958304706313200,0.251313232421875,7.514659404754639,2.6608188152313232,1.0803594589233398
1779958304722644000,0.26764404296875,9.872187614440918,3.8871402740478516,-0.17347964644432068
1779958304738992600,0.28399267578125,8.62014389038086,6.190830230712891,-1.8771693706512451
1779958304755307500,0.3003076171875,6.339783668518066,4.194618225097656,0.6975077986717224
1779958304771640300,0.316640380859375,6.2668023109436035,3.466601848602295,1.1832507848739624
1779958304787975000,0.332974853515625,7.225128173828125,1.4291132688522339,3.7573297023773193
1779958304804308200,0.34930810546875,5.13739013671875,1.4530415534973145,2.324627161026001
1779958304820638700,0.365638671875,3.6472599506378174,2.606980323791504,1.5792629718780518
1779958304836975000,0.38197509765625,1.6289139986038208,1.9250258207321167,2.5351955890655518
1779958304853311200,0.398311279296875,-0.44805604219436646,1.9770697355270386,2.8695926666259766
1779958304869640200,0.41464013671875,-0.36251261830329895,1.1234302520751953,3.7782669067382812
1779958304885982500,0.430982421875,0.4654040038585663,-1.1467602252960205,4.281357765197754
1779958304902307800,0.447307861328125,-0.8374879360198975,-1.8646070957183838,4.015754699707031
1779958304918652000,0.46365185546875,-3.494119167327881,-2.2025933265686035,4.1730828285217285
1779958304934982400,0.479982421875,-3.0424740314483643,-2.056631088256836,6.116652965545654
1779958304951315700,0.496315673828125,-0.6807580590248108,-2.4406790733337402,6.080162525177002
1779958304967648000,0.51264794921875,-1.2167502641677856,-5.015954494476318,6.011966705322266
1779958304983968500,0.528968505859375,-1.1180464029312134,-8.631509780883789,9.312865257263184
1779958305000311800,0.545311767578125,0.5694918036460876,-8.050053596496582,11.611769676208496
1779958305016635000,0.561634765625,0.4259224236011505,-9.550951957702637,14.69671630859375
1779958305032969500,0.577969482421875,0.7124629616737366,-5.623133182525635,16.87957000732422
1779958305049299000,0.594298828125,1.5122638940811157,-5.752943992614746,16.487146377563477
1779958305065632500,0.610632568359375,0.6963114142417908,-6.722036838531494,18.121444702148438
1779958305081968000,0.626968017578125,1.685145378112793,-6.697510719299316,20.346769332885742
1779958305098297300,0.64329736328125,2.3563320636749268,-6.348158359527588,22.8101806640625
1779958305114631400,0.65963134765625,2.510669231414795,-5.584249973297119,22.875385284423828
1779958305130965500,0.675965576171875,0.4307080805301666,-4.90408992767334,22.742582321166992
1779958305147294000,0.6922939453125,-1.5290136337280273,-4.216153621673584,23.00818634033203
1779958305163649500,0.7086494140625,-1.9794625043869019,1.4297115802764893,26.770898818969727
1779958305179949600,0.724949462890625,-4.3070807456970215,11.425129890441895,31.101909637451172
1779958305196271600,0.741271728515625,-5.143372058868408,3.0412776470184326,21.536001205444336
1779958305212626700,0.757626708984375,-3.1028928756713867,-4.103092670440674,13.933405876159668
1779958305228976600,0.7739765625,-5.230112075805664,-5.8683977127075195,14.517254829406738
1779958305245304800,0.790304931640625,-6.514459609985352,-5.621936798095703,14.613566398620605
1779958305261649200,0.806649169921875,0.0526420995593071,-5.100899696350098,10.859227180480957
1779958305277958100,0.822958251953125,-0.3074777126312256,-6.879963397979736,11.215758323669434
1779958305294291700,0.839291748046875,-1.074377417564392,-7.433901786804199,10.05404281616211
1779958305310625500,0.85562548828125,-2.864208698272705,-3.6735808849334717,4.609772682189941
1779958305326966800,0.871966796875,-1.1904292106628418,-7.216155052185059,7.730611801147461
1779958305343290400,0.888290283203125,-1.194616675376892,-6.583851337432861,7.406384468078613
1779958305359625000,0.904625,3.1040892601013184,-5.674578666687012,8.154141426086426
1779958305375985000,0.92098486328125,10.039685249328613,-6.600003242492676,9.57188892364502
1779958305392307200,0.93730712890625,-3.4031920433044434,-7.459026336669922,7.756932735443115
1779958305408639500,0.953639404296875,3.568894863128662,-6.379265308380127,6.890730857849121
1779958305424966000,0.9699658203125,-3.1507492065429688,-7.654041290283203,2.4604198932647705
1779958305441292000,0.9862919921875,-3.06999135017395,-0.5653043389320374,4.788636207580566
1779958305457646600,1.002646484375,-7.704888820648193,2.4227328300476074,2.4496521949768066
1779958305473961000,1.0189609375,1.3597214221954346,-2.909672260284424,4.555934429168701
1779958305490271700,1.035271728515625,1.4841482639312744,-5.286343574523926,7.774280548095703
1779958305506607400,1.051607421875,1.028315544128418,-6.694519519805908,7.3986077308654785
1779958305522951000,1.067950927734375,1.8352949619293213,-5.398806095123291,5.045864582061768
1779958305539282400,1.084282470703125,-0.389431893825531,-0.3074777126312256,4.100101470947266
1779958305555616500,1.100616455078125,0.20458634197711945,7.2089762687683105,6.582056999206543
1779958305571949000,1.116948974609375,-2.715853691101074,-4.578067779541016,7.923233985900879
1779958305588280600,1.133280517578125,-2.0063817501068115,-7.4572319984436035,9.050851821899414
1779958305604614400,1.149614501953125,-2.2737796306610107,-6.586244106292725,7.590631484985352
1779958305620947200,1.165947265625,-2.723630428314209,-3.7226338386535645,7.968697547912598
1779958305637267500,1.182267333984375,-4.704289436340332,-7.020541667938232,9.343972206115723
1779958305653629400,1.19862939453125,-3.153141975402832,-9.572486877441406,10.685149192810059
1779958305669983500,1.2149833984375,-2.076371908187866,-7.201797962188721,6.943373203277588
1779958305686272000,1.23127197265625,-5.976074695587158,-9.954740524291992,0.4456632137298584
1779958305702630400,1.24763037109375,5.213960647583008,-3.8596229553222656,2.4017956256866455
1779958305718955800,1.263955810546875,-4.767100811004639,-9.659226417541504,9.144769668579102
1779958305735290600,1.28029052734375,-3.3409786224365234,-10.496116638183594,9.502496719360352
1779958305751604000,1.29660400390625,-1.7288143634796143,-11.316256523132324,4.304687976837158
1779958305767942000,1.31294189453125,-7.143772125244141,-8.462815284729004,10.735997200012207
1779958305784275000,1.32927490234375,-5.384449005126953,-10.167701721191406,10.216754913330078
1779958305800592100,1.345592041015625,-3.768097400665283,-11.032109260559082,6.987640380859375
1779958305816936700,1.361936767578125,-2.0243279933929443,-8.489136695861816,5.675775527954102
1779958305833277400,1.37827734375,-0.7423732280731201,-7.067201614379883,4.088735580444336
1779958305849605400,1.39460546875,-3.2512478828430176,-1.9513468742370605,4.731208801269531
1779958305865951200,1.410951171875,3.841078519821167,-5.130809783935547,3.3990044593811035
1779958305882269700,1.427269775390625,-0.8542376756668091,-5.219344615936279,1.8891334533691406
1779958305898607600,1.443607666015625,-1.1676974296569824,-7.769495010375977,2.5986053943634033
1779958305914936000,1.45993603515625,-1.5152549743652344,-6.960123062133789,4.102494239807129
1779958305931271200,1.476271240234375,-1.7132610082626343,-7.3052873611450195,4.536193370819092
1779958305947597300,1.492597412109375,1.052243709564209,-8.310273170471191,5.55015230178833
1779958305963935000,1.50893505859375,0.7238288521766663,-8.019545555114746,7.809575080871582
1779958305980257800,1.5252578125,-1.1748759746551514,-5.717649936676025,7.040282249450684
1779958305996601600,1.5416015625,-2.8450660705566406,-6.254838466644287,4.353740692138672
1779958306012924400,1.55792431640625,-1.350150227546692,-5.447260856628418,0.1459621787071228
1779958306029266400,1.574266357421875,0.003589233849197626,-3.9074792861938477,-0.9607182741165161
1779958306045600000,1.59060009765625,2.23848557472229,-2.861217737197876,-1.0666006803512573
1779958306061932000,1.60693212890625,6.69990348815918,-4.88853645324707,0.02871387079358101
1779958306078271500,1.623271484375,6.544369697570801,-9.872786521911621,-0.867398202419281
1779958306094595800,1.639595947265625,5.776872158050537,-12.643674850463867,0.6957131624221802
1779958306110924000,1.655924072265625,1.6911274194717407,-11.816356658935547,0.8075776696205139
1779958306127251700,1.672251708984375,-3.7052857875823975,-8.95693302154541,0.6849454641342163
1779958306143613400,1.688613525390625,-8.609375953674316,-8.066205024719238,1.1024930477142334
1779958306159922000,1.704921875,-1.4213366508483887,-8.304290771484375,1.0911271572113037
1779958306176273200,1.721273193359375,-1.5780665874481201,-4.354339122772217,5.718846321105957
1779958306192612900,1.73761279296875,0.1621137410402298,-8.1224365234375,2.8516464233398438
1779958306208941600,1.753941650390625,1.852044701576233,-13.073186874389648,2.0267207622528076
1779958306225275400,1.770275390625,1.3028919696807861,-38.868412017822266,-2.128415822982788
1779958306241606100,1.786606201171875,-1.3674981594085693,-14.856437683105469,-1.5750755071640015
1779958306257917200,1.802917236328125,-1.8771693706512451,-6.367899417877197,-1.6612170934677124
1779958306274262500,1.819262451171875,-0.1746760457754135,-7.415955543518066,-1.2640085220336914
1779958306290593000,1.835593017578125,1.4841482639312744,-11.415558815002441,-0.3523431420326233
1779958306306923500,1.851923583984375,0.9678967595100403,-11.373085975646973,0.4103690981864929
1779958306323258000,1.868258056640625,-0.1902294009923935,-10.285548210144043,0.5150550603866577
1779958306339593000,1.884593017578125,-0.5790630578994751,-9.873982429504395,0.719641387462616
1779958306355924000,1.900924072265625,-0.7190431952476501,-10.620543479919434,1.1856436729431152
1779958306372275500,1.917275390625,-0.27756741642951965,-11.915060043334961,1.8897316455841064
1779958306388597800,1.93359765625,0.243469700217247,-12.197413444519043,3.080759048461914
1779958306404938200,1.949938232421875,-0.46061834692955017,-13.828720092773438,4.01037073135376
1779958306421273000,1.966273193359375,-0.16929219663143158,-14.180464744567871,4.715655326843262
1779958306437585400,1.98258544921875,-1.0121639966964722,-13.852648735046387,4.432703971862793
1779958306453934000,1.99893408203125,-1.923829436302185,-14.578869819641113,3.518645763397217
1779958306470237200,2.0152373046875,-1.5379867553710938,-15.011971473693848,2.523829698562622
1779958306486586400,2.03158642578125,-0.6921239495277405,-12.703495025634766,2.152942180633545
1779958306502917400,2.04791748046875,-0.4695914387702942,-10.147960662841797,2.6596224308013916
1779958306519250200,2.064250244140625,-1.3758729696273804,-9.381061553955078,2.947359323501587
1779958306535581700,2.080581787109375,-1.3184453248977661,-10.614561080932617,2.8007988929748535
1779958306551919600,2.096919677734375,-0.6047859191894531,-12.162118911743164,1.7383856773376465
1779958306568262000,2.113261962890625,0.6352944374084473,-12.951750755310059,0.8398807644844055
1779958306584583000,2.1295830078125,2.239083766937256,-13.63310718536377,0.2745763957500458
1779958306600915000,2.1459150390625,1.953141450881958,-12.8691987991333,-0.6448656916618347
1779958306617248800,2.162248779296875,1.0241280794143677,-12.290135383605957,-1.5846468210220337
1779958306633581300,2.178581298828125,-0.794417142868042,-11.906086921691895,-2.118844509124756
1779958306649902000,2.194902099609375,-3.486342668533325,-11.563315391540527,-2.6117658615112305
1779958306666234400,2.211234375,-3.221935749053955,-10.238887786865234,-2.740380048751831
1779958306682566700,2.227566650390625,-2.1026928424835205,-8.362317085266113,-1.3615161180496216
1779958306698902000,2.243902099609375,0.10707881301641464,-7.75334358215332,-0.5970092415809631
1779958306715248400,2.260248291015625,-1.4985052347183228,-8.346763610839844,-0.5814558863639832
1779958306731565600,2.276565673828125,-2.9802606105804443,-8.545368194580078,-0.0849452018737793
1779958306747910000,2.292909912109375,-1.3818551301956177,-7.0307111740112305,0.4911268353462219
1779958306764243700,2.30924365234375,1.2502498626708984,-5.380859851837158,1.2095718383789062
1779958306780577300,2.325577392578125,2.103889226913452,-3.865604877471924,0.6831508874893188
1779958306796908300,2.341908203125,1.7778671979904175,-3.349353551864624,-0.5252245664596558
1779958306813242600,2.35824267578125,-0.20877377688884735,-2.7864420413970947,-1.6013965606689453
1779958306829574100,2.37457421875,-0.966102123260498,-2.241476535797119,-2.558525562286377
1779958306845904000,2.39090380859375,-1.200000524520874,-2.813361167907715,-2.9306094646453857
1779958306862285000,2.40728515625,-2.3030917644500732,-4.1347975730896,-2.9036903381347656
1779958306878564400,2.423564453125,-5.00578498840332,-5.2492547035217285,-2.0883359909057617
1779958306894925600,2.439925537109375,-8.161319732666016,-6.177670001983643,-0.7387840151786804
1779958306911255800,2.456255859375,-10.457233428955078,-8.090731620788574,1.3668999671936035
1779958306927569700,2.472569580078125,-9.482157707214355,-11.108080863952637,2.1655044555664062
1779958306943918000,2.48891796875,-10.287940979003906,-14.852848052978516,-0.11605189740657806
1779958306960221400,2.505221435546875,-9.542576789855957,-13.297513961791992,-2.674577474594116
1779958306976571100,2.521571044921875,-7.0271220207214355,-9.806983947753906,-4.754538536071777
1779958306992899300,2.5378994140625,-6.762714862823486,-9.405587196350098,-6.428318023681641
1779958307009235700,2.554235595703125,-6.532405853271484,-13.390235900878906,-7.596613883972168
1779958307025571600,2.570571533203125,-4.028316974639893,-17.826528549194336,-5.425127029418945
1779958307041901300,2.5869013671875,-5.074578762054443,-13.048660278320312,-8.107481002807617
1779958307058233900,2.60323388671875,-0.3206382393836975,-2.809173822402954,-4.95074987411499
1779958307074567700,2.619567626953125,0.32123643159866333,-2.534597396850586,-4.758726119995117
1779958307090900200,2.635900146484375,-0.7088736891746521,-3.91705060005188,-3.7160534858703613
1779958307107232500,2.652232421875,2.294118642807007,-4.763511657714844,-1.3298112154006958
1779958307123569200,2.668569091796875,4.250251293182373,-7.395018577575684,0.6699903607368469
1779958307139914500,2.68491455078125,3.45882511138916,-10.51645565032959,1.1300104856491089
1779958307156239000,2.701239013671875,-1.012762188911438,-15.349359512329102,1.420140266418457
1779958307172581400,2.717581298828125,-3.521636724472046,-18.996618270874023,1.51166570186615
1779958307188905000,2.733905029296875,-2.0338993072509766,-17.012968063354492,2.0691933631896973
1779958307205247500,2.75024755859375,-1.8203397989273071,-11.758928298950195,2.1475582122802734
1779958307221562000,2.76656201171875,-1.8681962490081787,-8.676374435424805,1.0869396924972534
1779958307237895400,2.7828955078125,-0.908674418926239,-6.558128833770752,0.18484555184841156
1779958307254243300,2.799243408203125,-0.23449662327766418,-6.113661766052246,-0.19740787148475647
1779958307270558700,2.815558837890625,0.7579265832901001,-7.0408806800842285,-1.0977073907852173
1779958307286898000,2.83189794921875,1.2077772617340088,-8.081160545349121,-2.1367905139923096
1779958307303225000,2.84822509765625,1.6977076530456543,-8.419146537780762,-3.078366279602051
1779958307319543800,2.864543701171875,0.21355941891670227,-7.718647480010986,-2.641676187515259
1779958307335882500,2.880882568359375,-1.3962119817733765,-7.545167922973633,-1.7330018281936646
1779958307352211500,2.89721142578125,-1.3304094076156616,-7.0546393394470215,-1.1850453615188599
1779958307368548900,2.913548828125,-0.2715853750705719,-6.772286415100098,-0.7070791125297546
1779958307384892700,2.929892578125,0.43489551544189453,-6.99122953414917,-0.03170489892363548
1779958307401224200,2.94622412109375,0.15134602785110474,-7.699504852294922,0.47198426723480225
1779958307417557000,2.962556884765625,-0.6508477330207825,-8.779266357421875,0.9373882412910461
1779958307433889300,2.97888916015625,-0.24646073579788208,-9.618548393249512,1.3836497068405151
1779958307450253600,2.995253662109375,0.7369893789291382,-10.219147682189941,1.5038890838623047
1779958307466555600,3.0115556640625,-0.7992027401924133,-10.945966720581055,1.1988041400909424
1779958307482888200,3.02788818359375,-2.2707886695861816,-11.886944770812988,0.6203392744064331
1779958307499207700,3.044207763671875,-0.5958128571510315,-12.481560707092285,1.3160524368286133
1779958307515554000,3.060553955078125,0.08255238085985184,-12.42413330078125,2.3844478130340576
1779958307531875000,3.076875,-1.2897313833236694,-12.141779899597168,3.352344512939453
1779958307548217900,3.0932177734375,-1.3782658576965332,-12.218948364257812,3.7010984420776367
1779958307564552400,3.109552490234375,-1.1850453615188599,-12.799806594848633,4.18983268737793
1779958307580885000,3.125885009765625,0.8153542876243591,-13.00678539276123,4.60139799118042
1779958307597218600,3.142218505859375,-0.1423729509115219,-13.62592887878418,2.925823926925659
1779958307613564000,3.15856396484375,0.29431718587875366,-13.936995506286621,2.7122645378112793
1779958307629905000,3.17490478515625,0.05563312768936157,-11.756535530090332,1.332203984260559
1779958307646221300,3.19122119140625,-1.3645070791244507,-11.255837440490723,-0.21954147517681122
1779958307662560000,3.20756005859375,-2.1643080711364746,-11.463415145874023,-2.084148406982422
1779958307678892500,3.223892578125,-1.1312068700790405,-12.88235855102539,-3.177668571472168
1779958307695229200,3.240229248046875,1.5176477432250977,-14.871393203735352,-3.9397823810577393
1779958307711561200,3.256561279296875,2.2337000370025635,-16.192230224609375,-4.1491546630859375
1779958307727893000,3.27289306640625,0.1908276081085205,-16.101303100585938,-4.029513359069824
1779958307744228000,3.28922802734375,-2.6494529247283936,-15.592230796813965,-3.82373046875
1779958307760527000,3.305527099609375,-2.2205393314361572,-13.692329406738281,-3.297907829284668
1779958307776879600,3.321879638671875,-1.4380863904953003,-11.531610488891602,-2.2755744457244873
1779958307793199900,3.338199951171875,-0.6891329288482666,-8.678169250488281,-0.8398807644844055
1779958307809530400,3.3545302734375,-1.3112667798995972,-8.13260555267334,1.0205388069152832
1779958307825875000,3.370875,-1.0360921621322632,-8.801400184631348,2.0793628692626953
1779958307842214100,3.387214111328125,-0.4253242313861847,-8.901300430297852,1.4464613199234009
1779958307858542800,3.40354296875,-0.6089733839035034,-7.861618995666504,0.8201399445533752
1779958307874876400,3.41987646484375,-0.7627122402191162,-6.008975982666016,0.29730820655822754
1779958307891225300,3.436225341796875,0.4713860750198364,-4.475774765014648,-0.12083754688501358
1779958307907549000,3.452548828125,0.8303094506263733,-3.032902717590332,-0.17647066712379456
1779958307923894300,3.468894287109375,2.386840581893921,-1.4518451690673828,-0.9415757060050964
1779958307940203500,3.48520361328125,1.0719845294952393,0.06939185410737991,-1.685145378112793
1779958307956542000,3.5015419921875,-0.2997010350227356,0.5018945336341858,-2.6901309490203857
1779958307972873000,3.517873046875,-0.7226324677467346,-0.6436693072319031,-3.084348440170288
1779958307989205200,3.534205322265625,-2.637488842010498,-2.954537868499756,-2.6111676692962646
1779958308005539600,3.55053955078125,-5.602196216583252,-3.3164522647857666,-2.077568292617798
1779958308021872400,3.566872314453125,-8.959325790405273,-5.927619934082031,-0.6143572330474854
1779958308038200000,3.583199951171875,-8.544769287109375,-10.737792015075684,0.5395814776420593
1779958308054538000,3.5995380859375,-9.246464729309082,-16.986648559570312,1.0301101207733154
1779958308070865400,3.615865478515625,-15.188441276550293,-21.425931930541992,-1.098903775215149
1779958308087192800,3.63219287109375,-11.72842025756836,-15.795620918273926,-6.433701992034912
1779958308103524900,3.64852490234375,-6.3224358558654785,-7.408777236938477,-7.92861795425415
1779958308119857200,3.664857177734375,-4.419543266296387,-6.883552551269531,-9.264410972595215
1779958308136191700,3.681191650390625,-2.5190439224243164,-11.13320541381836,-8.045268058776855
1779958308152521500,3.697521484375,0.18484555184841156,-18.256040573120117,-6.0711894035339355
1779958308168856800,3.71385693359375,-5.893522262573242,-21.036500930786133,-4.872385025024414
1779958308185189000,3.730189208984375,-1.893320918083191,-8.107481002807617,-1.9680966138839722
1779958308201521400,3.746521484375,5.72422981262207,-2.7433712482452393,-0.39900317788124084
1779958308217857500,3.762857421875,1.4817553758621216,-2.9832515716552734,-1.197009563446045
1779958308234189800,3.77918994140625,1.201795220375061,-4.1282172203063965,-0.35892340540885925
1779958308250533600,3.79553369140625,3.5718860626220703,-6.299703598022461,1.036690354347229
1779958308266865000,3.811864990234375,4.515256404876709,-9.90987491607666,1.8340985774993896
1779958308283198200,3.8281982421875,4.445266246795654,-13.555339813232422,1.186241865158081
1779958308299529700,3.84452978515625,-0.05383851006627083,-18.218353271484375,0.5473581552505493
1779958308315862500,3.860862548828125,-5.555535793304443,-17.70688819885254,1.989033818244934
1779958308332199200,3.87719921875,-7.983652591705322,-10.652846336364746,1.9094724655151367
1779958308348528600,3.893528564453125,-4.433900356292725,-6.537191390991211,0.9349954724311829
1779958308364880000,3.9098798828125,1.0654042959213257,-5.563312530517578,-0.09571290761232376
1779958308381207800,3.926207763671875,1.5098711252212524,-5.104488849639893,-0.3451646566390991
1779958308397541000,3.942541015625,2.23848557472229,-5.854638576507568,-1.160519003868103
1779958308413877200,3.958877197265625,3.2482566833496094,-8.158926963806152,-1.9980069398880005
1779958308430201300,3.975201416015625,1.052243709564209,-7.99800968170166,-1.2035897970199585
1779958308446524000,3.99152392578125,-1.8831514120101929,-8.24985408782959,-0.794417142868042
1779958308462860500,4.007860595703125,-2.0673987865448,-7.966304779052734,-1.144965648651123
1779958308479191300,4.02419140625,-1.4177473783493042,-7.4572319984436035,-0.8560323119163513
1779958308495525400,4.040525390625,-0.3858426511287689,-8.069195747375488,-0.22791635990142822
1779958308511860200,4.056860107421875,-0.2069791555404663,-9.123832702636719,0.4941178858280182
1779958308528190200,4.073190185546875,-1.3926228284835815,-10.203594207763672,1.2299108505249023
1779958308544523500,4.0895234375,-1.1108678579330444,-10.984251976013184,1.4500504732131958
1779958308560844500,4.105844482421875,-0.38285163044929504,-11.21934700012207,1.1001001596450806
1779958308577190400,4.1221904296875,0.36191442608833313,-10.962717056274414,0.9337990283966064
1779958308593540400,4.138540283203125,-0.11904292553663254,-11.142776489257812,0.8823533654212952
1779958308609863700,4.15486376953125,-0.6005984544754028,-11.720643043518066,1.1024930477142334
1779958308626204200,4.1712041015625,-0.6580262184143066,-11.61535930633545,1.058824062347412
1779958308642534400,4.187534423828125,-1.1114661693572998,-11.903694152832031,1.831107497215271
1779958308658851000,4.20385107421875,-1.0121639966964722,-12.212368965148926,2.693121910095215
1779958308675201300,4.220201171875,-1.1186445951461792,-11.81037425994873,2.688934564590454
1779958308691531800,4.23653173828125,-1.8939191102981567,-12.183056831359863,3.1896326541900635
1779958308707864800,4.25286474609375,-2.072782516479492,-12.647862434387207,3.613760471343994
1779958308724199700,4.26919970703125,-1.2819547653198242,-12.440284729003906,2.4460630416870117
1779958308740516400,4.285516357421875,-0.8889335989952087,-12.169896125793457,2.770888566970825
1779958308756862700,4.30186279296875,-0.7244270443916321,-11.065608024597168,2.6458635330200195
1779958308773187600,4.3181875,-1.1976077556610107,-10.342975616455078,1.3507484197616577
1779958308789515500,4.334515625,-2.0745773315429688,-10.491331100463867,-1.103689432144165
1779958308805855700,4.350855712890625,-1.6241283416748047,-12.178271293640137,-3.2033913135528564
1779958308822181400,4.367181396484375,1.2873386144638062,-13.935200691223145,-3.4887354373931885
1779958308838514200,4.38351416015625,2.1134605407714844,-15.107684135437012,-3.8261234760284424
1779958308854838000,4.399838134765625,-0.3242274820804596,-13.931013107299805,-3.524627685546875
1779958308871203800,4.416203857421875,-2.0691933631896973,-12.747164726257324,-2.853440999984741
1779958308887521000,4.43252099609375,-2.1236300468444824,-12.93200969696045,-1.9106688499450684
1779958308903865300,4.448865234375,-2.4502503871917725,-12.55274772644043,-0.5084748268127441
1779958308920173600,4.465173583984375,-3.6329028606414795,-9.852447509765625,0.9272187948226929
1779958308936507400,4.48150732421875,-3.13220477104187,-7.973483085632324,2.0614166259765625
1779958308952853000,4.49785302734375,-2.974876642227173,-7.549953460693359,2.5094728469848633
1779958308969177600,4.514177490234375,-1.0893324613571167,-7.242475986480713,2.184048891067505
1779958308985511200,4.53051123046875,-0.8614161610603333,-7.375875949859619,1.7587246894836426
1779958309001843500,4.546843505859375,-0.9517452120780945,-7.4123663902282715,1.164108157157898
1779958309018179600,4.5631796875,0.06640082597732544,-5.958726406097412,0.31764721870422363
1779958309034507300,4.57950732421875,1.0701899528503418,-4.275974273681641,-0.4989035129547119
1779958309050848500,4.5958486328125,2.1260228157043457,-3.1621150970458984,-1.164108157157898
1779958309067163400,4.612163330078125,2.246262311935425,-2.396411895751953,-1.5152549743652344
1779958309083525600,4.628525634765625,1.4727823734283447,-1.9543378353118896,-1.6253247261047363
1779958309099851000,4.64485107421875,-0.02273181453347206,-1.6815561056137085,-1.9800606966018677
1779958309116187000,4.661186767578125,-1.6803597211837769,-1.5840486288070679,-2.888136863708496
1779958309132525300,4.677525390625,-4.147958278656006,-2.416750907897949,-3.544966697692871
1779958309148838000,4.693837890625,-6.55992317199707,-4.753940582275391,-3.4923245906829834
1779958309165186800,4.710186767578125,-8.233702659606934,-9.720842361450195,-2.4059832096099854
1779958309181518600,4.7265185546875,-8.21276569366455,-16.7802677154541,-0.11126625537872314
1779958309197853000,4.74285302734375,-10.553544044494629,-26.191238403320312,-2.3718855381011963
1779958309214184700,4.759184814453125,-14.222339630126953,-18.972091674804688,-5.405984401702881
1779958309230505700,4.775505615234375,-8.918049812316895,-7.323832035064697,-5.360520839691162
1779958309246852600,4.7918525390625,-7.084549427032471,-2.885744094848633,-4.1282172203063965
1779958309263163600,4.80816357421875,-6.16271448135376,-4.9704909324646,-4.821537494659424
1779958309279505000,4.8245048828125,-7.332805156707764,-13.24427318572998,-1.657029628753662
1779958309295832800,4.840832763671875,0.5264210104942322,-17.58664894104004,3.0107691287994385
1779958309312178000,4.857177978515625,2.3503501415252686,-25.45185661315918,1.3214362859725952
1779958309328500700,4.873500732421875,5.040481090545654,-10.755738258361816,-3.3332018852233887
1779958309344834800,4.889834716796875,0.5401797294616699,-4.1036906242370605,-4.746761798858643
1779958309361171700,4.906171630859375,-7.858627796173096,-4.005585193634033,-4.768895626068115
1779958309377496600,4.92249658203125,-1.7982062101364136,-4.12761926651001,-2.7038896083831787
1779958309393846800,4.9388466796875,6.865606307983398,-5.207380294799805,-0.8668000102043152
1779958309410173400,4.95517333984375,6.682555675506592,-7.093522548675537,0.012562318705022335
1779958309426506500,4.971506591796875,5.267798900604248,-9.859027862548828,0.15314064919948578
1779958309442832000,4.987831787109375,2.8277182579040527,-16.071990966796875,-0.29790642857551575
1779958309459166700,5.004166748046875,-2.978466033935547,-20.149959564208984,1.397408366203308
1779958309475497200,5.020497314453125,-6.6352972984313965,-12.387642860412598,5.13320255279541
1779958309491831600,5.03683154296875,-2.99222469329834,-8.624929428100586,3.8763725757598877
1779958309508176000,5.05317578125,1.241276741027832,-6.309873104095459,1.5182459354400635
1779958309524495600,5.06949560546875,2.283949136734009,-5.98444938659668,-0.8542376756668091
1779958309540830000,5.085829833984375,3.318246841430664,-6.786045074462891,-2.2719850540161133
1779958309557162200,5.102162353515625,4.3686957359313965,-7.801199913024902,-2.6500511169433594
1779958309573512000,5.118511962890625,0.47976094484329224,-7.730013370513916,-2.4574289321899414
1779958309589839400,5.13483935546875,-3.8398821353912354,-7.933403491973877,-2.5902304649353027
1779958309606158300,5.151158447265625,-4.210171222686768,-7.254439830780029,-2.38983154296875
1779958309622509000,5.167509033203125,-2.493321180343628,-7.889734268188477,-0.9367900490760803
1779958309638839600,5.183839599609375,0.06939185410737991,-9.226723670959473,1.1234302520751953
1779958309655172000,5.200172119140625,0.9852447509765625,-9.932008743286133,2.5938198566436768
1779958309671505000,5.2165048828125,1.1497513055801392,-10.009775161743164,2.8869404792785645
1779958309687821800,5.23282177734375,-1.2634103298187256,-10.17846965789795,2.376072883605957
1779958309704145700,5.249145751953125,-2.390429735183716,-9.9140625,1.252044439315796
1779958309720503600,5.265503662109375,-1.4662020206451416,-10.082756042480469,0.8512466549873352
1779958309736838000,5.281837890625,0.4253242313861847,-11.557931900024414,1.5792629718780518
1779958309753171000,5.2981708984375,0.23210379481315613,-12.053245544433594,2.6835505962371826
1779958309769484000,5.314484130859375,-2.2169501781463623,-11.953943252563477,3.566502094268799
1779958309785822200,5.330822265625,-2.99222469329834,-11.962318420410156,3.920041799545288
1779958309802155500,5.347155517578125,-1.4416756629943848,-12.160325050354004,3.2937204837799072
1779958309818487300,5.3634873046875,-0.9475577473640442,-12.912269592285156,3.1854450702667236
1779958309834820000,5.379820068359375,-0.8141579031944275,-12.934402465820312,2.620738983154297
1779958309851154000,5.39615380859375,-0.34217363595962524,-12.259028434753418,1.797009825706482
1779958309867520500,5.4125205078125,-0.3655036687850952,-12.820743560791016,2.5094728469848633
1779958309883835400,5.42883544921875,-0.6753742098808289,-11.918051719665527,1.5996019840240479
1779958309900138000,5.445137939453125,-1.179063320159912,-10.584650993347168,-0.9206385016441345
1779958309916494800,5.461494873046875,-1.2167502641677856,-11.12722396850586,-3.2745778560638428
1779958309932818200,5.477818115234375,-0.534795880317688,-13.99083423614502,-4.062414646148682
1779958309949151000,5.49415087890625,1.9645073413848877,-14.858830451965332,-3.778865098953247
1779958309965483300,5.510483154296875,2.7870402336120605,-13.319646835327148,-2.7672994136810303
1779958309981817000,5.526817138671875,1.583450436592102,-11.875578880310059,-1.8047864437103271
1779958309998148600,5.543148681640625,-0.6059823632240295,-11.776276588439941,-1.1928220987319946
1779958310014485000,5.559485107421875,-3.3708889484405518,-12.918848991394043,-0.38703906536102295
1779958310030815200,5.575815185546875,-5.915655612945557,-12.227921485900879,0.8949156403541565
1779958310047149000,5.592149169921875,-4.730011940002441,-8.443673133850098,2.2881367206573486
1779958310063465200,5.60846533203125,-3.1040892601013184,-7.293323516845703,3.1130621433258057
1779958310079824600,5.62482470703125,-0.28115665912628174,-7.506882667541504,3.2955150604248047
1779958310096159500,5.641159423828125,-0.8865407705307007,-8.441280364990234,2.9772696495056152
1779958310112494600,5.65749462890625,-1.0612168312072754,-7.207779884338379,1.6761722564697266
1779958310128824300,5.67382421875,-0.02871387079358101,-5.309673309326172,0.7166503667831421
1779958310145152800,5.69015283203125,0.9128618240356445,-3.865604877471924,-0.08255238085985184
1779958310161469700,5.7064697265625,1.3722838163375854,-3.342175006866455,-1.0600204467773438
1779958310177798700,5.722798583984375,0.8632107973098755,-3.3433713912963867,-1.815554141998291
1779958310194133800,5.7391337890625,0.8291130661964417,-3.586242914199829,-2.252244234085083
1779958310210462200,5.755462158203125,0.8255237936973572,-3.6813576221466064,-2.3772692680358887
1779958310226798600,5.771798583984375,0.07597211748361588,-3.492922782897949,-2.36291241645813
1779958310243130000,5.788130126953125,-1.2059825658798218,-3.3553354740142822,-2.5298118591308594
1779958310259478300,5.804478271484375,-2.8977081775665283,-3.958326816558838,-2.500499725341797
1779958310275809500,5.8208095703125,-4.71744966506958,-4.95493745803833,-1.7742780447006226
1779958310292141600,5.8371416015625,-6.703492641448975,-8.446065902709961,-1.5248262882232666
1779958310308473000,5.85347314453125,-12.076576232910156,-16.865211486816406,-1.8544375896453857
1779958310324807700,5.8698076171875,-14.763715744018555,-25.893930435180664,-0.8057830333709717
1779958310341140500,5.886140380859375,-12.208779335021973,-19.896320343017578,-0.3068794906139374
1779958310357472800,5.90247265625,-10.719246864318848,-10.243075370788574,-1.5296118259429932
1779958310373823200,5.9188232421875,-11.71705436706543,-4.526622295379639,-1.5601203441619873
1779958310390134500,5.935134521484375,-8.574081420898438,-5.285745143890381,-1.3094722032546997
1779958310406490000,5.951489990234375,-3.507279872894287,-13.13958740234375,3.1274192333221436
1779958310422801200,5.96780126953125,4.240081787109375,-20.076379776000977,7.1264238357543945
1779958310439136300,5.98413623046875,6.945765972137451,-25.462026596069336,3.989433526992798
1779958310455470600,6.000470703125,8.11406135559082,-11.408978462219238,-3.346362352371216
1779958310471805700,6.0168056640625,-3.232105255126953,-3.6257245540618896,-6.2051873207092285
1779958310488133400,6.03313330078125,-11.3509521484375,-0.19920247793197632,-6.613761901855469
1779958310504469000,6.049468994140625,1.0348957777023315,-1.195214867591858,-5.602794170379639
1779958310520803000,6.065802978515625,8.5100736618042,-4.134199142456055,-2.974278450012207
1779958310537135400,6.08213525390625,5.320441246032715,-6.7316083908081055,-1.5290136337280273
1779958310553484300,6.098484375,3.1351959705352783,-13.010375022888184,-1.0205388069152832
1779958310569806800,6.114806884765625,3.8590247631073,-24.11845588684082,-1.217348575592041
1779958310586143700,6.131143798828125,-6.417550563812256,-16.377077102661133,2.5471596717834473
1779958310602467800,6.1474677734375,-3.957728624343872,-8.819944381713867,4.266402721405029
1779958310618811000,6.163810791015625,0.09810572862625122,-7.214360237121582,2.8151557445526123
1779958310635146000,6.18014599609375,1.3357932567596436,-6.739983081817627,-0.08733802288770676
1779958310651478000,6.19647802734375,0.20937198400497437,-7.062416076660156,-1.6767704486846924
1779958310667810800,6.212810791015625,1.1748759746551514,-7.547560691833496,-1.7240287065505981
1779958310684144600,6.22914453125,1.1874382495880127,-7.555935859680176,-2.1361923217773438
1779958310700471000,6.245470947265625,-0.6664010882377625,-7.118049144744873,-3.067598581314087
1779958310716798700,6.261798828125,-1.6576279401779175,-7.196413993835449,-3.1280174255371094
1779958310733127000,6.278126953125,-2.4765713214874268,-7.789236068725586,-2.5076780319213867
1779958310749461200,6.294461181640625,-2.3910279273986816,-9.141180992126465,-1.3758729696273804
1779958310765794800,6.310794921875,-0.4325026869773865,-9.241679191589355,0.06580262631177902
1779958310782128000,6.327128173828125,1.4799607992172241,-9.30449104309082,1.94297194480896
1779958310798440700,6.343440673828125,1.6271194219589233,-9.379266738891602,2.6673989295959473
1779958310814781200,6.35978125,-0.7417750358581543,-9.461220741271973,1.9022940397262573
1779958310831124000,6.3761240234375,-3.029313564300537,-9.299705505371094,1.0145567655563354
1779958310847447300,6.392447265625,-2.186441659927368,-10.712666511535645,1.0504491329193115
1779958310863781000,6.408781005859375,0.36311084032058716,-12.251850128173828,1.8598214387893677
1779958310880118500,6.425118408203125,0.4301098585128784,-12.422937393188477,3.1004998683929443
1779958310896446000,6.441446044921875,-2.1571295261383057,-11.59561824798584,3.707080364227295
1779958310912778200,6.4577783203125,-2.1996021270751953,-11.439486503601074,4.210171222686768
1779958310929116400,6.474116455078125,-0.18065811693668365,-12.699906349182129,5.0117669105529785
1779958310945456600,6.49045654296875,1.2993026971817017,-13.366307258605957,4.460221290588379
1779958310961790000,6.5067900390625,-0.32123643159866333,-13.621143341064453,3.2069804668426514
1779958310978110200,6.523110107421875,-1.6396816968917847,-14.385649681091309,2.572284460067749
1779958310994445600,6.539445556640625,-0.25423741340637207,-13.238889694213867,0.05144568532705307
1779958311010788400,6.555788330078125,-1.0372886657714844,-11.638091087341309,-2.210968017578125
1779958311027121700,6.57212158203125,-1.4015958309173584,-12.844073295593262,-4.593023300170898
1779958311043454500,6.588454345703125,1.4775680303573608,-14.408979415893555,-5.0602216720581055
1779958311059786000,6.604785888671875,3.3272199630737305,-15.265610694885254,-4.661218643188477
1779958311076132900,6.6211328125,1.5984054803848267,-15.482758522033691,-4.238286972045898
1779958311092462000,6.637462158203125,-1.0701899528503418,-14.703296661376953,-3.6323046684265137
1779958311108798200,6.653798095703125,-3.2231321334838867,-13.306487083435059,-2.0446670055389404
1779958311125132800,6.6701328125,-2.9790642261505127,-11.496914863586426,0.2566302418708801
1779958311141449000,6.686448974609375,-2.2576282024383545,-9.677172660827637,1.8143577575683594
1779958311157796400,6.70279638671875,-2.2534406185150146,-7.934001445770264,2.5232315063476562
1779958311174131000,6.719130859375,-2.076970100402832,-7.167700290679932,3.455834150314331
1779958311190448400,6.735448486328125,-0.11724831163883209,-7.530212879180908,3.067000389099121
1779958311206784500,6.751784423828125,0.8703892230987549,-6.510870456695557,2.022533416748047
1779958311223136000,6.768135986328125,0.44027936458587646,-5.44845724105835,0.5515456199645996
1779958311239460900,6.7844609375,0.1537388563156128,-4.508078098297119,-0.3481557071208954
1779958311255796000,6.8007958984375,0.2189432680606842,-3.5258240699768066,-1.1018948554992676
1779958311272111400,6.817111328125,1.0965110063552856,-3.0065815448760986,-1.26699960231781
1779958311288446500,6.833446533203125,1.0265209674835205,-2.940180778503418,-0.9224331378936768
1779958311304780800,6.84978076171875,1.4679967164993286,-2.617149829864502,-0.7746763229370117
1779958311321113600,6.866113525390625,1.089930772781372,-2.193620204925537,-1.3028919696807861
1779958311337443000,6.882443115234375,0.12741780281066895,-2.4741785526275635,-2.5322046279907227
1779958311353782500,6.898782470703125,-2.521436929702759,-2.090728759765625,-3.7046875953674316
1779958311370100500,6.9151005859375,-4.31306266784668,-2.947359323501587,-3.552743434906006
1779958311386458600,6.931458740234375,-6.416952133178711,-7.320242881774902,-2.5495524406433105
1779958311402788900,6.947788818359375,-11.526226997375488,-19.18146514892578,-1.828116536140442
1779958311419094000,6.964093994140625,-18.186050415039062,-36.872798919677734,-0.7740781307220459
1779958311435446800,6.98044677734375,-8.951549530029297,-21.24467658996582,-4.641477584838867
1779958311451777300,6.99677734375,-7.47637414932251,-6.521039962768555,-6.421139717102051
1779958311468100000,7.01310009765625,-11.337193489074707,-3.710071563720703,-7.744370460510254
1779958311484442000,7.029442138671875,-7.979465484619141,-12.79202938079834,-5.085944652557373
1779958311500775700,7.045775634765625,-4.809573650360107,-22.121047973632812,0.22492532432079315
1779958311517108200,7.062108154296875,1.2975081205368042,-23.799612045288086,6.022136211395264
1779958311533458000,7.0784580078125,11.536396026611328,-9.961918830871582,0.6245267391204834
1779958311549786400,7.094786376953125,5.0841498374938965,-1.1042876243591309,-2.665006160736084
1779958311566112000,7.111112060546875,0.05503492057323456,1.5804593563079834,-3.9110686779022217
1779958311582438400,7.1274384765625,-1.6941183805465698,-2.5094728469848633,-1.9657038450241089
1779958311598759700,7.143759765625,2.940180778503418,-6.198009014129639,-0.4570291340351105
1779958311615092000,7.160092041015625,4.542175769805908,-9.218947410583496,-0.6023930907249451
1779958311631433700,7.176433837890625,5.50229549407959,-12.242279052734375,-0.8811569213867188
1779958311647759600,7.192759521484375,4.457230567932129,-21.922443389892578,-2.2085752487182617
1779958311664092000,7.209091796875,-0.5066801905632019,-17.005191802978516,1.3567304611206055
1779958311680423700,7.225423583984375,-6.39601469039917,-8.9910306930542,4.425525665283203
1779958311696758500,7.241758544921875,-2.3706889152526855,-7.578667640686035,2.1206390857696533
1779958311713090600,7.258090576171875,0.9110672473907471,-6.653243541717529,-0.0323031060397625
1779958311729424600,7.274424560546875,0.25064817070961,-6.75374174118042,-0.9858429431915283
1779958311745757200,7.290757080078125,1.7904295921325684,-7.76889705657959,-1.7395820617675781
1779958311762090000,7.307090087890625,3.2344980239868164,-7.332805156707764,-1.703689694404602
1779958311778423000,7.323423095703125,3.170490026473999,-6.548557281494141,-1.7353945970535278
1779958311794754300,7.33975439453125,-1.5188441276550293,-6.967899322509766,-1.4931213855743408
1779958311811087000,7.356087158203125,-7.5804619789123535,-7.429116249084473,-1.9214365482330322
1779958311827436000,7.37243603515625,-5.4418768882751465,-8.440681457519531,-1.2233306169509888
1779958311843766000,7.38876611328125,0.035892341285943985,-9.856635093688965,0.7812566161155701
1779958311860076300,7.405076171875,2.207977056503296,-11.261819839477539,3.451646566390991
1779958311876431600,7.421431640625,1.9776679277420044,-10.182058334350586,3.802793502807617
1779958311892765400,7.437765380859375,-1.1413763761520386,-9.970891952514648,3.1100711822509766
1779958311909095400,7.454095458984375,-3.714258909225464,-10.199406623840332,1.7066807746887207
1779958311925429500,7.470429443359375,-1.3657035827636719,-9.565906524658203,0.6041877269744873
1779958311941764900,7.486764892578125,0.39541393518447876,-10.38066291809082,1.3286148309707642
1779958311958093300,7.50309326171875,0.6065805554389954,-10.795817375183105,2.541177749633789
1779958311974429000,7.519428955078125,-1.4578272104263306,-10.990234375,3.680161237716675
1779958311990763300,7.53576318359375,-2.7762725353240967,-11.423335075378418,4.110270977020264
1779958312007093500,7.552093505859375,-1.794616937637329,-11.142178535461426,3.5192439556121826
1779958312023444200,7.5684443359375,-1.1826525926589966,-10.777273178100586,2.633301258087158
1779958312039769000,7.58476904296875,-1.7617156505584717,-11.684152603149414,2.617149829864502
1779958312056107000,7.60110693359375,-1.057627558708191,-12.776476860046387,2.6051857471466064
1779958312072449800,7.61744970703125,-1.1581261157989502,-13.365111351013184,2.870789051055908
1779958312088756500,7.633756591796875,-1.6313068866729736,-13.632509231567383,3.092125177383423
1779958312105106400,7.6501064453125,-1.1330015659332275,-12.942777633666992,2.513062000274658
1779958312121437400,7.6664375,-0.7830511927604675,-11.72842025756836,0.6364908218383789
1779958312137770200,7.682770263671875,-1.0815558433532715,-11.829517364501953,-2.0105693340301514
1779958312154110000,7.69910986328125,0.9074779748916626,-14.292329788208008,-3.5982069969177246
1779958312170421500,7.71542138671875,3.1716864109039307,-14.442479133605957,-3.366701364517212
1779958312186770200,7.731770263671875,2.3820550441741943,-13.189238548278809,-2.8755745887756348
1779958312203111400,7.748111328125,0.5042873620986938,-12.41994571685791,-2.709871530532837
1779958312219427800,7.764427734375,-0.7190431952476501,-12.790833473205566,-2.2642083168029785
1779958312235765500,7.780765625,-3.5635111331939697,-12.927224159240723,-0.7429714202880859
1779958312252108800,7.79710888671875,-6.071787357330322,-9.834501266479492,1.7336000204086304
1779958312268429300,7.81342919921875,-4.362713813781738,-7.87358283996582,3.236292600631714
1779958312284754400,7.82975439453125,-0.7010970115661621,-8.046463966369629,3.4683964252471924
1779958312301087200,7.846087158203125,-1.0773683786392212,-8.633902549743652,3.5982069969177246
1779958312317419500,7.86241943359375,-1.5314065217971802,-7.963912010192871,2.26959228515625
1779958312333752000,7.878751953125,-1.1473584175109863,-7.038487911224365,1.0247262716293335
1779958312350076400,7.895076416015625,0.711864709854126,-5.959922790527344,0.14057832956314087
1779958312366417200,7.911417236328125,0.8662018179893494,-4.719842433929443,-0.5258227586746216
1779958312382759200,7.92775927734375,0.9864411354064941,-3.8051862716674805,-0.98703932762146
1779958312399075800,7.944075927734375,1.8502501249313354,-3.036491870880127,-1.3286148309707642
1779958312415420000,7.960419921875,1.46500563621521,-2.6572296619415283,-1.550549030303955
1779958312431737300,7.9767373046875,0.6406782865524292,-2.104487419128418,-1.9046868085861206
1779958312448076500,7.99307666015625,-0.36191442608833313,-1.913659930229187,-2.3856441974639893
1779958312464415500,8.00941552734375,-1.5391831398010254,-2.602792739868164,-2.874976396560669
1779958312480748800,8.025748779296874,-3.142972469329834,-3.841676712036133,-2.8420751094818115
1779958312497081600,8.04208154296875,-4.984847545623779,-6.984649181365967,-2.2845473289489746
1779958312513430800,8.0584306640625,-7.250850677490234,-15.0753812789917,-1.7240287065505981
1779958312529759200,8.07475927734375,-11.094322204589844,-30.47797966003418,-1.1892328262329102
1779958312546113500,8.091113525390625,-15.75853157043457,-25.130619049072266,-2.531008243560791
1779958312562443300,8.107443359375,-10.363913536071777,-10.52662467956543,-2.8839495182037354
1779958312578754600,8.123754638671874,-12.8691987991333,-4.390829563140869,-1.280758261680603
1779958312595082200,8.140082275390625,-9.978668212890625,-1.085145115852356,0.5264210104942322
1779958312611409000,8.156408935546875,-2.4221346378326416,-6.185446739196777,4.514657974243164
1779958312627756500,8.172756591796874,3.8811583518981934,-15.090933799743652,7.923233985900879
1779958312644091600,8.189091552734375,14.06979751586914,-28.06242561340332,5.705685615539551
1779958312660407800,8.20540771484375,5.659623622894287,-22.770099639892578,-2.638087034225464
1779958312676756500,8.221756591796876,-7.987242221832275,-10.646265983581543,-7.87777042388916
1779958312693090800,8.2380908203125,-14.508879661560059,-1.7383856773376465,-12.010773658752441
1779958312709418000,8.25441796875,2.9114668369293213,-2.386242389678955,-5.491528034210205
1779958312725759000,8.270759033203126,7.043273448944092,-2.310270309448242,-0.8434699773788452
1779958312742084400,8.28708447265625,7.651050567626953,-5.099703311920166,-0.7603194117546082
1779958312758405000,8.303405029296876,5.102694511413574,-8.678768157958984,-1.052243709564209
1779958312774753500,8.31975341796875,2.4873390197753906,-16.847265243530273,-2.803191661834717
1779958312791070000,8.336070068359374,2.3264217376708984,-17.088342666625977,-0.4815555512905121
1779958312807406300,8.35240625,-5.6931233406066895,-11.0775728225708,4.396213531494141
1779958312823739100,8.3687392578125,0.16749759018421173,-8.243273735046387,4.671388149261475
1779958312840070700,8.385070556640626,3.5772697925567627,-6.994818687438965,3.0759735107421875
1779958312856405000,8.401405029296875,1.3938192129135132,-6.748358249664307,1.0582258701324463
1779958312872737800,8.41773779296875,-1.3154542446136475,-7.864011764526367,-0.914058268070221
1779958312889069600,8.434069580078125,-2.344966173171997,-8.905488014221191,-1.9016958475112915
1779958312905403100,8.450403076171876,-2.612962245941162,-8.146963119506836,-2.644068956375122
1779958312921736400,8.466736328125,-2.038684844970703,-7.093522548675537,-2.004587173461914
1779958312938067700,8.483067626953124,-1.1335997581481934,-6.980462074279785,-0.6951149702072144
1779958312954402300,8.49940234375,-1.4793626070022583,-8.542376518249512,0.7357929348945618
1779958312970735400,8.5157353515625,-1.4362918138504028,-9.631111145019531,1.72941255569458
1779958312987065600,8.532065673828125,-1.0737791061401367,-9.394221305847168,2.1780667304992676
1779958313003417600,8.54841748046875,-1.3752747774124146,-8.839086532592773,2.115255117416382
1779958313019738000,8.564738037109375,-1.456630825996399,-8.913862228393555,1.6067804098129272
1779958313036080600,8.58108056640625,-0.20338992774486542,-9.221938133239746,1.241276741027832
1779958313052404700,8.59740478515625,0.07657032459974289,-10.04447078704834,1.1114661693572998
1779958313068729600,8.6137294921875,-0.47976094484329224,-10.72702407836914,1.1581261157989502
1779958313085080000,8.630080078125,-0.625723123550415,-11.160124778747559,2.2773690223693848
1779958313101403600,8.646403564453125,-0.9361918568611145,-11.273185729980469,3.573082447052002
1779958313117742600,8.66274267578125,-1.3256237506866455,-11.527422904968262,4.07258415222168
1779958313134078500,8.679078369140624,-1.48055899143219,-11.832508087158203,3.864408493041992
1779958313150390500,8.695390625,-1.012762188911438,-11.915658950805664,2.6458635330200195
1779958313166747100,8.7117470703125,-1.0767701864242554,-13.26401424407959,2.7379872798919678
1779958313183078700,8.72807861328125,-1.6719847917556763,-14.272588729858398,3.0035905838012695
1779958313199403500,8.744403564453124,-1.8185452222824097,-15.07119369506836,3.139383316040039
1779958313215750100,8.760750244140626,-0.8099704384803772,-13.194622039794922,1.5469598770141602
1779958313232074500,8.777074462890624,-0.9026923179626465,-11.182258605957031,-1.2795618772506714
1779958313248392000,8.793391845703125,-2.1589243412017822,-11.36949634552002,-4.6372904777526855
1779958313264740000,8.809739990234375,1.34476637840271,-13.786846160888672,-6.558726787567139
1779958313281044000,8.8260439453125,4.110869407653809,-14.197813034057617,-5.811567783355713
1779958313297392600,8.842392578125,2.675773859024048,-13.389039039611816,-4.914259433746338
1779958313313725200,8.85872509765625,-0.28534409403800964,-12.623933792114258,-4.128815650939941
1779958313330054100,8.87505419921875,-2.8773691654205322,-13.309477806091309,-2.9521448612213135
1779958313346395100,8.89139501953125,-4.020540237426758,-13.566706657409668,-0.623330295085907
1779958313362723800,8.907723876953124,-4.384249210357666,-10.842477798461914,1.5804593563079834
1779958313379043800,8.9240439453125,-3.680161237716675,-8.615358352661133,2.827120065689087
1779958313395389700,8.9403896484375,-2.7834508419036865,-7.664210796356201,3.6939198970794678
1779958313411723500,8.9567236328125,0.1423729509115219,-7.698906898498535,3.4133615493774414
1779958313428049400,8.97304931640625,0.10049854964017868,-7.441080093383789,1.9812572002410889
1779958313444388600,8.989388671875,-1.3160524368286133,-6.347560405731201,0.388235479593277
1779958313460722000,9.005721923828125,-1.1276177167892456,-5.0015974044799805,-0.4019941985607147
1779958313477055000,9.022054931640625,-0.0729810893535614,-3.7740795612335205,-0.9230313301086426
1779958313493399800,9.03839990234375,0.8614161610603333,-2.7762725353240967,-1.186241865158081
1779958313509736200,9.054736083984375,0.8081758618354797,-2.015354871749878,-1.3381860256195068
1779958313526063600,9.071063720703124,0.4540380835533142,-1.6654045581817627,-1.373480200767517
1779958313542407400,9.087407470703125,-0.3684946894645691,-1.2604193687438965,-1.8185452222824097
1779958313558715600,9.103715576171876,-1.6193426847457886,-1.25144624710083,-2.2396819591522217
1779958313575066400,9.12006640625,-2.699103832244873,-1.831107497215271,-2.416750907897949
1779958313591365400,9.136365478515625,-5.065605640411377,-3.005983352661133,-2.504088878631592
1779958313607729400,9.1527294921875,-7.544569969177246,-6.13699197769165,-2.142772674560547
1779958313624065300,9.169065185546875,-10.961520195007324,-15.398411750793457,-0.9613165259361267
1779958313640377300,9.18537744140625,-12.250653266906738,-32.468807220458984,0.3678964674472809
1779958313656733400,9.2017333984375,-12.08614730834961,-25.074987411499023,-1.9052850008010864
1779958313673042200,9.218042236328126,-7.010372161865234,-10.349555969238281,-4.234099864959717
1779958313689369000,9.234369140625,-10.586445808410645,-3.6029927730560303,-4.347160339355469
1779958313705701600,9.25070166015625,-9.22134017944336,-4.467400074005127,-4.214957237243652
1779958313722034700,9.26703466796875,-3.387638568878174,-12.390035629272461,-1.444068431854248
1779958313738382300,9.28338232421875,5.9916276931762695,-18.16810417175293,5.664409637451172
1779958313754712600,9.299712646484375,8.784051895141602,-22.74437713623047,0.3355933725833893
1779958313771046700,9.316046630859375,1.6546368598937988,-13.094721794128418,-4.978865623474121
1779958313787379500,9.33237939453125,-5.724828243255615,-5.759523868560791,-6.87099027633667
1779958313803711700,9.348711669921874,-3.899702787399292,-3.5808591842651367,-6.195616245269775
1779958313820043500,9.36504345703125,2.193620204925537,-4.139583110809326,-2.1481566429138184
1779958313836378000,9.381378173828125,5.719444274902344,-5.6309099197387695,-0.5700899958610535
1779958313852710400,9.39771044921875,5.570491313934326,-7.014559745788574,0.11066804826259613
1779958313869042200,9.414042236328125,4.633700847625732,-12.128620147705078,0.31046873331069946
1779958313885376300,9.430376220703126,4.7712883949279785,-17.730815887451172,1.220937728881836
1779958313901709600,9.44670947265625,-0.27756741642951965,-13.053445816040039,3.5635111331939697
1779958313918040800,9.463040771484375,-4.0145583152771,-9.477970123291016,3.8333017826080322
1779958313934375700,9.479375732421875,-2.6697919368743896,-6.881757736206055,1.0666006803512573
1779958313950696000,9.495696044921875,0.37507495284080505,-6.935596466064453,-0.9379864931106567
1779958313967041000,9.512041015625,2.283350944519043,-8.318049430847168,-2.355135679244995
1779958313983387000,9.528386962890625,3.2273194789886475,-9.329017639160156,-2.5669004917144775
1779958313999720000,9.544719970703126,0.8865407705307007,-8.371888160705566,-2.3844478130340576
1779958314016051700,9.5610517578125,-2.2133610248565674,-7.613961696624756,-2.108076810836792
1779958314032384500,9.577384521484374,-4.996213912963867,-6.776473522186279,-1.5176477432250977
1779958314048717000,9.593717041015625,-2.967698335647583,-7.100701332092285,-0.38763725757598877
1779958314065050400,9.61005029296875,-0.37866419553756714,-8.335397720336914,0.7776673436164856
1779958314081352700,9.626352783203124,-0.1052841991186142,-9.506684303283691,2.203789710998535
1779958314097715500,9.642715576171875,0.9385846853256226,-10.023533821105957,3.077169895172119
1779958314114034200,9.6590341796875,0.7256234884262085,-10.000204086303711,3.4301111698150635
1779958314130361300,9.675361328125,-2.2031915187835693,-9.90987491607666,2.906083106994629
1779958314146721500,9.691721435546874,-3.696911096572876,-9.707681655883789,0.47198426723480225
1779958314163015700,9.708015625,-1.3812568187713623,-10.895119667053223,0.6293123364448547
1779958314179355000,9.72435498046875,0.8117650747299194,-11.392827033996582,2.090728759765625
1779958314195704300,9.740704345703126,-0.14476576447486877,-10.442875862121582,3.355933666229248
1779958314212034000,9.757033935546875,-2.954537868499756,-10.265209197998047,3.9535412788391113
1779958314228365800,9.77336572265625,-3.0041887760162354,-11.733803749084473,4.135993957519531
1779958314244699400,9.789699462890624,-1.3645070791244507,-12.875778198242188,4.039682865142822
1779958314261035800,9.806035888671875,-0.12502498924732208,-13.211970329284668,3.5928232669830322
1779958314277356500,9.8223564453125,-0.381655216217041,-13.329218864440918,2.967698335647583
1779958314293692200,9.838692138671876,-1.6941183805465698,-13.998610496520996,2.6596224308013916
1779958314310034700,9.85503466796875,-1.43389892578125,-13.706686019897461,2.2642083168029785
1779958314326362000,9.871362060546875,0.3284149169921875,-12.846467018127441,1.0055837631225586
1779958314342699300,9.88769921875,-0.5252245664596558,-12.798609733581543,-1.4009976387023926
1779958314359028500,9.904028564453125,-0.23988047242164612,-14.420345306396484,-4.43031120300293
1779958314375347200,9.92034716796875,2.6913273334503174,-14.772090911865234,-4.6163530349731445
1779958314391683600,9.93668359375,2.02492618560791,-12.888938903808594,-3.6771702766418457
1779958314408015400,9.953015380859375,1.287936806678772,-11.736795425415039,-3.119044303894043
1779958314424349000,9.969348876953125,0.2153540402650833,-12.008380889892578,-2.4568307399749756
1779958314440681200,9.98568115234375,-1.8945173025131226,-12.711272239685059,-0.7782655358314514
1779958314457030100,10.002030029296876,-4.309473514556885,-10.910075187683105,1.7964116334915161
1779958314473359400,10.018359375,-3.7022948265075684,-9.042476654052734,3.40079927444458
1779958314489691400,10.03469140625,-0.48514479398727417,-9.471389770507812,4.984847545623779
1779958314506021400,10.051021484375,-1.542174220085144,-8.834300994873047,3.991826295852661
1779958314522363100,10.067363037109375,-2.5836503505706787,-7.405188083648682,1.8418751955032349
1779958314538690000,10.08368994140625,-1.5643078088760376,-5.959324836730957,0.2721835672855377
1779958314555035000,10.100034912109376,-0.550349235534668,-4.941178798675537,-0.4408775866031647
1779958314571372500,10.11637255859375,0.9379864931106567,-3.6574294567108154,-0.9439685344696045
1779958314587707400,10.132707275390626,1.3639088869094849,-3.0137600898742676,-0.714257538318634
1779958314604032800,10.14903271484375,2.155334949493408,-3.0251259803771973,-0.6699903607368469
1779958314620351200,10.165351318359376,2.0787646770477295,-2.599203586578369,-0.784247636795044
1779958314636702000,10.181701904296874,1.017547845840454,-2.083550214767456,-1.2604193687438965
1779958314653018600,10.1980185546875,-0.1256231814622879,-1.6295121908187866,-1.6504493951797485
1779958314669353200,10.214353271484375,-1.2263215780258179,-1.9932212829589844,-2.224726915359497
1779958314685684200,10.230684326171875,-2.9353952407836914,-3.4139597415924072,-2.1308085918426514
1779958314702023400,10.2470234375,-5.391627788543701,-6.3116679191589355,-1.6821542978286743
1779958314718352100,10.26335205078125,-8.900103569030762,-14.56092357635498,-1.4470595121383667
1779958314734685400,10.279685546875,-15.617953300476074,-34.26701354980469,-1.3471591472625732
1779958314751005200,10.296005126953125,-14.429917335510254,-24.14118766784668,-1.9872392416000366
1779958314767369500,10.312369384765624,-6.000002861022949,-11.065608024597168,-3.9218363761901855
1779958314783668000,10.32866796875,-10.490134239196777,-3.799204111099243,-4.399204254150391
1779958314800004400,10.34500439453125,-11.532208442687988,-2.035095691680908,-3.5162527561187744
1779958314824517000,10.36951708984375,-2.163111686706543,-13.093525886535645,2.5292134284973145
1779958314840849200,10.38584912109375,4.903491973876953,-24.033510208129883,6.062216281890869
1779958314857183200,10.402183349609375,5.962913990020752,-26.192434310913086,1.2640085220336914
1779958314873516000,10.41851611328125,4.777868747711182,-9.260223388671875,-4.471587181091309
1779958314889849900,10.434849853515624,-4.670191764831543,-2.5698914527893066,-6.241677761077881
1779958314906177300,10.45117724609375,-5.613562107086182,-0.7902296781539917,-5.7547383308410645
1779958314922517800,10.467517822265625,2.8624141216278076,-1.9094724655151367,-1.8400806188583374
1779958314938849000,10.48384912109375,4.687539577484131,-3.926621913909912,-0.357128769159317
1779958314955179800,10.5001796875,6.530013084411621,-7.550551891326904,-0.43489551544189453
1779958314971512800,10.516512939453126,5.715855121612549,-14.504693031311035,-0.6029912829399109
1779958314987862000,10.532862060546876,4.72582483291626,-19.940587997436523,-0.07417750358581543
1779958315004174600,10.549174560546875,-4.689334392547607,-13.814961433410645,1.4452649354934692
1779958315020509200,10.56550927734375,-5.771488189697266,-8.36590576171875,1.2460623979568481
1779958315036860700,10.581860595703125,-1.4327025413513184,-8.09252643585205,-1.1024930477142334
1779958315053191400,10.59819140625,3.373879909515381,-8.199007034301758,-1.5565310716629028
1779958315069522400,10.6145224609375,0.9343972206115723,-8.777471542358398,-1.1060823202133179
1779958315085828600,10.63082861328125,1.2604193687438965,-8.415556907653809,-0.8009973764419556
1779958315102159600,10.64715966796875,0.6005984544754028,-7.444669246673584,-0.33858439326286316
1779958315118496300,10.663496337890624,0.43968117237091064,-6.828517436981201,-0.0891326442360878
1779958315134830300,10.679830322265625,-0.5527420043945312,-6.6490559577941895,-0.13878370821475983
1779958315151178000,10.696177978515625,-3.3858439922332764,-7.262216567993164,-0.5108676552772522
1779958315167497200,10.712497314453126,-4.89691162109375,-8.24686336517334,-0.8500502705574036
1779958315183825400,10.728825439453125,-1.6528422832489014,-9.305088996887207,0.023330021649599075
1779958315200166100,10.745166259765625,1.1802598237991333,-10.562517166137695,2.2582263946533203
1779958315216493300,10.761493408203124,2.4604198932647705,-10.774282455444336,3.326023578643799
1779958315232825600,10.77782568359375,-0.8009973764419556,-10.023533821105957,2.9114668369293213
1779958315249158400,10.794158447265625,-3.858426570892334,-9.833304405212402,1.098305583000183
1779958315265491700,10.81049169921875,-1.5050854682922363,-10.566106796264648,1.0701899528503418
1779958315281826000,10.826825927734374,0.8548358678817749,-11.163115501403809,2.038684844970703
1779958315298157800,10.84315771484375,-0.06939185410737991,-10.63968563079834,3.4947173595428467
1779958315314492700,10.85949267578125,-2.4939193725585938,-10.149157524108887,4.771886348724365
1779958315330836200,10.875836181640626,-3.050848960876465,-10.925029754638672,5.517848968505859
1779958315347169000,10.8921689453125,-1.5822539329528809,-11.312666893005371,4.459024906158447
1779958315363501600,10.90850146484375,-1.5637096166610718,-12.232707977294922,3.628117322921753
1779958315379833900,10.924833740234375,-1.459621787071228,-13.048062324523926,2.8313074111938477
1779958315396165600,10.94116552734375,-1.0199406147003174,-13.475180625915527,2.881556749343872
1779958315412503000,10.9575029296875,-0.6478567123413086,-13.293924331665039,2.779263496398926
1779958315428830700,10.973830810546875,0.0029910283628851175,-13.130614280700684,1.8885352611541748
1779958315445166300,10.990166259765624,-0.009571290574967861,-12.674182891845703,-0.36670008301734924
1779958315461508400,11.00650830078125,-1.5242279767990112,-13.907683372497559,-3.820739507675171
1779958315477848800,11.022848876953125,0.41994038224220276,-15.486946105957031,-4.855037212371826
1779958315494177500,11.039177490234374,3.122633457183838,-15.341582298278809,-4.719842433929443
1779958315510495200,11.0554951171875,2.280359983444214,-13.429717063903809,-3.772284984588623
1779958315526844200,11.07184423828125,0.6496513485908508,-12.452847480773926,-2.957528829574585
1779958315543178200,11.08817822265625,-0.6329016089439392,-12.256635665893555,-1.8789639472961426
1779958315559505400,11.10450537109375,-1.7641085386276245,-12.08076286315918,-0.5982056856155396
1779958315575839700,11.12083984375,-4.646263599395752,-9.589237213134766,1.7156537771224976
1779958315592171800,11.137171875,-4.256831645965576,-8.409575462341309,3.297907829284668
1779958315608526800,11.15352685546875,-1.28255295753479,-8.676374435424805,3.6394832134246826
1779958315624833800,11.169833740234376,-0.13160525262355804,-8.519046783447266,2.80977201461792
1779958315641157400,11.186157470703124,-0.4815555512905121,-7.5080790519714355,0.8129615187644958
1779958315657493200,11.2024931640625,-0.4953143000602722,-5.950351715087891,-0.3810569941997528
1779958315673826300,11.218826416015625,-0.10887342691421509,-4.35254430770874,-1.0061819553375244
1779958315690145800,11.235145751953125,0.12083754688501358,-3.4480574131011963,-1.3710874319076538
1779958315706492200,11.2514921875,0.784247636795044,-2.919841766357422,-1.0342975854873657
1779958315722821400,11.2678212890625,1.5858432054519653,-2.7421748638153076,-0.5437689423561096
1779958315739176700,11.2841767578125,1.2580264806747437,-2.5058834552764893,-0.7615157961845398
1779958315755500000,11.3005,0.7914260625839233,-2.249253273010254,-1.5780665874481201
1779958315771826700,11.31682666015625,-0.44805604219436646,-1.8610178232192993,-2.362314224243164
1779958315788166400,11.33316650390625,-1.8305093050003052,-2.0368902683258057,-3.0388846397399902
1779958315804487400,11.3494873046875,-3.5330026149749756,-3.145963668823242,-3.2309088706970215
1779958315820821500,11.365821533203125,-6.451648235321045,-6.286543369293213,-2.757728099822998
1779958315837155600,11.382155517578125,-10.713265419006348,-15.123835563659668,-1.7682958841323853
1779958315853487600,11.398487548828125,-15.839289665222168,-35.84627914428711,-0.5533402562141418
1779958315869819100,11.414819091796875,-9.547362327575684,-24.874588012695312,-2.1643080711364746
1779958315886145300,11.431145263671874,-3.9798622131347656,-10.48534870147705,-4.475774765014648
1779958315902487600,11.447487548828125,-10.88136100769043,-2.54536509513855,-6.051448345184326
1779958315918817300,11.4638173828125,-11.547761917114258,-1.8305093050003052,-4.660620212554932
1779958315935151900,11.48015185546875,-3.9116668701171875,-9.811769485473633,-1.2305090427398682
1779958315951484700,11.496484619140626,-0.2554338276386261,-18.62932014465332,2.08713960647583
1779958315967819800,11.51281982421875,6.314060688018799,-28.363922119140625,2.8558337688446045
1779958315984164400,11.529164306640626,5.986244201660156,-13.575080871582031,-3.1519455909729004
1779958316000492300,11.5454921875,-0.08793623000383377,-3.73459792137146,-4.506283283233643
1779958316016834000,11.561833984375,-3.958326816558838,-0.5018945336341858,-2.89172625541687
1779958316033160400,11.578160400390624,-0.1453639715909958,-1.5236297845840454,-0.3565305769443512
1779958316049497900,11.594497802734375,4.67078971862793,-4.2933220863342285,0.719641387462616
1779958316065824800,11.61082470703125,6.083751678466797,-7.949554920196533,0.6340979933738708
1779958316082143500,11.6271435546875,5.587240695953369,-15.077774047851562,0.8410771489143372
1779958316098497000,11.6434970703125,3.5641093254089355,-21.1992130279541,1.303490161895752
1779958316114797600,11.659797607421876,-5.9198431968688965,-13.511073112487793,3.1477582454681396
1779958316131158800,11.67615869140625,-6.352345943450928,-7.841279983520508,2.0961127281188965
1779958316147492400,11.692492431640625,-0.32961133122444153,-6.312864303588867,-0.6921239495277405
1779958316163827000,11.708826904296876,3.211168050765991,-7.260422229766846,-1.8041882514953613
1779958316180136400,11.725136474609375,2.228316068649292,-8.739784240722656,-1.8921245336532593
1779958316196491800,11.74149169921875,2.8241288661956787,-8.85643482208252,-1.7922241687774658
1779958316212799700,11.7577998046875,0.01615155301988125,-7.737192153930664,-1.1437692642211914
1779958316229147100,11.774147216796875,-1.3794622421264648,-7.342974662780762,-0.8697910308837891
1779958316245475600,11.7904755859375,-2.0141584873199463,-6.9344000816345215,-1.0031908750534058
1779958316261796900,11.806796875,-2.4747767448425293,-7.425527095794678,-1.0169496536254883
1779958316278140400,11.823140380859375,-2.1278176307678223,-8.3359956741333,-0.5808576941490173
1779958316294475000,11.83947509765625,-1.088136076927185,-8.907281875610352,0.8380861282348633
1779958316310808000,11.85580810546875,0.7639086246490479,-9.42891788482666,2.6273193359375
1779958316327140900,11.872140869140624,0.2877369225025177,-9.348159790039062,3.11246395111084
1779958316343468800,11.88846875,-1.5290136337280273,-9.006584167480469,2.3676979541778564
1779958316359810800,11.904810791015626,-2.011167526245117,-9.21715259552002,1.2711870670318604
1779958316376135400,11.921135498046874,-0.7369893789291382,-10.792826652526855,1.1180464029312134
1779958316392462800,11.937462890625,0.3068794906139374,-11.874980926513672,2.210369825363159
1779958316408803300,11.95380322265625,-0.4612165689468384,-11.462218284606934,3.906282901763916
1779958316425137700,11.9701376953125,-2.5429723262786865,-10.87717342376709,5.1768717765808105
1779958316441471000,11.986470947265625,-2.2408783435821533,-11.370095252990723,5.158327579498291
1779958316457805300,12.002805419921875,-0.9343972206115723,-12.252448081970215,4.916652202606201
1779958316474150100,12.019150146484375,0.4265206456184387,-12.586845397949219,3.6125640869140625
1779958316490467300,12.03546728515625,-0.2626122832298279,-14.404193878173828,2.740380048751831
1779958316506816000,12.05181591796875,-0.6538388133049011,-15.250057220458984,3.008376359939575
1779958316523146200,12.068146240234375,-0.31046873331069946,-14.10568904876709,2.05603289604187
1779958316539484000,12.08448388671875,-0.09152546525001526,-11.645269393920898,-0.6041877269744873
1779958316555797500,12.100797607421875,-1.8191434144973755,-11.58126163482666,-2.915654420852661
1779958316572125000,12.117125,-1.0809576511383057,-13.63908863067627,-4.491926193237305
1779958316588474600,12.133474609375,2.283350944519043,-14.345569610595703,-4.48414945602417
1779958316604814600,12.149814697265626,2.954537868499756,-13.995619773864746,-3.8458642959594727
1779958316621145600,12.1661455078125,1.435693621635437,-13.123435974121094,-3.2027931213378906
1779958316637478000,12.182477783203124,-0.13280165195465088,-12.500105857849121,-2.3503501415252686
1779958316653807600,12.1988076171875,-2.0267207622528076,-12.336795806884766,-1.0845468044281006
1779958316670142500,12.215142578125,-3.0317063331604004,-11.319846153259277,0.17587246000766754
1779958316686455000,12.231455078125,-4.051048755645752,-10.207182884216309,1.4644074440002441
1779958316702786000,12.2477861328125,-2.111067771911621,-8.851649284362793,2.296511650085449
1779958316719127300,12.264127197265625,0.1621137410402298,-8.606983184814453,3.084946632385254
1779958316735475000,12.280474853515624,0.3242274820804596,-8.097909927368164,2.258824586868286
1779958316751807000,12.296806884765624,0.06999006122350693,-7.128817081451416,1.5074782371520996
1779958316768140300,12.313140380859375,0.15732808411121368,-5.78644323348999,0.22791635990142822
1779958316784478700,12.329478759765625,0.1746760457754135,-4.415954113006592,-0.6496513485908508
1779958316800771300,12.345771240234376,0.11306086927652359,-3.348755359649658,-1.0402796268463135
1779958316817129200,12.362129150390626,1.0761719942092896,-3.0065815448760986,-1.1330015659332275
1779958316833446000,12.37844580078125,1.674377679824829,-3.157329559326172,-0.7698906660079956
1779958316849791500,12.39479150390625,1.7240287065505981,-2.994617462158203,-1.022931694984436
1779958316866123500,12.41112353515625,0.8566305041313171,-2.2671995162963867,-1.9800606966018677
1779958316882446300,12.4274462890625,-0.7746763229370117,-1.7156537771224976,-2.733201742172241
1779958316898789000,12.4437890625,-2.392822742462158,-2.4951157569885254,-2.919243574142456
1779958316915123700,12.460123779296875,-4.35254430770874,-4.189234256744385,-2.35872483253479
1779958316931456500,12.47645654296875,-6.8997039794921875,-9.022735595703125,-1.8532410860061646
1779958316947788300,12.492788330078126,-12.123235702514648,-23.529821395874023,-2.035693883895874
1779958316964135000,12.509135009765625,-18.5653133392334,-32.54717254638672,-1.4452649354934692
1779958316980481500,12.5254814453125,-9.376275062561035,-17.691333770751953,-2.8528428077697754
1779958316996784600,12.54178466796875,-7.6043901443481445,-6.821937561035156,-3.3996028900146484
1779958317013128000,12.5581279296875,-10.226325988769531,-2.5836503505706787,-3.2542388439178467
1779958317029466000,12.574466064453125,-5.8959150314331055,-3.7124643325805664,-2.210369825363159
1779958317045805300,12.590805419921875,-4.490131855010986,-11.030314445495605,0.5635097622871399
1779958317062131200,12.607131103515625,7.608577728271484,-19.65703773498535,5.0015974044799805
1779958317078466800,12.623466796875,10.965109825134277,-24.203401565551758,1.9142581224441528
1779958317094798800,12.639798828125,2.68953275680542,-13.098909378051758,-4.405784606933594
1779958317111127000,12.656126953125,-8.185846328735352,-5.4179487228393555,-6.9930243492126465
1779958317127467300,12.67246728515625,-5.851049423217773,-2.7050859928131104,-6.461219310760498
1779958317143796200,12.688796142578125,2.2749760150909424,-3.345165967941284,-2.4568307399749756
1779958317160132600,12.705132568359375,7.184450149536133,-4.209573268890381,-0.5551348328590393
1779958317176468000,12.721468017578125,7.338188648223877,-8.212167739868164,-0.45942193269729614
1779958317192767000,12.73776708984375,5.098506927490234,-13.951951026916504,-1.1042876243591309
1779958317209096700,12.7540966796875,3.8536407947540283,-21.815364837646484,-0.7226324677467346
1779958317225434400,12.770434326171875,-4.650450706481934,-14.633905410766602,3.407379388809204
1779958317241771300,12.786771240234375,-4.521238327026367,-9.277571678161621,4.457828521728516
1779958317258106000,12.803106201171875,0.8703892230987549,-6.922435760498047,2.1272194385528564
1779958317274447000,12.819447021484375,3.3475589752197266,-7.420143127441406,0.2512463629245758
1779958317290779400,12.835779296875,2.138585329055786,-7.622934818267822,-1.1617153882980347
1779958317307115800,12.85211572265625,1.8400806188583374,-8.041080474853516,-1.8975083827972412
1779958317323444700,12.86844482421875,-0.41994038224220276,-7.9968132972717285,-1.9573289155960083
1779958317339777000,12.884777099609375,-1.6354942321777344,-7.452445983886719,-2.256431818008423
1779958317356096300,12.90109619140625,-1.6983058452606201,-7.296314239501953,-1.6193426847457886
1779958317372429300,12.91742919921875,-1.2436695098876953,-7.491927623748779,-0.5341976284980774
1779958317388778000,12.933778076171874,-1.5200406312942505,-8.395217895507812,0.9702895879745483
1779958317405109500,12.950109619140624,-0.8757730722427368,-8.922237396240234,2.358126640319824
1779958317421429500,12.966429443359376,0.34995031356811523,-9.367302894592285,3.108276605606079
1779958317437774600,12.982774658203125,0.27337998151779175,-9.099306106567383,3.046063184738159
1779958317454108200,12.999108154296875,-2.3575284481048584,-8.646464347839355,2.630908489227295
1779958317470441500,13.01544140625,-2.7218358516693115,-9.145368576049805,1.8699909448623657
1779958317486770700,13.031770751953125,-0.778863787651062,-10.774880409240723,1.5780665874481201
1779958317503111700,13.048111572265626,0.2267199456691742,-11.617154121398926,2.555534601211548
1779958317519451600,13.06445166015625,-0.6574280261993408,-10.898709297180176,4.3998026847839355
1779958317535786500,13.080786376953125,-2.6009981632232666,-10.307682037353516,5.111069202423096
1779958317552116700,13.09711669921875,-2.486740827560425,-11.263614654541016,4.845465660095215
1779958317568463600,13.113463623046876,-1.3304094076156616,-11.673983573913574,3.535395383834839
1779958317584770800,13.129770751953124,-1.4889339208602905,-11.869596481323242,1.9387845993041992
1779958317601105200,13.146105224609375,-1.6408780813217163,-13.923236846923828,1.3334003686904907
1779958317617418200,13.162418212890625,-0.11306086927652359,-14.919249534606934,2.0793628692626953
1779958317633769200,13.178769287109375,0.582054078578949,-14.051851272583008,2.5322046279907227
1779958317650092300,13.19509228515625,0.4821537733078003,-13.054043769836426,1.5517455339431763
1779958317666435800,13.211435791015624,-0.03290131315588951,-11.671590805053711,-1.389033555984497
1779958317682770000,13.22777001953125,-1.332203984260559,-13.524831771850586,-4.091128349304199
1779958317699115000,13.244114990234374,0.31046873331069946,-15.123237609863281,-4.974678039550781
1779958317715446300,13.2604462890625,2.0715861320495605,-15.38525104522705,-5.082355499267578
1779958317731781000,13.276781005859375,1.3357932567596436,-13.281960487365723,-4.401597023010254
1779958317748099600,13.293099609375,0.8500502705574036,-11.742178916931152,-3.902693748474121
1779958317764454100,13.3094541015625,-0.04187439754605293,-10.796415328979492,-2.967698335647583
1779958317780781600,13.325781494140625,-2.091326951980591,-10.65523910522461,-1.9812572002410889
1779958317797105700,13.342105712890625,-3.59043025970459,-9.17886734008789,-0.5078766345977783
1779958317813411800,13.358411865234375,-2.7738797664642334,-8.685347557067871,1.6456637382507324
1779958317829767700,13.374767578125,-1.3651052713394165,-8.979066848754883,2.7421748638153076
1779958317846095000,13.39109521484375,-0.8739784955978394,-8.627920150756836,3.2165517807006836
1779958317862430500,13.407430419921875,-1.4111671447753906,-8.629117012023926,2.417349100112915
1779958317878762000,13.423761962890625,-1.1132607460021973,-6.695117950439453,1.3902299404144287
1779958317895095300,13.44009521484375,-0.17587246000766754,-4.992624282836914,0.5198407173156738
1779958317911415800,13.456415771484375,0.9212366938591003,-4.246662139892578,-0.4139583110809326
1779958317927748400,13.472748291015625,1.1569297313690186,-3.7010984420776367,-0.8656035661697388
1779958317944080100,13.489080078125,1.472184181213379,-3.208775281906128,-1.077966570854187
1779958317960415000,13.5054150390625,1.0432707071304321,-2.2259232997894287,-1.4997016191482544
1779958317976747300,13.521747314453124,-0.039481572806835175,-0.8542376756668091,-1.9878374338150024
1779958317993080800,13.538080810546875,-1.5308083295822144,-0.3523431420326233,-2.2989044189453125
1779958318009426400,13.554426513671874,-2.760719060897827,-1.0863415002822876,-2.103889226913452
1779958318025758500,13.570758544921874,-3.809971809387207,-2.59621262550354,-1.5792629718780518
1779958318042090500,13.587090576171875,-6.674778938293457,-8.184649467468262,-1.0492527484893799
1779958318058422800,13.6034228515625,-11.627922058105469,-26.85165786743164,-1.332203984260559
1779958318074756400,13.61975634765625,-18.993627548217773,-35.06083297729492,-0.037088751792907715
1779958318091089700,13.636089599609376,-6.784250259399414,-17.239688873291016,-2.7224340438842773
1779958318107438800,13.65243896484375,-7.810771465301514,-5.712265968322754,-4.854438781738281
1779958318123755500,13.668755615234375,-11.055438995361328,-1.5852450132369995,-5.523232936859131
1779958318140109600,13.685109619140626,-5.213362216949463,-6.618547439575195,-3.0801608562469482
1779958318156434400,13.701434326171874,-2.6763720512390137,-16.892131805419922,0.6281159520149231
1779958318172768300,13.717768310546875,8.328219413757324,-27.29791831970215,5.963512420654297
1779958318189088300,13.734088134765624,7.746763229370117,-14.979069709777832,-2.0991036891937256
1779958318205437400,13.7504375,2.5740790367126465,-3.2721848487854004,-4.696512699127197
1779958318221765600,13.766765625,-3.0269205570220947,-2.1068804264068604,-4.273581027984619
1779958318238096400,13.783096435546875,-1.1653046607971191,-3.236292600631714,-2.289931297302246
1779958318254432800,13.799432861328125,4.478167533874512,-6.124429702758789,-0.8003991842269897
1779958318270758700,13.815758544921875,5.910272121429443,-9.057432174682617,-1.1527422666549683
1779958318287109400,13.832109375,4.241278171539307,-12.656835556030273,-1.710868239402771
1779958318303414800,13.848414794921876,3.163909673690796,-20.538793563842773,-3.2201411724090576
1779958318319748900,13.864748779296875,-3.345165967941284,-16.939390182495117,2.6255247592926025
1779958318336059000,13.881058837890626,-3.9523448944091797,-9.65384292602539,5.016552448272705
1779958318352405800,13.89740576171875,-0.6065805554389954,-7.454838752746582,3.988237142562866
1779958318368738800,13.91373876953125,2.854039192199707,-7.093522548675537,1.6666009426116943
1779958318385080300,13.930080322265624,1.9070796966552734,-7.124629497528076,0.20817556977272034
1779958318401413600,13.94641357421875,2.142772674560547,-7.154539585113525,-1.275374412536621
1779958318417745700,13.96274560546875,1.2765709161758423,-7.549953460693359,-2.585444927215576
1779958318434076000,13.979075927734375,-1.887937068939209,-7.067800045013428,-4.274179458618164
1779958318450410200,13.99541015625,-4.204189300537109,-6.407381057739258,-4.064209461212158
1779958318466758400,14.01175830078125,-2.310270309448242,-6.865008354187012,-1.5655041933059692
1779958318483092200,14.02809228515625,-0.8793623447418213,-8.302495956420898,1.3824533224105835
1779958318499424000,14.044424072265626,0.275174617767334,-9.464211463928223,3.5431721210479736
1779958318515757800,14.0607578125,1.0785647630691528,-9.588638305664062,4.559523582458496
1779958318532104700,14.077104736328126,-1.5236297845840454,-10.412367820739746,4.006781578063965
1779958318548422100,14.093422119140625,-1.9680966138839722,-9.955936431884766,2.117648124694824
1779958318564755200,14.109755126953125,-1.0103694200515747,-9.131608963012695,0.7232306599617004
1779958318581094000,14.126093994140625,-1.6217355728149414,-9.537193298339844,0.9427721500396729
1779958318597388800,14.142388916015625,-1.8215361833572388,-10.810174942016602,1.3639088869094849
1779958318613728300,14.158728271484375,-0.4570291340351105,-11.352746963500977,2.6805596351623535
1779958318630053600,14.1750537109375,-0.2955136001110077,-10.716256141662598,3.789632797241211
1779958318646394000,14.19139404296875,-1.3782658576965332,-11.048260688781738,3.8626139163970947
1779958318662726400,14.207726318359375,-0.9122636318206787,-11.056036949157715,2.8839495182037354
1779958318679059500,14.2240595703125,-1.0827522277832031,-10.76411247253418,1.4225330352783203
1779958318695391700,14.240391845703124,-2.5154547691345215,-12.05922794342041,0.8913264274597168
1779958318711726000,14.25672607421875,-1.6671991348266602,-13.71625804901123,0.9314061999320984
1779958318728057900,14.273057861328125,-1.5068800449371338,-13.972887992858887,1.9232312440872192
1779958318744391000,14.289390869140625,-1.9513468742370605,-13.438092231750488,2.4532413482666016
1779958318760723000,14.305722900390625,0.2871387302875519,-12.212966918945312,1.7778671979904175
1779958318777056500,14.322056396484374,0.5437689423561096,-10.87717342376709,-0.4103690981864929
1779958318793388300,14.33838818359375,-1.5451651811599731,-12.263216018676758,-3.5336008071899414
1779958318809736700,14.35473681640625,-0.04247260093688965,-14.621342658996582,-4.611567497253418
1779958318826056000,14.371055908203125,1.1054840087890625,-14.677574157714844,-4.3686957359313965
1779958318842405400,14.3874052734375,0.4540380835533142,-13.74078369140625,-3.7196428775787354
1779958318858731500,14.4037314453125,-0.2189432680606842,-12.76929759979248,-3.4342987537384033
1779958318875066000,14.420066162109375,-0.47557350993156433,-13.1096773147583,-2.80977201461792
1779958318891399200,14.436399169921875,-2.7020950317382812,-13.222738265991211,-1.6235301494598389
1779958318907730700,14.452730712890625,-3.043670415878296,-11.24207878112793,-0.15493527054786682
1779958318924064300,14.469064208984374,-2.014756679534912,-8.237292289733887,1.3603196144104004
1779958318940407300,14.4854072265625,-1.628315806388855,-7.346563816070557,2.2755744457244873
1779958318956743200,14.5017431640625,-1.1198409795761108,-7.3292155265808105,2.4562325477600098
1779958318973078000,14.518078125,-1.1102696657180786,-7.332206726074219,1.8287147283554077
1779958318989407700,14.53440771484375,-0.9774680733680725,-6.603592395782471,1.0941181182861328
1779958319005742800,14.550742919921875,-1.5439687967300415,-4.8227338790893555,0.9176474809646606
1779958319022059500,14.5670595703125,0.9499505758285522,-3.848257064819336,0.6556333899497986
1779958319038406400,14.583406494140625,1.9657038450241089,-2.9318058490753174,0.349352091550827
1779958319054741200,14.5997412109375,1.7048860788345337,-2.3545374870300293,-0.6951149702072144
1779958319071059200,14.61605908203125,1.0253244638442993,-2.0195422172546387,-1.7102699279785156
1779958319087406300,14.63240625,-0.14416755735874176,-1.3639088869094849,-2.397010087966919
1779958319103740000,14.648739990234375,-2.1194427013397217,-0.6795616149902344,-2.5435705184936523
1779958319120055600,14.6650556640625,-3.9074792861938477,-1.067797064781189,-2.475973129272461
1779958319136405500,14.681405517578124,-5.837889194488525,-2.4472594261169434,-1.578664779663086
1779958319152738800,14.69773876953125,-8.22831916809082,-7.41117000579834,-0.8859425783157349
1779958319169071900,14.71407177734375,-14.056038856506348,-22.322044372558594,0.12382857501506805
1779958319185403100,14.730403076171875,-13.601402282714844,-35.956947326660156,2.375474691390991
1779958319201735400,14.7467353515625,-7.2951178550720215,-20.13739776611328,-2.221735715866089
1779958319218067500,14.7630673828125,-7.977072715759277,-7.668996810913086,-4.228715896606445
1779958319234403000,14.779403076171874,-10.538589477539062,-2.358126640319824,-4.822135925292969
1779958319250734000,14.795734130859374,-5.292325496673584,-5.161318302154541,-2.6458635330200195
1779958319267068400,14.812068359375,-2.0506489276885986,-12.76630687713623,0.23629122972488403
1779958319283383600,14.828383544921875,5.608776092529297,-20.319849014282227,2.9826533794403076
1779958319299719000,14.844718994140624,3.2584261894226074,-21.6197509765625,-1.526620864868164
1779958319316050000,14.8610498046875,-1.0295119285583496,-8.806783676147461,-5.4795637130737305
1779958319332388400,14.877388427734376,-2.3635106086730957,-3.6293137073516846,-5.628517150878906
1779958319348717000,14.893717041015625,-1.731805443763733,-3.060420274734497,-3.07417893409729
1779958319365051400,14.910051513671876,3.6263227462768555,-3.6358940601348877,-0.7232306599617004
1779958319381384200,14.92638427734375,5.066203594207764,-5.731408596038818,0.019142581149935722
1779958319397718800,14.94271875,5.1906304359436035,-8.666803359985352,-0.16510476171970367
1779958319414048800,14.959048828125,3.738187074661255,-14.81516170501709,-0.6616154313087463
1779958319430384000,14.975384033203126,2.6979074478149414,-19.946569442749023,0.5772684812545776
1779958319446729000,14.99172900390625,-6.186643123626709,-13.791631698608398,4.35673189163208
1779958319463068000,15.00806787109375,-3.778865098953247,-8.344968795776367,3.761517286300659
1779958319479388700,15.024388671875,0.2626122832298279,-7.1234331130981445,1.2263215780258179
1779958319495711500,15.04071142578125,1.4518451690673828,-7.65164852142334,-0.5868397355079651
1779958319512060400,15.057060302734374,1.1048858165740967,-7.658228874206543,-1.3459627628326416
1779958319528393000,15.07339306640625,2.8755745887756348,-8.081758499145508,-1.919043779373169
1779958319544723700,15.0897236328125,2.459223508834839,-7.611568927764893,-1.9591234922409058
1779958319561061600,15.1060615234375,0.2626122832298279,-7.042675018310547,-1.810768485069275
1779958319577391000,15.12239111328125,-3.6879379749298096,-7.042675018310547,-1.6091731786727905
1779958319593725700,15.1387255859375,-4.7264227867126465,-7.36032247543335,-1.6223337650299072
1779958319610041300,15.155041259765625,-2.1858434677124023,-8.326424598693848,-0.5096712112426758
1779958319626369300,15.171369384765624,-0.07896314561367035,-9.519845008850098,1.887937068939209
1779958319642729500,15.1877294921875,1.475175142288208,-9.958928108215332,3.334996461868286
1779958319659051500,15.204051513671875,1.2867404222488403,-10.016953468322754,3.6981074810028076
1779958319675391700,15.220391845703125,-1.7336000204086304,-10.055238723754883,3.239881753921509
1779958319691721000,15.236720947265624,-4.433900356292725,-9.885348320007324,1.4530415534973145
1779958319708052000,15.253052001953124,-2.706880569458008,-10.026525497436523,0.8374879360198975
1779958319724388400,15.269388427734375,0.7034898400306702,-11.058429718017578,2.4263222217559814
1779958319740718600,15.285718505859375,0.35892340540885925,-10.984850883483887,3.693321704864502
1779958319757052400,15.302052490234376,-3.036491870880127,-10.156933784484863,4.576273441314697
1779958319773369000,15.318369140625,-4.040280818939209,-10.794621467590332,4.5338006019592285
1779958319789694000,15.33469384765625,-1.685145378112793,-11.08774185180664,2.9359934329986572
1779958319806034700,15.35103466796875,-1.92741858959198,-12.527024269104004,3.2991042137145996
1779958319822374100,15.3673740234375,-1.1371889114379883,-13.335200309753418,2.5645077228546143
1779958319838701800,15.383701904296874,-0.5497509837150574,-13.178470611572266,2.4113669395446777
1779958319855036000,15.400035888671875,-0.6777670383453369,-13.03370475769043,2.2193429470062256
1779958319871369200,15.416369140625,0.4450650215148926,-13.40279769897461,1.4835500717163086
1779958319887701000,15.432700927734375,-0.08315058797597885,-13.969897270202637,-0.26979073882102966
1779958319904034600,15.44903466796875,-0.373878538608551,-15.020345687866211,-3.5467612743377686
1779958319920371500,15.465371337890625,1.2496516704559326,-15.326626777648926,-4.8675994873046875
1779958319936713200,15.481713134765625,1.80717933177948,-13.551153182983398,-4.278964996337891
1779958319953023000,15.49802294921875,1.1479566097259521,-11.362916946411133,-3.0903303623199463
1779958319969378300,15.51437841796875,0.7154539823532104,-11.33958625793457,-2.6668007373809814
1779958319985705000,15.530705078125,-0.5838487148284912,-11.944971084594727,-2.155933141708374
1779958320002052000,15.547052001953125,-2.5740790367126465,-12.279367446899414,-0.6813562512397766
1779958320018376700,15.563376708984375,-4.104887008666992,-10.420742988586426,1.0516455173492432
1779958320034717700,15.5797177734375,-1.6444673538208008,-9.485149383544922,2.624328136444092
1779958320051037400,15.596037353515625,-0.8033902049064636,-8.889934539794922,2.7661030292510986
1779958320067376400,15.61237646484375,-1.83828604221344,-7.877171993255615,2.4257240295410156
1779958320083710700,15.628710693359375,-2.1852452754974365,-6.6245293617248535,1.2388839721679688
1779958320100025900,15.64502587890625,-0.8823533654212952,-5.316253662109375,0.6574280261993408
1779958320116354600,15.6613544921875,0.9391828775405884,-4.1629133224487305,0.3290131092071533
1779958320132712200,15.677712158203125,0.841675341129303,-3.7082769870758057,0.3678964674472809
1779958320149044000,15.6940439453125,1.9202401638031006,-3.4408788681030273,-0.37088751792907715
1779958320165369900,15.710369873046876,1.7365909814834595,-3.1334011554718018,-0.7782655358314514
1779958320181706000,15.7267060546875,1.4428720474243164,-2.4424736499786377,-1.2675977945327759
1779958320198035000,15.743034912109374,0.3565305769443512,-1.5583257675170898,-1.771286964416504
1779958320214359300,15.759359375,-1.5738791227340698,-1.622931957244873,-2.475374937057495
1779958320230691000,15.775691162109375,-3.160320520401001,-2.504088878631592,-2.407777786254883
1779958320247024400,15.7920244140625,-4.968696117401123,-5.154139995574951,-1.934597134590149
1779958320263357200,15.808357177734376,-8.126026153564453,-13.223336219787598,-1.552343726158142
1779958320279686000,15.824685791015625,-12.845868110656738,-34.44408416748047,-0.29312077164649963
1779958320296021000,15.84102099609375,-16.609777450561523,-27.711877822875977,-1.9597218036651611
1779958320312363000,15.857363037109375,-6.032305717468262,-10.935199737548828,-4.161118507385254
1779958320328686600,15.8736865234375,-11.183454513549805,-3.78544545173645,-3.5994033813476562
1779958320345021200,15.890021240234375,-7.88913631439209,0.4211367964744568,-1.3178470134735107
1779958320361351000,15.906350830078125,-3.1992039680480957,-3.3607194423675537,1.0582258701324463
1779958320377688800,15.922688720703125,2.5405795574188232,-11.075180053710938,4.691128730773926
1779958320394019000,15.93901904296875,10.757532119750977,-21.01077651977539,4.043272018432617
1779958320410345000,15.955344970703125,3.9834516048431396,-26.727828979492188,-1.6019947528839111
1779958320426699500,15.971699462890625,-6.915257453918457,-14.6668062210083,-5.739185333251953
1779958320443031300,15.98803125,-3.5479576587677,-4.890331268310547,-9.827322959899902
1779958320459362800,16.00436279296875,0.046061836183071136,-3.1028928756713867,-4.742574691772461
1779958320475697700,16.02069775390625,3.9385859966278076,-3.7597224712371826,-1.0325030088424683
1779958320492025600,16.037025634765627,5.586642742156982,-5.457430362701416,-0.7232306599617004
1779958320508367400,16.053367431640623,4.814957141876221,-7.5433735847473145,-1.3094722032546997
1779958320524694300,16.0696943359375,3.0556344985961914,-14.280365943908691,-1.3980066776275635
1779958320540996400,16.085996337890624,3.9433717727661133,-18.293128967285156,-0.06580262631177902
1779958320557338000,16.102338134765624,-5.8337016105651855,-13.596017837524414,4.297509670257568
1779958320573680000,16.11868017578125,-2.449054002761841,-9.092127799987793,4.683950424194336
1779958320590012200,16.13501220703125,2.3264217376708984,-7.3884382247924805,3.3098719120025635
1779958320606347000,16.151346923828125,2.671586513519287,-6.928418159484863,1.1150553226470947
1779958320622678800,16.1676787109375,0.5048855543136597,-6.955935478210449,-0.5437689423561096
1779958320639011000,16.184010986328126,-0.9780662655830383,-7.688737392425537,-2.1278176307678223
1779958320655357700,16.200357666015623,-1.8705891370773315,-8.21994400024414,-4.262813568115234
1779958320671694000,16.216694091796874,-1.6223337650299072,-7.2089762687683105,-5.259424209594727
1779958320688016600,16.2330166015625,-1.4685949087142944,-7.018148899078369,-3.61435866355896
1779958320704331300,16.249331298828125,-0.9170492887496948,-7.850851058959961,-0.7387840151786804
1779958320720662800,16.265662841796875,0.05383851006627083,-9.616155624389648,1.9992033243179321
1779958320736996600,16.28199658203125,0.6604190468788147,-9.92961597442627,3.8183467388153076
1779958320753345000,16.298344970703123,-0.8566305041313171,-10.002596855163574,3.8739798069000244
1779958320769673500,16.314673583984376,-1.7694923877716064,-9.823135375976562,2.2438695430755615
1779958320785991000,16.330990966796875,-0.43908295035362244,-9.511469841003418,0.9750752449035645
1779958320802331400,16.347331298828124,-0.7345965504646301,-9.680164337158203,1.638485312461853
1779958320818671600,16.363671630859375,-1.77607262134552,-10.900503158569336,2.8492536544799805
1779958320835003400,16.38000341796875,-0.7525427341461182,-11.714661598205566,4.0426740646362305
1779958320851328300,16.396328369140626,-0.10767702013254166,-10.743175506591797,4.763511657714844
1779958320867672600,16.412672607421875,-1.5415760278701782,-10.03011417388916,4.256831645965576
1779958320884003600,16.429003662109373,-1.399801254272461,-10.611570358276367,3.451646566390991
1779958320900338000,16.445337890625,-1.0079765319824219,-11.749357223510742,3.1304101943969727
1779958320916687000,16.46168701171875,-1.4877375364303589,-13.503296852111816,1.7138592004776
1779958320933011700,16.47801171875,-1.3615161180496216,-14.740983963012695,1.2705888748168945
1779958320949351200,16.49435107421875,-0.5521438121795654,-14.170893669128418,1.8245272636413574
1779958320965665300,16.510665283203124,-0.11246266216039658,-13.268799781799316,2.0309081077575684
1779958320982016000,16.52701611328125,0.5377869009971619,-12.519248008728027,0.29431718587875366
1779958320998343700,16.54334375,-0.9308080077171326,-13.152748107910156,-2.5016961097717285
1779958321014681300,16.559681396484375,-0.3397808074951172,-14.714064598083496,-3.6993038654327393
1779958321031014700,16.5760146484375,1.7126628160476685,-13.916656494140625,-3.5958142280578613
1779958321047343600,16.592343505859375,1.6564314365386963,-12.220145225524902,-3.13639235496521
1779958321063662800,16.608662841796875,0.1818545162677765,-10.935797691345215,-2.9138598442077637
1779958321079985000,16.62498486328125,-1.064207911491394,-10.861021995544434,-2.788236618041992
1779958321096331500,16.64133154296875,-2.2612173557281494,-11.481959342956543,-1.9555343389511108
1779958321112663300,16.657663330078126,-3.920639991760254,-11.682358741760254,-0.7369893789291382
1779958321129006300,16.67400634765625,-2.204387903213501,-10.161121368408203,0.6735795736312866
1779958321145329200,16.6903291015625,-0.4325026869773865,-8.083553314208984,1.4344971179962158
1779958321161672700,16.706672607421876,0.08853443711996078,-7.010970115661621,2.1164517402648926
1779958321178025700,16.723025634765627,-0.9858429431915283,-6.960721015930176,2.237887382507324
1779958321194340000,16.739340087890625,-0.9302098155021667,-6.979265213012695,1.8741782903671265
1779958321210664400,16.75566455078125,0.31345975399017334,-6.075974941253662,1.1048858165740967
1779958321227017700,16.772017822265624,1.0660024881362915,-5.277370452880859,0.3415754437446594
1779958321243320300,16.7883203125,1.0528420209884644,-4.901697158813477,-0.5485545992851257
1779958321259658000,16.804657958984375,0.5551348328590393,-4.607379913330078,-1.0115658044815063
1779958321275991800,16.82099169921875,0.5754738450050354,-3.7016966342926025,-1.5355939865112305
1779958321292312300,16.837312255859374,0.35892340540885925,-2.9964120388031006,-2.1583259105682373
1779958321308656400,16.853656494140626,-0.5515456199645996,-2.2618155479431152,-2.4598217010498047
1779958321324990500,16.869990478515625,-1.9519450664520264,-2.0614166259765625,-2.746960401535034
1779958321341318000,16.88631787109375,-3.8781673908233643,-2.534597396850586,-2.6668007373809814
1779958321357655000,16.902655029296874,-5.958128452301025,-4.511068820953369,-1.9202401638031006
1779958321373988000,16.918988037109376,-9.981060981750488,-11.84148120880127,-1.4470595121383667
1779958321390309400,16.935309326171875,-16.446468353271484,-29.24687385559082,-0.36251261830329895
1779958321406654500,16.951654541015625,-11.444870948791504,-27.588645935058594,0.43489551544189453
1779958321422988000,16.967988037109375,-4.326223373413086,-14.995221138000488,-3.7286159992218018
1779958321439305000,16.984304931640626,-8.665008544921875,-5.691926956176758,-5.986244201660156
1779958321455640300,17.000640380859377,-7.799405574798584,-0.16929219663143158,-5.246861934661865
1779958321471973400,17.016973388671875,-4.858626365661621,-2.9958138465881348,-2.7661030292510986
1779958321488306700,17.033306640625,-4.7336015701293945,-9.154341697692871,-1.306481122970581
1779958321504639000,17.049638916015624,2.017747640609741,-15.632908821105957,2.4185454845428467
1779958321520972300,17.06597216796875,9.284152030944824,-22.935205459594727,-0.15912270545959473
1779958321537320200,17.0823203125,-1.9674984216690063,-18.983457565307617,-3.9044883251190186
1779958321553636400,17.09863623046875,-2.310868501663208,-8.220541954040527,-5.252843856811523
1779958321569970400,17.114970458984374,-0.8267202377319336,-4.515256404876709,-4.89691162109375
1779958321586313000,17.13131298828125,2.148754835128784,-3.67238450050354,-1.4715858697891235
1779958321602651400,17.1476513671875,4.016951084136963,-5.648856163024902,0.5916253924369812
1779958321618990800,17.163990966796874,4.66361141204834,-7.2813591957092285,0.836291491985321
1779958321635330800,17.180330810546874,4.457828521728516,-12.392428398132324,0.9314061999320984
1779958321651659500,17.196659423828127,3.8697924613952637,-13.8849515914917,1.5936198234558105
1779958321667987700,17.21298779296875,-1.810768485069275,-12.890135765075684,3.159722328186035
1779958321684329700,17.229329833984377,-3.6993038654327393,-9.90987491607666,2.68953275680542
1779958321700657700,17.24565771484375,-1.6067804098129272,-7.791628837585449,0.8279166221618652
1779958321716978000,17.26197802734375,1.3250255584716797,-7.392027378082275,-0.9511470198631287
1779958321733307000,17.278306884765627,2.0608184337615967,-8.419146537780762,-1.9256240129470825
1779958321749642500,17.294642578125,1.454836130142212,-8.779266357421875,-2.376671075820923
1779958321765977300,17.310977294921877,-0.05144568532705307,-8.81515884399414,-1.8945173025131226
1779958321782310000,17.327309814453123,-1.6474584341049194,-8.019545555114746,-1.1515458822250366
1779958321798629000,17.343629150390626,-2.0542383193969727,-7.500900745391846,-0.003589233849197626
1779958321814978000,17.35997802734375,-1.6965112686157227,-7.905886173248291,0.745364248752594
1779958321831306500,17.376306396484374,-1.6271194219589233,-8.83071231842041,1.4093725681304932
1779958321847639600,17.3926396484375,-0.486939400434494,-9.103493690490723,2.0398812294006348
1779958321863975000,17.408974853515623,0.6771687865257263,-9.357132911682129,2.7038896083831787
1779958321880308500,17.42530859375,-0.43609192967414856,-9.56052303314209,2.9970104694366455
1779958321896638500,17.441638427734375,-1.8598214387893677,-9.551549911499023,2.7421748638153076
1779958321912974000,17.45797412109375,-1.48055899143219,-8.898907661437988,1.5541383028030396
1779958321929320000,17.47431982421875,-0.8620143532752991,-9.396614074707031,1.3555340766906738
1779958321945650700,17.490650634765625,-1.5302101373672485,-10.644471168518066,1.8747764825820923
1779958321961982700,17.506982666015624,-1.2233306169509888,-11.527422904968262,2.5645077228546143
1779958321978311400,17.5233115234375,0.08315058797597885,-11.11346435546875,3.6335012912750244
1779958321994637000,17.539636962890626,-0.7040880918502808,-10.51944637298584,4.070191383361816
1779958322010981000,17.555981201171875,-1.2711870670318604,-10.633105278015137,4.0420756340026855
1779958322027314200,17.572314208984373,-1.3441680669784546,-11.109875679016113,3.800400495529175
1779958322043649000,17.58864892578125,-1.5409778356552124,-11.517851829528809,2.877967357635498
1779958322059979300,17.604979248046874,-1.046859860420227,-13.208979606628418,1.9669002294540405
1779958322076309000,17.62130908203125,-0.5629115104675293,-14.168500900268555,2.5812573432922363
1779958322092618000,17.637617919921876,-0.6693921089172363,-13.988441467285156,3.318246841430664
1779958322108953900,17.653953857421875,-0.3852444589138031,-12.5742826461792,1.8586249351501465
1779958322125284900,17.670284912109373,-0.39900317788124084,-11.116456031799316,-1.1270195245742798
1779958322141618400,17.686618408203124,-2.0039889812469482,-12.768101692199707,-3.882952928543091
1779958322157952300,17.7029521484375,-0.03409772366285324,-15.218352317810059,-4.852644443511963
1779958322174283800,17.71928369140625,1.9286150932312012,-15.31466293334961,-4.522434711456299
1779958322190616800,17.735616943359375,1.5798611640930176,-13.767105102539062,-3.7543387413024902
1779958322206950400,17.751950439453125,0.49710890650749207,-12.451650619506836,-3.025724172592163
1779958322223283000,17.768282958984376,-0.33439695835113525,-12.380464553833008,-2.255833625793457
1779958322239615200,17.784615234375,-1.9298114776611328,-11.514262199401855,-0.9954141974449158
1779958322255948300,17.8009482421875,-3.3756744861602783,-10.382457733154297,0.5108676552772522
1779958322272289000,17.8172890625,-3.4791641235351562,-8.550751686096191,2.0673987865448
1779958322288625200,17.833625244140624,-1.994417667388916,-7.872984886169434,2.8319056034088135
1779958322304961300,17.849961181640627,-0.12263216078281403,-7.802396297454834,3.1716864109039307
1779958322321292000,17.8662919921875,-0.389431893825531,-8.173283576965332,2.641676187515259
1779958322337624000,17.8826240234375,-0.45284169912338257,-6.906284332275391,1.2023934125900269
1779958322353958700,17.898958740234374,-1.5176477432250977,-5.657829284667969,0.2787638306617737
1779958322370278000,17.91527783203125,0.0891326442360878,-4.65523624420166,-0.5982056856155396
1779958322386623200,17.931623291015626,1.2789636850357056,-3.331407308578491,-1.3908281326293945
1779958322402958000,17.9479580078125,1.205384373664856,-2.3982064723968506,-1.4464613199234009
1779958322419304000,17.964303955078126,0.21236300468444824,-2.506481647491455,-1.2861422300338745
1779958322435635700,17.9806357421875,0.44805604219436646,-2.11824631690979,-1.6857435703277588
1779958322451966000,17.996966064453126,-0.3068794906139374,-1.5984054803848267,-2.317448616027832
1779958322468299800,18.0132998046875,-1.8346967697143555,-1.4446666240692139,-2.768495798110962
1779958322484633000,18.029633056640623,-3.7872400283813477,-2.022533416748047,-2.923431158065796
1779958322500965600,18.045965576171874,-5.886343479156494,-4.614558696746826,-2.51425838470459
1779958322517297400,18.06229736328125,-11.752946853637695,-12.76750373840332,-2.008774518966675
1779958322533634800,18.078634765625,-18.647266387939453,-34.042091369628906,-0.20458634197711945
1779958322549978600,18.094978515625,-10.315458297729492,-30.373891830444336,0.349352091550827
1779958322566281000,18.111281005859375,-2.214557409286499,-12.971491813659668,-4.311268329620361
1779958322582684200,18.12768408203125,-10.88136100769043,-2.775076150894165,-7.235297679901123
1779958322598962000,18.1439619140625,-7.22452974319458,0.12801600992679596,-7.478767395019531
1779958322615296300,18.160296142578126,-4.2484564781188965,-7.4470624923706055,-4.809573650360107
1779958322631628500,18.176628662109376,-1.5822539329528809,-14.608780860900879,-1.1018948554992676
1779958322647959000,18.192958984375,8.61176872253418,-24.020349502563477,2.021935224533081
1779958322664295200,18.209295166015625,0.615553617477417,-18.634105682373047,-3.1375887393951416
1779958322680626400,18.22562646484375,-0.27038896083831787,-5.804389476776123,-4.249054908752441
1779958322696958500,18.24195849609375,0.8291130661964417,-3.7974095344543457,-1.6636099815368652
1779958322713276200,18.258276123046876,0.5724828243255615,-3.0957143306732178,0.46839502453804016
1779958322729618000,18.274617919921877,3.3206396102905273,-4.784449100494385,1.4943177700042725
1779958322745943600,18.290943603515625,5.120042324066162,-7.934599876403809,1.2783654928207397
1779958322762279000,18.30727880859375,5.691328525543213,-11.721839904785156,0.9080761671066284
1779958322778609000,18.32360888671875,3.542573928833008,-18.36610984802246,0.534795880317688
1779958322794942200,18.339942138671876,-3.1716864109039307,-16.358531951904297,3.342175006866455
1779958322811259100,18.356259033203123,-5.1218366622924805,-9.600603103637695,2.7421748638153076
1779958322827612000,18.37261181640625,-1.7132610082626343,-7.29392147064209,0.857228696346283
1779958322843940000,18.388940185546875,0.9206385016441345,-6.932605266571045,-0.6556333899497986
1779958322860263000,18.405262939453124,1.7802600860595703,-7.777870178222656,-1.6767704486846924
1779958322876607000,18.42160693359375,2.9766714572906494,-8.564510345458984,-1.9148563146591187
1779958322892927200,18.43792724609375,2.152343988418579,-8.080561637878418,-1.545763373374939
1779958322909275100,18.454275146484374,0.25064817070961,-7.336992263793945,-0.8243274092674255
1779958322925619000,18.470618896484375,-2.23848557472229,-7.016354084014893,-0.39122650027275085
1779958322941951000,18.486950927734377,-3.8596229553222656,-6.86381196975708,-0.4504488706588745
1779958322958283800,18.50328369140625,-2.724228620529175,-7.914859294891357,-0.16271193325519562
1779958322974598100,18.51959814453125,-0.5647061467170715,-8.828917503356934,1.5080764293670654
1779958322990953500,18.535953369140625,1.0307083129882812,-9.594022750854492,3.2757742404937744
1779958323007283700,18.55228369140625,0.4654040038585663,-9.717850685119629,3.6735808849334717
1779958323023616500,18.568616455078125,-2.1158533096313477,-9.355937004089355,3.0765717029571533
1779958323039921200,18.584921142578125,-1.825723648071289,-8.95095157623291,1.7766708135604858
1779958323056278500,18.601278564453125,-0.41216370463371277,-10.649256706237793,0.9631111025810242
1779958323072619300,18.617619384765625,-0.07417750358581543,-12.227921485900879,1.0139585733413696
1779958323088946700,18.63394677734375,-0.33858439326286316,-11.385049819946289,2.211566209793091
1779958323105263600,18.650263671875,-1.3848460912704468,-10.191629409790039,3.7884364128112793
1779958323121611800,18.66661181640625,-2.2055842876434326,-10.84726333618164,4.695316314697266
1779958323137934800,18.682934814453127,-1.5433706045150757,-11.83849048614502,4.491926193237305
1779958323154270200,18.699270263671874,-1.2616157531738281,-11.304292678833008,3.067598581314087
1779958323170598000,18.715597900390627,-1.7916259765625,-12.180065155029297,2.2947168350219727
1779958323186921000,18.7319208984375,-1.2305090427398682,-13.511073112487793,2.3336002826690674
1779958323203263500,18.748263427734376,-0.9457631707191467,-13.681561470031738,3.163909673690796
1779958323219595300,18.76459521484375,-0.23389841616153717,-12.744771957397461,2.6877379417419434
1779958323235927300,18.78092724609375,-0.02392822690308094,-11.724830627441406,0.46480581164360046
1779958323252262100,18.79726220703125,-2.297109842300415,-12.575479507446289,-2.485544443130493
1779958323268593200,18.81359326171875,-1.0809576511383057,-15.603596687316895,-4.396811485290527
1779958323284926000,18.829926025390623,2.5016961097717285,-16.191633224487305,-4.314857482910156
1779958323301260300,18.84626025390625,2.538186550140381,-14.444273948669434,-3.4713873863220215
1779958323317594400,18.862594482421876,0.8805587291717529,-12.525230407714844,-2.6733810901641846
1779958323333924000,18.878924072265626,-0.7926225066184998,-12.336196899414062,-2.1918256282806396
1779958323350243800,18.895243896484374,-3.4127633571624756,-12.997214317321777,-1.1491531133651733
1779958323366594000,18.911593994140624,-5.2384867668151855,-11.807981491088867,0.7621139883995056
1779958323382923300,18.92792333984375,-3.0005996227264404,-8.679366111755371,3.0957143306732178
1779958323399255300,18.94425537109375,-0.3607180118560791,-7.966304779052734,3.8111681938171387
1779958323415590000,18.96058984375,-0.3158525824546814,-7.8795647621154785,3.5198421478271484
1779958323431922700,18.976922607421876,-1.3507484197616577,-7.93998384475708,2.290529489517212
1779958323448269800,18.993269775390626,-0.5162515044212341,-7.067201614379883,0.7561319470405579
1779958323464599800,19.009599853515624,0.30628129839897156,-5.637490272521973,-0.029312077909708023
1779958323480918300,19.025918212890623,1.1084750890731812,-4.078566074371338,-0.6753742098808289
1779958323497267500,19.042267333984373,2.392822742462158,-3.071187973022461,-1.2239288091659546
1779958323513601000,19.05860107421875,2.276172637939453,-2.5501506328582764,-1.1228320598602295
1779958323529919500,19.07491943359375,1.3094722032546997,-2.173879384994507,-1.44945228099823
1779958323546262800,19.0912626953125,0.5341976284980774,-1.5134602785110474,-2.5124638080596924
1779958323562567700,19.107567626953124,-1.069591760635376,-0.6753742098808289,-3.3068809509277344
1779958323578929400,19.123929443359376,-2.4125633239746094,-1.2789636850357056,-3.3278181552886963
1779958323595264000,19.140263916015623,-3.3882367610931396,-2.4119651317596436,-2.5286152362823486
1779958323619765000,19.164764892578123,-7.165905475616455,-9.994820594787598,-1.0241280794143677
1779958323636104000,19.18110400390625,-10.012765884399414,-25.878376007080078,-0.2877369225025177
1779958323652478500,19.197478515625,-16.831113815307617,-33.965518951416016,-0.09990034252405167
1779958323668760300,19.21376025390625,-8.254639625549316,-17.1529483795166,-3.202194929122925
1779958323685110500,19.230110595703124,-8.193024635314941,-5.782854080200195,-4.718646049499512
1779958323701410600,19.24641064453125,-11.36351490020752,-1.82273268699646,-5.68893575668335
1779958323717745200,19.2627451171875,-4.453640937805176,-7.135995388031006,-3.104687452316284
1779958323734063000,19.27906298828125,-1.220937728881836,-15.67956829071045,0.0526420995593071
1779958323750401500,19.295401611328124,8.058428764343262,-27.36671257019043,3.882354736328125
1779958323766744800,19.311744873046877,5.671587944030762,-20.833110809326172,-1.2478569746017456
1779958323783077400,19.328077392578123,-0.7004988193511963,-4.9980082511901855,-4.983053207397461
1779958323799409400,19.344409423828125,-1.5708880424499512,-1.0887342691421509,-3.6711881160736084
1779958323823910700,19.36891064453125,2.1206390857696533,-2.251646041870117,-0.2225325107574463
1779958323840231700,19.385231689453125,5.860620975494385,-5.3940205574035645,0.13639089465141296
1779958323856575000,19.401574951171874,6.622735023498535,-7.850851058959961,-0.6358926296234131
1779958323872906500,19.417906494140624,4.679164886474609,-11.871989250183105,-0.7088736891746521
1779958323889226200,19.434226318359375,3.136990547180176,-19.03251075744629,-1.591825246810913
1779958323905573000,19.450572998046876,-7.343572616577148,-15.335599899291992,2.217548370361328
1779958323921906400,19.466906494140623,-3.9248273372650146,-8.767302513122559,2.988037347793579
1779958323938251000,19.4832509765625,1.3076776266098022,-7.156334400177002,1.8041882514953613
1779958323954582000,19.49958203125,3.2404799461364746,-7.458428382873535,0.5377869009971619
1779958323970917600,19.515917724609373,1.277169108390808,-7.987242221832275,-0.10049854964017868
1779958323987237600,19.532237548828125,2.197209358215332,-8.617751121520996,-1.048654556274414
1779958324003570700,19.54857080078125,0.36191442608833313,-8.303692817687988,-0.6394818425178528
1779958324019902200,19.564902099609377,-2.599801778793335,-7.737790107727051,-0.2476571500301361
1779958324036235300,19.5812353515625,-3.6580276489257812,-7.390232563018799,-0.43130627274513245
1779958324052568000,19.597568115234374,-2.833700180053711,-8.065607070922852,-0.753140926361084
1779958324068901600,19.613901611328124,-1.5990036725997925,-9.123832702636719,0.34995031356811523
1779958324085249800,19.630249755859374,-0.24586252868175507,-9.887741088867188,1.953141450881958
1779958324101568800,19.64656884765625,1.1114661693572998,-9.93679428100586,2.8342983722686768
1779958324117911600,19.66291162109375,-0.025722842663526535,-9.93978500366211,3.1375887393951416
1779958324134239000,19.679239013671875,-3.3308091163635254,-9.78126049041748,2.4771697521209717
1779958324150570000,19.695570068359373,-2.8809585571289062,-9.206384658813477,0.23988047242164612
1779958324166911200,19.7119111328125,-0.8428717851638794,-9.839884757995605,0.8422735929489136
1779958324183236000,19.728236083984374,0.544965386390686,-11.015358924865723,2.506481647491455
1779958324199559700,19.7445595703125,-0.1381855010986328,-10.414162635803223,3.6053855419158936
1779958324215884800,19.760884765625,-2.124826431274414,-9.68494987487793,4.3208394050598145
1779958324232216300,19.77721630859375,-2.4675984382629395,-10.482955932617188,4.555934429168701
1779958324248548600,19.793548583984375,-1.339382529258728,-11.79601764678955,4.661218643188477
1779958324264882400,19.80988232421875,-0.34217363595962524,-12.639487266540527,4.3208394050598145
1779958324281230000,19.82622998046875,-1.2382856607437134,-12.860823631286621,2.455035924911499
1779958324297561300,19.842561279296874,-2.5405795574188232,-14.294722557067871,1.7904295921325684
1779958324313893000,19.85889306640625,-1.8646070957183838,-13.84247875213623,1.8442680835723877
1779958324330213600,19.875213623046875,0.5252245664596558,-12.127423286437988,0.5060819983482361
1779958324346559000,19.89155908203125,-0.09511470049619675,-12.123833656311035,-1.8317056894302368
1779958324362892300,19.907892333984375,-1.3363914489746094,-14.370694160461426,-3.9397823810577393
1779958324379222300,19.92422216796875,1.1617153882980347,-15.388840675354004,-4.619344234466553
1779958324395557000,19.94055712890625,0.6705885529518127,-14.32164192199707,-4.457230567932129
1779958324411890200,19.95689013671875,0.15074782073497772,-12.835699081420898,-3.747758388519287
1779958324428262100,19.97326220703125,-0.0933200865983963,-12.128620147705078,-3.2781670093536377
1779958324444568600,19.989568603515625,-0.6059823632240295,-12.294920921325684,-1.734796404838562
1779958324460900600,20.005900634765624,-1.77607262134552,-12.135798454284668,0.2590230405330658
1779958324477217800,20.0222177734375,-3.084348440170288,-9.938589096069336,2.114656925201416
1779958324493568500,20.038568603515625,-3.342175006866455,-9.204590797424316,3.10109806060791
1779958324509898200,20.054898193359374,-0.6215356588363647,-8.559724807739258,2.609971284866333
1779958324526229000,20.07122900390625,-0.4995017349720001,-7.89631462097168,1.3866406679153442
1779958324542554000,20.08755419921875,-1.179661512374878,-7.159923553466797,0.28175488114356995
1779958324558890800,20.103890869140624,-0.6873382925987244,-5.787041664123535,-0.3242274820804596
1779958324575214800,20.12021484375,-0.527019202709198,-4.505086898803711,-0.5635097622871399
1779958324591563500,20.1365634765625,0.5395814776420593,-3.579662561416626,-0.7022934556007385
1779958324607894800,20.152894775390624,1.8089739084243774,-2.7565317153930664,-0.43190449476242065
1779958324624230400,20.16923046875,1.4135600328445435,-2.5800609588623047,0.049651071429252625
1779958324640547800,20.1855478515625,0.9888339638710022,-2.1128623485565186,-0.7238288521766663
1779958324656879600,20.201879638671876,-0.33858439326286316,-1.6037893295288086,-1.9004993438720703
1779958324673211000,20.2182109375,-0.5676971673965454,-1.2281162738800049,-2.65842604637146
1779958324689545700,20.234545654296873,-1.550549030303955,-1.8269200325012207,-2.988037347793579
1779958324705855000,20.25085498046875,-3.290729284286499,-3.057429075241089,-2.65423846244812
1779958324722218800,20.26721875,-6.848856449127197,-7.529614448547363,-2.2366909980773926
1779958324738544000,20.283544189453124,-12.121440887451172,-19.929819107055664,-1.7623138427734375
1779958324754878500,20.29987841796875,-18.11127471923828,-37.23291778564453,-1.698904037475586
1779958324771209700,20.316209716796877,-7.968697547912598,-22.122840881347656,-2.595614433288574
1779958324787546000,20.332546142578124,-4.011567115783691,-7.70967435836792,-5.1152567863464355
1779958324803872500,20.34887255859375,-10.500304222106934,-1.2628121376037598,-6.500102519989014
1779958324820210700,20.365210693359376,-6.976872444152832,-2.0195422172546387,-4.306482315063477
1779958324836542000,20.3815419921875,-3.5371899604797363,-10.119845390319824,-2.1337995529174805
1779958324852874500,20.39787451171875,-0.2069791555404663,-18.464813232421875,0.06699903309345245
1779958324869193700,20.41419384765625,9.224929809570312,-27.524639129638672,2.9036903381347656
1779958324885540400,20.430540283203126,1.6241283416748047,-15.990036964416504,-3.8081772327423096
1779958324901872400,20.446872314453124,-2.234896421432495,-3.8147575855255127,-4.401597023010254
1779958324918209800,20.463209716796875,-0.5916253924369812,-1.4979069232940674,-1.911865234375
1779958324934553000,20.479552978515624,0.3128615617752075,-1.4105689525604248,0.054436713457107544
1779958324950870000,20.4958701171875,4.309473514556885,-4.71744966506958,0.6969096064567566
1779958324967211800,20.512211669921875,5.637490272521973,-7.470392227172852,0.771087110042572
1779958324983524900,20.52852490234375,5.31685209274292,-11.398808479309082,0.4612165689468384
1779958324999857200,20.544857177734375,2.958127021789551,-19.55354881286621,0.10588239878416061
1779958325016190500,20.5611904296875,-5.590830326080322,-17.062021255493164,2.5082762241363525
1779958325032534500,20.577534423828126,-4.645066738128662,-9.259027481079102,3.187838077545166
1779958325048867300,20.593867431640625,-0.2111666053533554,-7.186842918395996,2.056631088256836
1779958325065199600,20.61019970703125,2.2911276817321777,-7.130611419677734,0.4456632137298584
1779958325081535000,20.626534912109374,1.6606189012527466,-7.542177200317383,-0.4893322288990021
1779958325097865000,20.642864990234376,3.459423303604126,-8.051848411560059,-1.0378868579864502
1779958325114217200,20.65921728515625,2.0961127281188965,-8.249256134033203,-1.0480563640594482
