time,seconds_elapsed,z,y,x
1778948756723673300,0.10067333984375,0.835444450378418,-0.39510083198547363,0.759158730506897
1778948756739984000,0.11698388671875,-1.7540850639343262,0.8828564882278442,0.412137508392334
1778948756756334600,0.13333447265625,-0.3313169479370117,2.151728630065918,-0.377455472946167
1778948756772657400,0.149657470703125,0.05228710174560547,2.681570053100586,-0.43621206283569336
1778948756788989700,0.16598974609375,-2.986942768096924,-1.0047683715820312,0.6954736709594727
1778948756805320700,0.18232080078125,-2.3883438110351562,-0.2909872531890869,0.9661051034927368
1778948756821653800,0.19865380859375,-2.0359177589416504,1.0736432075500488,0.3708559274673462
1778948756837983200,0.214983154296875,-1.2727394104003906,1.5523056983947754,-0.16010963916778564
1778948756854332400,0.23133251953125,2.8392534255981445,0.14220833778381348,-0.7048904895782471
1778948756870663700,0.24766357421875,1.2741832733154297,-2.1219613552093506,0.5123211145401001
1778948756886987300,0.2639873046875,-1.0719995498657227,-3.279895305633545,2.2225546836853027
1778948756903310600,0.280310546875,-1.0444307327270508,-1.1865630149841309,1.4640175104141235
1778948756919633400,0.29663330078125,-2.268911838531494,1.168550729751587,-1.0228782892227173
1778948756935955700,0.312955810546875,-1.0243968963623047,1.8993301391601562,-1.3730895519256592
1778948756952302600,0.329302490234375,0.0033721923828125,0.406512975692749,0.32851049304008484
1778948756968614100,0.3456142578125,0.46949005126953125,-0.41306471824645996,1.358025312423706
1778948756984965400,0.36196533203125,0.9425334930419922,-0.31116461753845215,0.8675286173820496
1778948757001297200,0.378297119140625,1.844773292541504,-0.47360658645629883,0.23073145747184753
1778948757017629200,0.394629150390625,1.8295726776123047,-1.3157861232757568,0.43754497170448303
1778948757033959400,0.41095947265625,0.90008544921875,-1.8611915111541748,0.7354604005813599
1778948757050306300,0.427306396484375,-0.30290889739990234,-1.7391128540039062,0.5836617946624756
1778948757066634200,0.44363427734375,-1.6604132652282715,-0.8125598430633545,-0.2239595204591751
1778948757082951000,0.459950927734375,-2.4366393089294434,0.021513938903808594,-0.8106270432472229
1778948757099281700,0.47628173828125,-2.099000930786133,-0.06396770477294922,-0.33016014099121094
1778948757115609300,0.492609375,-2.3865966796875,-2.203484296798706,0.052802085876464844
1778948757131960800,0.5089609375,-4.855382919311523,-3.946091651916504,0.6771469712257385
1778948757148296700,0.525296630859375,-5.922516822814941,-3.5791516304016113,-0.4446224570274353
1778948757164620300,0.541620361328125,-6.645879745483398,-2.7734484672546387,-1.3709361553192139
1778948757180959200,0.557959228515625,-7.483956336975098,-2.4916367530822754,-1.9774068593978882
1778948757197280800,0.57428076171875,-7.881521701812744,-4.760111331939697,-1.784401774406433
1778948757215655000,0.592655029296875,-6.5987396240234375,-8.382318496704102,-2.64231538772583
1778948757231976700,0.608976806640625,-5.827955722808838,-9.641348838806152,-2.8223114013671875
1778948757248308000,0.625307861328125,-4.729067325592041,-10.733430862426758,-2.338146686553955
1778948757264640000,0.641639892578125,-3.969675064086914,-9.932669639587402,-0.2991204261779785
1778948757280971800,0.6579716796875,-0.03629112243652344,-8.659768104553223,2.4040088653564453
1778948757297304000,0.674303955078125,1.2187633514404297,-7.860065937042236,4.8856353759765625
1778948757313633300,0.69063330078125,0.39867401123046875,-5.396766662597656,6.371838569641113
1778948757329965800,0.7069658203125,0.029510498046875,-1.9052696228027344,8.474722862243652
1778948757346297300,0.72329736328125,3.3475871086120605,1.840233564376831,10.873321533203125
1778948757362628000,0.739628173828125,4.190561294555664,3.989696979522705,11.579782485961914
1778948757378975000,0.75597509765625,2.8437273502349854,4.657153129577637,10.657997131347656
1778948757395302100,0.77230224609375,1.7527673244476318,4.110508441925049,10.064345359802246
1778948757411612400,0.7886123046875,-0.12733078002929688,3.4068350791931152,9.34726333618164
1778948757427967000,0.804967041015625,-1.4078607559204102,4.715856075286865,7.803398132324219
1778948757444297200,0.821297119140625,-2.58992862701416,4.364591121673584,6.288334846496582
1778948757460631000,0.837631103515625,-3.209768295288086,2.8254334926605225,4.942384719848633
1778948757476926700,0.8539267578125,-2.003390312194824,0.19385099411010742,3.2469968795776367
1778948757493281000,0.870281005859375,1.1742706298828125,-2.097198963165283,2.8393468856811523
1778948757509610800,0.88661083984375,3.054776668548584,-1.0854613780975342,1.3925809860229492
1778948757525941500,0.90294140625,2.169525623321533,-0.9121172428131104,0.9586668014526367
1778948757542274600,0.919274658203125,1.3150386810302734,0.43071532249450684,1.1255736351013184
1778948757558607400,0.935607421875,0.4669814109802246,1.6099374294281006,3.0307412147521973
1778948757574934000,0.95193408203125,-5.422116756439209,4.383377552032471,9.777414321899414
1778948757591284000,0.968283935546875,0.8900794982910156,3.2123491764068604,8.343245506286621
1778948757607612700,0.98461279296875,4.396947860717773,5.986025810241699,4.544697284698486
1778948757623943000,1.00094287109375,0.05004477500915527,10.453277587890625,2.16054105758667
1778948757640275200,1.017275146484375,-4.642284870147705,3.39774751663208,-0.9670982360839844
1778948757656606700,1.033606689453125,-3.991356372833252,0.9645838737487793,-2.849850654602051
1778948757672936200,1.049936279296875,-0.5725531578063965,0.03560924530029297,-1.1350064277648926
1778948757689276700,1.066276611328125,-0.26650524139404297,-1.2558488845825195,2.437941551208496
1778948757705600300,1.082600341796875,0.47988367080688477,-0.954495906829834,3.6773791313171387
1778948757721905200,1.0989052734375,-0.5753402709960938,-2.4372591972351074,4.059804916381836
1778948757738248000,1.115248046875,-1.1388847827911377,-2.4930601119995117,4.481291770935059
1778948757754568400,1.131568359375,1.3262035846710205,-1.9567952156066895,3.7019128799438477
1778948757770909700,1.14790966796875,1.167630910873413,-0.8552818298339844,0.7432384490966797
1778948757787233300,1.1642333984375,-1.503404140472412,0.9506039619445801,-4.467061996459961
1778948757803574800,1.18057470703125,-3.604731559753418,1.9954729080200195,-8.176013946533203
1778948757819893500,1.1968935546875,-1.8161334991455078,0.46242856979370117,-7.454936981201172
1778948757836237600,1.213237548828125,-2.5102827548980713,0.9426760673522949,-6.002475261688232
1778948757852567000,1.229567138671875,-3.8155570030212402,4.06531286239624,-3.195223331451416
1778948757868898800,1.24589892578125,-2.1153724193573,4.320796012878418,-0.7724056243896484
1778948757885232400,1.262232421875,-2.376938581466675,1.6059598922729492,2.0003299713134766
1778948757901568000,1.278568115234375,-0.00430607795715332,1.3932948112487793,1.6932735443115234
1778948757917909200,1.2949091796875,0.6483919620513916,6.097076416015625,8.57047176361084
1778948757934238700,1.31123876953125,-1.090411901473999,0.8951840400695801,9.839527130126953
1778948757950571300,1.3275712890625,-4.4106903076171875,0.8505549430847168,5.762875556945801
1778948757966886100,1.34388623046875,-4.800135612487793,2.3261518478393555,3.7558164596557617
1778948757983233500,1.360233642578125,-2.7445807456970215,5.720353126525879,1.6820530891418457
1778948757999546400,1.37654638671875,3.313133716583252,-4.163331985473633,3.069164276123047
1778948758015883000,1.392883056640625,5.621764183044434,-0.5898675918579102,3.6627893447875977
1778948758032215000,1.409215087890625,3.9639031887054443,5.248592376708984,4.2428693771362305
1778948758048544800,1.425544677734375,-6.80858850479126,0.06468677520751953,0.7505617141723633
1778948758064876500,1.44187646484375,1.5758271217346191,-0.5655155181884766,2.1918466091156006
1778948758081207300,1.458207275390625,1.0149211883544922,-1.4290704727172852,4.388566970825195
1778948758097533400,1.474533447265625,1.817428708076477,-2.256986618041992,-1.1165406703948975
1778948758113874000,1.4908740234375,1.1009290218353271,-2.734060287475586,-7.048583030700684
1778948758130200300,1.507200439453125,4.018154144287109,-2.6517820358276367,-9.12729549407959
1778948758146551300,1.52355126953125,0.22098129987716675,4.766707420349121,-8.578204154968262
1778948758162861300,1.539861328125,0.47387373447418213,5.674287796020508,-5.135786056518555
1778948758179199700,1.55619970703125,-0.11267977952957153,4.174609184265137,-2.0044164657592773
1778948758195539500,1.57253955078125,2.6907105445861816,3.4207825660705566,-0.37120723724365234
1778948758211871700,1.588871826171875,3.640387535095215,3.089049816131592,0.26010990142822266
1778948758228190000,1.60518994140625,2.0357394218444824,3.2252254486083984,-0.41149282455444336
1778948758244508200,1.621508056640625,-0.29369282722473145,3.2230024337768555,-0.9496161937713623
1778948758260853200,1.637853271484375,-2.4017562866210938,2.5829052925109863,-0.8527483940124512
1778948758277172700,1.6541728515625,-2.253312110900879,2.6971383094787598,-0.6005933284759521
1778948758293513700,1.670513671875,-0.694236159324646,2.6542444229125977,-0.9391424655914307
1778948758309846800,1.6868466796875,1.0086889266967773,2.459543228149414,-1.1903207302093506
1778948758326176000,1.703176025390625,-6.211452960968018,11.636816024780273,6.100994110107422
1778948758342514000,1.719513916015625,-3.0133447647094727,6.741815567016602,-1.5869241952896118
1778948758358853400,1.735853271484375,1.5142406225204468,7.331973552703857,-0.754103422164917
1778948758375185200,1.75218505859375,4.754873275756836,1.3894176483154297,0.5378000140190125
1778948758391514000,1.76851416015625,15.90906047821045,-67.69715118408203,3.3767950534820557
1778948758407849200,1.78484912109375,4.371751308441162,-23.783405303955078,-0.7497140169143677
1778948758424184600,1.8011845703125,-6.89031457901001,7.299629211425781,-0.9847148656845093
1778948758440509700,1.817509765625,-7.709856033325195,12.45836067199707,-0.9514352083206177
1778948758456827600,1.83382763671875,-3.200044631958008,10.162237167358398,-1.3221336603164673
1778948758473156000,1.850156005859375,1.4451849460601807,4.752074241638184,-0.8535463809967041
1778948758489508000,1.866508056640625,2.275653839111328,-3.3879451751708984,-0.7949050664901733
1778948758505835300,1.882835205078125,0.41935086250305176,-4.658254623413086,-0.6021607518196106
1778948758522168800,1.8991689453125,-0.6072947382926941,-0.387969970703125,-0.7934667468070984
1778948758538470000,1.915469970703125,0.4240976572036743,0.6229257583618164,-1.0947809219360352
1778948758554829000,1.9318291015625,0.32396697998046875,0.26739978790283203,-1.016472339630127
1778948758571161000,1.9481611328125,-0.5100706815719604,0.12909889221191406,-0.7739373445510864
1778948758587494000,1.964493896484375,-0.7336374521255493,0.03723621368408203,-0.10785558819770813
1778948758603827500,1.980827392578125,-1.0679502487182617,-0.17848587036132812,0.4198451340198517
1778948758620147500,1.9971474609375,-1.5833733081817627,-0.23190021514892578,0.7821672558784485
1778948758636484400,2.013484375,-1.6555533409118652,-0.2522602081298828,0.986365556716919
1778948758652807200,2.02980712890625,-1.3506313562393188,-0.12519264221191406,1.078320860862732
1778948758669152000,2.046152099609375,-0.9997392892837524,0.14868545532226562,0.8822319507598877
1778948758685482000,2.06248193359375,-0.9376510381698608,0.11519241333007812,0.4693070650100708
1778948758701810000,2.078809814453125,-0.9507973194122314,0.010223388671875,0.1011541560292244
1778948758748755200,2.125755126953125,-0.6183391213417053,0.41707324981689453,-0.23342999815940857
1778948758765080800,2.142080810546875,-0.5549994111061096,0.4097890853881836,-0.1864953339099884
1778948758781411800,2.158411865234375,-0.42904186248779297,0.23495769500732422,-0.1782434731721878
1778948758797751300,2.174751220703125,-0.4160594940185547,0.2252349853515625,-0.1339649111032486
1778948758814078000,2.191077880859375,-0.2710634469985962,0.08295059204101562,-0.1029469221830368
1778948758830405600,2.207405517578125,-0.11778903007507324,0.046530723571777344,-0.021071061491966248
1778948758846753500,2.22375341796875,0.09587955474853516,-0.41659069061279297,0.4013819694519043
1778948758863090200,2.240090087890625,0.052282094955444336,-0.46253013610839844,0.7850533723831177
1778948758879411500,2.256411376953125,0.10768258571624756,-0.48714637756347656,0.9096757173538208
1778948758895747600,2.27274755859375,0.10012578964233398,-0.5114412307739258,0.917332649230957
1778948758912081700,2.28908154296875,0.27184391021728516,-0.35903358459472656,0.7170268297195435
1778948758928393000,2.30539306640625,0.12845027446746826,-0.15935134887695312,0.6666404604911804
1778948758944727800,2.321727783203125,0.10973691940307617,0.07047080993652344,0.5405703783035278
1778948758961058600,2.33805859375,0.24970102310180664,0.09932899475097656,0.756829023361206
1778948758977392000,2.35439208984375,0.057875752449035645,-0.3165922164916992,0.3685048222541809
1778948758993724700,2.370724609375,-0.4704326391220093,0.06002044677734375,-0.01122785359621048
1778948759010054400,2.387054443359375,-0.8987811803817749,0.35790443420410156,-0.06148795038461685
1778948759026375000,2.403375,-1.2554540634155273,0.6854772567749023,-0.02467082068324089
1778948759042721000,2.419720947265625,-1.508577585220337,0.29204463958740234,-0.07034202665090561
1778948759059049500,2.436049560546875,-1.8100006580352783,-0.301605224609375,-0.022030582651495934
1778948759075366000,2.452365966796875,-1.5064148902893066,-0.06934070587158203,0.07213913649320602
1778948759091713500,2.468713623046875,-0.9464149475097656,0.2371072769165039,0.33818235993385315
1778948759108044000,2.4850439453125,-1.4355359077453613,-0.14941978454589844,0.34252890944480896
1778948759124373800,2.501373779296875,-1.9982516765594482,-0.12180233001708984,0.4777091443538666
1778948759140693200,2.517693359375,-2.0625314712524414,-0.12561988830566406,0.7072494626045227
1778948759157036800,2.534036865234375,-1.8412940502166748,0.0419464111328125,1.1168776750564575
1778948759173358800,2.55035888671875,-1.7908201217651367,0.020822525024414062,1.4992976188659668
1778948759189702700,2.56670263671875,-1.9328428506851196,-0.01739788055419922,1.8764374256134033
1778948759206029800,2.58302978515625,-1.8191819190979004,-0.23288631439208984,1.93623948097229
1778948759222362600,2.599362548828125,-2.3335046768188477,-0.16916561126708984,2.076148509979248
1778948759238693400,2.615693359375,-2.497504472732544,-0.2606964111328125,2.3752505779266357
1778948759255025400,2.632025390625,-3.3757777214050293,-0.7123861312866211,1.9366816282272339
1778948759271357200,2.648357177734375,-4.453653335571289,-1.151728630065918,1.5868161916732788
1778948759287687400,2.6646875,-3.934570074081421,-1.9079837799072266,1.431419014930725
1778948759304020200,2.681020263671875,-3.506437301635742,-2.5412092208862305,1.558030605316162
1778948759320350700,2.697350830078125,-3.6059932708740234,-2.6777420043945312,1.1506234407424927
1778948759336691000,2.71369091796875,-5.026863098144531,-3.673092842102051,0.5225173830986023
1778948759353032000,2.730031982421875,-6.419257640838623,-4.104785919189453,0.2764374911785126
1778948759369352000,2.74635205078125,-2.859839916229248,-3.6677980422973633,0.4495013654232025
1778948759385691600,2.762691650390625,-2.323758363723755,-2.1912240982055664,0.31765562295913696
1778948759402010000,2.779010009765625,-5.303646564483643,-2.010237693786621,-0.08699037879705429
1778948759418335500,2.79533544921875,-3.7419543266296387,-5.453883171081543,-2.1783175468444824
1778948759434683400,2.811683349609375,4.103069305419922,-4.8223114013671875,-3.8951449394226074
1778948759450979600,2.8279794921875,8.718825340270996,-3.483816146850586,-2.840165138244629
1778948759467333600,2.844333740234375,5.188712120056152,-3.8986387252807617,-2.382702350616455
1778948759483663600,2.86066357421875,2.18068265914917,-2.301494598388672,-3.406958818435669
1778948759499997200,2.8769970703125,2.8743948936462402,-1.403635025024414,-1.9926083087921143
1778948759516333800,2.893333740234375,4.80388879776001,-0.11423206329345703,0.6019307374954224
1778948759532658400,2.909658447265625,4.403852462768555,0.7599782943725586,0.8923373222351074
1778948759549004500,2.926004638671875,2.8771862983703613,1.3424263000488281,0.3604612350463867
1778948759565320200,2.9423203125,3.418099880218506,1.484344482421875,-0.4146539866924286
1778948759581655600,2.958655517578125,4.521642684936523,2.6641030311584473,-0.44032102823257446
1778948759597984300,2.974984375,5.119259834289551,3.83903169631958,-0.7267042994499207
1778948759614316300,2.99131640625,4.801070690155029,4.477066516876221,-0.9739219546318054
1778948759630649600,3.007649658203125,4.596899032592773,4.6703948974609375,-1.1038154363632202
1778948759646979000,3.02397900390625,4.67896842956543,4.997614860534668,-1.2888317108154297
1778948759663311000,3.04031103515625,4.514403820037842,5.5926713943481445,-1.2401162385940552
1778948759679645200,3.056645263671875,4.099376201629639,6.077079772949219,-1.0755157470703125
1778948759695980800,3.072980712890625,3.7258989810943604,6.066242218017578,-0.8674753904342651
1778948759712305000,3.089304931640625,3.3613898754119873,5.973320960998535,-0.7400282621383667
1778948759728636400,3.105636474609375,3.353545904159546,5.713609218597412,-0.584511935710907
1778948759744963800,3.1219638671875,2.9273977279663086,4.875369071960449,-0.13733963668346405
1778948759761300500,3.138300537109375,2.3806753158569336,3.2019143104553223,0.4329068660736084
1778948759777631700,3.1546318359375,2.3516016006469727,0.3539237976074219,0.7796635627746582
1778948759793945000,3.170945068359375,0.8295249938964844,-3.1318531036376953,0.9842631220817566
1778948759810293000,3.18729296875,-1.0452113151550293,-5.277988433837891,1.0409821271896362
1778948759826626600,3.20362646484375,-3.775768280029297,-3.8936939239501953,2.195720911026001
1778948759842953200,3.219953125,-6.028728008270264,-0.3995351791381836,3.9008593559265137
1778948759859288000,3.2362880859375,-7.327789306640625,1.8490920066833496,3.425715923309326
1778948759875619300,3.252619384765625,-4.815991401672363,3.0604519844055176,1.6774580478668213
1778948759891950300,3.268950439453125,-3.2127299308776855,3.2390384674072266,0.31425124406814575
1778948759908282400,3.285282470703125,-2.470248222351074,1.393794059753418,-1.3180077075958252
1778948759924612000,3.301612060546875,-2.048013687133789,-4.278838157653809,-3.1203091144561768
1778948759940945000,3.31794482421875,-1.1172542572021484,-7.13283634185791,-4.403791904449463
1778948759957277000,3.33427685546875,4.481175422668457,-0.9209051132202148,-3.45454478263855
1778948759973607200,3.350607177734375,1.293433666229248,-1.7418384552001953,-0.6172601580619812
1778948759989944000,3.366944091796875,-5.789679050445557,-3.1094741821289062,2.1451432704925537
1778948760006268700,3.3832685546875,-1.9887840747833252,-7.054681777954102,1.394526720046997
1778948760022599200,3.39959912109375,-10.896196365356445,-16.426101684570312,1.2334263324737549
1778948760038935000,3.41593505859375,5.748027801513672,-5.915646553039551,0.03194403648376465
1778948760055268900,3.432268798828125,5.564434051513672,-1.652115821838379,-0.4360882639884949
1778948760071579100,3.4485791015625,4.410493850708008,-0.042883872985839844,-1.620290994644165
1778948760087928600,3.464928466796875,2.6666629314422607,2.0859217643737793,-1.3453372716903687
1778948760104258800,3.4812587890625,2.2404398918151855,2.463043212890625,-0.7967476844787598
1778948760120590800,3.4975908203125,4.647641658782959,2.0058441162109375,-0.5401455163955688
1778948760136938200,3.513938232421875,4.927378177642822,1.8359036445617676,0.30363884568214417
1778948760153266000,3.530265869140625,-5.613334655761719,0.39486122131347656,5.434451580047607
1778948760169596700,3.5465966796875,-11.854860305786133,1.5967817306518555,4.468626499176025
1778948760185914400,3.562914306640625,-2.2560038566589355,3.0118021965026855,0.5118023753166199
1778948760202243600,3.57924365234375,-0.12972378730773926,3.7867555618286133,-0.8456513285636902
1778948760218580700,3.595580810546875,-3.4520821571350098,3.9064831733703613,-2.1167056560516357
1778948760234910700,3.61191064453125,-2.9380149841308594,4.802784442901611,-1.19734787940979
1778948760251242800,3.62824267578125,-1.09965181350708,2.5447397232055664,0.30699437856674194
1778948760267573200,3.6445732421875,0.9389788508415222,1.387312889099121,1.1041221618652344
1778948760283893000,3.66089306640625,1.04496431350708,1.4241886138916016,1.7746965885162354
1778948760300231700,3.677231689453125,-1.754162073135376,1.9285898208618164,2.448193073272705
1778948760316570600,3.693570556640625,-2.7459449768066406,1.6171841621398926,3.436537265777588
1778948760332912600,3.70991259765625,-3.939126968383789,-2.1410131454467773,4.151983261108398
1778948760349231400,3.7262314453125,-4.4645185470581055,-6.876498222351074,4.572686195373535
1778948760365561600,3.7425615234375,-2.798646926879883,-9.0463228225708,5.82741641998291
1778948760381887200,3.75888720703125,-0.11181116104125977,-10.945649147033691,4.869752883911133
1778948760398222000,3.77522216796875,2.873796224594116,-11.309048652648926,1.5823689699172974
1778948760414545200,3.791545166015625,4.574619293212891,-6.301152229309082,-2.954772472381592
1778948760430886400,3.807886474609375,8.076848983764648,0.04847908020019531,-3.741713285446167
1778948760447261400,3.824261474609375,9.354560852050781,4.174151420593262,-5.5265631675720215
1778948760463548200,3.840548095703125,3.6125106811523438,4.874379634857178,-7.738513946533203
1778948760479882500,3.856882568359375,2.538759231567383,2.3516063690185547,-5.345227241516113
1778948760496212700,3.873212646484375,3.6416430473327637,1.7295184135437012,-3.2995381355285645
1778948760512546300,3.88954638671875,4.413800239562988,2.307285785675049,-1.8520587682724
1778948760528876000,3.9058759765625,4.228884696960449,2.023336410522461,-0.9713356494903564
1778948760545209000,3.922208984375,3.6395678520202637,1.268101692199707,-0.7137412428855896
1778948760561541400,3.938541259765625,3.3686587810516357,1.6296195983886719,-1.349888801574707
1778948760577886000,3.954885986328125,2.7621636390686035,2.600830078125,-1.5900825262069702
1778948760594199300,3.97119921875,1.8116908073425293,3.74934720993042,-1.2492873668670654
1778948760610545000,3.987544921875,0.8764357566833496,3.8007092475891113,-0.17016246914863586
1778948760626866200,4.0038662109375,1.511939287185669,1.9417743682861328,1.3567132949829102
1778948760643197400,4.020197509765625,1.5012738704681396,-0.6659345626831055,2.231942892074585
1778948760659515100,4.03651513671875,-0.02469921112060547,-1.7034521102905273,2.7533891201019287
1778948760675856400,4.0528564453125,-2.5424745082855225,-1.7106828689575195,2.718881607055664
1778948760692181500,4.069181396484375,-5.491324424743652,-1.1575870513916016,4.328116416931152
1778948760708524000,4.08552392578125,-4.712939262390137,0.24125003814697266,4.473950386047363
1778948760724857600,4.101857666015625,-3.474907875061035,2.2058920860290527,2.9337449073791504
1778948760741186300,4.118186279296875,-3.2901973724365234,3.791050434112549,1.806081771850586
1778948760757516000,4.13451611328125,-3.6163933277130127,4.459107398986816,0.17134606838226318
1778948760773849300,4.150849365234375,-4.002055644989014,0.23763084411621094,-1.8227823972702026
1778948760790180000,4.16718017578125,-6.111250400543213,-9.021573066711426,-5.121366024017334
1778948760806527700,4.18352783203125,-2.079033136367798,-11.00844669342041,-3.788130283355713
1778948760822857200,4.199857177734375,4.7223711013793945,-2.8223390579223633,1.4788683652877808
1778948760839174000,4.216173828125,-1.2687397003173828,-1.158339500427246,1.284937858581543
1778948760855515100,4.23251513671875,1.7340271472930908,-6.450848579406738,2.4042880535125732
1778948760871854300,4.248854248046875,-4.053571701049805,-11.811539649963379,2.8338873386383057
1778948760888166400,4.26516650390625,3.8413870334625244,-4.745443344116211,-0.9360241889953613
1778948760904514800,4.281514892578125,3.1921839714050293,-0.5320825576782227,-2.1478869915008545
1778948760920840000,4.29783984375,2.931037425994873,1.5440502166748047,-2.5857934951782227
1778948760937148700,4.314148681640625,3.380338191986084,1.9461331367492676,-2.9654293060302734
1778948760953483500,4.3304833984375,2.733732223510742,1.2715787887573242,-3.0024940967559814
1778948760969830000,4.346829833984375,-0.7410135865211487,0.21857833862304688,-3.2995455265045166
1778948760986153000,4.363153076171875,-9.923066139221191,-0.9792652130126953,-1.5955442190170288
1778948761002492000,4.379491943359375,-0.7416059374809265,0.13579177856445312,2.382300615310669
1778948761018821000,4.395821044921875,0.587856650352478,0.6634340286254883,2.31764817237854
1778948761035139300,4.412139404296875,-3.0347018241882324,1.669809341430664,2.668898344039917
1778948761051490300,4.428490234375,-3.7197253704071045,2.0738821029663086,4.2212042808532715
1778948761067822600,4.444822509765625,-1.1208428144454956,2.9558210372924805,4.200594902038574
1778948761084165000,4.4611650390625,0.73345947265625,3.1468796730041504,3.778846025466919
1778948761100503000,4.4775029296875,0.8461906909942627,2.6527061462402344,2.7687058448791504
1778948761116823300,4.4938232421875,-0.26915740966796875,2.126838207244873,2.525242567062378
1778948761133153500,4.510153564453125,-1.1106208562850952,1.591888427734375,2.0110816955566406
1778948761149486800,4.52648681640625,-0.5870935916900635,1.2639217376708984,1.5970580577850342
1778948761165833700,4.542833740234375,-1.0293893814086914,1.5149240493774414,2.524110794067383
1778948761182118700,4.55911865234375,-5.144542694091797,-0.6843900680541992,3.043304443359375
1778948761198453800,4.575453857421875,-5.624161243438721,-4.224081039428711,3.7097389698028564
1778948761214802200,4.59180224609375,-2.614680290222168,-7.048155784606934,4.41350793838501
1778948761231130400,4.60813037109375,-0.21338772773742676,-7.575645446777344,3.477668523788452
1778948761247461600,4.624461669921875,3.5593554973602295,-9.366835594177246,1.7108397483825684
1778948761263789600,4.64078955078125,3.084026336669922,-8.186391830444336,-1.9462110996246338
1778948761280128000,4.6571279296875,5.245721340179443,-3.3340749740600586,-5.835465431213379
1778948761296456000,4.6734560546875,8.30021858215332,0.5976777076721191,-7.292059898376465
1778948761312786200,4.6897861328125,5.907481670379639,3.056532859802246,-8.94739055633545
1778948761329118700,4.70611865234375,2.2111523151397705,2.324676036834717,-5.896159648895264
1778948761345435400,4.722435302734375,2.5473594665527344,2.178083896636963,-3.1486477851867676
1778948761361782500,4.738782470703125,2.905158042907715,2.4994401931762695,-1.7656428813934326
1778948761378094600,4.755094482421875,3.187208652496338,2.739104747772217,-1.2054563760757446
1778948761394445600,4.771445556640625,3.0997567176818848,2.0715646743774414,-1.3911747932434082
1778948761410764800,4.787764892578125,2.774348497390747,1.4008584022521973,-1.9921481609344482
1778948761427108600,4.804108642578125,2.418210506439209,1.804288387298584,-2.5385138988494873
1778948761443457300,4.820457275390625,1.931781530380249,2.5122313499450684,-2.3823370933532715
1778948761459796200,4.836796142578125,1.7516326904296875,3.1612091064453125,-1.5120728015899658
1778948761476115700,4.85311572265625,2.0575032234191895,3.38576602935791,-0.3251553773880005
1778948761492447500,4.869447509765625,2.4724743366241455,2.1969738006591797,0.8712112903594971
1778948761508777500,4.885777587890625,1.3476758003234863,-0.21844196319580078,1.237023949623108
1778948761525109500,4.902109619140625,-0.29516899585723877,-1.423940658569336,1.4520738124847412
1778948761541439200,4.918439208984375,-0.5883361101150513,-1.0572395324707031,2.054800510406494
1778948761557778700,4.93477880859375,-2.320033311843872,-0.5992326736450195,3.0760605335235596
1778948761574112000,4.951112060546875,-4.970528602600098,-0.8752498626708984,3.0417544841766357
1778948761590413600,4.96741357421875,-5.153367042541504,-0.4817800521850586,2.5388224124908447
1778948761606753300,4.983753173828125,-4.233957290649414,0.3010873794555664,2.9372732639312744
1778948761623087900,5.000087890625,-3.339357376098633,1.7351799011230469,2.7675390243530273
1778948761639406000,5.016406005859375,-4.5303635597229,2.9369006156921387,1.3135545253753662
1778948761655737000,5.032737060546875,-6.79904317855835,1.893934726715088,0.37193387746810913
1778948761672081700,5.04908154296875,-4.574632167816162,-2.5142860412597656,0.1662844717502594
1778948761688401000,5.06540087890625,3.5394070148468018,-3.7942705154418945,3.5781397819519043
1778948761704742700,5.08174267578125,8.53165054321289,-1.1685962677001953,1.4743483066558838
1778948761721076200,5.098076171875,1.0954641103744507,-2.431123733520508,-2.575176239013672
1778948761737406500,5.114406494140625,-4.5056915283203125,-4.850438117980957,-2.7346959114074707
1778948761753738800,5.13073876953125,2.833885431289673,-4.567526817321777,-1.1524593830108643
1778948761770068200,5.147068115234375,2.3902554512023926,-8.024887084960938,-2.1694159507751465
1778948761786417700,5.163417724609375,-2.761183738708496,-10.886391639709473,-1.8688023090362549
1778948761802728200,5.179728271484375,1.2807704210281372,-4.857002258300781,-2.7309181690216064
1778948761819078400,5.196078369140625,0.8066976070404053,-0.47971057891845703,-1.3733177185058594
1778948761835405800,5.21240576171875,0.592758059501648,2.9108643531799316,-0.5900698304176331
1778948761851747600,5.22874755859375,0.43098607659339905,4.251603126525879,0.20783448219299316
1778948761868068400,5.245068359375,0.43038344383239746,2.6888489723205566,-0.13637658953666687
1778948761884403500,5.261403564453125,-0.9309431910514832,0.5907478332519531,0.005956083536148071
1778948761900737300,5.2777373046875,-1.6496611833572388,-0.15983200073242188,2.7360622882843018
1778948761917066800,5.294066650390625,-2.297220468521118,0.41265010833740234,4.218789100646973
1778948761933381600,5.310381591796875,-1.640718936920166,1.5323104858398438,4.375131607055664
1778948761949717000,5.326717041015625,-1.2567311525344849,1.9733972549438477,3.890385627746582
1778948761966035700,5.34303564453125,-2.5284271240234375,2.2419819831848145,1.6228997707366943
1778948761982380000,5.359380126953125,-3.3129780292510986,2.194547176361084,0.6204321980476379
1778948761998709500,5.37570947265625,-3.9080686569213867,1.3406448364257812,0.9957082271575928
1778948762015043000,5.39204296875,-3.9964070320129395,0.7415332794189453,2.228862762451172
1778948762031386000,5.40838623046875,-3.8131449222564697,0.7971878051757812,3.543539047241211
1778948762047719400,5.424719482421875,-4.69165563583374,0.774017333984375,3.8891777992248535
1778948762064051200,5.44105126953125,-4.72202730178833,-1.4157514572143555,3.0521512031555176
1778948762080380700,5.457380615234375,-2.327108383178711,-4.473906517028809,0.6350698471069336
1778948762096713000,5.473712890625,-1.7286584377288818,-5.461859703063965,1.0286813974380493
1778948762113045800,5.490045654296875,4.046955108642578,-6.769891738891602,2.216012954711914
1778948762129379300,5.50637939453125,5.555137634277344,-7.5672807693481445,2.171596050262451
1778948762145706800,5.522706787109375,3.3570404052734375,-7.222932815551758,0.548201322555542
1778948762162052600,5.539052490234375,5.102166175842285,-2.2284727096557617,-6.476426124572754
1778948762178355000,5.55535498046875,2.968380928039551,2.1200599670410156,-6.791214942932129
1778948762194687000,5.57168701171875,3.6508948802948,2.366349220275879,-3.5084238052368164
1778948762211011300,5.58801123046875,3.901102066040039,0.8549537658691406,-2.4725000858306885
1778948762227352000,5.60435205078125,4.2371649742126465,1.6646909713745117,-2.515536308288574
1778948762243684900,5.620684814453125,4.866588115692139,2.562943458557129,-2.1717567443847656
1778948762260015600,5.637015625,5.048415660858154,3.6633176803588867,-1.9496738910675049
1778948762276354600,5.6533544921875,5.427272319793701,3.823676586151123,-1.8940131664276123
1778948762292690700,5.669690673828125,5.627123832702637,3.6384406089782715,-2.6364543437957764
1778948762309007000,5.686007080078125,5.243207931518555,3.8155908584594727,-3.229461431503296
1778948762325356300,5.702356201171875,4.7266058921813965,4.072255611419678,-3.2437782287597656
1778948762341672000,5.718671875,2.893118143081665,4.362973690032959,-2.6163134574890137
1778948762358016300,5.735016357421875,1.1080282926559448,4.654191493988037,-1.2606878280639648
1778948762374351400,5.751351318359375,0.41305041313171387,1.3342666625976562,2.2568626403808594
1778948762390680000,5.76768017578125,1.5830128192901611,-4.86408805847168,3.4653337001800537
1778948762407011600,5.784011474609375,-1.6526775360107422,-7.814403533935547,2.3473634719848633
1778948762423327500,5.800327392578125,-4.829936981201172,-6.219841957092285,0.9337704181671143
1778948762439661800,5.816661865234375,-9.849773406982422,-3.06204891204834,2.7394285202026367
1778948762456005000,5.833005126953125,-9.497958183288574,-0.7193965911865234,4.783119201660156
1778948762472326000,5.849325927734375,-5.33500862121582,1.0299310684204102,4.378891468048096
1778948762488657200,5.8656572265625,-2.8651721477508545,0.19570350646972656,2.729586601257324
1778948762504990700,5.88199072265625,-1.3921773433685303,-5.773619651794434,-0.147889643907547
1778948762521318700,5.898318603515625,-1.1252696514129639,-6.052964210510254,-2.599569320678711
1778948762537647000,5.914647216796875,1.1294686794281006,-3.9764575958251953,-3.643198251724243
1778948762553988600,5.930988525390625,-0.8391766548156738,-3.1097097396850586,-6.18894100189209
1778948762570315500,5.9473154296875,1.252764105796814,-4.329968452453613,-6.759091854095459
1778948762586647600,5.9636474609375,5.105641841888428,-5.8944597244262695,-6.1906609535217285
1778948762602977500,5.9799775390625,3.7064173221588135,-4.928305625915527,-4.184163570404053
1778948762619296300,5.996296142578125,1.303194522857666,-5.026577949523926,-2.9983253479003906
1778948762635647500,6.0126474609375,1.8351160287857056,-4.852779388427734,-2.7513179779052734
1778948762651970600,6.028970458984375,3.4187846183776855,-3.4544734954833984,-3.0504462718963623
1778948762668305000,6.045304931640625,5.793976783752441,-2.786929130554199,-2.7622275352478027
1778948762684635600,6.0616357421875,5.746966361999512,-1.622507095336914,-1.7252053022384644
1778948762700964900,6.07796484375,4.058222770690918,-1.4137210845947266,-1.7364224195480347
1778948762717302300,6.09430224609375,0.6416583061218262,-0.0721435546875,-1.529457449913025
1778948762733630700,6.110630615234375,-2.281001329421997,0.7925052642822266,-0.3685656785964966
1778948762749961700,6.126961669921875,-0.9627766013145447,1.1784076690673828,0.3925381898880005
1778948762766299100,6.143299072265625,-0.5733746886253357,2.265723705291748,1.0017732381820679
1778948762782638600,6.159638671875,-1.0265123844146729,3.14785099029541,1.4463598728179932
1778948762798954500,6.17595458984375,-1.5397034883499146,3.0038065910339355,2.0604870319366455
1778948762815298800,6.192298828125,-1.887184739112854,2.2897443771362305,3.050694227218628
1778948762831622700,6.20862255859375,-1.6742846965789795,1.9120850563049316,4.128292083740234
1778948762847949000,6.224948974609375,-1.1777997016906738,1.4372577667236328,4.843280792236328
1778948762864285400,6.241285400390625,-1.032080888748169,0.9173822402954102,5.171446800231934
1778948762880611800,6.25761181640625,-1.3143553733825684,0.6126279830932617,5.131461143493652
1778948762896949500,6.273949462890625,-2.1338179111480713,0.008602142333984375,4.9416375160217285
1778948762913277200,6.290277099609375,-3.0594773292541504,-0.29207706451416016,3.4624857902526855
1778948762929597200,6.30659716796875,-3.868948221206665,-0.4206094741821289,1.890685796737671
1778948762945945900,6.32294580078125,-3.6094181537628174,-0.5075006484985352,1.0262699127197266
1778948762962272000,6.33927197265625,-5.2001543045043945,-1.3313827514648438,0.6121218204498291
1778948762978608000,6.355608154296875,-8.083274841308594,-2.5912742614746094,-0.05481630563735962
1778948762994951400,6.371951416015625,-9.393105506896973,-3.1998043060302734,-0.3057001233100891
1778948763011251000,6.3882509765625,-5.264942646026611,-2.582460403442383,-0.05537158250808716
1778948763027613200,6.40461328125,-1.4787248373031616,-4.051485061645508,1.4991769790649414
1778948763043923700,6.420923828125,-1.024735927581787,-4.980219841003418,3.4311039447784424
1778948763060270600,6.4372705078125,-4.17840576171875,-4.542255401611328,2.0541489124298096
1778948763076610800,6.45361083984375,-4.488780498504639,-5.321404457092285,-3.8342742919921875
1778948763092940000,6.46993994140625,-1.0850551128387451,-5.501774787902832,-7.216310501098633
1778948763109270000,6.48627001953125,-0.0053751468658447266,-2.260509490966797,-5.2064385414123535
1778948763125599700,6.502599853515625,7.223703861236572,-1.240422248840332,-8.266363143920898
1778948763141916700,6.518916748046875,5.3389997482299805,-1.243086814880371,-9.98768424987793
1778948763158246000,6.535245849609375,2.4573750495910645,-1.3527145385742188,-9.01621150970459
1778948763174586400,6.55158642578125,3.5099334716796875,-1.5002031326293945,-2.172590732574463
1778948763190914800,6.567914794921875,3.70573353767395,-0.4175729751586914,-0.0007248818874359131
1778948763207246300,6.584246337890625,3.287879228591919,-0.24732303619384766,1.0721955299377441
1778948763223577900,6.600577880859375,4.0421061515808105,0.12870025634765625,0.23921692371368408
1778948763239906300,6.61690625,3.3084895610809326,1.1204948425292969,-0.3509431481361389
1778948763256242000,6.633241943359375,2.3956074714660645,1.7340145111083984,-0.24035336077213287
1778948763272572400,6.649572509765625,3.3036887645721436,2.4894933700561523,-0.3773021399974823
1778948763288906200,6.66590625,3.650709867477417,3.2277441024780273,-0.7156654596328735
1778948763305247200,6.682247314453125,4.241120338439941,4.36055850982666,-0.8774063587188721
1778948763321580500,6.69858056640625,4.177823066711426,4.982479095458984,-1.3368746042251587
1778948763337895000,6.71489501953125,4.23268985748291,5.012330532073975,-1.4240399599075317
1778948763354246000,6.731245849609375,4.4674248695373535,5.690618515014648,-1.7335370779037476
1778948763370558200,6.74755810546875,4.923022270202637,6.390345096588135,-1.8541409969329834
1778948763386894000,6.76389404296875,3.076859474182129,4.7209672927856445,-1.5903170108795166
1778948763403215000,6.780215087890625,1.4217981100082397,2.786492347717285,-0.06789025664329529
1778948763419549400,6.796549560546875,1.1169860363006592,-0.16150188446044922,2.599496364593506
1778948763435889000,6.812888916015625,2.3183534145355225,-4.237178802490234,4.50013542175293
1778948763452219400,6.829219482421875,0.6489269137382507,-5.3642377853393555,6.0482401847839355
1778948763468553000,6.845552978515625,-6.943653106689453,-4.6192426681518555,8.539288520812988
1778948763484884500,6.861884521484375,-10.721959114074707,-3.0323362350463867,7.047921657562256
1778948763501212200,6.878212158203125,-13.712581634521484,-8.881132125854492,-0.3695750832557678
1778948763517564400,6.894564453125,-20.558046340942383,-15.266794204711914,-5.694398403167725
1778948763533887700,6.9108876953125,2.961900234222412,-10.020233154296875,-5.947479724884033
1778948763550229000,6.92722900390625,9.767680168151855,-0.6100025177001953,-5.670539379119873
1778948763566553000,6.943552978515625,4.095121383666992,4.688085556030273,-5.649120330810547
1778948763582892300,6.959892333984375,2.4430928230285645,6.348658561706543,-4.426907062530518
1778948763599228400,6.976228515625,4.48050594329834,5.343923568725586,-2.665590763092041
1778948763615555600,6.9925556640625,7.04679012298584,2.801985740661621,-2.9426286220550537
1778948763631877600,7.008877685546875,6.023601531982422,-1.4894046783447266,-3.201876163482666
1778948763648203500,7.02520361328125,4.025303363800049,-4.042518615722656,-3.183997392654419
1778948763664531700,7.04153173828125,-0.4844234585762024,-4.64040470123291,-2.602982521057129
1778948763680852700,7.057852783203125,-0.05701321363449097,-2.3873043060302734,-1.741648554801941
1778948763697194000,7.074194091796875,1.5264939069747925,-0.9447345733642578,-0.6885262727737427
1778948763713527300,7.09052734375,1.3763339519500732,-0.14084148406982422,0.694642186164856
1778948763729857300,7.106857177734375,0.6690719127655029,1.5993719100952148,1.9598400592803955
1778948763746189000,7.12318896484375,-0.09105844795703888,2.3607916831970215,3.5861892700195312
1778948763762536700,7.13953662109375,-0.5304756164550781,1.8128676414489746,5.182604789733887
1778948763778866000,7.155865966796875,-0.6937550902366638,0.9465417861938477,4.883063793182373
1778948763795194000,7.172194091796875,-2.3360986709594727,-0.5776481628417969,4.3729681968688965
1778948763811517400,7.188517333984375,-4.409888744354248,-1.300532341003418,4.202719688415527
1778948763827847700,7.20484765625,-4.899750709533691,-0.5659761428833008,3.3115932941436768
1778948763844180000,7.221179931640625,-3.521719217300415,0.23906230926513672,2.2245068550109863
1778948763860510700,7.2375107421875,-2.5734400749206543,1.3607254028320312,1.8119065761566162
1778948763876843000,7.253843017578125,-3.393275737762451,2.16892147064209,2.0350890159606934
1778948763893174500,7.270174560546875,-4.311563491821289,2.8216848373413086,1.803157091140747
1778948763909523700,7.286523681640625,-2.1221742630004883,3.8605151176452637,0.6704418659210205
1778948763925853400,7.302853515625,-1.175080418586731,4.059194564819336,-0.08257564902305603
1778948763942191400,7.31919140625,-2.462026596069336,3.9759511947631836,0.047767847776412964
1778948763958505700,7.335505615234375,-3.081122636795044,3.916738986968994,0.040138959884643555
1778948763974832600,7.35183251953125,-2.0538768768310547,3.2736659049987793,0.03870522975921631
1778948763991160300,7.368160400390625,0.10827228426933289,3.1934547424316406,-0.4564446210861206
1778948764007495000,7.384494873046875,0.09987255930900574,2.536435127258301,-0.8903001546859741
1778948764023827700,7.40082763671875,-3.4338126182556152,0.6817035675048828,-1.4302505254745483
1778948764040159500,7.417159423828125,-4.648517608642578,-1.337289810180664,-0.28975069522857666
1778948764056490200,7.433490234375,-1.6379585266113281,-0.7648525238037109,0.2944113612174988
1778948764072822500,7.449822509765625,-2.9724678993225098,0.18136978149414062,1.3889983892440796
1778948764089171500,7.46617138671875,-5.590239524841309,1.004715919494629,2.366453170776367
1778948764105500200,7.482500244140625,-5.613907337188721,0.9077520370483398,2.597811222076416
1778948764121831400,7.49883154296875,-3.9863789081573486,-2.127781867980957,1.9377727508544922
1778948764138130000,7.5151298828125,-0.4872877597808838,-5.505959510803223,0.040437281131744385
1778948764154468600,7.531468505859375,6.439720153808594,-7.424531936645508,-1.2567691802978516
1778948764170806000,7.547805908203125,8.81368637084961,-8.954279899597168,0.39109623432159424
1778948764187143700,7.564143798828125,5.38347864151001,-5.615080833435059,0.17207765579223633
1778948764203475000,7.580474853515625,5.796276569366455,-2.5892295837402344,-5.627720832824707
1778948764219808000,7.59680810546875,4.593430042266846,1.15455961227417,-7.138481140136719
1778948764236148500,7.6131484375,6.163229942321777,1.169900894165039,-5.930703163146973
1778948764252470500,7.629470458984375,5.088901519775391,0.941978931427002,-4.6144256591796875
1778948764268793300,7.64579345703125,3.8565621376037598,2.1465940475463867,-3.892503499984741
1778948764285135000,7.662135009765625,2.7862300872802734,2.8591179847717285,-3.288541078567505
1778948764301465900,7.6784658203125,1.5748214721679688,3.1275973320007324,-2.369051694869995
1778948764317796900,7.694796875,1.3826475143432617,3.656299591064453,-1.9512850046157837
1778948764334128000,7.711128173828125,0.2655777931213379,2.884026050567627,-1.2384628057479858
1778948764350460400,7.72746044921875,-0.8340647220611572,0.904719352722168,0.8566726446151733
1778948764366793000,7.74379296875,-0.2413170337677002,-1.4081764221191406,3.0550737380981445
1778948764383143200,7.76014306640625,0.06528592109680176,-0.9484472274780273,3.4379241466522217
1778948764399439400,7.776439453125,0.1267310380935669,-0.20934486389160156,2.200839042663574
1778948764415788800,7.792788818359375,-1.5970726013183594,-0.7512683868408203,1.6378408670425415
1778948764432133400,7.80913330078125,-3.1328744888305664,-1.4824752807617188,1.4431281089782715
1778948764448461000,7.8254609375,-4.507612228393555,-1.6329355239868164,1.9807310104370117
1778948764464792000,7.8417919921875,-6.066925048828125,0.5599155426025391,3.7243540287017822
1778948764481133800,7.8581337890625,-7.335968494415283,2.7038326263427734,2.9211010932922363
1778948764497459000,7.874458984375,-7.920894145965576,3.951383113861084,1.118627905845642
1778948764513798100,7.890798095703125,-1.7869998216629028,0.6868391036987305,-1.0955166816711426
1778948764530126000,7.9071259765625,5.156214714050293,-2.702505111694336,-2.3552236557006836
1778948764546438000,7.92343798828125,4.029408931732178,-6.452110290527344,-3.3756022453308105
1778948764562801000,7.93980078125,-0.24169832468032837,-7.670259475708008,-3.7794792652130127
1778948764579118600,7.95611865234375,-0.12461549043655396,-4.8809003829956055,-1.0469321012496948
1778948764595446500,7.972446533203125,3.334136724472046,-1.239924430847168,0.10167980194091797
1778948764611782400,7.988782470703125,2.7545485496520996,-0.6869287490844727,-1.1724036931991577
1778948764628096500,8.005096435546875,2.1667022705078125,-2.9873476028442383,-1.8411760330200195
1778948764644430300,8.021430419921876,1.7519844770431519,-7.902835845947266,-2.1357150077819824
1778948764660764000,8.037763916015624,2.8876748085021973,-8.071109771728516,-2.2456021308898926
1778948764677094700,8.0540947265625,1.7689849138259888,-2.27496337890625,-0.36561986804008484
1778948764693423000,8.070423095703125,-1.4484882354736328,1.1015939712524414,3.4243154525756836
1778948764709761300,8.08676123046875,-5.006433010101318,2.525630474090576,3.5830225944519043
1778948764726089000,8.1030888671875,-4.312452793121338,4.746024131774902,-0.028657495975494385
1778948764742422300,8.11942236328125,-1.2191969156265259,4.306309223175049,-0.5466371774673462
1778948764758768000,8.13576806640625,-0.39464128017425537,3.8116798400878906,1.3072233200073242
1778948764775095800,8.152095703125,-1.178011178970337,2.528524875640869,4.022128582000732
1778948764791437800,8.168437744140626,-3.4663801193237305,1.6577825546264648,5.166964054107666
1778948764807757000,8.184757080078125,-3.6049046516418457,1.4641399383544922,4.327361106872559
1778948764824093700,8.20109375,-3.637728452682495,1.6034135818481445,2.219172954559326
1778948764840423200,8.217423095703126,-4.03933572769165,1.3414335250854492,0.970466136932373
1778948764856741400,8.233741455078125,-1.0652064085006714,1.5617151260375977,-0.005964934825897217
1778948764873075000,8.250074951171875,-0.5641934871673584,1.955700397491455,-0.16041207313537598
1778948764889405700,8.26640576171875,-0.4716312885284424,2.1324729919433594,0.3555678129196167
1778948764905740300,8.282740234375,-1.1964144706726074,1.033320426940918,1.3202177286148071
1778948764922070800,8.29907080078125,-2.6929078102111816,-2.6540613174438477,2.1176393032073975
1778948764938402300,8.31540234375,-0.1639270782470703,-7.237004280090332,3.579348564147949
1778948764954751500,8.33175146484375,3.480396270751953,-11.202259063720703,4.436182498931885
1778948764971077400,8.348077392578125,5.271424770355225,-12.96228313446045,3.1603360176086426
1778948764987412000,8.364411865234375,7.3854804039001465,-6.05380916595459,-4.789397239685059
1778948765003741200,8.3807412109375,3.4940502643585205,-1.7991361618041992,-7.612452507019043
1778948765020059000,8.397058837890626,4.767760753631592,2.8846540451049805,-5.965613842010498
1778948765036404000,8.413404052734375,6.401207447052002,3.117051601409912,-3.7007575035095215
1778948765052739600,8.429739501953126,5.853423595428467,2.7346272468566895,-3.3928728103637695
1778948765069069300,8.4460693359375,5.062907695770264,3.3683881759643555,-3.046663761138916
1778948765085419000,8.4624189453125,4.857686996459961,3.609128475189209,-2.4061598777770996
1778948765101730600,8.47873046875,5.391162395477295,3.6800131797790527,-2.3330812454223633
1778948765118049000,8.495049072265624,5.117563247680664,3.575859546661377,-2.2127485275268555
1778948765134383000,8.511383056640625,4.0028076171875,3.814373016357422,-2.1061859130859375
1778948765150717000,8.527717041015626,2.264197587966919,3.863633155822754,-1.7725365161895752
1778948765167045600,8.544045654296875,-0.12068676948547363,2.211012840270996,-0.5305824875831604
1778948765183378400,8.56037841796875,-0.5916121006011963,-2.172694206237793,1.0239949226379395
1778948765199710700,8.576710693359376,-1.0795084238052368,-5.995880126953125,0.6584687829017639
1778948765216040400,8.59304052734375,-2.0861120223999023,-4.134885787963867,0.18449518084526062
1778948765232371500,8.609371337890625,-5.435809135437012,-1.7393407821655273,0.09058809280395508
1778948765248708000,8.6257080078125,-6.050198554992676,-1.360870361328125,3.3766777515411377
1778948765265050400,8.64205029296875,-4.410719871520996,0.7803678512573242,4.9188361167907715
1778948765281354000,8.65835400390625,-3.849710702896118,1.7750749588012695,5.018030166625977
1778948765297713700,8.674713623046875,-4.30618953704834,0.9309062957763672,3.0662713050842285
1778948765314042000,8.6910419921875,-2.7744133472442627,-2.2922611236572266,1.0263177156448364
1778948765330363100,8.707363037109374,0.3696717619895935,-2.2618274688720703,-2.2078607082366943
1778948765346684700,8.7236845703125,-0.8067048788070679,-2.866628646850586,-4.79913330078125
1778948765363025400,8.740025390625,-5.485898971557617,-9.753016471862793,-2.344257354736328
1778948765379350300,8.756350341796875,4.08275032043457,-4.442318916320801,3.7859058380126953
1778948765395690000,8.77268994140625,4.753393173217773,-3.1270294189453125,1.1173226833343506
1778948765412023300,8.789023193359375,2.6409950256347656,-6.159053802490234,-0.929980456829071
1778948765428369400,8.805369384765624,3.029581069946289,-6.141504287719727,-3.4065840244293213
1778948765444683300,8.821683349609375,2.891284942626953,-2.1379547119140625,-4.331131935119629
1778948765461032400,8.838032470703125,2.1386306285858154,2.976961612701416,-3.0744173526763916
1778948765477359600,8.854359619140626,3.8202385902404785,1.4345483779907227,-2.8570377826690674
1778948765493682200,8.87068212890625,-0.10660910606384277,0.7169075012207031,0.05796384811401367
1778948765510013700,8.887013671875,-4.713397979736328,-2.0116348266601562,0.6848160028457642
1778948765526345000,8.903344970703126,-3.134214401245117,0.8395252227783203,-0.16910551488399506
1778948765542675700,8.91967578125,-3.1157917976379395,1.1984930038452148,0.26294970512390137
1778948765559007700,8.9360078125,-2.646707773208618,2.164767265319824,1.6834229230880737
1778948765575336200,8.952336181640625,-1.4596946239471436,2.45424222946167,2.46557354927063
1778948765591676000,8.968676025390625,-2.4630050659179688,1.8903675079345703,2.193070650100708
1778948765608003000,8.985003173828124,-3.0156595706939697,1.1312627792358398,2.3096916675567627
1778948765624335600,9.001335693359374,-2.964357852935791,1.1830320358276367,2.5887584686279297
1778948765640663300,9.017663330078125,-2.953564167022705,1.5926589965820312,2.0197317600250244
1778948765656991500,9.033991455078125,-1.893978476524353,2.2244672775268555,1.4523711204528809
1778948765673331200,9.050331298828125,-2.543504476547241,1.232675552368164,1.605505108833313
1778948765689660700,9.06666064453125,0.8048028945922852,-0.9124126434326172,3.0139803886413574
1778948765706005000,9.0830048828125,4.693388938903809,-3.324563980102539,3.902223587036133
1778948765722325800,9.09932568359375,6.479260444641113,-5.511166572570801,3.4889564514160156
1778948765738660400,9.115660400390626,5.858548164367676,-7.617464065551758,2.007049560546875
1778948765754989600,9.131989501953125,7.278567314147949,-5.389543533325195,-4.801887035369873
1778948765771322000,9.148322021484375,1.4493980407714844,-1.9816570281982422,-9.73469066619873
1778948765787654000,9.16465380859375,4.776362895965576,2.1729674339294434,-5.768476486206055
1778948765803984400,9.180984375,5.739984512329102,2.8860058784484863,-2.5759806632995605
1778948765820316400,9.19731640625,5.240431785583496,2.0638341903686523,-2.279815912246704
1778948765836650800,9.213650634765624,5.001094818115234,1.3399062156677246,-3.1962387561798096
1778948765852979700,9.229979736328126,3.813937187194824,0.9590630531311035,-3.8135385513305664
1778948765869312000,9.24631201171875,2.3897087574005127,0.7667598724365234,-3.538693904876709
1778948765885648600,9.262648681640625,1.0613903999328613,0.8472223281860352,-2.834075450897217
1778948765901975800,9.278975830078124,0.07588863372802734,0.38297080993652344,-1.965338945388794
1778948765918307600,9.2953076171875,-0.6884737014770508,-0.8546648025512695,-1.065542459487915
1778948765934638600,9.311638671875,0.07897543907165527,-1.8272418975830078,0.03166836500167847
1778948765950971000,9.327970947265625,1.025314211845398,-1.8263092041015625,0.8829964399337769
1778948765967303400,9.344303466796875,0.8954612016677856,-1.5702896118164062,1.1083557605743408
1778948765983637800,9.3606376953125,0.4147815704345703,0.02356719970703125,1.2875893115997314
1778948765999965200,9.376965087890625,-2.279911994934082,-0.03659629821777344,2.668951988220215
1778948766016285000,9.393284912109374,-3.6093547344207764,0.4970731735229492,3.9623897075653076
1778948766032632800,9.4096328125,-3.6359305381774902,1.0142202377319336,4.193119049072266
1778948766048961300,9.425961181640625,-3.5348501205444336,1.8199896812438965,4.247577667236328
1778948766065294000,9.442294189453126,-2.550175189971924,2.6309142112731934,3.5214521884918213
1778948766081626400,9.45862646484375,-2.3193445205688477,2.9722657203674316,0.8441629409790039
1778948766097959200,9.474959228515624,-1.6633968353271484,-1.2185850143432617,-1.6465108394622803
1778948766114289200,9.4912890625,-4.062711238861084,-5.4742231369018555,-2.466667413711548
1778948766130623000,9.507623046875,-4.4570770263671875,-5.748919486999512,-1.7265417575836182
1778948766146952000,9.523951904296876,0.06611967086791992,-1.2539873123168945,1.673204779624939
1778948766163284700,9.54028466796875,1.1164953708648682,0.05313873291015625,2.4441704750061035
1778948766179604000,9.55660400390625,2.0179126262664795,-2.2190704345703125,1.5657600164413452
1778948766195954200,9.5729541015625,1.4099527597427368,-6.145764350891113,1.1996712684631348
1778948766212277800,9.58927783203125,1.174279808998108,-10.435500144958496,0.025389879941940308
1778948766228616400,9.605616455078126,-0.2660415470600128,-7.131024360656738,-2.8782811164855957
1778948766244959000,9.621958984375,-1.6493035554885864,-1.8428544998168945,-2.8487677574157715
1778948766261259800,9.638259765625,-1.5898059606552124,2.5283775329589844,-2.251218318939209
1778948766277619500,9.654619384765626,-1.4643694162368774,4.00958251953125,-1.3084824085235596
1778948766293955600,9.67095556640625,0.8270007371902466,2.4669833183288574,-3.091940402984619
1778948766310280700,9.68728076171875,1.9489859342575073,-0.5037937164306641,-4.628087520599365
1778948766326619600,9.70361962890625,0.06824415922164917,-0.7819337844848633,-2.934960126876831
1778948766342931200,9.71993115234375,-2.0099916458129883,0.988764762878418,0.8751704096794128
1778948766359254300,9.736254150390625,-2.3141956329345703,2.454050064086914,2.148012161254883
1778948766375598600,9.7525986328125,-1.566490888595581,2.8000478744506836,3.2452659606933594
1778948766391932200,9.76893212890625,-1.5873167514801025,2.3594627380371094,2.256290912628174
1778948766408260000,9.785260009765626,-2.900987386703491,1.6915864944458008,0.7046173810958862
1778948766424594700,9.8015947265625,-2.748530864715576,1.039459228515625,0.6486915349960327
1778948766440927200,9.81792724609375,-1.9193943738937378,0.9704380035400391,2.0037174224853516
1778948766457270300,9.834270263671876,-2.455348491668701,1.677978515625,3.733275890350342
1778948766473609700,9.850609619140625,-3.687000036239624,2.286533832550049,4.768832206726074
1778948766489927200,9.86692724609375,-5.855007171630859,1.6839227676391602,5.098741054534912
1778948766506299600,9.883299560546876,-7.00498104095459,-0.5233392715454102,4.305488109588623
1778948766522597600,9.89959765625,-1.3518567085266113,-3.81508731842041,3.016294240951538
1778948766538929000,9.915928955078124,2.667546272277832,-7.512687683105469,1.3907513618469238
1778948766555259000,9.9322587890625,3.722337245941162,-10.87641429901123,0.46546053886413574
1778948766571579400,9.948579345703125,2.9933524131774902,-10.15053939819336,-3.2041709423065186
1778948766587913500,9.96491357421875,3.260897397994995,-4.793278694152832,-10.115253448486328
1778948766604243500,9.981243408203126,1.673163890838623,1.1522822380065918,-10.529489517211914
1778948766620576500,9.997576416015624,5.0954270362854,3.0964622497558594,-6.302410125732422
1778948766636906000,10.013906005859376,4.5981125831604,1.995715618133545,-3.593501329421997
1778948766653242600,10.03024267578125,3.4463071823120117,1.5928139686584473,-3.2248623371124268
1778948766669571300,10.0465712890625,3.6112349033355713,2.8197617530822754,-3.5243265628814697
1778948766685906400,10.062906494140625,3.4395296573638916,2.922412872314453,-2.6613457202911377
1778948766702233900,10.07923388671875,2.4833343029022217,1.969555377960205,-1.2421351671218872
1778948766718568000,10.09556787109375,2.6245999336242676,2.0962953567504883,-1.0644326210021973
1778948766734914800,10.111914794921875,2.517956256866455,2.508579730987549,-1.145615816116333
1778948766751245800,10.128245849609375,2.740220546722412,2.7284932136535645,-1.7602862119674683
1778948766767591000,10.1445908203125,1.8446630239486694,3.3512659072875977,-2.3902056217193604
1778948766783910000,10.160909912109375,1.4557819366455078,4.208410263061523,-0.584355354309082
1778948766800223500,10.177223388671875,3.4198338985443115,2.6686019897460938,1.5176610946655273
1778948766816572700,10.19357275390625,0.3578190207481384,-1.6588411331176758,2.285679340362549
1778948766832886300,10.20988623046875,-1.4702253341674805,-2.6683835983276367,2.828634738922119
1778948766849236700,10.22623681640625,-2.539491891860962,-1.8981428146362305,2.8625125885009766
1778948766865567700,10.242567626953125,-7.956965446472168,-2.8815994262695312,2.835737943649292
1778948766881899300,10.258899169921875,-12.810223579406738,-5.101588249206543,3.3831567764282227
1778948766898230000,10.27522998046875,-13.03313159942627,-6.237371444702148,2.433631420135498
1778948766914563000,10.29156298828125,-16.151351928710938,-5.082610130310059,1.216640591621399
1778948766930878500,10.30787841796875,-0.5192935466766357,-2.8158559799194336,2.466411828994751
1778948766947228400,10.324228515625,9.726846694946289,-0.05039405822753906,0.48298415541648865
1778948766963556400,10.340556396484375,8.821439743041992,1.4471378326416016,-2.6128783226013184
1778948766979890200,10.35689013671875,2.1290812492370605,-2.4883012771606445,-3.524702548980713
1778948766996205600,10.37320556640625,6.773828983306885,-9.097312927246094,-6.262251853942871
1778948767012538600,10.38953857421875,3.019435405731201,-8.999157905578613,-7.938233375549316
1778948767028859600,10.405859619140625,-2.1469790935516357,-7.184691429138184,-9.929473876953125
1778948767045204500,10.42220458984375,-1.0196152925491333,-2.3281354904174805,-11.87900447845459
1778948767061536300,10.438536376953126,1.911676049232483,-2.800342559814453,-8.738663673400879
1778948767077868300,10.454868408203126,3.33323335647583,-3.3804445266723633,-6.015084743499756
1778948767094187000,10.47118701171875,2.3532605171203613,-1.3442611694335938,-5.7027106285095215
1778948767110532600,10.48753271484375,4.026237487792969,0.5817747116088867,-5.442192554473877
1778948767126860300,10.5038603515625,6.118984222412109,-0.4825468063354492,-3.9411208629608154
1778948767143199500,10.520199462890625,4.922173976898193,-0.8326644897460938,-2.404587984085083
1778948767159514400,10.536514404296875,3.7120957374572754,0.23146629333496094,-1.6309605836868286
1778948767175847000,10.552846923828126,2.330721378326416,1.3950834274291992,-0.9806318879127502
1778948767192191700,10.569191650390625,1.4670906066894531,1.4735355377197266,-0.13866771757602692
1778948767208523300,10.585523193359375,1.0285943746566772,1.7486910820007324,0.7873258590698242
1778948767224868900,10.601868896484374,0.8807855844497681,1.975710391998291,2.0233030319213867
1778948767241204700,10.618204833984375,1.3031203746795654,2.1186795234680176,4.36907958984375
1778948767257515800,10.634515869140625,2.449509382247925,2.560169219970703,6.655017375946045
1778948767273865200,10.650865234375,2.558670997619629,3.325716495513916,7.621931552886963
1778948767290195000,10.66719482421875,1.2218313217163086,2.878213405609131,8.097847938537598
1778948767306507000,10.683507080078124,-0.09905886650085449,2.0820493698120117,8.450960159301758
1778948767322860300,10.6998603515625,-1.0561318397521973,1.3564996719360352,7.690303325653076
1778948767339159800,10.716159912109376,-2.8454205989837646,2.2467665672302246,5.357818126678467
1778948767355497000,10.7324970703125,-4.572300910949707,0.7760429382324219,4.062310218811035
1778948767371847000,10.748846923828125,-4.644501686096191,-1.7476282119750977,2.2494938373565674
1778948767388169700,10.765169677734375,-6.705552101135254,-4.382493019104004,0.9940624833106995
1778948767404510500,10.781510498046876,-9.067055702209473,-5.0411481857299805,-0.7074224948883057
1778948767420836400,10.79783642578125,-7.008950233459473,-2.165050506591797,-1.3817102909088135
1778948767437170400,10.81417041015625,-3.6132748126983643,-2.7939109802246094,0.6124008893966675
1778948767453501400,10.83050146484375,0.7637960910797119,-2.289107322692871,2.1298434734344482
1778948767469832400,10.84683251953125,-1.778257966041565,-2.0576438903808594,2.2773754596710205
1778948767486164200,10.863164306640625,-5.450683116912842,-1.6856842041015625,1.7550137042999268
1778948767502515700,10.879515625,-5.311892509460449,-1.550492286682129,2.1461305618286133
1778948767518841300,10.89584130859375,-4.079380512237549,-1.02740478515625,2.9842944145202637
1778948767535170300,10.91217041015625,-5.443901062011719,-0.5139293670654297,2.8888099193573
1778948767551519000,10.92851904296875,-5.583524703979492,-0.34645843505859375,2.912269115447998
1778948767567822300,10.944822265625,-3.8583388328552246,-0.7874593734741211,3.0274295806884766
1778948767584157000,10.961156982421874,-1.8611814975738525,-2.4214296340942383,2.7955257892608643
1778948767600488200,10.97748828125,-0.39562761783599854,-3.029773712158203,2.8404603004455566
1778948767616821200,10.9938212890625,-0.4363365173339844,-3.4840497970581055,3.437206745147705
1778948767633153000,11.010153076171875,-1.0979194641113281,-3.819364547729492,2.7239954471588135
1778948767649484000,11.026484130859375,-0.014802813529968262,-4.0687103271484375,-1.8086763620376587
1778948767665816300,11.04281640625,-0.3707861602306366,-3.6607513427734375,-3.5292882919311523
1778948767682149000,11.059149169921875,-0.1752721667289734,-3.6997804641723633,-2.7917490005493164
1778948767698481000,11.07548095703125,0.4116881489753723,-4.1601409912109375,-2.5835118293762207
1778948767714815000,11.09181494140625,-0.3420482277870178,-4.232132911682129,-2.5932881832122803
1778948767731158500,11.108158447265625,-0.6548582911491394,-3.658506393432617,-3.1484198570251465
1778948767747484400,11.124484375,-1.5705180168151855,-2.9397668838500977,-4.4294114112854
1778948767763826200,11.140826171875,-1.6569699048995972,-1.2384958267211914,-5.596175670623779
1778948767780136700,11.15713671875,1.2476063966751099,0.4349651336669922,-5.912980079650879
1778948767796484400,11.173484375,3.7191638946533203,2.454759120941162,-5.869105339050293
1778948767812817000,11.18981689453125,1.0011487007141113,0.8784780502319336,-3.8158698081970215
1778948767829147600,11.206147705078125,1.173007607460022,0.7557573318481445,-3.28643798828125
1778948767845480700,11.222480712890626,4.703248023986816,0.954503059387207,-2.7709500789642334
1778948767861813500,11.2388134765625,7.134620666503906,1.4627022743225098,-2.2622883319854736
1778948767878145500,11.2551455078125,5.7675676345825195,2.061079978942871,-1.7387115955352783
1778948767894463000,11.271462890625,4.085990905761719,2.2046890258789062,-1.5227766036987305
1778948767910807300,11.287807373046874,3.377685546875,2.5119104385375977,-1.4301207065582275
1778948767927139000,11.30413916015625,2.746677875518799,2.9364066123962402,-1.4521145820617676
1778948767943474200,11.32047412109375,3.6955435276031494,3.4359917640686035,-0.5491334199905396
1778948767959814100,11.336814208984375,4.18401575088501,3.779146194458008,-0.12041398882865906
1778948767976136200,11.35313623046875,3.984241008758545,4.006036758422852,0.0439266562461853
1778948767992462600,11.369462646484376,3.759026050567627,3.981973648071289,-0.12914371490478516
1778948768008799500,11.385799560546875,3.390730142593384,4.099081993103027,-0.4775078296661377
1778948768025131800,11.4021318359375,3.0361385345458984,4.649906635284424,-0.5237885117530823
1778948768041458400,11.41845849609375,2.5022947788238525,5.10243558883667,-0.15752774477005005
1778948768057763800,11.434763916015624,2.4134562015533447,5.280177593231201,0.09843821823596954
1778948768074114800,11.45111474609375,2.4435129165649414,5.055266857147217,0.2328881025314331
1778948768090446800,11.46744677734375,2.1331331729888916,3.9550085067749023,0.5922496318817139
1778948768106778400,11.4837783203125,1.4612376689910889,1.9539718627929688,0.7888883352279663
1778948768123108600,11.500108642578125,0.060723066329956055,0.04242420196533203,0.8860499262809753
1778948768139459800,11.5164599609375,-1.9345061779022217,-0.5803194046020508,1.0662246942520142
1778948768155776500,11.532776611328124,-3.70759654045105,-0.5318536758422852,1.7728755474090576
1778948768172104400,11.5491044921875,-4.494278907775879,-0.035452842712402344,2.1877434253692627
1778948768188436700,11.565436767578126,-3.13128924369812,0.35959720611572266,1.8845913410186768
1778948768204777000,11.58177685546875,-2.3921360969543457,0.5001153945922852,1.604600191116333
1778948768221116700,11.59811669921875,-2.1680641174316406,1.1058006286621094,0.4581722319126129
1778948768237443000,11.614443115234375,-3.2218313217163086,1.576930046081543,-0.7857866287231445
1778948768253782500,11.630782470703124,-4.904853820800781,-0.022457122802734375,-2.572831392288208
1778948768270112800,11.64711279296875,-7.310538291931152,-6.881381988525391,-4.631389617919922
1778948768286438700,11.663438720703125,-1.886650562286377,-8.3732328414917,-3.3681745529174805
1778948768302778000,11.679778076171875,8.907374382019043,-5.0451507568359375,-1.963493824005127
1778948768319109600,11.696109619140625,2.494645595550537,-4.801319122314453,1.9750373363494873
1778948768335422700,11.712422607421875,-4.889554977416992,-7.155296325683594,2.3615968227386475
1778948768351769000,11.72876904296875,-2.8557939529418945,-3.723245620727539,-0.13457602262496948
1778948768368107300,11.745107177734376,1.7364611625671387,-0.9674167633056641,-2.904888391494751
1778948768384437200,11.761437255859375,2.1534438133239746,-2.517144203186035,-4.425695419311523
1778948768400768800,11.777768798828125,0.7856934070587158,-4.796295166015625,-4.586438179016113
1778948768417099800,11.794099853515625,2.317934989929199,-4.330471038818359,-3.5651116371154785
1778948768433429800,11.8104296875,2.030831813812256,0.5626535415649414,-3.065229892730713
1778948768449765000,11.82676513671875,1.3436024188995361,1.9305472373962402,-1.6850221157073975
1778948768466077700,11.84307763671875,0.902134358882904,2.843372344970703,-0.20727746188640594
1778948768482414600,11.85941455078125,-0.3723655045032501,2.9631505012512207,2.381044387817383
1778948768498746000,11.87574609375,-0.6338480710983276,2.338130474090576,3.7548537254333496
1778948768515079000,11.892078857421875,-1.7042309045791626,1.2591552734375,3.327197551727295
1778948768531409700,11.90840966796875,-3.2407643795013428,1.6437559127807617,2.867924451828003
1778948768547742700,11.92474267578125,-1.941890001296997,2.779064655303955,2.9008002281188965
1778948768564072200,11.941072265625,-0.8097988367080688,3.2110037803649902,2.7384486198425293
1778948768580406500,11.957406494140624,-0.5489339232444763,3.3798317909240723,1.7972617149353027
1778948768596737500,11.973737548828124,-0.5014906525611877,3.276949882507324,0.8095410466194153
1778948768613070300,11.9900703125,-0.1296074092388153,2.6680712699890137,0.8118841052055359
1778948768629401300,12.0064013671875,0.29395925998687744,1.4925317764282227,1.1710058450698853
1778948768645736200,12.022736083984375,-1.0021812915802002,-0.09972381591796875,1.4144264459609985
1778948768662065200,12.039065185546875,-3.549152374267578,-0.8134336471557617,2.051769971847534
1778948768678398500,12.0553984375,-3.612704277038574,-0.5241403579711914,2.3741209506988525
1778948768694729500,12.0717294921875,-3.50039005279541,-2.808042526245117,2.0550169944763184
1778948768711079700,12.08807958984375,-4.788114070892334,-6.196885108947754,1.8765946626663208
1778948768727393500,12.1043935546875,-5.290197372436523,-8.86612606048584,2.0682103633880615
1778948768743738400,12.12073828125,-0.3420596122741699,-8.818779945373535,2.9463372230529785
1778948768760070000,12.13706982421875,3.965237617492676,-8.656596183776855,1.6693050861358643
1778948768776402400,12.15340234375,5.343188762664795,-8.241782188415527,-1.1122310161590576
1778948768792760300,12.16976025390625,4.795947551727295,-4.35197639465332,-3.3672847747802734
1778948768809050600,12.186050537109375,5.536973476409912,0.96295166015625,-5.629175186157227
1778948768825414000,12.202413818359375,5.205836772918701,3.638759136199951,-6.370000839233398
1778948768841731000,12.21873095703125,3.0904293060302734,5.2182416915893555,-5.29593563079834
1778948768858066200,12.235066162109375,3.5548129081726074,4.088440895080566,-2.845461368560791
1778948768874395600,12.251395751953124,4.038413047790527,4.177072525024414,-1.7296271324157715
1778948768890718500,12.267718505859374,4.221912860870361,4.517380714416504,-1.2004749774932861
1778948768907058200,12.28405810546875,4.245136260986328,4.14307165145874,-0.9763302803039551
1778948768923387000,12.300386962890625,4.003464698791504,3.1110153198242188,-1.2131246328353882
1778948768939711500,12.31671142578125,3.3380537033081055,2.032710552215576,-1.1564322710037231
1778948768956031200,12.33303125,2.6327133178710938,1.6125812530517578,-1.270758867263794
1778948768972387000,12.349386962890625,1.5055880546569824,2.057980537414551,-1.0026013851165771
1778948768988717600,12.365717529296875,0.1790907382965088,1.7368216514587402,0.6450327038764954
1778948769005050000,12.382050048828125,1.2380471229553223,1.6513738632202148,2.2580578327178955
1778948769021391600,12.3983916015625,1.4802918434143066,-0.6757421493530273,2.693051815032959
1778948769037704400,12.414704345703125,1.1061897277832031,-1.2754631042480469,2.923046350479126
1778948769054020400,12.431020263671876,0.4205869436264038,-0.4173555374145508,2.912447690963745
1778948769070364400,12.447364501953125,-1.2273151874542236,-0.6068029403686523,2.976562261581421
1778948769086693000,12.463693115234374,-3.723026990890503,-2.252669334411621,2.0191144943237305
1778948769103023600,12.480023681640626,-7.411016941070557,-2.425877571105957,0.728216290473938
1778948769119349200,12.496349365234375,-9.545236587524414,-0.5320768356323242,0.26750901341438293
1778948769135695000,12.512695068359376,-10.007707595825195,2.2212095260620117,-0.4641651213169098
1778948769152025300,12.529025390625,-8.41374683380127,2.742441177368164,-0.36999934911727905
1778948769168359000,12.54535888671875,-3.084453582763672,-0.7587337493896484,-1.6599076986312866
1778948769184686800,12.561686767578125,6.123833179473877,-3.0550079345703125,-0.1827193647623062
1778948769201040100,12.5780400390625,8.7478609085083,-1.8797407150268555,1.1334559917449951
1778948769217368600,12.59436865234375,0.8408453464508057,-2.4283132553100586,-0.15974704921245575
1778948769233699000,12.610698974609376,-2.876274347305298,-3.7674169540405273,2.187173366546631
1778948769250014000,12.627013916015626,6.1685895919799805,-1.365004539489746,3.396198034286499
1778948769266350600,12.6433505859375,1.5179595947265625,-4.3875932693481445,0.19976460933685303
1778948769282681300,12.659681396484375,-5.959530830383301,-14.799637794494629,-1.458202600479126
1778948769299014400,12.676014404296875,3.6404781341552734,-7.449267387390137,-2.7443299293518066
1778948769315344000,12.69234375,4.871180534362793,-0.78759765625,-5.099013328552246
1778948769331680000,12.708679931640624,0.6460930109024048,1.7537345886230469,-3.553513526916504
1778948769348024000,12.725024169921875,0.029317468404769897,3.1803016662597656,-2.079368829727173
1778948769364358400,12.7413583984375,0.39735522866249084,4.207514762878418,-1.5819146633148193
1778948769380686600,12.7576865234375,-1.8775556087493896,3.357999801635742,-2.475738048553467
1778948769397014300,12.77401416015625,-3.5984582901000977,0.1594524383544922,-2.5481598377227783
1778948769413351400,12.790351318359376,-1.404447317123413,-1.0470447540283203,0.7865196466445923
1778948769429685800,12.806685791015624,-0.0572797954082489,0.8718023300170898,3.7709951400756836
1778948769446013400,12.823013427734375,-1.0046415328979492,2.4142727851867676,4.726377964019775
1778948769462332200,12.839332275390625,-2.7130391597747803,2.5925188064575195,4.595104217529297
1778948769478680000,12.85568017578125,-2.6592719554901123,3.681206703186035,1.8258379697799683
1778948769495004000,12.87200390625,-1.8942608833312988,2.92987060546875,0.7945172190666199
1778948769511335700,12.888335693359375,-0.651336669921875,1.253793716430664,0.6812692284584045
1778948769527661800,12.904661865234376,-0.4943637251853943,-0.251129150390625,1.5445396900177002
1778948769543994400,12.920994384765624,-0.8507038354873657,0.24359703063964844,3.244600772857666
1778948769560327200,12.9373271484375,-2.475597381591797,0.42426204681396484,4.354986667633057
1778948769576657400,12.953657470703124,-5.354145050048828,-2.9685020446777344,3.334882974624634
1778948769592991700,12.96999169921875,-5.999527454376221,-7.375666618347168,2.5670204162597656
1778948769609322500,12.986322509765625,-1.2224743366241455,-9.982111930847168,4.137965202331543
1778948769625656300,13.00265625,3.1392385959625244,-8.299935340881348,3.501049041748047
1778948769641985000,13.018985107421875,6.18604850769043,-7.7617082595825195,0.10233104228973389
1778948769658319600,13.035319580078125,4.246130466461182,-4.463605880737305,-4.175182342529297
1778948769674651400,13.0516513671875,2.5674092769622803,-2.02030086517334,-6.682648658752441
1778948769690979300,13.067979248046875,5.77394437789917,1.8422856330871582,-6.138121604919434
1778948769707336400,13.08433642578125,5.267446517944336,2.0467605590820312,-3.846202850341797
1778948769723657500,13.100657470703124,4.178347587585449,1.2901034355163574,-2.6536788940429688
1778948769739992300,13.116992431640625,3.805830478668213,1.8779687881469727,-2.4403481483459473
1778948769756309200,13.133309326171876,3.780241012573242,3.4433889389038086,-2.550407886505127
1778948769772655900,13.14965576171875,3.6154685020446777,4.2682881355285645,-2.355534553527832
1778948769788988000,13.16598779296875,3.8725006580352783,4.272716045379639,-2.338667392730713
1778948769805330400,13.182330322265624,3.855855941772461,3.9174280166625977,-2.5634288787841797
1778948769821673200,13.198673095703125,3.9038197994232178,3.0366692543029785,-2.61016845703125
1778948769837984000,13.21498388671875,3.846348524093628,2.2621140480041504,-2.1913516521453857
1778948769854323700,13.23132373046875,3.2719688415527344,2.1241846084594727,-1.8012850284576416
1778948769870646800,13.247646728515624,1.9737122058868408,2.9948859214782715,-1.565595030784607
1778948769886982700,13.263982666015625,1.4578403234481812,3.336397171020508,-0.4971616268157959
1778948769903311000,13.28031103515625,0.919701099395752,0.8421268463134766,1.3996412754058838
1778948769919633700,13.296633544921875,0.8248216509819031,-3.412480354309082,2.1506247520446777
1778948769935976700,13.312976806640625,-0.8386168479919434,-4.814772605895996,2.336393356323242
1778948769952302600,13.329302490234374,-3.742841958999634,-5.200774192810059,3.422520637512207
1778948769968645000,13.34564501953125,-7.416749000549316,-3.1222143173217773,3.945587635040283
1778948769984960300,13.361960205078125,-8.74759292602539,0.6053094863891602,4.000634670257568
1778948770001305600,13.3783056640625,-4.507164478302002,2.5614547729492188,3.956472873687744
1778948770017622800,13.394622802734375,-2.0494418144226074,4.3175153732299805,2.89802885055542
1778948770033957000,13.41095703125,-4.144131660461426,3.035822868347168,0.9786649942398071
1778948770050289000,13.427288818359376,-3.464144468307495,-2.7757978439331055,-2.861196279525757
1778948770066620200,13.4436201171875,1.08516263961792,-3.9909658432006836,-3.3636856079101562
1778948770082953200,13.459953125,-1.7768114805221558,-4.807912826538086,-3.313673496246338
1778948770099273200,13.476273193359376,-1.7470237016677856,-6.607630729675293,-2.719371795654297
1778948770115618600,13.49261865234375,3.1080498695373535,-2.493903160095215,2.943774461746216
1778948770131950300,13.508950439453125,4.52235221862793,-1.8930673599243164,0.8315105438232422
1778948770148279800,13.52527978515625,2.1887805461883545,-6.141992568969727,-1.440813660621643
1778948770164611800,13.54161181640625,0.644890308380127,-7.990102767944336,-2.827819347381592
1778948770180946000,13.55794580078125,0.5717746019363403,-5.063239097595215,-3.408216714859009
1778948770197274000,13.574274169921875,-1.1687721014022827,-0.5779953002929688,-0.7530112862586975
1778948770213614000,13.590614013671875,0.42902296781539917,2.341731071472168,-0.7362099885940552
1778948770229940000,13.60693994140625,0.1296607255935669,3.2469968795776367,1.0040292739868164
1778948770246294800,13.623294677734375,-0.19267365336418152,1.415816307067871,1.2067019939422607
1778948770262614800,13.63961474609375,-1.2338740825653076,0.15687274932861328,0.952358067035675
1778948770278954500,13.65595458984375,-1.6332628726959229,0.3923759460449219,2.2272303104400635
1778948770295281400,13.672281494140625,-2.559389114379883,2.004304885864258,3.6702587604522705
1778948770311620400,13.688620361328125,-3.710357904434204,3.33890962600708,3.430905342102051
1778948770327948300,13.7049482421875,-2.8747758865356445,3.279235363006592,1.5919653177261353
1778948770344280600,13.721280517578125,-1.923065423965454,2.775075912475586,-0.10975346714258194
1778948770360610800,13.73761083984375,-1.9342248439788818,1.7813644409179688,-0.5590775609016418
1778948770376953300,13.753953369140625,-2.615478038787842,0.9965410232543945,0.2121231108903885
1778948770393274400,13.7702744140625,-2.5653607845306396,0.102447509765625,1.1078742742538452
1778948770409607400,13.786607421875,-2.5853593349456787,0.9170560836791992,1.794005036354065
1778948770425939200,13.802939208984375,-3.996436357498169,1.4895391464233398,2.63653302192688
1778948770442255600,13.819255615234376,-5.255980491638184,-0.4045124053955078,2.6724693775177
1778948770458593000,13.835593017578125,-3.5724663734436035,-4.193512916564941,1.782008409500122
1778948770474923800,13.851923828125,-2.522644281387329,-7.318042755126953,2.0562429428100586
1778948770491255800,13.868255859375,1.9722099304199219,-7.857186317443848,3.3095884323120117
1778948770507583000,13.8845830078125,2.479992389678955,-8.59155559539795,3.5986790657043457
1778948770523920000,13.900919921875,3.8072550296783447,-8.481630325317383,1.1484404802322388
1778948770540236500,13.917236572265624,3.4123640060424805,-2.8553857803344727,-6.561387538909912
1778948770556585500,13.93358544921875,3.9680283069610596,1.6108698844909668,-6.851383209228516
1778948770572917000,13.9499169921875,3.582223415374756,1.582106113433838,-4.954770088195801
1778948770589247700,13.966247802734374,2.58569598197937,-0.1414356231689453,-4.429784774780273
1778948770605579300,13.982579345703124,2.640728712081909,0.5151610374450684,-4.4587578773498535
1778948770621912800,13.998912841796875,2.6706180572509766,1.9734187126159668,-4.125028133392334
1778948770638244900,14.015244873046875,2.547755241394043,3.270266056060791,-3.7179596424102783
1778948770654576400,14.031576416015625,3.140308380126953,3.8293628692626953,-3.146975517272949
1778948770670895900,14.047895751953124,3.9014339447021484,4.049820899963379,-3.373842716217041
1778948770687257000,14.064257080078125,4.614899158477783,4.392932415008545,-3.6941418647766113
1778948770703570000,14.08056982421875,4.480273246765137,4.245632648468018,-3.335130453109741
1778948770719905000,14.096905029296876,4.28286075592041,3.6195907592773438,-2.4824934005737305
1778948770736236500,14.113236572265626,3.5203676223754883,2.3717055320739746,-1.915789008140564
1778948770752559900,14.129559814453126,1.613835334777832,1.032668113708496,-0.14970165491104126
1778948770768891100,14.14589111328125,0.3546445369720459,0.21495628356933594,2.0634803771972656
1778948770785233400,14.1622333984375,-0.04297471046447754,-3.1722965240478516,2.845872163772583
1778948770801568000,14.178568115234375,-3.006442070007324,-4.502560615539551,2.7143843173980713
1778948770817912300,14.194912353515624,-4.284580707550049,-2.621030807495117,2.7366974353790283
1778948770834231600,14.2112314453125,-5.827413082122803,-0.8837814331054688,3.1839394569396973
1778948770850576400,14.227576416015625,-7.778127670288086,-0.26078224182128906,4.7531890869140625
1778948770866902300,14.24390234375,-7.341710567474365,-1.1103439331054688,3.7022194862365723
1778948770883227400,14.260227294921876,-7.326156139373779,-2.0482683181762695,2.160654067993164
1778948770899545600,14.276545654296875,-13.78613567352295,-5.462536811828613,2.658052921295166
1778948770915892700,14.292892822265625,-2.239713430404663,-6.771456718444824,1.8295358419418335
1778948770932223500,14.309223388671874,6.54834508895874,-4.697818756103516,0.09088489413261414
1778948770948555300,14.32555517578125,6.779463291168213,-2.784724235534668,-2.469132661819458
1778948770964888300,14.341888427734375,3.823685884475708,-2.8053340911865234,-4.15286111831665
1778948770981235700,14.358235595703125,-2.9585587978363037,-2.4831933975219727,-5.920594215393066
1778948770997536500,14.37453662109375,-1.4634418487548828,-4.957937240600586,-5.993224143981934
1778948771013883000,14.3908828125,4.694797039031982,-6.1186723709106445,-6.317460536956787
1778948771030213000,14.407213134765625,4.9225568771362305,-2.7886619567871094,-6.489953517913818
1778948771046549800,14.4235498046875,4.384946823120117,-0.3375511169433594,-6.3068318367004395
1778948771062880800,14.439880859375,3.824712038040161,-0.3272848129272461,-5.246706962585449
1778948771079212300,14.45621240234375,2.706368923187256,-1.8140687942504883,-3.8354811668395996
1778948771095545000,14.472545166015625,3.292215585708618,-1.2838125228881836,-2.867318630218506
1778948771111875000,14.488875,3.272918462753296,-1.102269172668457,-2.525777816772461
1778948771128209700,14.505209716796875,8.50655460357666,-0.8355016708374023,-2.427096128463745
1778948771144540700,14.521540771484375,5.168895721435547,-0.5152349472045898,-1.7329511642456055
1778948771160861000,14.53786083984375,2.6884474754333496,0.5906820297241211,-2.1122140884399414
1778948771177220400,14.554220458984375,1.3171372413635254,1.5869684219360352,-1.5852371454238892
1778948771193552400,14.570552490234375,1.1103947162628174,2.049142360687256,-1.1288210153579712
1778948771209865000,14.586864990234375,0.18563520908355713,1.4330358505249023,-0.29202643036842346
1778948771226201000,14.603201171875,-0.8618161082267761,0.5675859451293945,0.869225800037384
1778948771242531800,14.61953173828125,-0.9330849051475525,0.4603586196899414,2.045163154602051
1778948771258867500,14.635867431640625,-0.3542897701263428,0.5788068771362305,3.0529611110687256
1778948771275197200,14.652197265625,-0.007734537124633789,1.2413396835327148,4.177319526672363
1778948771291530800,14.66853076171875,0.007335662841796875,2.0594472885131836,5.384679794311523
1778948771307879700,14.684879638671875,-0.07381725311279297,2.179227828979492,5.920607089996338
1778948771324206600,14.70120654296875,-0.7443749904632568,1.5197906494140625,5.815518856048584
1778948771340545000,14.717544921875,-1.195565938949585,0.5465288162231445,5.681528568267822
1778948771356871700,14.73387158203125,-1.5009137392044067,-0.24353790283203125,5.580266952514648
1778948771373202000,14.750201904296874,-1.8831173181533813,-0.35120296478271484,4.734381198883057
1778948771389546000,14.7665458984375,-2.46372652053833,0.17234230041503906,4.010190963745117
1778948771405862100,14.782862060546876,-2.5469303131103516,0.4160451889038086,3.344292402267456
1778948771422187800,14.799187744140625,-2.3601126670837402,-0.1418914794921875,2.5056920051574707
1778948771438528500,14.815528564453125,-2.6173181533813477,-0.9434728622436523,2.0571634769439697
1778948771454867000,14.831866943359374,-3.9863405227661133,-1.102254867553711,1.8036291599273682
1778948771471180500,14.8481806640625,-5.504546165466309,-1.2672224044799805,1.3676540851593018
1778948771487517400,14.864517333984375,-6.143023490905762,-1.7560615539550781,1.13406240940094
1778948771503826200,14.880826171875,-4.669283866882324,-0.8818264007568359,1.2053132057189941
1778948771520182000,14.89718212890625,-3.2578182220458984,-1.198141098022461,2.1648378372192383
1778948771536511700,14.91351171875,-1.8819435834884644,-1.9513864517211914,2.627312660217285
1778948771552845600,14.929845458984374,-1.849493384361267,-2.3445959091186523,2.746473550796509
1778948771569166300,14.946166259765626,-2.4617269039154053,-2.776747703552246,2.362708330154419
1778948771585510700,14.9625107421875,-3.18239164352417,-2.3877477645874023,1.6427178382873535
1778948771601843000,14.978843017578125,-3.207277297973633,-1.1605587005615234,-0.5617237687110901
1778948771618173200,14.995173095703125,-1.4498004913330078,-1.1362037658691406,-2.7300195693969727
1778948771634503700,15.011503662109375,1.7519571781158447,-3.063516616821289,-2.5888051986694336
1778948771650838800,15.0278388671875,4.336431503295898,-5.379798889160156,-3.902337074279785
1778948771667166700,15.044166748046875,3.077399492263794,-6.544759750366211,-5.1480841636657715
1778948771683524600,15.060524658203125,1.8831970691680908,-4.744013786315918,-6.722359657287598
1778948771699836700,15.076836669921875,-1.1435407400131226,-1.5134201049804688,-7.531588554382324
1778948771716175600,15.093175537109374,-1.8534350395202637,-1.1293392181396484,-6.627890586853027
1778948771732485600,15.109485595703125,0.5964641571044922,-1.4504146575927734,-3.9530959129333496
1778948771748846600,15.1258466796875,1.6105831861495972,-0.0427398681640625,-2.440307378768921
1778948771765175600,15.142175537109376,1.3326109647750854,1.2680139541625977,-2.108480930328369
1778948771781510700,15.1585107421875,2.532745361328125,0.8941555023193359,-1.2983003854751587
1778948771797809200,15.17480908203125,3.0382094383239746,0.7875547409057617,-1.4868412017822266
1778948771814161000,15.191160888671876,2.69034743309021,0.8065977096557617,-1.7927358150482178
1778948771830492000,15.207491943359376,3.022836446762085,0.45763683319091797,-1.7234585285186768
1778948771846821000,15.223821044921875,2.9722800254821777,0.6793117523193359,-1.825859546661377
1778948771863157000,15.240156982421874,3.304666042327881,1.2849078178405762,-2.424819231033325
1778948771879480600,15.25648046875,4.128052234649658,1.847102165222168,-3.427518606185913
1778948771895818200,15.272818359375,4.401058673858643,2.393376350402832,-4.132518768310547
1778948771912172300,15.28917236328125,4.071877956390381,2.8826522827148438,-3.1843550205230713
1778948771928493800,15.305493896484375,3.3780717849731445,2.9042229652404785,-1.5179286003112793
1778948771944836000,15.321836181640625,3.0748987197875977,2.5051231384277344,-0.20118212699890137
1778948771961163000,15.3381630859375,2.654700756072998,1.775303840637207,0.612030029296875
1778948771977480000,15.35447998046875,1.9774821996688843,0.8722639083862305,1.7454428672790527
1778948771993814800,15.370814697265626,0.8348879814147949,0.7532510757446289,2.052924394607544
1778948772010142500,15.387142578125,0.5732076168060303,1.1737403869628906,1.3684555292129517
1778948772026478000,15.40347802734375,1.1653965711593628,1.124506950378418,0.40073490142822266
1778948772042814700,15.419814697265625,1.453101634979248,0.9591646194458008,0.11069681495428085
1778948772059143400,15.436143310546875,1.5465033054351807,1.0741815567016602,-0.12715059518814087
1778948772075473200,15.45247314453125,1.3455551862716675,0.9128608703613281,-0.3452197313308716
1778948772091809300,15.468809326171876,1.0678726434707642,0.4811239242553711,-0.41963398456573486
1778948772108135200,15.48513525390625,0.26516592502593994,0.34131717681884766,-0.5947265625
1778948772124472300,15.501472412109376,-1.1175791025161743,0.6025686264038086,-0.4101558029651642
1778948772140803600,15.517803466796876,-1.9916844367980957,1.2703742980957031,0.24509656429290771
1778948772157134000,15.534134033203125,-2.3213095664978027,1.6656513214111328,0.7461240887641907
1778948772173484000,15.550484130859376,-2.587468147277832,1.9382743835449219,0.8957058191299438
1778948772189819000,15.56681884765625,-2.4042084217071533,1.894972324371338,1.0255738496780396
1778948772206149400,15.5831494140625,-1.8168363571166992,1.7132596969604492,0.979008674621582
1778948772222462200,15.599462158203124,-1.4778627157211304,1.7612619400024414,0.9115086197853088
1778948772238798800,15.615798828125,-1.3663947582244873,2.247859477996826,1.029494285583496
1778948772255129000,15.632129150390625,-1.5413432121276855,2.5151543617248535,1.0545119047164917
1778948772271462000,15.6484619140625,-1.5241172313690186,2.9097180366516113,1.039546012878418
1778948772287794200,15.664794189453126,-1.1491361856460571,2.761216640472412,1.289279580116272
1778948772304124400,15.68112451171875,-0.6104086637496948,2.651625156402588,1.0475854873657227
1778948772320464000,15.6974638671875,-0.8939316272735596,0.7212963104248047,-0.19515350461006165
1778948772336803800,15.713803955078125,-1.9801005125045776,-3.5098419189453125,-2.118321180343628
1778948772353136400,15.730136474609376,-4.47165584564209,-9.327740669250488,-3.317196846008301
1778948772369453300,15.746453369140625,1.0396723747253418,-8.533337593078613,-2.2221789360046387
1778948772385801700,15.7628017578125,5.01104211807251,-3.4462108612060547,1.597009539604187
1778948772402133000,15.779133056640624,1.359570860862732,-2.036935806274414,2.3523261547088623
1778948772418467300,15.79546728515625,-3.1790289878845215,-1.6340723037719727,1.004281997680664
1778948772434787600,15.81178759765625,0.5828830003738403,-1.7009696960449219,-0.0799461305141449
1778948772451130400,15.82813037109375,2.3811886310577393,-1.8584461212158203,-0.9772045612335205
1778948772467448000,15.844447998046874,0.3490709960460663,-2.981050491333008,-2.2166683673858643
1778948772483780600,15.860780517578124,-1.3164803981781006,-3.9452524185180664,-2.441615104675293
1778948772500114000,15.877114013671875,0.4806274175643921,-3.4561052322387695,-0.9711031913757324
1778948772516432000,15.893431884765626,1.18064284324646,-0.9421710968017578,-0.8496620655059814
1778948772532778000,15.909778076171875,0.9565131664276123,0.9893684387207031,-1.2156788110733032
1778948772549110000,15.926110107421875,1.4811307191848755,2.0989742279052734,-1.112338900566101
1778948772565442800,15.94244287109375,1.8726420402526855,2.6128039360046387,-0.41919225454330444
1778948772581774300,15.9587744140625,1.478650450706482,2.7304558753967285,0.3596962094306946
1778948772598105900,15.97510595703125,-0.0062767863273620605,1.6775646209716797,1.1167048215866089
1778948772614438400,15.9914384765625,-2.839987277984619,-0.38493824005126953,2.828508138656616
1778948772630773500,16.0077734375,-3.9088714122772217,-0.5242910385131836,4.6137166023254395
1778948772647101700,16.024101806640626,-2.5335731506347656,1.7230119705200195,3.4778246879577637
1778948772663454200,16.0404541015625,-0.8084343075752258,3.214958667755127,2.1291277408599854
1778948772679819800,16.05681982421875,-0.1930496096611023,3.5395631790161133,1.78866446018219
1778948772696098300,16.073098388671873,-0.8839962482452393,3.5968289375305176,0.8536635041236877
1778948772712449300,16.08944921875,-0.4723867177963257,3.5860443115234375,-0.1510084867477417
1778948772728784100,16.1057841796875,0.3836154341697693,2.1991195678710938,-0.48848479986190796
1778948772745110300,16.1221103515625,1.577785849571228,0.5613651275634766,-0.3404686748981476
1778948772761441500,16.138441650390625,1.5757355690002441,0.49150848388671875,0.6780023574829102
1778948772777758200,16.15475830078125,0.5094225406646729,0.8795185089111328,3.5236318111419678
1778948772794077200,16.1710771484375,-3.7398905754089355,-0.18432044982910156,5.587442398071289
1778948772810428400,16.187428466796874,-9.332074165344238,-4.714470863342285,5.539459228515625
1778948772826756000,16.203756103515627,-8.239533424377441,-11.369916915893555,3.911233901977539
1778948772843090000,16.22008984375,-5.752375602722168,-13.651199340820312,1.5425323247909546
1778948772859402200,16.23640234375,0.384000301361084,-11.07302474975586,-0.49582546949386597
1778948772875764700,16.2527646484375,7.907355785369873,-9.836981773376465,-0.8684338331222534
1778948772892096300,16.26909619140625,9.684016227722168,-4.670344352722168,-2.3225440979003906
1778948772908438000,16.28543798828125,7.033980369567871,0.723747730255127,-5.118988037109375
1778948772924760800,16.3017607421875,3.9861295223236084,3.5614914894104004,-7.018740653991699
1778948772941101600,16.3181015625,2.8416035175323486,3.263571262359619,-5.28411865234375
1778948772957413600,16.33441357421875,2.6485581398010254,1.2312898635864258,-2.608344554901123
1778948772973747000,16.350746826171875,2.8697781562805176,1.7062830924987793,-1.2355414628982544
1778948772990081000,16.3670810546875,3.856600046157837,3.0742526054382324,-0.32184791564941406
1778948773006410800,16.38341064453125,4.419613838195801,4.435989856719971,0.9661944508552551
1778948773022745300,16.399745361328126,4.186142444610596,5.1259355545043945,1.6182198524475098
1778948773039075800,16.416075927734376,4.0005784034729,4.639204502105713,1.5547692775726318
1778948773055407900,16.432407958984374,4.230329513549805,4.4133806228637695,1.1562553644180298
1778948773071743200,16.4487431640625,3.9045612812042236,4.543438911437988,1.052067518234253
1778948773088072000,16.465072021484374,3.8299427032470703,4.982860565185547,1.3889784812927246
1778948773104406500,16.481406494140625,3.6759419441223145,5.853544235229492,1.5594571828842163
1778948773120742100,16.4977421875,3.0286664962768555,7.2751054763793945,1.64503812789917
1778948773137070300,16.5140703125,2.8227930068969727,6.268056869506836,1.5545527935028076
1778948773153403400,16.5304033203125,-0.3808016777038574,1.552032470703125,2.855614423751831
1778948773169735200,16.546735107421874,-3.1883366107940674,-4.387168884277344,2.5511646270751953
1778948773186066400,16.56306640625,-5.409095287322998,-6.576872825622559,0.6034296751022339
1778948773202414600,16.57941455078125,-4.633648872375488,-7.424553871154785,0.44159597158432007
1778948773218745300,16.595745361328124,-2.8743979930877686,-4.284040451049805,0.7501122355461121
1778948773235075300,16.612075439453125,-0.6654589176177979,-0.5173931121826172,-0.8655471801757812
1778948773251409400,16.628409423828124,-0.31845784187316895,1.7089848518371582,-3.4898502826690674
1778948773267738400,16.64473828125,2.8033947944641113,0.7464370727539062,-5.631049156188965
1778948773284075500,16.661075439453125,5.6088643074035645,-6.328042984008789,-6.678431987762451
1778948773300390700,16.677390625,-0.696327805519104,-12.806695938110352,-8.850589752197266
1778948773316723200,16.69372314453125,-8.745535850524902,-5.866462707519531,-11.32650375366211
1778948773333066500,16.71006640625,-4.6020917892456055,-4.933155059814453,0.5316822528839111
1778948773349391600,16.7263916015625,3.702571392059326,-4.342325210571289,5.686278820037842
1778948773365713400,16.74271337890625,8.481443405151367,-0.6432933807373047,4.862002849578857
1778948773382053400,16.759053466796875,3.058090925216675,-0.2301311492919922,1.689401626586914
1778948773398400800,16.77540087890625,-5.289836883544922,-2.846220016479492,-0.09929114580154419
1778948773414711000,16.7917109375,-0.6893796920776367,-5.232753753662109,2.303624391555786
1778948773431052800,16.808052734375,0.5277533531188965,-2.716276168823242,-0.5163388252258301
1778948773447383600,16.824383544921876,2.142664909362793,0.3810310363769531,-2.940385103225708
1778948773463705900,16.840705810546876,4.5897417068481445,1.281041145324707,-3.468318462371826
1778948773480047000,16.857047119140624,4.100220680236816,1.156519889831543,-1.2255096435546875
1778948773496379000,16.87337890625,2.7709410190582275,1.1913375854492188,-0.17495957016944885
1778948773512713700,16.889713623046877,0.6022782325744629,-0.24757862091064453,-0.40451788902282715
1778948773529042400,16.90604248046875,-0.646028995513916,-1.3898382186889648,-0.504059910774231
1778948773545380900,16.922380859375,-0.4888126850128174,-1.4071731567382812,-0.05014415085315704
1778948773561711400,16.93871142578125,-0.012862443923950195,-0.28350353240966797,-0.5426523685455322
1778948773578042000,16.9550419921875,-0.7092938423156738,1.1604928970336914,-1.508882999420166
1778948773594373000,16.971373046875,-0.5818517208099365,1.7806029319763184,-1.4982579946517944
1778948773610705200,16.987705078125,-0.005240678787231445,1.8180384635925293,-0.6555142402648926
1778948773627021600,17.004021484375,0.32423830032348633,2.274585723876953,0.524018406867981
1778948773643373300,17.020373291015623,-0.6974642276763916,2.7442545890808105,0.822687566280365
1778948773659693000,17.036693115234375,-1.6915745735168457,2.5407094955444336,1.0235083103179932
1778948773676053200,17.05305322265625,-1.5889132022857666,1.7060694694519043,1.3971142768859863
1778948773692347400,17.069347412109376,-1.8934812545776367,0.656123161315918,1.457416296005249
1778948773708712200,17.085712158203126,-1.681962013244629,-0.034417152404785156,1.3612060546875
1778948773725012200,17.10201220703125,-1.6157455444335938,-0.5096759796142578,1.2571905851364136
1778948773741351700,17.1183515625,0.18368864059448242,0.3444938659667969,1.3476115465164185
1778948773757701600,17.13470166015625,1.9839335680007935,2.503469467163086,1.2228658199310303
1778948773774028800,17.15102880859375,1.9779061079025269,4.138638496398926,0.8406507968902588
1778948773790363600,17.16736376953125,1.6996084451675415,3.212254047393799,0.6525088548660278
1778948773806692600,17.183692626953125,0.1054224967956543,0.7565164566040039,0.7098580598831177
1778948773823022300,17.200022216796874,-1.0979979038238525,-0.7685937881469727,0.8132539987564087
1778948773839361800,17.21636181640625,-1.858572244644165,-0.33574771881103516,0.5091445446014404
1778948773855736300,17.232736328125,-3.926039457321167,0.5427064895629883,-0.3004533648490906
1778948773872026600,17.249026611328127,-4.897488594055176,0.38582897186279297,-0.4868212342262268
1778948773888351200,17.265351318359375,-2.9505228996276855,-1.191044807434082,-0.13119369745254517
1778948773904687000,17.28168701171875,-4.378956317901611,-5.310506820678711,-1.1717371940612793
1778948773921018600,17.2980185546875,-3.8600692749023438,-9.375616073608398,-1.7688233852386475
1778948773937352000,17.31435205078125,0.5260772705078125,-9.650979995727539,-0.4174623489379883
1778948773953683000,17.330682861328125,1.9381449222564697,-7.138072967529297,2.0946717262268066
1778948773970016300,17.347016357421875,3.001603126525879,-5.008419036865234,1.5226469039916992
1778948773986349300,17.363349365234374,3.0612404346466064,-1.5903873443603516,-0.9493765830993652
1778948774002678500,17.379678466796875,3.4539241790771484,1.368342399597168,-2.407264232635498
1778948774019012900,17.396012939453126,3.9085466861724854,3.9166505336761475,-1.33836030960083
1778948774035357400,17.412357421875,2.3124561309814453,4.716642379760742,0.05935865640640259
1778948774051678000,17.428677978515626,1.0594587326049805,4.016448497772217,0.5428398847579956
1778948774068009700,17.445009765625,1.2964797019958496,2.9403295516967773,0.40350764989852905
1778948774084341800,17.461341796875,1.9430232048034668,2.879223346710205,-0.33798038959503174
1778948774100673300,17.47767333984375,2.338125228881836,3.2362143993377686,-1.891279935836792
1778948774117005800,17.494005859375,3.156003952026367,3.5618832111358643,-2.579390048980713
1778948774133339400,17.51033935546875,3.536424398422241,3.82478666305542,-1.646681547164917
1778948774149686300,17.526686279296875,3.7648088932037354,4.093684196472168,-0.3468010425567627
1778948774166015500,17.543015380859377,4.210451126098633,4.197644233703613,0.8783825635910034
1778948774182331400,17.559331298828123,3.9359025955200195,4.533086776733398,1.8419289588928223
1778948774198668300,17.575668212890626,2.741063117980957,5.246284484863281,1.9546539783477783
1778948774215000000,17.592,0.344240665435791,6.244290828704834,2.207902431488037
1778948774231332600,17.60833251953125,-0.5371890068054199,4.935049533843994,3.916236400604248
1778948774247662600,17.62466259765625,-0.2975900173187256,0.4051704406738281,5.389835357666016
1778948774263999000,17.6409990234375,-0.701981782913208,-1.2720537185668945,6.57698392868042
1778948774280332300,17.657332275390626,-1.1551525592803955,-0.2568778991699219,7.022665500640869
1778948774296674300,17.67367431640625,-1.5683753490447998,-1.3526134490966797,4.671080112457275
1778948774313006000,17.690006103515625,-1.4068751335144043,-3.2542476654052734,2.0531222820281982
1778948774329339600,17.706339599609375,-0.09590280055999756,-3.9051990509033203,-0.7208486795425415
1778948774345671200,17.722671142578125,-5.767966270446777,-3.369617462158203,-4.239302158355713
1778948774361983200,17.738983154296875,-9.164679527282715,-1.2216224670410156,-7.993276119232178
1778948774378322700,17.75532275390625,-1.217675805091858,-2.2287635803222656,-10.120516777038574
1778948774394657000,17.771656982421874,8.265890121459961,-8.155416488647461,-14.472221374511719
1778948774410985700,17.78798583984375,6.444242000579834,-2.400094985961914,-7.670521259307861
1778948774427319600,17.804319580078126,-7.394094467163086,-2.9137935638427734,0.47594499588012695
1778948774443649300,17.820649169921875,-9.806869506835938,-7.985654830932617,4.771268367767334
1778948774459971600,17.8369716796875,11.04808521270752,-5.276561737060547,9.401244163513184
1778948774476315000,17.85331494140625,10.074153900146484,-1.7312088012695312,7.142147541046143
1778948774492650000,17.86964990234375,4.165759563446045,-1.6676435470581055,1.963127851486206
1778948774508979000,17.88597900390625,2.678866386413574,-0.055275917053222656,0.13183137774467468
1778948774525314000,17.90231396484375,4.652597904205322,0.5706071853637695,-0.4034178853034973
1778948774541647600,17.918647705078126,4.471105098724365,1.129526138305664,-0.7032458186149597
1778948774557976800,17.934976806640623,1.401268482208252,0.3106842041015625,-0.464129239320755
1778948774574308900,17.951308837890625,-1.4500739574432373,-1.3499469757080078,-0.006585276685655117
1778948774590649000,17.967649169921874,-2.0660479068756104,-1.2451047897338867,-0.05818457156419754
1778948774606972200,17.98397216796875,-0.29279911518096924,0.21221256256103516,-1.166865587234497
1778948774623308800,18.000308837890625,0.01773655414581299,1.7608323097229004,-1.663968801498413
1778948774639639000,18.01663916015625,-1.56049644947052,2.184330463409424,-0.4939553141593933
1778948774655985400,18.0329853515625,-1.4198668003082275,3.223757266998291,0.04850253462791443
1778948774672315600,18.049315673828126,-1.1088911294937134,3.952831745147705,0.40973734855651855
1778948774688649200,18.065649169921876,-1.4200656414031982,3.176969051361084,0.49252620339393616
1778948774704964900,18.08196484375,-1.790662407875061,2.944580554962158,1.0647387504577637
1778948774721315800,18.09831591796875,-2.137627363204956,1.727309226989746,1.561644434928894
1778948774737643000,18.11464306640625,-3.2729668617248535,0.23686504364013672,1.6790492534637451
1778948774753963800,18.1309638671875,-4.291621685028076,-0.23023319244384766,1.3183842897415161
1778948774770297600,18.147297607421876,-3.0416083335876465,0.6940250396728516,1.8153245449066162
1778948774786630000,18.1636298828125,-1.2960952520370483,0.7037591934204102,2.9510436058044434
1778948774802961200,18.179961181640625,-2.1712827682495117,-1.5860157012939453,3.109990119934082
1778948774819294700,18.196294677734375,-3.9375178813934326,-6.155326843261719,1.0728192329406738
1778948774835627300,18.212627197265626,-0.8499281406402588,-10.48784065246582,-1.555983543395996
1778948774851973600,18.2289736328125,0.9538853168487549,-10.738905906677246,-3.8071470260620117
1778948774868290600,18.24529052734375,3.1185359954833984,-9.41323471069336,-3.6621577739715576
1778948774884637000,18.261636962890623,5.9955339431762695,-5.9167280197143555,-3.9053523540496826
1778948774900967700,18.2779677734375,3.453007459640503,-2.4268131256103516,-5.6747846603393555
1778948774917286100,18.2942861328125,3.3947458267211914,-1.6205015182495117,-7.224959850311279
1778948774933621200,18.310621337890623,3.5442566871643066,0.8582501411437988,-6.588326930999756
1778948774949952000,18.326951904296877,5.17131233215332,3.2068424224853516,-4.509230613708496
1778948774966286600,18.34328662109375,5.429651260375977,5.461882591247559,-2.8977742195129395
1778948774982618400,18.359618408203126,5.49802303314209,7.347268581390381,-1.0999865531921387
1778948774998946600,18.375946533203123,6.050410270690918,8.212593078613281,-0.23094388842582703
1778948775015262500,18.392262451171874,6.011003494262695,8.549217224121094,0.018881380558013916
1778948775031619600,18.40861962890625,5.077402114868164,8.277408599853516,-0.44614583253860474
1778948775047946500,18.424946533203126,3.845357894897461,7.518838882446289,-1.1120134592056274
1778948775064279000,18.441279052734377,3.0337610244750977,6.85063362121582,-0.8718841671943665
1778948775080609800,18.45760986328125,3.252194404602051,2.2082557678222656,-0.9345154166221619
1778948775096943600,18.473943603515625,0.9798222780227661,-7.425689697265625,-1.8344531059265137
1778948775113262600,18.4902626953125,0.7968399524688721,-7.575556755065918,-0.030038967728614807
1778948775129624000,18.5066240234375,1.07123601436615,-5.759856224060059,2.139773368835449
1778948775145952000,18.522951904296875,-3.6575586795806885,-2.549330711364746,5.908671855926514
1778948775162284500,18.539284423828125,-3.257784128189087,1.7415351867675781,9.451395988464355
1778948775178630100,18.555630126953126,-10.009872436523438,3.4444451332092285,9.357880592346191
1778948775194956500,18.57195654296875,-13.671293258666992,4.6420392990112305,6.580199718475342
1778948775211281400,18.588281494140624,-6.946081161499023,3.166163444519043,-0.15262141823768616
1778948775227598800,18.604598876953126,5.074949264526367,-1.358565330505371,-3.7712154388427734
1778948775243934000,18.620933837890625,2.7010750770568848,-12.231484413146973,-6.863882064819336
1778948775260267000,18.63726708984375,-2.8390040397644043,-14.525925636291504,-7.309118747711182
1778948775276597000,18.653596923828125,2.7329578399658203,-1.5255708694458008,-6.376199245452881
1778948775292920600,18.669920654296874,7.362795829772949,-1.2147836685180664,-7.436714172363281
1778948775309263400,18.686263427734374,0.19022297859191895,-7.172369956970215,-5.621313095092773
1778948775325598500,18.702598388671873,-2.7751452922821045,-6.620182991027832,-0.5450572967529297
1778948775341939000,18.71893896484375,0.9874324798583984,-1.1847848892211914,-0.8142485618591309
1778948775358269700,18.735269775390623,0.6483526229858398,0.8031415939331055,0.3671111464500427
1778948775374589400,18.75158935546875,0.46051025390625,1.227107048034668,1.2466106414794922
1778948775390935300,18.767935302734376,-1.7538838386535645,0.5382614135742188,0.7135515809059143
1778948775407257900,18.7842578125,-3.580686569213867,-0.6888446807861328,-1.4465563297271729
1778948775423585500,18.80058544921875,-2.089992046356201,-1.7384767532348633,-2.1088500022888184
1778948775439922000,18.816921875,0.6239899396896362,-0.5692405700683594,0.7489234805107117
1778948775456238800,18.83323876953125,-0.5484299659729004,2.104564666748047,4.541319370269775
1778948775472584200,18.849584228515624,-5.525688648223877,1.6801862716674805,5.485224723815918
1778948775488919000,18.8659189453125,-6.2226362228393555,1.740499496459961,2.843515396118164
1778948775505250600,18.88225048828125,-4.335495471954346,3.409684181213379,-1.1235586404800415
1778948775521569500,18.898569580078124,-7.002181053161621,2.4073944091796875,-1.4802660942077637
1778948775537915600,18.91491552734375,-2.8513004779815674,2.3193812370300293,0.6158999800682068
1778948775554247200,18.9312470703125,-2.7186362743377686,1.729344367980957,3.0617055892944336
1778948775570577200,18.9475771484375,-3.4987971782684326,-1.619816780090332,0.1561512053012848
1778948775586917400,18.96391748046875,-2.408193588256836,-5.536964416503906,-1.5167155265808105
1778948775603239200,18.9802392578125,1.6925655603408813,-6.718602180480957,-1.5922515392303467
1778948775619566800,18.99656689453125,7.006707191467285,-10.430643081665039,-3.2296934127807617
1778948775635922200,19.012922119140626,3.1380410194396973,-11.730420112609863,-4.134247779846191
1778948775652250600,19.029250732421875,0.8404009342193604,-11.176608085632324,-4.860816955566406
1778948775668587300,19.045587158203126,-1.4837646484375,-9.09016227722168,-3.7956724166870117
1778948775684923100,19.061923095703126,0.5105679035186768,-6.643630027770996,-3.7681632041931152
1778948775701252600,19.078252685546875,-0.37399864196777344,-4.194637298583984,-6.192956447601318
1778948775717567200,19.094567138671874,2.2410473823547363,-3.7069215774536133,-6.868651866912842
1778948775733911000,19.1109111328125,3.6183576583862305,-1.005263328552246,-4.769784927368164
1778948775750249200,19.127249267578126,2.538806915283203,0.16626358032226562,-2.6397690773010254
1778948775766586400,19.14358642578125,3.18498158454895,1.5630683898925781,-1.2110432386398315
1778948775782910700,19.15991064453125,4.681840896606445,2.670461654663086,-0.9386734962463379
1778948775799251700,19.176251708984374,5.4357733726501465,4.446098327636719,-1.5543193817138672
1778948775815561500,19.1925615234375,5.369054794311523,6.10744047164917,-1.7301669120788574
1778948775831896800,19.208896728515626,5.462628364562988,7.520092010498047,-1.8850336074829102
1778948775848237600,19.225237548828126,4.939714431762695,8.261573791503906,-1.2159696817398071
1778948775864564700,19.241564697265623,2.676413059234619,8.10424518585205,0.3491458296775818
1778948775880881000,19.257880859375,2.3232147693634033,6.834172248840332,2.1050710678100586
1778948775897224200,19.27422412109375,0.4106152057647705,4.709603309631348,3.0906031131744385
1778948775913573000,19.290572998046876,-3.191093921661377,0.06469154357910156,2.7904224395751953
1778948775929889000,19.306888916015627,-13.524308204650879,-7.3690595626831055,4.526385307312012
1778948775946221000,19.323220947265625,-11.4974365234375,-7.933194160461426,10.141321182250977
1778948775962555000,19.339554931640624,-2.6527998447418213,0.24036884307861328,4.754979133605957
1778948775978886000,19.355885986328126,-1.2415351867675781,-3.777888298034668,0.4120551347732544
1778948775995219200,19.37221923828125,-11.2287015914917,-17.579526901245117,-2.7946455478668213
1778948776011550000,19.388550048828126,-2.6814417839050293,-16.829748153686523,-6.025951385498047
1778948776027873000,19.404873046875,6.578001022338867,0.07088947296142578,-7.079477310180664
1778948776044203500,19.42120361328125,5.252035140991211,4.962136745452881,-7.585574150085449
1778948776060551400,19.437551513671874,2.057154655456543,7.613386154174805,-6.5065226554870605
1778948776076878800,19.45387890625,6.275041580200195,5.206512451171875,-5.597288608551025
1778948776093213400,19.47021337890625,9.112543106079102,1.3026409149169922,-6.398322582244873
1778948776109532000,19.486531982421877,9.966362953186035,-1.3237781524658203,-7.781973361968994
1778948776125876000,19.5028759765625,7.081127643585205,-5.025668144226074,-6.507309913635254
1778948776142226700,19.519226806640624,3.454155206680298,-4.6968841552734375,-5.231027126312256
1778948776158556200,19.53555615234375,1.1844490766525269,-3.7036895751953125,-2.5731983184814453
1778948776174886400,19.551886474609375,1.833399772644043,-0.7380123138427734,-0.44956880807876587
1778948776191220200,19.56822021484375,2.27772855758667,2.6089329719543457,1.3696870803833008
1778948776207552800,19.584552734375,0.9930981397628784,3.624509811401367,3.494309425354004
1778948776223874300,19.600874267578124,1.958173394203186,2.227661609649658,4.485509872436523
1778948776240215800,19.6172158203125,-0.8672332763671875,1.857421875,3.7995898723602295
1778948776256550700,19.633550537109375,-2.7638001441955566,1.2395439147949219,3.182760238647461
1778948776272877800,19.6498779296875,-3.711867332458496,0.2440481185913086,3.0663363933563232
1778948776289199400,19.666199462890624,-3.2953736782073975,-0.6564254760742188,3.0682477951049805
1778948776305517800,19.682517822265623,-2.6511943340301514,-0.8864002227783203,3.124284267425537
1778948776321875500,19.69887548828125,-1.998333215713501,-0.6673431396484375,3.1168928146362305
1778948776338213600,19.715213623046875,-1.4595996141433716,-0.36632633209228516,2.8178493976593018
1778948776354527200,19.73152734375,-1.8591033220291138,-0.36694812774658203,2.677614212036133
1778948776370873300,19.747873291015626,-2.6125710010528564,-0.4537067413330078,3.057494878768921
1778948776387194600,19.764194580078126,-2.870560884475708,-0.6881227493286133,3.1335363388061523
1778948776403510300,19.78051025390625,-2.559603452682495,-0.027727127075195312,1.5829099416732788
1778948776419857200,19.796857177734374,-2.403433084487915,-0.45086097717285156,1.05006742477417
1778948776436191500,19.81319140625,-1.7375662326812744,-1.0053377151489258,0.6110101342201233
1778948776452522800,19.829522705078126,-1.820540189743042,-1.5400667190551758,0.2795199453830719
1778948776468855300,19.845855224609377,-2.3079986572265625,-1.9171838760375977,0.016213327646255493
1778948776485187800,19.862187744140623,-2.252429485321045,-1.863180160522461,-0.21803343296051025
1778948776501521000,19.87852099609375,-2.067866802215576,-1.4785270690917969,-0.3665490746498108
1778948776550504200,19.927504150390625,-2.657468795776367,-3.40311336517334,1.174505591392517
1778948776566848500,19.9438486328125,-4.100114822387695,-3.5680179595947266,2.0577821731567383
1778948776583178800,19.9601787109375,-8.388826370239258,-2.8795576095581055,1.614333152770996
1778948776599501300,19.976501220703124,-12.185914039611816,-2.848112106323242,-1.1311382055282593
1778948776615843600,19.992843505859376,-13.496655464172363,-1.660019874572754,-8.847428321838379
1778948776632177400,20.009177490234375,-7.250066757202148,-4.275053977966309,-13.515621185302734
1778948776648510000,20.025510009765625,3.547577381134033,-10.570232391357422,-1.4710958003997803
1778948776664842200,20.04184228515625,11.243371963500977,-4.936114311218262,1.3659809827804565
1778948776681172500,20.05817236328125,22.17757225036621,-3.955089569091797,2.528735637664795
1778948776697525000,20.07452490234375,16.390827178955078,-0.8872976303100586,2.5310187339782715
1778948776713852700,20.090852783203125,4.403545379638672,0.5158319473266602,1.9001710414886475
1778948776730167600,20.10716748046875,-6.5692596435546875,0.10802841186523438,1.0948066711425781
1778948776746505500,20.12350537109375,-5.115246295928955,0.9378452301025391,1.142143964767456
1778948776762832600,20.13983251953125,-0.9369106292724609,1.308347225189209,1.152559518814087
1778948776779169300,20.156169189453124,0.4751121997833252,1.5520944595336914,1.152669072151184
1778948776795497200,20.172497314453125,2.1977689266204834,1.9903521537780762,0.7448240518569946
1778948776811835400,20.18883544921875,2.5334255695343018,2.747589588165283,-0.24731022119522095
1778948776828179500,20.205179443359373,3.847130537033081,3.2337822914123535,-1.3882598876953125
1778948776844510700,20.2215107421875,4.311395168304443,3.4360365867614746,-1.5154424905776978
1778948776860844300,20.23784423828125,4.205459117889404,3.27193546295166,-1.550673484802246
1778948776877173800,20.254173828125,3.3237876892089844,3.3289761543273926,-1.9219872951507568
1778948776893478100,20.27047802734375,2.738372564315796,3.7909865379333496,-2.174386978149414
1778948776909826000,20.286825927734377,2.623612880706787,4.0816521644592285,-2.3169894218444824
1778948776926157000,20.303156982421875,2.1149206161499023,3.7585949897766113,-2.090104818344116
1778948776942489300,20.3194892578125,1.418369174003601,3.0498123168945312,-1.2397011518478394
1778948776958824000,20.335823974609376,0.06703305244445801,2.1762375831604004,-0.18649637699127197
1778948776975152000,20.352152099609373,-0.6766183376312256,1.080465316772461,0.48048144578933716
1778948776991494400,20.368494384765626,-1.8323664665222168,-0.25739097595214844,1.2002885341644287
1778948777007814400,20.384814453125,-4.393313884735107,-2.410299301147461,2.485990524291992
1778948777024144000,20.401143798828127,-6.961880207061768,-3.9184255599975586,3.8397367000579834
1778948777040484400,20.417484375,-10.410197257995605,-3.98138427734375,6.136231422424316
1778948777056815600,20.433815673828125,-7.736050605773926,-0.7790460586547852,6.2439985275268555
1778948777073147600,20.450147705078123,-5.024576187133789,-0.776092529296875,3.4391989707946777
1778948777089481500,20.4664814453125,-1.7338618040084839,-0.09181880950927734,1.9882172346115112
1778948777105812000,20.48281201171875,3.279594659805298,-0.3605508804321289,1.5581005811691284
1778948777122124500,20.49912451171875,3.686919689178467,-0.7826967239379883,0.7790943384170532
1778948777138478600,20.515478515625,3.7895288467407227,-1.239664077758789,-1.5444735288619995
1778948777154811000,20.531810791015626,-3.2652032375335693,-2.450336456298828,-6.017190933227539
1778948777171142400,20.548142333984377,-3.112544059753418,-0.8369064331054688,-9.366859436035156
1778948777187457500,20.56445751953125,-5.100518226623535,0.6758909225463867,-7.571787357330322
1778948777203819300,20.5808193359375,3.5815649032592773,-0.2562856674194336,-3.1019978523254395
1778948777220152600,20.597152587890626,7.270203590393066,-1.2764129638671875,2.1614723205566406
1778948777236469500,20.613469482421873,6.951308727264404,-1.5986919403076172,6.414910793304443
1778948777252802300,20.62980224609375,3.5072057247161865,-0.0106201171875,4.558538436889648
1778948777269148400,20.6461484375,1.524519681930542,-0.2911100387573242,1.7740981578826904
1778948777285465900,20.6624658203125,0.76488196849823,-0.3551464080810547,0.3815326392650604
1778948777301815300,20.678815185546874,-0.23744022846221924,-0.34395503997802734,0.5362603664398193
1778948777318143500,20.6951435546875,-0.2714449167251587,-1.4109067916870117,1.3904844522476196
1778948777334482700,20.711482666015623,0.4944222569465637,-2.0825014114379883,1.5910969972610474
1778948777350796000,20.727796142578125,0.3855780363082886,-1.1441364288330078,1.7274492979049683
1778948777367144000,20.74414404296875,0.0906226634979248,-0.21062660217285156,0.2995525002479553
1778948777383459600,20.76045947265625,0.06825631856918335,0.25330066680908203,-0.7192166447639465
1778948777399795000,20.776794921875,-0.6422809362411499,0.7446832656860352,-0.3943224549293518
1778948777416126200,20.793126220703126,-0.7222155928611755,1.6149988174438477,-0.600127100944519
