time,seconds_elapsed,z,y,x
1778948756731825000,0.108824951171875,0.6420193910598755,1.2157745361328125,0.10965031385421753
1778948756748154600,0.125154541015625,0.4066835343837738,0.43967026472091675,0.029932396486401558
1778948756764494000,0.141494140625,-0.010537425056099892,0.12736541032791138,0.2483167201280594
1778948756780816400,0.15781640625,-0.03878994286060333,-0.07101308554410934,0.6537785530090332
1778948756797156600,0.174156494140625,-0.1872301995754242,-1.381624460220337,0.6522513628005981
1778948756813486300,0.190486328125,-0.3856086730957031,-2.087631940841675,0.3300199508666992
1778948756829819000,0.20681884765625,-0.7029531598091125,-2.300671339035034,-0.051770828664302826
1778948756846151700,0.223151611328125,-0.9816604256629944,-2.026392698287964,-0.1872301995754242
1778948756862478300,0.239478271484375,-0.9886853694915771,-0.6163630485534668,-0.01114829070866108
1778948756878824700,0.25582470703125,-0.6488916277885437,-0.016493361443281174,0.5036584138870239
1778948756895145000,0.27214501953125,0.24648413062095642,-0.3599523603916168,1.2893837690353394
1778948756911483000,0.28848291015625,0.7238753437995911,-0.7573201656341553,1.9120081663131714
1778948756927819500,0.304819580078125,0.2324342280626297,-1.638798713684082,2.0694587230682373
1778948756944133400,0.32113330078125,-0.5239696502685547,-2.1062633991241455,1.9339994192123413
1778948756960470300,0.33747021484375,-0.8515461683273315,-2.057394027709961,1.7493653297424316
1778948756976789500,0.35378955078125,-0.8280278444290161,-1.8694003820419312,1.587027907371521
1778948756993135400,0.37013525390625,-0.7382306456565857,-1.6340645551681519,1.429577350616455
1778948757009466000,0.386466064453125,-0.5780312418937683,-1.130711555480957,1.2889256477355957
1778948757025791200,0.402791259765625,-0.2840523421764374,-0.6052147150039673,1.129489779472351
1778948757042136000,0.419135986328125,0.0887281745672226,-0.28680121898651123,0.9699012637138367
1778948757058455800,0.435455810546875,0.42042800784111023,-0.2535090744495392,0.7924449443817139
1778948757074804700,0.4518046875,0.5364924073219299,-0.47189339995384216,0.5546656250953674
1778948757091120400,0.468120361328125,0.4173736870288849,-0.6201809644699097,0.17088955640792847
1778948757107462700,0.484462646484375,0.2970332205295563,-0.5760459303855896,-0.4063780903816223
1778948757123799800,0.5007998046875,0.7142542004585266,-0.5830708742141724,-0.8225300312042236
1778948757140127200,0.517127197265625,1.5758795738220215,-1.2690725326538086,-0.8691084980964661
1778948757156467500,0.533467529296875,2.110692024230957,-2.352900266647339,-0.5830708742141724
1778948757172790800,0.549790771484375,2.0696115493774414,-3.215900182723999,0.07590000331401825
1778948757189122300,0.566122314453125,1.763109803199768,-3.92267107963562,0.8955284357070923
1778948757205429500,0.582429443359375,1.8422168493270874,-4.543157577514648,1.6975945234298706
1778948757221778400,0.5987783203125,2.3744332790374756,-4.92128324508667,2.2799017429351807
1778948757238099500,0.615099365234375,3.2482759952545166,-5.038569450378418,2.760958194732666
1778948757254433300,0.631433349609375,4.287816047668457,-5.079497337341309,3.305239200592041
1778948757270764800,0.647764892578125,5.24152946472168,-5.147913932800293,3.5503487586975098
1778948757287095600,0.664095458984375,5.895307540893555,-4.556901931762695,3.0085113048553467
1778948757303427800,0.680427734375,6.152634620666504,-3.743076801300049,2.244776964187622
1778948757319760600,0.6967607421875,6.144235134124756,-3.4935383796691895,2.1791090965270996
1778948757336085500,0.71308544921875,5.851172924041748,-3.50300669670105,2.6057984828948975
1778948757352420900,0.7294208984375,5.185482501983643,-2.3709206581115723,2.6082417964935303
1778948757368754000,0.74575390625,4.446793556213379,-0.4285219609737396,1.8742872476577759
1778948757385103400,0.762103271484375,3.7398698329925537,1.0308351516723633,1.1530081033706665
1778948757401404200,0.778404052734375,3.2951598167419434,2.2565362453460693,0.3159700334072113
1778948757417761000,0.794760986328125,3.0185906887054443,2.934596538543701,-0.31230485439300537
1778948757434091300,0.81109130859375,2.691624879837036,2.964987277984619,-0.6073527932167053
1778948757450424000,0.827424072265625,2.392301082611084,2.2591323852539062,-0.5484042763710022
1778948757466753500,0.84375341796875,2.2676844596862793,1.0769554376602173,0.04856378585100174
1778948757483071500,0.860071533203125,2.459343433380127,0.07040221989154816,0.8289441466331482
1778948757499408100,0.876408203125,3.103959083557129,-0.35323283076286316,1.5086843967437744
1778948757515737600,0.892737548828125,3.6410622596740723,-0.27320948243141174,2.1004600524902344
1778948757532065800,0.909065673828125,3.9687914848327637,-0.4291328489780426,2.6542093753814697
1778948757548397600,0.9253974609375,3.911064624786377,-0.7881689071655273,2.9746084213256836
1778948757564729300,0.941729248046875,3.522859811782837,-0.982729434967041,2.377793073654175
1778948757581046300,0.95804638671875,2.833498477935791,-2.21698260307312,-1.1986702680587769
1778948757597407700,0.97440771484375,4.04881477355957,-1.5978707075119019,-3.0521881580352783
1778948757613737500,0.990737548828125,3.9541306495666504,0.5216789245605469,-2.501645803451538
1778948757630065400,1.0070654296875,1.4753923416137695,2.274862289428711,-1.201724648475647
1778948757646400500,1.023400390625,0.3266601860523224,1.5303701162338257,-0.770301103591919
1778948757662725600,1.0397255859375,-0.005192354787141085,0.6495024561882019,-0.4473060667514801
1778948757679050200,1.05605029296875,-0.33429601788520813,0.35246923565864563,-0.5204572081565857
1778948757695387100,1.07238720703125,-0.1771509200334549,0.08521570265293121,-0.7273877859115601
1778948757711715000,1.088715087890625,-0.02076941914856434,0.2122756689786911,-0.8087855577468872
1778948757728039400,1.105039306640625,0.12400564551353455,0.22479841113090515,-0.6721044778823853
1778948757744369200,1.121369140625,0.01542434748262167,0.076052725315094,-0.04505131021142006
1778948757760707000,1.13770703125,-0.3300199508666992,0.41920626163482666,0.33246341347694397
1778948757777014500,1.1540146484375,-0.5845980644226074,0.9723447561264038,0.17928895354270935
1778948757793371000,1.170370849609375,-0.7072292566299438,0.9033169746398926,0.2906191349029541
1778948757809700900,1.186700927734375,-0.018478672951459885,0.13286319375038147,-0.08857546001672745
1778948757826029000,1.203029052734375,1.108262300491333,-0.06398813426494598,-0.35246923565864563
1778948757842361300,1.219361328125,2.037846565246582,-0.49754974246025085,-0.6858489513397217
1778948757858692000,1.235692138671875,2.096031427383423,-1.6357444524765015,-1.2166908979415894
1778948757875024600,1.252024658203125,2.136043071746826,-2.230727195739746,-0.7417431473731995
1778948757891355400,1.26835546875,2.2994494438171387,-2.7957775592803955,-0.47800204157829285
1778948757907686100,1.28468603515625,2.9723174571990967,-2.9717066287994385,-0.2684752643108368
1778948757924034300,1.301034423828125,1.7304285764694214,-2.872899293899536,-0.128434419631958
1778948757940356400,1.3173564453125,1.4547755718231201,-2.7308731079101562,-0.13790282607078552
1778948757956699000,1.333698974609375,2.0697641372680664,-2.8041768074035645,-0.27550023794174194
1778948757973026600,1.350026611328125,1.9399553537368774,-3.5161404609680176,-0.2629774808883667
1778948757989357000,1.366357177734375,1.7214182615280151,-4.174653053283691,-0.21838432550430298
1778948758005667000,1.3826669921875,2.074345588684082,-3.961613893508911,0.02733621932566166
1778948758021998600,1.39899853515625,3.2487339973449707,-2.2876904010772705,-0.044745877385139465
1778948758038338300,1.41533837890625,2.350151300430298,-1.3518447875976562,-0.096211276948452
1778948758054667800,1.431667724609375,1.101084589958191,-2.7311785221099854,-0.38438695669174194
1778948758071000300,1.448000244140625,0.27641651034355164,-3.197115898132324,0.45692721009254456
1778948758087318800,1.46431884765625,0.013133603148162365,-2.3654229640960693,0.8581129312515259
1778948758103662000,1.480662109375,0.7550294399261475,-1.704466700553894,0.8020660877227783
1778948758119989800,1.49698974609375,1.6059647798538208,-1.4921910762786865,0.8871290683746338
1778948758136328000,1.513327880859375,2.0974059104919434,-0.4193589985370636,0.9450085163116455
1778948758152669400,1.52966943359375,1.4329371452331543,-0.22098049521446228,1.4228578805923462
1778948758169007000,1.546007080078125,0.7470881938934326,0.6082690954208374,2.0751092433929443
1778948758185326000,1.562326171875,0.4665483236312866,0.41630467772483826,1.6252069473266602
1778948758201673200,1.578673095703125,0.5963571667671204,0.20570887625217438,0.6537785530090332
1778948758217980000,1.59497998046875,0.6948592066764832,0.007635815534740686,-0.289702832698822
1778948758234314200,1.611314208984375,0.760832667350769,-0.14508049190044403,-0.7218900322914124
1778948758250641200,1.62764111328125,0.7658722996711731,0.054825156927108765,-0.5593998432159424
1778948758266981600,1.643981689453125,0.9824240207672119,-0.038026362657547,-0.12293662875890732
1778948758283312000,1.66031201171875,1.4895949363708496,-1.193172574043274,-0.34895676374435425
1778948758299649000,1.67664892578125,1.9671387672424316,-1.391703724861145,-0.23747386038303375
1778948758315975700,1.6929755859375,2.3121249675750732,-0.43508878350257874,0.3254384696483612
1778948758332289300,1.709289306640625,1.5909985303878784,-0.8249735236167908,0.8235990405082703
1778948758348650500,1.725650390625,1.5471689701080322,-2.1594085693359375,2.0392208099365234
1778948758364971500,1.741971435546875,1.8141170740127563,-2.6505444049835205,1.969276785850525
1778948758381308200,1.75830810546875,2.375349521636963,-1.9175059795379639,1.4770721197128296
1778948758397622000,1.7746220703125,2.6259570121765137,-1.0322095155715942,-0.8683449625968933
1778948758413969000,1.790968994140625,1.1571314334869385,-0.2715296149253845,-1.677894115447998
1778948758430291700,1.807291748046875,0.4499022662639618,0.5760459303855896,-0.30405816435813904
1778948758446634800,1.823634765625,0.18188512325286865,0.2252565622329712,1.2501357793807983
1778948758462960600,1.839960693359375,-0.016951510682702065,-0.07483099400997162,1.1117748022079468
1778948758479277800,1.85627783203125,-0.18814650177955627,0.31902438402175903,0.004428773187100887
1778948758495625500,1.87262548828125,-0.3387247920036316,0.5914703011512756,-0.8851437568664551
1778948758511965000,1.88896484375,-0.22128593921661377,0.2785545587539673,-0.9332493543624878
1778948758528287000,1.905286865234375,-0.044745877385139465,-0.029168816283345222,-0.2900082767009735
1778948758544629200,1.921629150390625,-0.028099801391363144,0.06429356336593628,0.10949759185314178
1778948758560956200,1.9379560546875,-0.04092797264456749,0.20372356474399567,0.12049316614866257
1778948758577287000,1.954286865234375,-0.01771509274840355,0.1469130963087082,0.040164388716220856
1778948758593623300,1.970623291015625,0.0029016099870204926,0.10308351367712021,0.001679879380390048
1778948758609944800,1.98694482421875,-0.02122756652534008,0.07925976812839508,0.02015855349600315
1778948758626296000,2.003296142578125,-0.0630718395113945,-0.003512475173920393,0.06750060617923737
1778948758642595300,2.01959521484375,-0.098502017557621,-0.04795292019844055,0.038026362657547
1778948758658944500,2.035944580078125,-0.12950342893600464,-0.048105638474226,-0.02733621932566166
1778948758675280400,2.0522802734375,-0.15821409225463867,-0.06719517707824707,0.0025961773935705423
1778948758691597000,2.06859716796875,-0.1716531366109848,-0.13225232064723969,0.1062905490398407
1778948758707914800,2.084914794921875,-0.15225815773010254,-0.20234911143779755,0.1595885455608368
1778948758724255500,2.10125537109375,-0.13057245314121246,-0.20036379992961884,0.14645494520664215
1778948758740585700,2.117585693359375,-0.10965031385421753,-0.15393804013729095,0.12293662875890732
1778948758756917500,2.13391748046875,-0.09804387390613556,-0.10949759185314178,0.12064588814973831
1778948758773249000,2.1502490234375,-0.07391469180583954,-0.06169738993048668,0.10399980843067169
1778948758789579800,2.166579833984375,-0.05971207842230797,-0.02580905705690384,0.043218716979026794
1778948758805914600,2.18291455078125,-0.0328340083360672,-0.005039638374000788,-0.04703662544488907
1778948758822242300,2.1992421875,0,0.07040221989154816,-0.09376781433820724
1778948758838590200,2.215590087890625,0.03329215571284294,0.1514945775270462,-0.08964447677135468
1778948758854902800,2.23190283203125,0.07864890247583389,0.19013181328773499,-0.11835514008998871
1778948758871247000,2.2482470703125,0.09804387390613556,0.144622340798378,-0.16630806028842926
1778948758887569200,2.264569091796875,0.06734789162874222,0.11698069423437119,-0.1898263692855835
1778948758903921400,2.28092138671875,0.027488935738801956,0.03039054572582245,-0.18325957655906677
1778948758920209400,2.29720947265625,-0.019394971430301666,-0.0012217304902151227,-0.1466076523065567
1778948758936563500,2.3135634765625,-0.046731192618608475,-0.0003054326225537807,-0.0455094613134861
1778948758952893400,2.3298935546875,-0.10461067408323288,0.06398813426494598,0.11530081182718277
1778948758969225500,2.3462255859375,-0.16768251359462738,0.20861047506332397,0.23854288458824158
1778948758985563400,2.3625634765625,-0.2687807083129883,0.45005497336387634,0.32971450686454773
1778948759001887500,2.378887451171875,-0.2974913716316223,0.7600690722465515,0.3903428912162781
1778948759018212000,2.395212158203125,-0.2612976133823395,0.9863946437835693,0.4164573848247528
1778948759034551600,2.411551513671875,-0.18325957655906677,1.007622241973877,0.39477166533470154
1778948759050882600,2.427882568359375,-0.11316278576850891,0.7739662528038025,0.29367345571517944
1778948759067210800,2.444210693359375,-0.06841690838336945,0.4337143301963806,0.2255619913339615
1778948759083547400,2.46054736328125,-0.06520986557006836,0.3856086730957031,0.2499966025352478
1778948759099876400,2.47687646484375,-0.04734205827116966,0.6644686460494995,0.3303253948688507
1778948759116203300,2.493203369140625,-0.040622539818286896,0.8376489877700806,0.41828998923301697
1778948759132542700,2.509542724609375,-0.008857546374201775,0.8310821652412415,0.45952337980270386
1778948759148868900,2.525868896484375,0.03329215571284294,0.7915286421775818,0.42730024456977844
1778948759165202700,2.54220263671875,0.06383541971445084,0.8072584271430969,0.36942076683044434
1778948759181527600,2.558527587890625,0.058184914290905,0.8184067010879517,0.31459560990333557
1778948759197864400,2.574864501953125,0.029474247246980667,0.7819074988365173,0.30970868468284607
1778948759214194000,2.59119384765625,-0.061391957104206085,0.7831292152404785,0.31810808181762695
1778948759230531000,2.607531005859375,-0.18646661937236786,0.7441865801811218,0.3459024429321289
1778948759246855000,2.62385498046875,-0.260992169380188,0.7422012686729431,0.29397889971733093
1778948759263193900,2.64019384765625,-0.2945897579193115,0.578489363193512,0.0429132841527462
1778948759279508500,2.656508544921875,-0.27718010544776917,0.275347501039505,-0.3303253948688507
1778948759295853000,2.67285302734375,-0.23151792585849762,0.3153591752052307,-0.6496551632881165
1778948759312185600,2.689185546875,-0.20631973445415497,0.5615378618240356,-0.9277516007423401
1778948759328505900,2.705505859375,-0.21395555138587952,0.6039929986000061,-1.1271990537643433
1778948759344862200,2.7218623046875,-0.16310101747512817,0.23671028017997742,-1.2695306539535522
1778948759361193200,2.738193115234375,-0.01114829070866108,-0.09483683109283447,-1.8318321704864502
1778948759377525000,2.75452490234375,0.003817907767370343,0.47739118337631226,-2.7658450603485107
1778948759393855700,2.770855712890625,0.08429940044879913,0.35246923565864563,-3.598149061203003
1778948759410185700,2.787185791015625,0.34315356612205505,-1.06351637840271,-4.353941917419434
1778948759426517000,2.80351708984375,0.7316638231277466,-1.814880609512329,-4.388150691986084
1778948759442819600,2.819819580078125,0.955545961856842,0.38469240069389343,-3.791029691696167
1778948759459167700,2.836167724609375,0.6319400668144226,3.179858922958374,-3.2432363033294678
1778948759475495700,2.85249560546875,0.4899139404296875,3.578906774520874,-2.786309003829956
1778948759491834400,2.86883447265625,0.2768746614456177,1.4245377779006958,-2.4333817958831787
1778948759508160800,2.885160888671875,0.18387043476104736,-0.5809328556060791,-2.0922133922576904
1778948759524495400,2.901495361328125,0.15164729952812195,0.07330382615327835,-1.7843374013900757
1778948759540825600,2.91782568359375,0.15745051205158234,1.5529721975326538,-1.5978707075119019
1778948759557153000,2.934153076171875,-0.02825251780450344,1.6410894393920898,-1.3374894857406616
1778948759573484000,2.950484130859375,-0.17501288652420044,0.99876469373703,-1.1212431192398071
1778948759589821700,2.96682177734375,-0.18829920887947083,0.6490443348884583,-0.8516988754272461
1778948759606140700,2.983140625,-0.19058994948863983,0.6873761415481567,-0.4772384762763977
1778948759622482000,2.99948193359375,-0.11698069423437119,0.655458390712738,-0.16783522069454193
1778948759638812700,3.015812744140625,0.01466076634824276,0.5422956347465515,0.09269879758358002
1778948759655135000,3.032135009765625,0.15317445993423462,0.5028948187828064,0.36789360642433167
1778948759671497700,3.048497802734375,0.2987131178379059,0.503047525882721,0.6522513628005981
1778948759687819500,3.064819580078125,0.4219551682472229,0.5253441333770752,0.9503536224365234
1778948759704135700,3.0811357421875,0.5545129179954529,0.5320636034011841,1.236391305923462
1778948759720469000,3.097468994140625,0.66584312915802,0.5227479338645935,1.5070046186447144
1778948759736801800,3.1138017578125,0.7402159571647644,0.5598580241203308,1.8292360305786133
1778948759753133000,3.130133056640625,0.8432994484901428,0.5204572081565857,2.1142046451568604
1778948759769464800,3.14646484375,0.9447031021118164,0.4818199574947357,2.391690254211426
1778948759785796600,3.162796630859375,0.8069530129432678,0.6397286057472229,2.7178921699523926
1778948759802127000,3.179127197265625,0.4080579876899719,0.5064072608947754,2.906344175338745
1778948759818459100,3.195459228515625,0.038026362657547,0.1339322030544281,2.959794759750366
1778948759834803500,3.211803466796875,-0.25564709305763245,0.6178901791572571,2.4413230419158936
1778948759851120600,3.22812060546875,-0.43127086758613586,1.3657419681549072,1.7369953393936157
1778948759867450400,3.244450439453125,-0.5615378618240356,1.1395691633224487,1.4077389240264893
1778948759883787800,3.260787841796875,-0.7832819819450378,0.9660834074020386,1.1826350688934326
1778948759900115700,3.27711572265625,-0.8735373020172119,0.7826710939407349,1.0192286968231201
1778948759916434200,3.29343408203125,-0.8425359129905701,0.280539870262146,0.7924449443817139
1778948759932779000,3.309779052734375,-0.518471896648407,-0.6973026990890503,0.2054034322500229
1778948759949097500,3.326097412109375,0.16065755486488342,-1.5641204118728638,-0.8633053302764893
1778948759965441800,3.34244189453125,0.327271044254303,-0.1258382350206375,-1.1342240571975708
1778948759981812200,3.358812255859375,-0.03787364438176155,1.143081545829773,-0.050243668258190155
1778948759998101200,3.375101318359375,-0.46899178624153137,1.2475395202636719,0.20128010213375092
1778948760014435800,3.391435791015625,-0.5403103232383728,2.2091941833496094,-0.6334672570228577
1778948760030767600,3.407767578125,-0.2444988191127777,2.4084889888763428,-1.2638801336288452
1778948760047099000,3.424098876953125,-0.09682214260101318,3.118314266204834,-1.2090550661087036
1778948760063430400,3.440430419921875,0.2226603776216507,1.9147571325302124,-1.0584768056869507
1778948760079761400,3.456761474609375,0.4008803069591522,0.44287729263305664,-0.6131559610366821
1778948760096092200,3.473092041015625,0.49098294973373413,-1.0574077367782593,0.08674286305904388
1778948760112423200,3.489423095703125,0.6380487680435181,-2.311361312866211,0.9074403047561646
1778948760128771600,3.505771484375,0.7301366925239563,-2.487901449203491,1.2223412990570068
1778948760145081900,3.522081787109375,0.5607742667198181,-1.561829686164856,0.8086328506469727
1778948760161405200,3.5384052734375,0.05757404863834381,2.531730890274048,-1.1107057332992554
1778948760177758000,3.554758056640625,0.498924195766449,2.7125470638275146,-0.25961771607398987
1778948760194069500,3.571069580078125,0.4112650156021118,0.9892962574958801,0.26771169900894165
1778948760210410200,3.58741015625,0.37262779474258423,-0.3240640163421631,-0.2096794992685318
1778948760226735900,3.60373583984375,0.7764097452163696,-0.9369145631790161,-1.0073168277740479
1778948760243075000,3.620074951171875,0.6236934065818787,-0.8298604488372803,-1.229519009590149
1778948760259407600,3.63640771484375,0.3269656300544739,-0.37079519033432007,-1.0151053667068481
1778948760275741200,3.6527412109375,0.14324790239334106,0.6921103000640869,-0.967915952205658
1778948760292068600,3.669068603515625,0.164170041680336,1.690264105796814,-1.2009611129760742
1778948760308402400,3.68540234375,0.20586158335208893,1.9477438926696777,-1.623068928718567
1778948760324736500,3.701736572265625,0.01572977937757969,1.4895949363708496,-2.3432791233062744
1778948760341062100,3.718062255859375,-0.3520110845565796,0.43737950921058655,-3.238349437713623
1778948760357396000,3.73439599609375,-0.7200574278831482,0.20204368233680725,-3.6364808082580566
1778948760373728800,3.750728759765625,-1.1140655279159546,-0.4254676401615143,-3.500257968902588
1778948760390059500,3.7670595703125,-1.3168727159500122,-1.5709927082061768,-3.307835340499878
1778948760406389200,3.78338916015625,-1.570534586906433,-2.210263252258301,-2.95857310295105
1778948760422729200,3.799729248046875,-1.0879509449005127,-2.5561656951904297,-2.6091582775115967
1778948760439065900,3.81606591796875,-0.42271876335144043,-2.4770586490631104,-1.9396498203277588
1778948760455393300,3.832393310546875,-0.1586722433567047,-0.47418415546417236,-1.2661709785461426
1778948760471718700,3.84871875,-0.11209376901388168,1.328937292098999,-0.29504790902137756
1778948760488045300,3.86504541015625,0.0003054326225537807,1.758986473083496,0.44944411516189575
1778948760504379600,3.881379638671875,0.166460782289505,1.4388930797576904,0.8086328506469727
1778948760520711400,3.89771142578125,0.194713294506073,1.1281154155731201,1.1829406023025513
1778948760537032700,3.91403271484375,0.21700987219810486,1.002277135848999,1.6013832092285156
1778948760553373700,3.930373779296875,0.3689626157283783,0.7947356700897217,2.015855312347412
1778948760569735400,3.9467353515625,0.5531384944915771,0.7218900322914124,2.4500277042388916
1778948760586048300,3.96304833984375,0.7974845767021179,0.6157521605491638,2.808911085128784
1778948760602376000,3.9793759765625,1.0114401578903198,0.3640756905078888,3.0308079719543457
1778948760618694700,3.995694580078125,1.2450960874557495,-0.07208210229873657,3.1199941635131836
1778948760635031600,4.012031494140625,1.2829697132110596,-0.41951170563697815,3.2067370414733887
1778948760651362300,4.0283623046875,0.8885034918785095,-0.7837401032447815,3.1286990642547607
1778948760667695600,4.044695556640625,0.4625777006149292,-0.9205739498138428,2.8012752532958984
1778948760684024000,4.061024169921875,0.15775595605373383,-0.6180428862571716,2.4167356491088867
1778948760700357000,4.077357177734375,-0.14004085958003998,-0.5018258094787598,1.9672914743423462
1778948760716688000,4.09368798828125,-0.4138612151145935,-0.15943582355976105,1.7486017942428589
1778948760733018400,4.110018310546875,-0.6563746929168701,0.28680121898651123,1.5167783498764038
1778948760749349400,4.126349365234375,-0.7796167731285095,0.38117989897727966,1.2078332901000977
1778948760765682200,4.14268212890625,-0.7846564054489136,0.35735616087913513,0.8434522151947021
1778948760782014000,4.159013916015625,-0.6496551632881165,0.011759156361222267,0.318566232919693
1778948760798343400,4.175343505859375,-0.2785545587539673,-1.904219627380371,-0.7231117486953735
1778948760814679300,4.19167919921875,-0.005345070734620094,-2.038304567337036,-1.768760323524475
1778948760831019800,4.208019775390625,-0.4960225820541382,0.5564982295036316,-1.0512990951538086
1778948760847340300,4.22434033203125,-0.9272934198379517,2.0135645866394043,0.03191770985722542
1778948760863680500,4.240680419921875,-0.5725334286689758,4.1885504722595215,-0.4755585789680481
1778948760880022300,4.257022216796875,-0.2590068578720093,4.060574054718018,-1.1018482446670532
1778948760896347600,4.27334765625,-0.5342016816139221,2.847853660583496,-1.1050552129745483
1778948760912664800,4.289664794921875,-0.3920227587223053,0.9520334601402283,-0.7365507483482361
1778948760928994300,4.305994384765625,0.008399397134780884,-0.40164390206336975,-0.2730567753314972
1778948760945313300,4.322313232421875,0.4430300295352936,-0.9451612234115601,0.1514945775270462
1778948760961650700,4.338650634765625,0.8907942175865173,-1.274570345878601,0.6206390857696533
1778948760977991200,4.3549912109375,1.073595643043518,-1.9929478168487549,0.8874344825744629
1778948760994323500,4.371323486328125,0.9246972799301147,-1.7134770154953003,0.194713294506073
1778948761010656000,4.387656005859375,0.8706356883049011,0.36880987882614136,-0.5302310585975647
1778948761026982000,4.40398193359375,0.9297369122505188,0.48747047781944275,-0.4784601926803589
1778948761043318300,4.420318359375,0.8249735236167908,-0.554818332195282,-0.20143280923366547
1778948761059649800,4.43664990234375,0.6907358765602112,-0.7935139536857605,-0.2373211532831192
1778948761075990500,4.452990478515625,0.5480988621711731,-0.4970915913581848,-0.40424007177352905
1778948761092348200,4.46934814453125,0.47678032517433167,-0.36682456731796265,-0.375071257352829
1778948761108654800,4.48565478515625,0.23655757308006287,0.19456058740615845,-0.16462817788124084
1778948761124973600,4.5019736328125,-0.01160643994808197,0.8587238192558289,-0.12782354652881622
1778948761141319700,4.518319580078125,-0.09605856239795685,1.2203559875488281,-0.4492913782596588
1778948761157637600,4.5346376953125,-0.2122756689786911,1.470963478088379,-1.1016954183578491
1778948761173981400,4.5509814453125,-0.4758640229701996,1.357953429222107,-1.966986060142517
1778948761190299600,4.567299560546875,-0.8042041063308716,0.4245513379573822,-2.7119362354278564
1778948761206635000,4.583635009765625,-1.0580185651779175,-0.7707592248916626,-3.3289101123809814
1778948761222963500,4.59996337890625,-1.1672108173370361,-1.5968017578125,-3.7502543926239014
1778948761239295500,4.61629541015625,-1.5065463781356812,-1.795027494430542,-3.5054502487182617
1778948761255618300,4.632618408203125,-1.7641788721084595,-1.4454598426818848,-3.051882743835449
1778948761271958800,4.648958740234375,-1.6797267198562622,-1.7982345819473267,-2.8429667949676514
1778948761288290800,4.665290771484375,-1.0952813625335693,-1.9822577238082886,-2.4631614685058594
1778948761304622000,4.6816220703125,-0.6635523438453674,-0.7704538106918335,-1.6742289066314697
1778948761320952000,4.6979521484375,-0.40775254368782043,1.1643091440200806,-0.8286387324333191
1778948761337283600,4.71428369140625,-0.18524488806724548,1.6505578756332397,-0.14508049190044403
1778948761353616400,4.730616455078125,-0.032070424407720566,1.4077389240264893,0.3081815242767334
1778948761369947400,4.746947509765625,0.10842858254909515,1.0149526596069336,0.6782131195068359
1778948761386278700,4.763278564453125,0.2454151064157486,0.9520334601402283,1.2067643404006958
1778948761402610700,4.779610595703125,0.38728857040405273,1.0207557678222656,1.7029396295547485
1778948761418940400,4.7959404296875,0.527634859085083,1.0227410793304443,2.1668918132781982
1778948761435278000,4.812278076171875,0.7415903806686401,0.936609148979187,2.6057984828948975
1778948761451614700,4.82861474609375,1.0253373384475708,0.8568912148475647,2.9190194606781006
1778948761467976000,4.844975830078125,1.3258830308914185,1.0334312915802002,2.987436532974243
1778948761484277500,4.861277587890625,1.5887078046798706,1.3671164512634277,2.9460504055023193
1778948761500601300,4.877601318359375,1.6572774648666382,1.4827226400375366,2.8816041946411133
1778948761516945400,4.8939453125,1.306182622909546,0.9940304756164551,2.58762526512146
1778948761533261800,4.91026171875,0.9112582206726074,0.3553708493709564,2.241875410079956
1778948761549608000,4.92660791015625,0.6937901973724365,0.43936482071876526,2.0196731090545654
1778948761565923000,4.942923095703125,0.6467535495758057,0.48166725039482117,1.8881844282150269
1778948761582254300,4.95925439453125,0.6403394937515259,-0.11835514008998871,1.807550311088562
1778948761598588700,4.975588623046875,0.4265366494655609,-0.6363688707351685,1.7490599155426025
1778948761614919000,4.9919189453125,0.21884247660636902,-0.5650503635406494,1.5108224153518677
1778948761631252000,5.008251953125,0.11331550031900406,0.14706580340862274,1.1201741695404053
1778948761647583000,5.0245830078125,-0.17043140530586243,0.44089198112487793,0.8944594264030457
1778948761663915300,5.040915283203125,-0.3998112976551056,-0.7396050691604614,0.7041749358177185
1778948761680232700,5.057232666015625,-0.49754974246025085,-1.6630805730819702,0.07559457421302795
1778948761696574500,5.073574462890625,-0.5195409059524536,-0.6328563690185547,-1.2365440130233765
1778948761712911000,5.0899111328125,-0.9695958495140076,1.483486294746399,-1.4902057647705078
1778948761729237000,5.106237060546875,-0.751669704914093,2.165975332260132,-0.365755558013916
1778948761745575700,5.12257568359375,-0.19135354459285736,1.9222402572631836,0.31551191210746765
1778948761761902300,5.13890234375,0.030543262138962746,2.872288465499878,0.10155634582042694
1778948761778235400,5.1552353515625,0.06459899991750717,3.2621731758117676,0.3628539443016052
1778948761794581000,5.1715810546875,0.013744467869400978,2.81960129737854,1.0106765031814575
1778948761810899500,5.1878994140625,-0.21242839097976685,2.3093760013580322,0.8856018781661987
1778948761827253200,5.204253173828125,0.20234911143779755,1.0819950103759766,0.5245805382728577
1778948761843572500,5.220572509765625,0.47418415546417236,-0.02076941914856434,0.154396191239357
1778948761859889200,5.23688916015625,0.6698137521743774,-0.6624833345413208,-0.1290452778339386
1778948761876240100,5.253240234375,0.8820894360542297,-0.5123631954193115,-0.2551889419555664
1778948761892569900,5.26956982421875,0.7081455588340759,0.6244570016860962,-0.10812314599752426
1778948761908900000,5.285900146484375,0.26969701051712036,1.4914275407791138,0.3781255781650543
1778948761925215200,5.30221533203125,-0.046731192618608475,1.342987298965454,0.5230533480644226
1778948761941549800,5.3185498046875,-0.001832595793530345,1.311833143234253,0.14385876059532166
1778948761957880800,5.334880859375,0.27458393573760986,1.2994630336761475,-0.1950187236070633
1778948761974213600,5.351213623046875,0.35750889778137207,1.2669345140457153,-0.36361753940582275
1778948761990545200,5.367545166015625,0.24877487123012543,1.0280861854553223,-0.5780312418937683
1778948762006876000,5.3838759765625,0.04444044828414917,0.9500481486320496,-1.0632109642028809
1778948762023211800,5.400211669921875,-0.32818734645843506,0.9198103547096252,-1.5740469694137573
1778948762039531000,5.416531005859375,-0.6356052756309509,0.7473936080932617,-2.2884538173675537
1778948762055893200,5.432893310546875,-0.7890852093696594,-0.013286318629980087,-3.2821788787841797
1778948762072221700,5.4492216796875,-0.9266825914382935,-0.6991352438926697,-4.138154029846191
1778948762088510000,5.465510009765625,-0.8677340745925903,-1.2528846263885498,-4.640895843505859
1778948762104872700,5.481872802734375,-1.1756101846694946,-2.420400857925415,-4.502993106842041
1778948762121205500,5.49820556640625,-1.9179641008377075,-1.860848307609558,-3.86112642288208
1778948762137543700,5.514543701171875,-2.202322006225586,-1.297019600868225,-3.235753297805786
1778948762153867800,5.53086767578125,-1.490816593170166,-1.4787520170211792,-2.8687758445739746
1778948762170200800,5.547200927734375,-0.7512115240097046,-0.6777549982070923,-2.2508857250213623
1778948762186526200,5.563526123046875,-0.39416080713272095,-0.327729195356369,-1.6612480878829956
1778948762202855000,5.57985498046875,-0.2658790946006775,0.2528982162475586,-1.0714576244354248
1778948762219177700,5.596177734375,-0.05390885844826698,0.5067127346992493,-0.4944954216480255
1778948762235516000,5.612515869140625,0.14767667651176453,0.4915938079357147,0.060475658625364304
1778948762251853800,5.628853759765625,0.3344487249851227,0.4605923891067505,0.6062837839126587
1778948762268179700,5.6451796875,0.4005748927593231,0.47678032517433167,1.0838276147842407
1778948762284528400,5.6615283203125,0.379652738571167,0.631481945514679,1.6055065393447876
1778948762300857000,5.677857177734375,0.4628831446170807,0.8263479471206665,2.213164806365967
1778948762317186300,5.694186279296875,0.6824892163276672,1.0140362977981567,2.7931814193725586
1778948762333507600,5.710507568359375,0.9975429177284241,1.370781660079956,3.2473597526550293
1778948762349847600,5.72684765625,1.3741413354873657,1.6951510906219482,3.606548309326172
1778948762366215000,5.74321484375,1.6093244552612305,1.790598750114441,3.8311941623687744
1778948762382510300,5.75951025390625,1.9285016059875488,1.644449234008789,4.041484355926514
1778948762398833400,5.77583349609375,2.1395554542541504,2.1342103481292725,3.689931631088257
1778948762415174100,5.792174072265625,1.4578299522399902,1.8550450801849365,2.8399124145507812
1778948762431497200,5.808497314453125,0.7762570381164551,1.2302825450897217,1.9356791973114014
1778948762447827700,5.82482763671875,0.27000242471694946,0.5076290369033813,1.4928019046783447
1778948762464148500,5.8411484375,0.020005837082862854,0.2883284091949463,1.922087550163269
1778948762480489700,5.85748974609375,-0.3222314119338989,1.161560297012329,2.028988838195801
1778948762496822300,5.873822265625,-0.7121161818504333,2.088395595550537,1.4697418212890625
1778948762513154000,5.890154052734375,-0.9266825914382935,2.4100160598754883,0.7877107262611389
1778948762529485600,5.906485595703125,-0.6575964093208313,2.034486770629883,-0.08903361111879349
1778948762545816800,5.92281689453125,0.04688390716910362,1.558011770248413,-0.48716503381729126
1778948762562148600,5.939148681640625,0.37140607833862305,0.6939429044723511,-0.2321287989616394
1778948762578480400,5.95548046875,0.44974952936172485,0.5636758804321289,0.016798794269561768
1778948762594812000,5.97181201171875,0.3602577745914459,1.4324790239334106,-0.14217889308929443
1778948762611143700,5.988143798828125,0.02428189292550087,1.9283488988876343,-0.04214970022439957
1778948762627475200,6.00447509765625,-0.29504790902137756,1.4700472354888916,0.37888917326927185
1778948762643803400,6.020803466796875,-0.38026362657546997,0.8200865983963013,0.9779952764511108
1778948762660140000,6.03714013671875,-0.3787364661693573,0.4440990388393402,1.5425875186920166
1778948762676469500,6.053469482421875,-0.37919458746910095,0.8845328688621521,1.3280210494995117
1778948762692796200,6.069796142578125,-0.2330450862646103,1.785559058189392,0.6579018831253052
1778948762709137700,6.0861376953125,0.005497787147760391,2.6117544174194336,0.44089198112487793
1778948762725461200,6.102461181640625,0.039248090237379074,3.0111074447631836,0.784503698348999
1778948762741799400,6.11879931640625,0.05406157299876213,2.752253293991089,1.09024178981781
1778948762758127000,6.135127197265625,0.04734205827116966,2.3997840881347656,0.7391469478607178
1778948762774463000,6.151462890625,0.07299839705228806,1.8942930698394775,0.19593502581119537
1778948762790805500,6.167805419921875,0.018478672951459885,1.215927243232727,-0.09896016865968704
1778948762807126000,6.1841259765625,-0.08048149943351746,0.5685628056526184,-0.0012217304902151227
1778948762823449600,6.20044970703125,-0.06414084881544113,0.13637566566467285,0.3982841372489929
1778948762839785500,6.216785400390625,0.029626963660120964,0.04902193695306778,0.7806857824325562
1778948762856115200,6.233115234375,0.12186761945486069,0.2269364446401596,0.912327229976654
1778948762872449300,6.24944921875,0.12095131725072861,0.5826127529144287,0.8242099285125732
1778948762888780000,6.265780029296875,-0.003359758760780096,1.0311405658721924,0.6840163469314575
1778948762905112300,6.2821123046875,-0.11713340878486633,1.4286611080169678,0.6168211698532104
1778948762921441800,6.29844189453125,-0.3663664162158966,1.8588629961013794,0.5962044596672058
1778948762937775000,6.314775146484375,-0.6319400668144226,2.372905969619751,0.5584835410118103
1778948762954106600,6.331106689453125,-0.7733554244041443,3.2623257637023926,0.4602869749069214
1778948762970424600,6.347424560546875,-0.7759515643119812,3.991698980331421,0.29168814420700073
1778948762986783700,6.36378369140625,-0.618195652961731,3.7363572120666504,-0.19746218621730804
1778948763003116800,6.38011669921875,-0.4489859640598297,2.0699169635772705,-1.0847439765930176
1778948763019406600,6.396406494140625,-0.6039929986000061,0.4331034719944,-1.6223053932189941
1778948763035782100,6.4127822265625,-0.8886561989784241,0.2768746614456177,-1.9992092847824097
1778948763052113000,6.42911279296875,-1.1688905954360962,1.4208725690841675,-2.936429262161255
1778948763068416800,6.445416748046875,-1.2412781715393066,2.0760254859924316,-4.075693130493164
1778948763084772900,6.46177294921875,-1.0160216093063354,2.1039726734161377,-4.1134138107299805
1778948763101101600,6.4781015625,-0.5532912015914917,1.4909693002700806,-3.6360225677490234
1778948763117423000,6.494423095703125,0.050854530185461044,0.4792237877845764,-3.6473236083984375
1778948763133766000,6.510765869140625,0.6766859889030457,1.0140362977981567,-3.5384368896484375
1778948763150108000,6.52710791015625,0.6531676650047302,1.1412489414215088,-2.6784913539886475
1778948763166413800,6.543413818359375,0.4612032473087311,0.5044219493865967,-1.4970779418945312
1778948763182739500,6.559739501953125,0.5732970237731934,0.9082038998603821,-0.931569516658783
1778948763199080400,6.57608056640625,0.4970915913581848,1.8122844696044922,-1.1158981323242188
1778948763215399000,6.59239892578125,0.29397889971733093,1.7683022022247314,-1.1554516553878784
1778948763231745300,6.608745361328125,0.08903361111879349,1.9343048334121704,-0.8720101118087769
1778948763248075800,6.62507568359375,0.009010262787342072,1.890017032623291,-0.5791002511978149
1778948763264405200,6.6414052734375,-0.04581489413976669,1.3347405195236206,-0.14996741712093353
1778948763280738300,6.65773828125,-0.07116580009460449,1.0001391172409058,0.20845776796340942
1778948763297070000,6.674070068359375,0.032528575509786606,0.8979719281196594,0.451582133769989
1778948763313416400,6.69041650390625,0.23319780826568604,1.1511754989624023,0.6033821702003479
1778948763329747000,6.706746826171875,0.39217549562454224,1.3701707124710083,0.7353290319442749
1778948763346073600,6.723073486328125,0.5795583724975586,1.513113260269165,0.9569203853607178
1778948763362392800,6.739392822265625,0.6869179606437683,1.5347989797592163,1.4321736097335815
1778948763378711300,6.755711181640625,0.661719799041748,1.5722143650054932,2.177123785018921
1778948763395060000,6.77206005859375,0.5238169431686401,1.2360857725143433,2.682767391204834
1778948763411394000,6.78839404296875,0.4124867618083954,0.6818783283233643,2.833040237426758
1778948763427721500,6.804721435546875,0.13225232064723969,0.4918992519378662,2.9775099754333496
1778948763444057900,6.821057861328125,-0.3052799105644226,1.9155206680297852,2.60182785987854
1778948763460386000,6.837385986328125,-0.7110471725463867,4.842939853668213,1.8219056129455566
1778948763476719400,6.85371923828125,-0.42470407485961914,5.455637454986572,1.3585642576217651
1778948763493048800,6.870048828125,-0.2838996350765228,4.455193042755127,0.7351763248443604
1778948763509398000,6.88639794921875,-0.5027421116828918,3.2652275562286377,-0.013591751456260681
1778948763525724200,6.90272412109375,-0.06230825558304787,-0.15347988903522491,-1.0053315162658691
1778948763542042600,6.919042724609375,-0.005803219974040985,0.20051652193069458,-2.3319780826568604
1778948763558388000,6.935387939453125,-0.30512720346450806,1.515709400177002,-2.1786508560180664
1778948763574705000,6.951704833984375,-0.34162637591362,1.4427109956741333,-1.3859004974365234
1778948763591051000,6.968051025390625,-0.025961773470044136,1.112385630607605,-0.6858489513397217
1778948763607383600,6.984383544921875,0.5835290551185608,1.82404363155365,-0.0010690141934901476
1778948763623715600,7.000715576171875,1.1039862632751465,3.314096689224243,0.235030397772789
1778948763640029700,7.01702978515625,0.9961684942245483,3.6030359268188477,-0.06414084881544113
1778948763656362000,7.033362060546875,0.6201809644699097,2.7534751892089844,-0.03237585723400116
1778948763672683800,7.049683837890625,0.45402559638023376,1.2180652618408203,0.7648032903671265
1778948763689027000,7.066027099609375,0.1872301995754242,0.30375275015830994,1.458593487739563
1778948763705359400,7.082359375,0.036193765699863434,0.04352414980530739,1.681712031364441
1778948763721692400,7.0986923828125,0.08170322328805923,-0.11820242553949356,1.65834641456604
1778948763738023000,7.11502294921875,0.1385136991739273,-0.1872301995754242,1.659873604774475
1778948763754343000,7.131343017578125,0.32009339332580566,0.14844025671482086,1.7275269031524658
1778948763770690600,7.147690673828125,0.46211954951286316,1.2556334733963013,1.5755741596221924
1778948763787033300,7.164033447265625,0.13866640627384186,2.3383922576904297,0.907898485660553
1778948763803346200,7.18034619140625,-0.12797626852989197,2.6146559715270996,0.3179553747177124
1778948763819681800,7.196681884765625,-0.24877487123012543,2.1004600524902344,0.13179416954517365
1778948763836031000,7.213031005859375,-0.41951170563697815,1.538158655166626,0.23884831368923187
1778948763852345000,7.229344970703125,-0.5520694851875305,1.507157325744629,0.1411098688840866
1778948763868674600,7.245674560546875,-0.5926920175552368,1.774105429649353,-0.18585574626922607
1778948763885009200,7.262009033203125,-0.5984952449798584,2.046093225479126,-0.3312416672706604
1778948763901343000,7.278343017578125,-0.6247624158859253,2.208430528640747,-0.38377609848976135
1778948763917685200,7.294685302734375,-0.594524621963501,2.094046115875244,-0.41813725233078003
1778948763934016000,7.31101611328125,-0.327271044254303,1.7652478218078613,-0.45662176609039307
1778948763950347000,7.327346923828125,-0.12721268832683563,1.3168727159500122,-0.5670356750488281
1778948763966676500,7.343676513671875,-0.10705413669347763,0.8637634515762329,-0.5829181671142578
1778948763982995700,7.35999560546875,-0.038026362657547,0.3147483170032501,-0.6377432942390442
1778948763999316500,7.37631640625,0.11301007121801376,0.12263119965791702,-0.9385944604873657
1778948764015660300,7.392660400390625,0.23426681756973267,0.5729916095733643,-1.3617713451385498
1778948764031989500,7.408989501953125,0.25961771607398987,0.9060658812522888,-1.2150110006332397
1778948764048328400,7.425328369140625,0.22678372263908386,0.5129740834236145,-1.1665998697280884
1778948764064656600,7.44165673828125,0.05146539583802223,0.5378668308258057,-1.788002610206604
1778948764080978200,7.457978271484375,-0.1837177276611328,1.032820463180542,-2.472782611846924
1778948764097338400,7.47433837890625,-0.50335294008255,0.9048441648483276,-3.3478469848632812
1778948764113661700,7.49066162109375,-0.7860308289527893,-0.020005837082862854,-4.418540954589844
1778948764129993200,7.5069931640625,-0.9156870245933533,-1.1965322494506836,-5.0265045166015625
1778948764146302500,7.523302490234375,-1.0163270235061646,-1.3416128158569336,-4.676478862762451
1778948764162651400,7.5396513671875,-1.613753318786621,-0.6253733038902283,-3.419471025466919
1778948764178978000,7.55597802734375,-1.7206547260284424,-0.36972618103027344,-2.4361305236816406
1778948764195306500,7.572306396484375,-1.5248724222183228,-0.365755558013916,-2.1116085052490234
1778948764211649000,7.58864892578125,-0.5051855444908142,0.21578814089298248,-1.7159204483032227
1778948764227973400,7.604973388671875,0.15317445993423462,0.22510384023189545,-0.9640980958938599
1778948764244305200,7.62130517578125,0.6101016402244568,0.8677340745925903,-0.28038713335990906
1778948764260653300,7.6376533203125,0.9506590366363525,1.431868076324463,0.26511552929878235
1778948764276961800,7.6539619140625,1.1223121881484985,1.3900238275527954,0.836885392665863
1778948764293301000,7.670301025390625,1.169806957244873,1.086118459701538,1.5832099914550781
1778948764309628200,7.686628173828125,1.1936306953430176,0.7828238010406494,2.456594467163086
1778948764325968600,7.70296875,1.1345294713974,0.8539896011352539,3.2817208766937256
1778948764342295300,7.71929541015625,1.2823588848114014,0.6925684809684753,3.8812849521636963
1778948764358625300,7.735625244140625,1.2912163734436035,0.1817324161529541,4.176638603210449
1778948764374957300,7.751957275390625,1.1513283252716064,-0.29077184200286865,3.807981252670288
1778948764391303200,7.76830322265625,1.0832167863845825,-0.3828597962856293,3.017216205596924
1778948764407633700,7.784633544921875,0.9326385259628296,-0.3119994103908539,2.3206770420074463
1778948764423966700,7.800966796875,0.778853178024292,-0.6296493411064148,1.8154915571212769
1778948764440299500,7.817299560546875,0.5251913666725159,-0.9451612234115601,1.6052011251449585
1778948764456631000,7.833631103515625,0.19028452038764954,-0.7260133624076843,1.6473509073257446
1778948764472945400,7.8499453125,-0.00015271631127689034,0.21334469318389893,1.3242031335830688
1778948764489279500,7.866279541015625,-0.23976461589336395,0.8918632864952087,0.803440511226654
1778948764505625600,7.88262548828125,-0.6110179424285889,0.4967861473560333,0.3764457106590271
1778948764521955800,7.898955810546875,-0.9056077003479004,0.39416080713272095,-0.33429601788520813
1778948764538289200,7.9152890625,-0.9706648588180542,1.2027937173843384,-1.2707524299621582
1778948764554621700,7.93162158203125,-0.6988298296928406,1.561829686164856,-1.0743592977523804
1778948764570952700,7.94795263671875,-0.1820378452539444,0.7686212062835693,-0.42959097027778625
1778948764587267300,7.964267333984375,-0.07956519722938538,0.14019356667995453,-0.3303253948688507
1778948764603615000,7.980614990234375,-0.25305092334747314,0.35705074667930603,-0.45494189858436584
1778948764619936500,7.9969365234375,-0.20922134816646576,0.5587889552116394,-0.37568211555480957
1778948764636260600,8.013260498046876,0.05849034711718559,0.4034765064716339,0.23548854887485504
1778948764652595200,8.02959521484375,0.3335324227809906,0.00733038317412138,1.0178542137145996
1778948764668917000,8.0459169921875,0.5467243790626526,-0.10002918541431427,1.41384756565094
1778948764685259800,8.062259765625,0.35811975598335266,0.749531626701355,1.6016886234283447
1778948764701578200,8.078578125,0.07757988572120667,2.763096332550049,0.7635815739631653
1778948764717923300,8.09492333984375,0.36483925580978394,1.8034268617630005,-0.30375275015830994
1778948764734255900,8.111255859375,0.3845396637916565,-0.5523748993873596,-0.3399465084075928
1778948764750588400,8.12758837890625,0.46150869131088257,-1.3898711204528809,-0.2249511331319809
1778948764766932500,8.143932373046875,0.39187005162239075,-0.42348232865333557,-0.25305092334747314
1778948764783256800,8.1602568359375,0.1440114825963974,0.9321803450584412,-0.4948008358478546
1778948764799579400,8.176579345703125,-0.015271631069481373,0.6849326491355896,-0.717613935470581
1778948764815923000,8.1929228515625,-0.03848451003432274,-0.20983220636844635,-1.0390818119049072
1778948764832262400,8.209262451171876,-0.07559457421302795,-0.8993463516235352,-1.5183055400848389
1778948764848573000,8.225572998046875,-0.17730364203453064,-1.3515393733978271,-1.9984456300735474
1778948764864905200,8.2419052734375,-0.24358251690864563,-0.8454375267028809,-2.2291998863220215
1778948764881243600,8.25824365234375,-0.3436116874217987,-0.12263119965791702,-2.3408355712890625
1778948764897572600,8.274572509765624,-0.4683809280395508,0.4306600093841553,-2.889392614364624
1778948764913899300,8.290899169921875,-0.7809911966323853,0.6472117304801941,-3.5337026119232178
1778948764930238700,8.30723876953125,-1.2638801336288452,0.2664899528026581,-3.734677314758301
1778948764946573600,8.323573486328126,-1.8449658155441284,-0.3254384696483612,-3.441920280456543
1778948764962916000,8.339916015625,-2.3961188793182373,-0.9320276379585266,-2.956434965133667
1778948764979249400,8.35624951171875,-2.2959370613098145,-1.024420976638794,-2.4912612438201904
1778948764995575600,8.372575439453126,-1.8245017528533936,-0.556345522403717,-2.1430680751800537
1778948765011911700,8.38891162109375,-0.9711230397224426,-0.7082982659339905,-1.5650367736816406
1778948765028240400,8.405240478515625,-0.5913175344467163,-0.21639901399612427,-0.8872817754745483
1778948765044566800,8.42156689453125,-0.21533000469207764,0.6152940392494202,-0.3061962127685547
1778948765060913700,8.43791357421875,0.20570887625217438,0.9573785662651062,0.27748554944992065
1778948765077225700,8.454225830078125,0.5108360648155212,0.8417723178863525,0.803440511226654
1778948765093570000,8.470570068359375,0.7195992469787598,0.5855143666267395,1.315956473350525
1778948765109896400,8.486896484375,0.8642216324806213,0.4847215712070465,1.8635971546173096
1778948765126212000,8.503212158203125,1.0487029552459717,0.4735732674598694,2.3831379413604736
1778948765142546700,8.519546630859375,1.2898420095443726,0.5210680365562439,2.8269317150115967
1778948765158877400,8.53587744140625,1.5887078046798706,0.5319108963012695,3.286149501800537
1778948765175215000,8.552215087890625,1.85244882106781,0.1469130963087082,3.900527238845825
1778948765191542500,8.56854248046875,1.585806131362915,-0.5815436840057373,4.458858013153076
1778948765207875000,8.584875,1.1151344776153564,-1.3483322858810425,4.0072760581970215
1778948765224203800,8.601203857421876,0.9459248185157776,-1.877036213874817,2.782796621322632
1778948765240541700,8.617541748046875,0.6531676650047302,-2.171778678894043,1.4763085842132568
1778948765256888600,8.633888671875,0.31383201479911804,-1.7457001209259033,1.1369729042053223
1778948765273216300,8.65021630859375,-0.057879481464624405,-0.7336491346359253,1.4233160018920898
1778948765289545500,8.66654541015625,-0.4259257912635803,0.7553348541259766,1.4679092168807983
1778948765305880300,8.68288037109375,-0.7718282341957092,1.3070988655090332,1.072221279144287
1778948765322193700,8.699193603515624,-0.6603453159332275,0.55695641040802,-0.12034045159816742
1778948765338529300,8.715529296875,-0.7122688889503479,-0.1339322030544281,-1.5068517923355103
1778948765354859800,8.73185986328125,-0.8234463334083557,-1.2901474237442017,-1.2750284671783447
1778948765371192800,8.74819287109375,-0.2866485118865967,-1.5138767957687378,-0.3459024429321289
1778948765387524900,8.76452490234375,-0.27030786871910095,0.9859365224838257,-0.8930850028991699
1778948765403856400,8.7808564453125,-0.35613444447517395,2.0479257106781006,-1.083064079284668
1778948765420181800,8.797181640625,-0.1595885455608368,1.6936239004135132,-0.4740314185619354
1778948765436533000,8.813532958984375,0.19364428520202637,0.7678576111793518,0.30863967537879944
1778948765452865500,8.829865478515625,0.5135849714279175,-0.3303253948688507,0.8225300312042236
1778948765469193200,8.846193115234374,0.394008070230484,-1.3524556159973145,1.0618364810943604
1778948765485514000,8.862513916015626,0.4847215712070465,-1.6878206729888916,1.1568260192871094
1778948765501848000,8.87884814453125,0.6368269920349121,0.19807305932044983,0.5648976564407349
1778948765518166500,8.89516650390625,0.7461718916893005,3.0666961669921875,-0.23167064785957336
1778948765534511000,8.911510986328125,0.5459607839584351,1.630246639251709,-0.08048149943351746
1778948765550840000,8.927840087890624,0.5264131426811218,-0.3914119005203247,-0.047189339995384216
1778948765567174100,8.944174072265625,0.4847215712070465,-0.4628831446170807,-0.17073683440685272
1778948765583505400,8.96050537109375,0.34758231043815613,-0.01817324012517929,-0.7429648637771606
1778948765599841000,8.976841064453126,0.20341812074184418,-0.10537425428628922,-1.140179991722107
1778948765616158000,8.993157958984375,0.055894169956445694,0.24113905429840088,-1.3894129991531372
1778948765632501200,9.009501220703125,-0.20555615425109863,0.5540547966957092,-1.8290832042694092
1778948765648832500,9.02583251953125,-0.3523165285587311,0.14263702929019928,-2.521040916442871
1778948765665164300,9.042164306640625,-0.4703662395477295,-0.4056145250797272,-3.375335931777954
1778948765681499100,9.0584990234375,-0.7895433306694031,-1.0412198305130005,-3.9593231678009033
1778948765697828400,9.074828369140626,-1.0296133756637573,-0.7721336483955383,-3.8292088508605957
1778948765714160000,9.09116015625,-1.4819591045379639,-0.3677408695220947,-3.0999884605407715
1778948765730492000,9.107491943359374,-1.9245309829711914,0.0025961773935705423,-2.2545509338378906
1778948765746823200,9.1238232421875,-1.8777997493743896,0.19624045491218567,-1.8600846529006958
1778948765763155000,9.140155029296874,-1.335809588432312,0.46868637204170227,-1.6745343208312988
1778948765779480600,9.15648046875,-0.5221370458602905,-0.4795292317867279,-1.4033101797103882
1778948765795814400,9.172814453125,-0.2428189367055893,-0.0731511116027832,-0.6821837425231934
1778948765812149800,9.189149658203124,-0.16310101747512817,0.9381362795829773,0.06322455406188965
1778948765828486100,9.205486083984376,0.09697485715150833,1.4701999425888062,0.68951416015625
1778948765844801000,9.221801025390626,0.451123982667923,1.7646369934082031,1.1869112253189087
1778948765861145600,9.2381455078125,0.788016140460968,1.800678014755249,1.654223084449768
1778948765877475600,9.2544755859375,1.11391282081604,1.4886785745620728,2.0693061351776123
1778948765893812200,9.270812255859376,1.4249958992004395,0.917061448097229,2.3878722190856934
1778948765910141400,9.287141357421875,1.7171422243118286,0.4127921760082245,2.6589436531066895
1778948765926450400,9.303450439453124,1.986533761024475,0.11652254313230515,2.9268081188201904
1778948765942804200,9.31980419921875,1.9616410732269287,0.1647808998823166,3.085175037384033
1778948765959137000,9.336136962890626,1.4253013134002686,0.3400992155075073,2.978731632232666
1778948765975464700,9.352464599609375,1.0506882667541504,0.5198463201522827,2.5364651679992676
1778948765991793700,9.368793701171874,0.7953465580940247,0.8356636762619019,2.0190622806549072
1778948766008131800,9.3851318359375,0.6449210047721863,0.8634580373764038,1.524566888809204
1778948766024464100,9.401464111328124,0.5151121020317078,0.96883225440979,1.2986994981765747
1778948766040792300,9.417792236328125,0.3066543638706207,1.195005178451538,1.310916781425476
1778948766057130800,9.434130859375,-0.033139441162347794,1.4465289115905762,1.3350459337234497
1778948766073460000,9.4504599609375,-0.2695443034172058,1.7841846942901611,1.2599095106124878
1778948766089791500,9.46679150390625,-0.5177083015441895,1.905135989189148,0.902247965335846
1778948766106121500,9.48312158203125,-0.8090910315513611,1.665065884590149,0.4101960062980652
1778948766122449700,9.49944970703125,-0.5123631954193115,0.9289733171463013,0.1420261710882187
1778948766138790400,9.515790283203126,0.20494529604911804,-0.36010506749153137,-0.28328874707221985
1778948766155111700,9.532111572265626,0.31642818450927734,-1.0242682695388794,-0.588874101638794
1778948766171448000,9.548447998046875,-0.20601430535316467,-0.7667886018753052,-0.3646865487098694
1778948766187782100,9.5647822265625,-0.5981897711753845,0.41691553592681885,-0.23609942197799683
1778948766204114200,9.5811142578125,-0.588263213634491,2.065640926361084,0.09865473955869675
1778948766220445700,9.59744580078125,-0.3523165285587311,3.35288667678833,0.34773504734039307
1778948766236776400,9.6137763671875,0.007024950347840786,2.183537721633911,0.11484266817569733
1778948766253124900,9.630124755859375,0.3153591752052307,0.44180828332901,0.004734205547720194
1778948766269455600,9.64645556640625,0.35292738676071167,-0.870330274105072,0.21960605680942535
1778948766285788000,9.662787841796876,0.5983424782752991,-1.7230981588363647,0.44745880365371704
1778948766302119200,9.679119140625,0.893390417098999,-1.2760975360870361,0.36713001132011414
1778948766318446300,9.6954462890625,0.9460775256156921,0.7535023093223572,0.1437060534954071
1778948766334783500,9.711783447265624,0.645684540271759,1.9926424026489258,0.1569923609495163
1778948766351097000,9.72809716796875,0.47448956966400146,1.7360789775848389,0.4440990388393402
1778948766367432200,9.74443212890625,0.11942415684461594,1.2278391122817993,0.43157628178596497
1778948766383762700,9.7607626953125,-0.01237002108246088,1.3009902238845825,0.07849618047475815
1778948766400095700,9.777095703125,0.037110064178705215,1.6856826543807983,-0.27718010544776917
1778948766416427500,9.793427490234375,-0.02428189292550087,1.804495930671692,-0.3576616048812866
1778948766432759300,9.80975927734375,-0.1797471046447754,1.7913622856140137,-0.5097670555114746
1778948766449106700,9.826106689453125,-0.3686571717262268,1.922087550163269,-1.0954340696334839
1778948766465436200,9.842436279296875,-0.784503698348999,2.1403191089630127,-1.4911220073699951
1778948766481771000,9.85877099609375,-1.4592043161392212,1.723708987236023,-2.0873265266418457
1778948766498083600,9.87508349609375,-1.9663752317428589,0.25854870676994324,-2.903748035430908
1778948766514415400,9.891415283203125,-2.051590919494629,-1.6879733800888062,-3.5390477180480957
1778948766530791400,9.90779150390625,-2.1064159870147705,-2.4362833499908447,-3.704592227935791
1778948766547096300,9.924096435546875,-2.845104932785034,-1.853365182876587,-3.665038824081421
1778948766563410700,9.94041064453125,-2.951090097427368,-0.926224410533905,-3.156798839569092
1778948766579746000,9.95674609375,-2.0257818698883057,-0.8442157506942749,-2.6623034477233887
1778948766596076500,9.97307666015625,-1.1230757236480713,-0.7759515643119812,-2.4158194065093994
1778948766612409600,9.98940966796875,-0.546571671962738,-0.8901833891868591,-2.04960560798645
1778948766628743000,10.005742919921875,-0.3217732608318329,0.37262779474258423,-1.392925500869751
1778948766645074000,10.022073974609375,0.03222314268350601,1.178359031677246,-0.7250970602035522
1778948766661397800,10.038397705078125,0.607200026512146,1.2739595174789429,-0.21853704750537872
1778948766677735700,10.054735595703125,0.9408851861953735,1.274264931678772,0.3410155177116394
1778948766694068700,10.07106884765625,1.143081545829773,1.1511754989624023,0.888961672782898
1778948766710400800,10.08740087890625,1.3006848096847534,1.0375546216964722,1.4450017213821411
1778948766726730800,10.103730712890625,1.4242323637008667,1.0584768056869507,1.9981402158737183
1778948766743080000,10.120079833984375,1.5054774284362793,1.0051788091659546,2.4998133182525635
1778948766759386000,10.13638623046875,1.7368426322937012,1.171028733253479,2.80539870262146
1778948766775742200,10.1527421875,2.1169536113739014,1.508837103843689,2.9457449913024902
1778948766792065800,10.169065673828126,2.3133466243743896,1.8278615474700928,2.925586462020874
1778948766808413700,10.18541357421875,2.450791358947754,2.060601234436035,2.7478246688842773
1778948766824736300,10.201736328125,2.107332468032837,1.079246163368225,2.323120594024658
1778948766841041400,10.21804150390625,1.5184582471847534,0.20876319706439972,2.200183868408203
1778948766857384400,10.234384521484374,0.8972083330154419,0.04505131021142006,2.562121629714966
1778948766873732400,10.250732421875,0.4714352488517761,0.27580565214157104,2.9069550037384033
1778948766890065400,10.2670654296875,0.07208210229873657,1.3625348806381226,2.09389328956604
1778948766906393900,10.283393798828126,-0.20555615425109863,1.6030631065368652,0.9697485566139221
1778948766922728400,10.299728515625,-0.4424191415309906,0.7107416987419128,0.04948008432984352
1778948766939061000,10.31606103515625,-1.0473284721374512,2.0757200717926025,-0.41630467772483826
1778948766955390000,10.332389892578124,-1.322981357574463,3.1813862323760986,-1.5082262754440308
1778948766971725800,10.348725830078125,-1.2646437883377075,3.402519464492798,-2.2070560455322266
1778948766988056600,10.365056640625,-0.7976372838020325,2.370615243911743,-1.6881260871887207
1778948767004387000,10.381386962890625,0.5334380865097046,2.468353748321533,-0.5853615999221802
1778948767020709000,10.397709228515625,1.3642147779464722,2.1985039710998535,0.09544769674539566
1778948767037035500,10.414035400390626,1.2386820316314697,0.7374670505523682,1.0714576244354248
1778948767053370600,10.43037060546875,-0.2733621895313263,-0.15317445993423462,1.8029687404632568
1778948767069695200,10.4466953125,-1.0143417119979858,0.18967366218566895,1.969735026359558
1778948767086032600,10.46303271484375,-0.40714168548583984,0.8432994484901428,1.7266106605529785
1778948767102366200,10.4793662109375,0.19074267148971558,0.45494189858436584,1.3487904071807861
1778948767118696200,10.4956962890625,0.059406645596027374,0.007635815534740686,0.9188940525054932
1778948767135029800,10.51202978515625,-0.03329215571284294,0.446389764547348,0.44226643443107605
1778948767151360300,10.5283603515625,0.1537853181362152,1.155909776687622,0.30634891986846924
1778948767167694600,10.544694580078126,0.37522396445274353,1.8668042421340942,0.361174076795578
1778948767184024800,10.56102490234375,0.413097620010376,2.2269091606140137,0.4129449129104614
1778948767200357400,10.577357421875,0.18051068484783173,2.2382102012634277,0.5155702829360962
1778948767216687000,10.59368701171875,-0.21319197118282318,2.060142993927002,0.6400340795516968
1778948767233042200,10.610042236328125,-0.5823072791099548,1.9155206680297852,0.6901249885559082
1778948767249363000,10.626363037109375,-0.6922630667686462,2.5699100494384766,0.8278751373291016
1778948767265701400,10.642701416015624,-0.6716463565826416,3.910606622695923,0.6921103000640869
1778948767282009300,10.65900927734375,-0.835358202457428,4.859280109405518,0.23060162365436554
1778948767298361900,10.67536181640625,-1.1403326988220215,4.934569358825684,0.09743300825357437
1778948767314691300,10.69169140625,-1.1464413404464722,4.829195022583008,0.40622538328170776
1778948767331043300,10.708043212890624,-0.7440338730812073,4.930140495300293,0.7606799602508545
1778948767347324700,10.72432470703125,-0.7009678483009338,4.562247276306152,1.168279767036438
1778948767363673000,10.740673095703125,-0.8419250249862671,3.6952764987945557,1.4205671548843384
1778948767380013300,10.757013427734375,-0.9599747061729431,3.3282992839813232,1.5961909294128418
1778948767396344600,10.773344482421875,-0.8176431059837341,3.1636710166931152,1.2860240936279297
1778948767412670500,10.78967041015625,-0.33429601788520813,2.512336015701294,-0.040164388716220856
1778948767428995000,10.8059951171875,-0.04398229718208313,1.5068517923355103,-0.7615962624549866
1778948767445335600,10.82233544921875,0.09407325088977814,0.9497427344322205,-0.5586362481117249
1778948767461656300,10.83865625,0.028405234217643738,1.7179057598114014,0.09208793938159943
1778948767477997000,10.8549970703125,-0.01237002108246088,2.0624337196350098,0.41523563861846924
1778948767494348000,10.87134814453125,-0.020311269909143448,1.6022995710372925,0.08506298810243607
1778948767510676200,10.88767626953125,-0.09743300825357437,1.2512047290802002,-0.3121521472930908
1778948767527009500,10.904009521484374,-0.16600263118743896,1.482264518737793,-0.42760565876960754
1778948767543340500,10.920340576171874,-0.19562959671020508,1.5961909294128418,-0.5485569834709167
1778948767559656200,10.93665625,-0.206777885556221,1.4808900356292725,-0.9297369122505188
1778948767575996400,10.952996337890625,-0.2727513313293457,1.074512004852295,-1.2035572528839111
1778948767592302800,10.969302734375,-0.47021353244781494,0.5853615999221802,-1.2182179689407349
1778948767608655000,10.985655029296876,-0.8379544019699097,0.14034628868103027,-1.2765556573867798
1778948767624984300,11.001984375,-1.1928671598434448,-0.3217732608318329,-1.4135421514511108
1778948767641321000,11.018321044921874,-1.451415777206421,-0.3943135142326355,-1.8064812421798706
1778948767657650700,11.034650634765624,-1.2510520219802856,0.4584543704986572,-2.3773348331451416
1778948767673983000,11.05098291015625,-0.9760099649429321,0.965319812297821,-2.599384307861328
1778948767690317000,11.067317138671875,-0.6597344875335693,1.1377365589141846,-2.546239137649536
1778948767706645500,11.0836455078125,-0.2701551616191864,1.1771373748779297,-2.3770294189453125
1778948767722994400,11.099994384765624,0.04734205827116966,0.9958630800247192,-2.0118846893310547
1778948767739307500,11.1163076171875,0.26190847158432007,0.675006091594696,-1.6035212278366089
1778948767755635200,11.13263525390625,0.4300491213798523,-0.13698652386665344,-1.4776830673217773
1778948767771991800,11.14899169921875,0.6484334468841553,-0.8382598161697388,-1.5357152223587036
1778948767788316700,11.165316650390626,0.5946773290634155,-0.5816964507102966,-1.8061758279800415
1778948767804660200,11.18166015625,0.018478672951459885,0.7064656615257263,-2.367408275604248
1778948767820984300,11.197984375,0.1472185254096985,0.403781920671463,-2.830902338027954
1778948767837315800,11.21431591796875,0.36942076683044434,-0.7316638231277466,-2.735759973526001
1778948767853642000,11.23064208984375,0.40591996908187866,-0.9117164015769958,-2.1879665851593018
1778948767869970400,11.246970458984375,0.294895201921463,0.10766500234603882,-1.5175420045852661
1778948767886285300,11.263285400390625,0.19089539349079132,0.912327229976654,-1.060614824295044
1778948767902645000,11.27964501953125,0.15347988903522491,1.1815661191940308,-0.8268061280250549
1778948767918972700,11.29597265625,0.20754146575927734,1.1519391536712646,-0.7367035150527954
1778948767935308000,11.31230810546875,0.304669052362442,0.8240572214126587,-0.6021603941917419
1778948767951638300,11.32863818359375,0.3504839241504669,0.6475171446800232,-0.3689626157283783
1778948767967972000,11.34497216796875,0.39064833521842957,0.8445212244987488,-0.06979135423898697
1778948767984301000,11.361301025390626,0.38896843791007996,1.2046263217926025,0.3194825351238251
1778948768000635000,11.377634765625,0.41859540343284607,1.4677565097808838,0.7108944058418274
1778948768016967700,11.3939677734375,0.46929723024368286,1.5234979391098022,1.0144944190979004
1778948768033284400,11.410284423828125,0.5390886068344116,1.3808609247207642,1.1914926767349243
1778948768049611000,11.426611083984374,0.6180428862571716,1.053742527961731,1.2718214988708496
1778948768065950700,11.44295068359375,0.6618725061416626,0.846659243106842,1.321606993675232
1778948768082281000,11.459281005859374,0.6021603941917419,0.8952230215072632,1.416596531867981
1778948768098614000,11.475614013671875,0.4607451260089874,0.8998045325279236,1.563051462173462
1778948768114944300,11.4919443359375,0.3196352422237396,0.8607091307640076,1.783879280090332
1778948768131276300,11.5082763671875,0.2588541507720947,0.7336491346359253,1.99752938747406
1778948768147608800,11.52460888671875,0.18845193088054657,0.5239696502685547,2.233017921447754
1778948768163938800,11.540938720703124,0.0988074541091919,0.3605632185935974,2.2682952880859375
1778948768180272400,11.5572724609375,-0.10690141469240189,0.2701551616191864,1.8976528644561768
1778948768196604400,11.5736044921875,-0.4008803069591522,0.6320928335189819,1.3625348806381226
1778948768212953600,11.58995361328125,-0.5952881574630737,1.1827877759933472,1.0242682695388794
1778948768229266000,11.606265869140625,-0.7640396952629089,1.6073391437530518,0.8810204267501831
1778948768245612800,11.62261279296875,-0.8799513578414917,1.4129313230514526,0.8429940342903137
1778948768261945600,11.638945556640625,-0.816726803779602,0.5780312418937683,0.9071348905563354
1778948768278278400,11.6552783203125,-0.4948008358478546,-1.0488556623458862,0.5677992701530457
1778948768294592800,11.6715927734375,-0.00809396430850029,-0.7919867634773254,-0.45631635189056396
1778948768310940200,11.687940185546875,0.1310305893421173,2.362368583679199,-0.9795224070549011
1778948768327257300,11.70425732421875,-0.0959058403968811,3.0020971298217773,-0.551916778087616
1778948768343605500,11.72060546875,-0.49357911944389343,1.6588045358657837,-0.27030786871910095
1778948768359936300,11.736936279296875,-0.6589708924293518,1.4654656648635864,-0.7605272531509399
1778948768376300500,11.753300537109375,-0.5050328373908997,1.633148193359375,-0.9508117437362671
1778948768392584700,11.769584716796874,-0.2272418737411499,1.7786868810653687,-0.693637490272522
1778948768408934400,11.785934326171875,0.17730364203453064,1.571603536605835,-0.11224649101495743
1778948768425265700,11.802265625,0.5256495475769043,1.0896308422088623,0.29596421122550964
1778948768441598200,11.81859814453125,0.5381723046302795,0.49296826124191284,0.49128836393356323
1778948768457912600,11.83491259765625,0.7195992469787598,-0.3908010423183441,0.5914703011512756
1778948768474247200,11.8512470703125,0.8665123581886292,-0.5954409241676331,0.6618725061416626
1778948768490578000,11.867577880859375,0.8480336666107178,0.6751587986946106,0.35262197256088257
1778948768506912000,11.883912109375,0.7254024744033813,2.4101688861846924,0.08429940044879913
1778948768523240200,11.900240234375,0.6458373069763184,2.336864948272705,0.24266621470451355
1778948768539565300,11.9165654296875,0.518471896648407,1.1362093687057495,0.2064724564552307
1778948768555909600,11.93290966796875,0.2422080636024475,0.8042041063308716,-0.007788531947880983
1778948768572240400,11.949240478515625,0.06719517707824707,0.9381362795829773,-0.1537853181362152
1778948768588569300,11.9655693359375,-0.0019853119738399982,0.8258898258209229,-0.1111774742603302
1778948768604890600,11.981890625,0.05772676691412926,0.6840163469314575,-0.03787364438176155
1778948768621234200,11.998234130859375,0.14828753471374512,0.7884743213653564,-0.2344195395708084
1778948768637567500,12.0145673828125,0.13057245314121246,1.0793988704681396,-0.7156286239624023
1778948768653883100,12.030883056640626,-0.039706241339445114,1.260367751121521,-1.2125675678253174
1778948768670234000,12.047234130859374,-0.27091872692108154,0.8967501521110535,-1.487609624862671
1778948768686564600,12.063564697265624,-0.5432119369506836,0.5265658497810364,-1.990657091140747
1778948768702898200,12.079898193359375,-0.8147414922714233,0.6621779203414917,-2.819143056869507
1778948768719251000,12.0962509765625,-1.0251846313476562,0.1768454909324646,-3.548363447189331
1778948768735570000,12.11256982421875,-1.104138970375061,-1.1930198669433594,-3.8566977977752686
1778948768751906800,12.12890673828125,-1.435227870941162,-1.5916093587875366,-3.755141496658325
1778948768768236800,12.14523681640625,-1.7854063510894775,-1.1407908201217651,-3.4437527656555176
1778948768784561200,12.16156103515625,-1.7988454103469849,-1.2681562900543213,-2.7795896530151367
1778948768800905200,12.1779052734375,-1.5986343622207642,-1.6044375896453857,-2.4755313396453857
1778948768817235500,12.1942353515625,-0.9755517840385437,-1.3261884450912476,-2.052354574203491
1778948768833566000,12.21056591796875,-0.3604104816913605,-0.42088615894317627,-1.2747230529785156
1778948768849903900,12.22690380859375,-0.10476338863372803,0.31001409888267517,-0.4625777006149292
1778948768866220800,12.243220703125,0.12996158003807068,0.7137960195541382,0.18936823308467865
1778948768882559500,12.2595595703125,0.4109596014022827,0.9014843702316284,0.7371616363525391
1778948768898894000,12.27589404296875,0.5948300361633301,1.0239628553390503,1.2043207883834839
1778948768915221200,12.29222119140625,0.6921103000640869,1.0435105562210083,1.6954565048217773
1778948768931560400,12.308560546875,0.7787004709243774,0.7861835956573486,2.1003074645996094
1778948768947883300,12.32488330078125,0.888350784778595,0.20861047506332397,2.333810567855835
1778948768964225500,12.3412255859375,1.0571023225784302,-0.166460782289505,2.5836546421051025
1778948768980554000,12.357553955078124,1.2385293245315552,-0.3246748745441437,2.93963623046875
1778948768996885200,12.37388525390625,1.5460999011993408,-0.522595226764679,3.2898147106170654
1778948769013215700,12.3902158203125,1.432020902633667,-0.4605923891067505,3.4625368118286133
1778948769029548800,12.406548828125,1.048397421836853,-0.608727216720581,3.1587841510772705
1778948769045862700,12.422862548828125,0.7261660695075989,-0.7524332404136658,2.657416582107544
1778948769062199300,12.43919921875,0.4616613984107971,-0.7735081315040588,2.2127065658569336
1778948769078531300,12.45553125,0.20234911143779755,-0.7524332404136658,1.9240728616714478
1778948769094863600,12.471863525390624,-0.07131851464509964,-0.5810855627059937,1.8272507190704346
1778948769111195400,12.4881953125,-0.33948835730552673,-0.1189660057425499,1.3903292417526245
1778948769127527000,12.50452685546875,-0.3799581825733185,0.28649580478668213,0.6904304623603821
1778948769143860000,12.52085986328125,-0.585667073726654,-0.13744467496871948,0.4389066696166992
1778948769160191200,12.537191162109375,-0.6924157738685608,-1.1896600723266602,0.39706242084503174
1778948769176523800,12.553523681640625,-0.7070765495300293,-1.5809192657470703,-0.1846340149641037
1778948769192855600,12.56985546875,-0.2942843437194824,-0.8332201838493347,-1.606881022453308
1778948769209201700,12.58620166015625,0.03695734590291977,-0.19532416760921478,-2.2067506313323975
1778948769225519000,12.60251904296875,-0.4590652287006378,-1.4958562850952148,-0.8888089060783386
1778948769241850000,12.61885009765625,-0.5578727126121521,-1.2705997228622437,0.4384485185146332
1778948769258182000,12.635181884765625,-0.598647952079773,1.5259413719177246,-0.2194533348083496
1778948769274515500,12.651515380859376,-0.5606215596199036,2.439337730407715,-0.13561208546161652
1778948769290847500,12.667847412109374,0.0007635815418325365,1.766927719116211,0.7515169382095337
1778948769307166200,12.684166259765625,-0.003054326167330146,2.3542747497558594,0.3930917978286743
1778948769323498200,12.700498291015625,-0.1342376321554184,2.0922133922576904,0.12568552792072296
1778948769339847200,12.71684716796875,0.1339322030544281,0.688903272151947,0.34544429183006287
1778948769356173300,12.73317333984375,0.3778201639652252,-0.30741792917251587,0.3321579694747925
1778948769372523000,12.74952294921875,0.7420485615730286,-0.8620835542678833,0.194713294506073
1778948769388833000,12.7658330078125,1.0528262853622437,-1.3729196786880493,-0.08414668589830399
1778948769405186800,12.782186767578125,0.9963212013244629,-0.36789360642433167,-0.4488332271575928
1778948769421517800,12.798517822265625,0.5830708742141724,1.0349584817886353,-0.20570887625217438
1778948769437850400,12.814850341796875,0.33139440417289734,1.0349584817886353,-0.1615738570690155
1778948769454180600,12.8311806640625,0.18325957655906677,0.8912523984909058,-0.3810271918773651
1778948769470514000,12.847513916015625,0.29596421122550964,0.7108944058418274,-0.5117523670196533
1778948769486840300,12.86384033203125,0.3094032406806946,0.12797626852989197,-0.5082398653030396
1778948769503161000,12.8801611328125,0.299018532037735,-0.05268712714314461,-0.671493649482727
1778948769519486500,12.896486572265625,0.15653422474861145,0.21624629199504852,-0.9804387092590332
1778948769535824100,12.91282421875,-0.09865473955869675,0.41370847821235657,-1.207375168800354
1778948769552160800,12.929160888671875,-0.3700316250324249,0.7469354867935181,-1.6589572429656982
1778948769568494800,12.945494873046876,-0.6334672570228577,0.7605272531509399,-2.3012821674346924
1778948769584818200,12.961818115234376,-0.9537133574485779,0.2125810980796814,-3.04042911529541
1778948769601156400,12.97815625,-1.328937292098999,-0.9787588119506836,-3.508810043334961
1778948769617490700,12.99449072265625,-1.3671164512634277,-1.4873042106628418,-3.732386589050293
1778948769633818600,13.010818603515625,-1.7024813890457153,-1.2983940839767456,-3.248886823654175
1778948769650151200,13.027151123046876,-1.9223929643630981,-0.7487680912017822,-2.713005304336548
1778948769666483500,13.0434833984375,-1.8205311298370361,-0.9888381361961365,-2.540588617324829
1778948769682816800,13.059816650390625,-1.1134545803070068,-1.6844608783721924,-2.1279489994049072
1778948769699160600,13.07616064453125,-0.6939429044723511,-0.9697485566139221,-1.6018413305282593
1778948769715495400,13.092495361328124,-0.4358523488044739,0.14813482761383057,-1.016479730606079
1778948769731828500,13.108828369140625,-0.2718350291252136,0.7249443531036377,-0.5099197626113892
1778948769748158500,13.125158447265624,-0.1235474944114685,0.9260717034339905,-0.012064588256180286
1778948769764490200,13.141490234375,-0.010690141469240189,0.997237503528595,0.4915938079357147
1778948769780817200,13.157817138671875,0.17287486791610718,0.8924741148948669,0.9992228150367737
1778948769797159400,13.174159423828126,0.35292738676071167,0.8429940342903137,1.5404493808746338
1778948769813485800,13.19048583984375,0.5201517343521118,0.9208793640136719,2.129934310913086
1778948769829818600,13.206818603515625,0.7318165898323059,1.180649757385254,2.7007880210876465
1778948769846156000,13.223156005859375,1.0714576244354248,1.5421292781829834,3.1193833351135254
1778948769862484000,13.23948388671875,1.5149458646774292,1.885893702507019,3.213456630706787
1778948769878815000,13.25581494140625,1.8840610980987549,1.922087550163269,3.145803213119507
1778948769895153000,13.27215283203125,2.021505832672119,1.3359622955322266,3.0700559616088867
1778948769911473200,13.28847314453125,1.8165605068206787,-0.1108720451593399,2.8709139823913574
1778948769927810000,13.30481005859375,1.5134186744689941,-1.240820050239563,2.5780041217803955
1778948769944143400,13.321143310546875,1.1310169696807861,-1.253800868988037,2.666274070739746
1778948769960451300,13.337451416015625,0.6638578176498413,-0.6195700764656067,2.649933338165283
1778948769976814600,13.353814697265625,0.2571742534637451,-0.3039054572582245,2.3131940364837646
1778948769993139500,13.370139404296875,-0.1339322030544281,-0.38087448477745056,1.9408715963363647
1778948770009472300,13.38647216796875,-0.48166725039482117,0.41233405470848083,1.392925500869751
1778948770025787000,13.402786865234376,-0.7099781036376953,1.6342172622680664,0.7554876208305359
1778948770042122200,13.419122314453125,-0.8194757103919983,1.3671164512634277,0.21960605680942535
1778948770058463500,13.43546337890625,-0.765566885471344,0.4363104999065399,-0.4954117238521576
1778948770074786600,13.45178662109375,-0.4056145250797272,0.15729780495166779,-1.2765556573867798
1778948770091116800,13.46811669921875,0.05451972410082817,-1.2638801336288452,-0.8552113175392151
1778948770107451400,13.484451416015625,0.19547687470912933,-1.7705929279327393,-0.42470407485961914
1778948770123783000,13.500782958984376,0.003359758760780096,0.6795876026153564,-0.6785185933113098
1778948770140115000,13.517114990234376,-0.2977968156337738,2.7560713291168213,-0.6015495657920837
1778948770156446500,13.533446533203126,-0.20326541364192963,3.285538673400879,-0.02015855349600315
1778948770172779000,13.549779052734374,-0.028405234217643738,2.9909489154815674,0.5943718552589417
1778948770189111600,13.566111572265624,-0.031001411378383636,2.1540634632110596,1.0004445314407349
1778948770205443300,13.582443359375,0.12797626852989197,0.8463537693023682,1.1023063659667969
1778948770221773600,13.598773681640624,0.3966042697429657,0.16951510310173035,0.7754934430122375
1778948770238121700,13.615121826171874,0.5360342264175415,0.19120082259178162,-0.01160643994808197
1778948770254443000,13.631443115234376,0.6621779203414917,0.6638578176498413,-0.32971450686454773
1778948770270782200,13.6477822265625,0.4963280260562897,1.1129964590072632,0.041691552847623825
1778948770287119400,13.664119384765625,0.28130343556404114,1.741729497909546,0.3029891550540924
1778948770303433200,13.68043310546875,0.07925976812839508,1.9905043840408325,0.05757404863834381
1778948770319819500,13.696819580078126,-0.029932396486401558,1.3197743892669678,-0.23090706765651703
1778948770336098000,13.71309814453125,-0.014355333521962166,0.6940956115722656,-0.42791110277175903
1778948770352443100,13.729443115234375,0.03344487398862839,0.5129740834236145,-0.5010622143745422
1778948770368771800,13.745771728515624,0.07299839705228806,0.7170031070709229,-0.7357872128486633
1778948770385114400,13.7621142578125,-0.00427605677396059,0.7107416987419128,-0.9488264322280884
1778948770401428200,13.77842822265625,-0.13836097717285156,0.8903360962867737,-1.2870930433273315
1778948770417783000,13.794782958984374,-0.4720461070537567,1.22279953956604,-1.7663168907165527
1778948770434100000,13.811099853515625,-0.8232936263084412,0.8280278444290161,-2.819295883178711
1778948770450429000,13.827428955078124,-1.2110403776168823,0.27870726585388184,-3.503312110900879
1778948770466755800,13.843755859375,-1.468672752380371,-0.3845396637916565,-3.933055877685547
1778948770483087400,13.86008740234375,-1.7621935606002808,-1.3519974946975708,-3.7485744953155518
1778948770499415000,13.8764150390625,-2.2996022701263428,-1.3168727159500122,-3.449861526489258
1778948770515760400,13.892760498046876,-2.5228734016418457,-1.5470162630081177,-2.891683340072632
1778948770532072000,13.909072021484375,-1.7229454517364502,-1.4963144063949585,-2.6363415718078613
1778948770548404200,13.925404296875,-0.9894489645957947,-1.2522737979888916,-2.1536054611206055
1778948770564753200,13.941753173828126,-0.7715228199958801,-0.6924157738685608,-1.4566081762313843
1778948770581082000,13.95808203125,-0.4870123267173767,0.29397889971733093,-0.8859072923660278
1778948770597414000,13.974413818359375,-0.13026700913906097,0.8063421249389648,-0.42577308416366577
1778948770613745700,13.99074560546875,0.20922134816646576,1.0221302509307861,0.05497787147760391
1778948770630080500,14.00708056640625,0.45814892649650574,1.1210904121398926,0.4885394871234894
1778948770646408000,14.023407958984375,0.6805039048194885,1.020297646522522,0.7768678665161133
1778948770662742000,14.039741943359376,0.8860600590705872,0.897513747215271,0.9885326623916626
1778948770679078100,14.056078125,0.9882272481918335,0.7422012686729431,1.2157745361328125
1778948770695416000,14.072416015625,1.0293079614639282,0.7118107080459595,1.5593862533569336
1778948770711738400,14.08873828125,1.122159481048584,0.8523097038269043,1.9775235652923584
1778948770728071000,14.10507080078125,1.3683381080627441,1.4162911176681519,2.359314203262329
1778948770744403700,14.12140380859375,1.8286250829696655,2.16322660446167,2.5868616104125977
1778948770760734700,14.137734619140625,2.2264511585235596,2.4614815711975098,2.702162504196167
1778948770777068300,14.154068359375,2.2101104259490967,2.3516783714294434,2.7227790355682373
1778948770793401000,14.170401123046876,1.969276785850525,2.144442558288574,2.387108564376831
1778948770809746700,14.18674658203125,1.5537357330322266,1.6325373649597168,2.0923662185668945
1778948770826076700,14.20307666015625,1.1746938228607178,1.3649784326553345,2.013259172439575
1778948770842410000,14.219409912109375,0.7547240257263184,1.3510812520980835,1.838551640510559
1778948770858742300,14.2357421875,0.4291328489780426,1.0708467960357666,1.6904168128967285
1778948770875057000,14.252056884765626,0.13454307615756989,1.0795515775680542,1.5499178171157837
1778948770891392800,14.268392822265625,-0.280539870262146,1.5329663753509521,1.1582005023956299
1778948770907731500,14.2847314453125,-0.3956879675388336,1.451874017715454,0.46822822093963623
1778948770924054800,14.3010546875,-0.4268420934677124,1.9732474088668823,-0.058948494493961334
1778948770940389000,14.31738916015625,-0.5797111392021179,2.749199151992798,-0.8064948320388794
1778948770956722200,14.33372216796875,-0.499382346868515,2.7991373538970947,-1.198823094367981
1778948770973048000,14.350048095703125,-0.28817567229270935,2.0642664432525635,-0.974177360534668
1778948770989381600,14.366381591796875,-0.11591167747974396,-0.13484850525856018,0.15332718193531036
1778948771005716700,14.382716796875,0.4938845634460449,-1.4848606586456299,0.7596109509468079
1778948771022049800,14.3990498046875,1.12506103515625,-0.812908947467804,0.7047857642173767
1778948771038381800,14.4153818359375,1.0697777271270752,0.3724750876426697,0.7298312783241272
1778948771054715100,14.431715087890625,0.35262197256088257,1.377501130104065,0.8568912148475647
1778948771071035400,14.448035400390625,-0.33368512988090515,1.9630154371261597,1.1061242818832397
1778948771087378200,14.464378173828125,-0.4986187517642975,1.8709275722503662,1.4004086256027222
1778948771103712300,14.480712158203126,-0.5175555944442749,1.4017829895019531,1.5413657426834106
1778948771120041200,14.497041259765625,-0.37690386176109314,0.20570887625217438,1.4494304656982422
1778948771136379600,14.513379638671875,-0.2788599729537964,0.916450560092926,0.6253733038902283
1778948771152707300,14.529707275390624,0.002138028386980295,1.455997347831726,0.20463985204696655
1778948771169039000,14.5460390625,0.09453139454126358,1.7263051271438599,0.2886338233947754
1778948771185386500,14.562386474609376,0.09315694868564606,1.8319848775863647,0.5102251768112183
1778948771201700600,14.57870068359375,-0.016340645030140877,2.2627975940704346,0.6627888083457947
1778948771218035700,14.59503564453125,-0.21609358489513397,2.5169174671173096,0.7351763248443604
1778948771234354700,14.611354736328124,-0.43905940651893616,2.3492350578308105,0.7823656797409058
1778948771250701600,14.62770166015625,-0.5739079117774963,2.127185583114624,0.6351471543312073
1778948771267032300,14.6440322265625,-0.6487388610839844,2.132530689239502,0.20311269164085388
1778948771283364400,14.6603642578125,-0.6433938145637512,2.531730890274048,-0.12446379661560059
1778948771299689500,14.676689453125,-0.5416847467422485,3.1135802268981934,-0.23289237916469574
1778948771316024000,14.693024169921875,-0.4179845452308655,3.3994650840759277,-0.30925053358078003
1778948771332383700,14.7093837890625,-0.37858372926712036,3.18245530128479,-0.29107728600502014
1778948771348708000,14.7257080078125,-0.3597996234893799,2.875342607498169,-0.05497787147760391
1778948771365033000,14.742032958984375,-0.2721404731273651,2.7128524780273438,0.2612976133823395
1778948771381357800,14.75835791015625,-0.30253100395202637,2.531578302383423,0.494189977645874
1778948771397702000,14.774701904296874,-0.3988949954509735,2.149482011795044,0.5568036437034607
1778948771414005500,14.791005615234376,-0.4830417037010193,1.8810068368911743,0.619111955165863
1778948771430367000,14.807366943359375,-0.584750771522522,2.029141664505005,0.7374670505523682
1778948771446695000,14.82369482421875,-0.588263213634491,2.4854578971862793,0.7812966704368591
1778948771463019000,14.84001904296875,-0.5154175758361816,2.654973030090332,0.5322163701057434
1778948771479350000,14.85635009765625,-0.4291328489780426,2.258674144744873,0.012217304669320583
1778948771495688400,14.8726884765625,-0.2396118938922882,1.4422528743743896,-0.46303585171699524
1778948771512014800,14.889014892578125,-0.11423180252313614,0.7770205736160278,-0.6831000447273254
1778948771528344000,14.905343994140624,-0.11239920556545258,0.44806966185569763,-0.6762278079986572
1778948771544681500,14.921681396484376,-0.3121521472930908,0.5064072608947754,-0.6795876026153564
1778948771561009400,14.938009521484375,-0.6145304441452026,0.5593998432159424,-0.9382890462875366
1778948771577338600,14.954338623046874,-0.8710938692092896,0.4712825417518616,-1.418123722076416
1778948771593675300,14.97067529296875,-1.0696250200271606,0.30024027824401855,-2.079232692718506
1778948771610009300,14.98700927734375,-1.3326025009155273,-0.1241583600640297,-2.443155527114868
1778948771626338300,15.00333837890625,-1.2890783548355103,-0.16340644657611847,-2.5619688034057617
1778948771642671000,15.019671142578124,-0.864679753780365,0.7654141783714294,-2.905427932739258
1778948771659004400,15.03600439453125,-0.22357667982578278,2.069000482559204,-2.864347219467163
1778948771675349800,15.052349853515626,0.3110831379890442,2.9995009899139404,-2.3218986988067627
1778948771691685400,15.068685302734375,0.23655757308006287,3.431382894515991,-1.5528194904327393
1778948771708015000,15.08501513671875,-0.42180246114730835,2.8658742904663086,-1.207069754600525
1778948771724347100,15.10134716796875,-0.7031059265136719,1.8967366218566895,-1.3972015380859375
1778948771740677000,15.117677001953124,-0.3585779070854187,1.4202617406845093,-1.85244882106781
1778948771757009000,15.1340087890625,0.02733621932566166,1.1174252033233643,-2.2290472984313965
1778948771773342000,15.150342041015625,0.22128593921661377,-0.10766500234603882,-2.152841806411743
1778948771789674000,15.166674072265625,0.20555615425109863,-1.1191051006317139,-1.8883371353149414
1778948771806001400,15.18300146484375,0.3741549551486969,-0.9683741331100464,-1.8359555006027222
1778948771822324700,15.19932470703125,0.4570799171924591,-0.6171266436576843,-1.4785993099212646
1778948771838660600,15.21566064453125,0.5076290369033813,-0.18295414745807648,-1.3017538785934448
1778948771854989600,15.231989501953125,0.5577199459075928,0.10018189996480942,-1.0881037712097168
1778948771871322600,15.248322509765625,0.5714644193649292,0.3136793076992035,-0.7855727076530457
1778948771887655700,15.26465576171875,0.5772676467895508,0.6403394937515259,-0.4389066696166992
1778948771904003000,15.281003173828125,0.6368269920349121,0.9367618560791016,-0.0555887371301651
1778948771920332800,15.297332763671875,0.7470881938934326,1.0277807712554932,0.26450464129447937
1778948771936663600,15.31366357421875,0.8055785298347473,0.8985827565193176,0.46822822093963623
1778948771952994800,15.329994873046875,0.6493497490882874,0.9480628371238708,0.6391177773475647
1778948771969312300,15.346312255859376,0.4205807149410248,1.2492194175720215,0.8460483551025391
1778948771985646800,15.362646728515625,0.5096143484115601,1.4062118530273438,1.0286970138549805
1778948772001980000,15.37897998046875,0.7791585922241211,1.1459832191467285,1.1012372970581055
1778948772018311400,15.3953115234375,0.8544477820396423,0.7577783465385437,1.0716103315353394
1778948772034649000,15.411649169921875,0.7820602059364319,0.641255795955658,1.0395399332046509
1778948772050976300,15.427976318359375,0.698066234588623,0.6798930168151855,1.0682506561279297
1778948772067309000,15.44430908203125,0.5535966157913208,0.7884743213653564,1.1386528015136719
1778948772083639800,15.460639892578126,0.3787364661693573,0.9135489463806152,1.2974777221679688
1778948772099974100,15.47697412109375,0.2594650089740753,1.0734429359436035,1.5346461534500122
1778948772116304400,15.493304443359374,0.2122756689786911,1.1885910034179688,1.8087719678878784
1778948772132625700,15.509625732421876,0.21762074530124664,1.150259256362915,1.962557315826416
1778948772148970500,15.525970458984375,0.19486601650714874,1.178359031677246,1.8547395467758179
1778948772165317000,15.542317138671875,0.1293507218360901,1.3446670770645142,1.4454598426818848
1778948772181650200,15.558650146484375,0.04138612002134323,1.435227870941162,0.9509644508361816
1778948772197971700,15.5749716796875,-0.03390302136540413,1.365131139755249,0.656069278717041
1778948772214311400,15.5913115234375,-0.050854530185461044,1.1956160068511963,0.5592471361160278
1778948772230618000,15.6076181640625,-0.015577063895761967,0.9578366875648499,0.5835290551185608
1778948772246961700,15.623961669921876,-0.001679879380390048,0.6849326491355896,0.5859724879264832
1778948772263292700,15.640292724609376,0.02168571576476097,0.37461310625076294,0.5070181488990784
1778948772279632400,15.65663232421875,0.04444044828414917,0.0806342139840126,0.37659841775894165
1778948772295947300,15.672947265625,0.07116580009460449,-0.0633772686123848,0.26450464129447937
1778948772312292400,15.689292236328125,-0.033597588539123535,0.005497787147760391,0.26740625500679016
1778948772328641000,15.70564111328125,-0.24419337511062622,0.00809396430850029,0.46273043751716614
1778948772344970000,15.721969970703125,-0.45662176609039307,-0.07849618047475815,0.718224823474884
1778948772361303300,15.73830322265625,-0.43447789549827576,-0.19013181328773499,0.27779096364974976
1778948772377618000,15.754617919921875,-0.5076290369033813,1.373377799987793,-0.6056728959083557
1778948772393950500,15.770950439453125,-0.365755558013916,3.2096385955810547,-0.6296493411064148
1778948772410297300,15.78729736328125,-0.34208452701568604,2.8849637508392334,-0.6186537742614746
1778948772426630100,15.803630126953125,-0.5294674634933472,1.1125383377075195,-0.6875288486480713
1778948772442964700,15.81996484375,-0.502436637878418,0.6148358583450317,-1.0028879642486572
1778948772459284000,15.836283935546875,-0.3689626157283783,1.1281154155731201,-1.0583239793777466
1778948772475607800,15.85260791015625,-0.12736541032791138,1.2741122245788574,-0.7388415336608887
1778948772491946200,15.8689462890625,0.0933096632361412,1.122464895248413,-0.4118759036064148
1778948772508281000,15.885281005859374,0.20983220636844635,1.3797918558120728,-0.43875396251678467
1778948772524611300,15.901611328125,0.304210901260376,1.589929461479187,-0.4389066696166992
1778948772540944100,15.917944091796874,0.4072943925857544,1.2081387042999268,-0.23075434565544128
1778948772557276000,15.93427587890625,0.5395467281341553,0.5633704662322998,-0.04001167416572571
1778948772573608000,15.95060791015625,0.6898195743560791,-0.12629638612270355,0.18784105777740479
1778948772589934000,15.96693408203125,0.6884451508522034,-0.6565274000167847,0.5494732856750488
1778948772606276400,15.9832763671875,0.6198754906654358,-0.4004221558570862,0.8724682927131653
1778948772622602800,15.999602783203125,0.3816380500793457,1.4993687868118286,0.44486260414123535
1778948772638937600,16.0159375,0.10399980843067169,3.034014940261841,-0.24388794600963593
1778948772655273000,16.03227294921875,0.06688974797725677,2.1320724487304688,-0.3449861407279968
1778948772671636000,16.048635986328126,0.09804387390613556,0.5378668308258057,-0.3729332387447357
1778948772687947800,16.06494775390625,0.024587325751781464,-0.022602014243602753,-0.3065016269683838
1778948772704280600,16.081280517578126,0.11392636597156525,0.03588833287358284,-0.43417248129844666
1778948772720595000,16.097594970703124,0.22540926933288574,0.23029619455337524,-0.5734497308731079
1778948772736943400,16.113943359375,0.2298380434513092,0.24113905429840088,-0.5326744914054871
1778948772753276000,16.13027587890625,0.19562959671020508,0.3920227587223053,-0.5343543887138367
1778948772769578800,16.146578857421876,0.03756821155548096,1.1859948635101318,-0.7023423314094543
1778948772785931500,16.162931640625,-0.17547103762626648,2.2146918773651123,-1.2214250564575195
1778948772802259500,16.179259521484376,-0.48426342010498047,1.8272507190704346,-2.067931652069092
1778948772818593300,16.19559326171875,-0.917061448097229,0.3602577745914459,-3.098461151123047
1778948772834923800,16.211923828125,-1.0653489828109741,-1.119410514831543,-4.034764766693115
1778948772851256300,16.22825634765625,-0.9821186065673828,-3.06272554397583,-4.74779748916626
1778948772867578000,16.244578125,-0.9812023043632507,-4.4623703956604,-4.930140495300293
1778948772883934500,16.2609345703125,-0.9291260242462158,-3.8255436420440674,-4.131892681121826
1778948772900265500,16.277265380859376,-1.1102476119995117,-1.9556851387023926,-3.123353958129883
1778948772916596500,16.293596435546874,-0.7127270102500916,-0.588263213634491,-2.4075727462768555
1778948772932941600,16.309941650390623,-0.09773843735456467,0.0734565481543541,-1.6507105827331543
1778948772949261600,16.326261474609375,-0.08445212244987488,0.7808384895324707,-1.1355985403060913
1778948772965565000,16.34256494140625,-0.2506074607372284,1.1056660413742065,-0.5623014569282532
1778948772981911300,16.358911376953124,-0.38240164518356323,0.6766859889030457,-0.182648703455925
1778948772998250000,16.37525,-0.36942076683044434,0.10873401165008545,0.13545936346054077
1778948773014578400,16.391578369140625,-0.166460782289505,-0.3254384696483612,0.4651738703250885
1778948773030910200,16.40791015625,0.11881329119205475,-0.6867652535438538,0.8292495608329773
1778948773047243500,16.424243408203125,0.27718010544776917,-0.9796751141548157,1.2892310619354248
1778948773063573500,16.440573486328127,0.39553526043891907,-1.1953105926513672,1.7788395881652832
1778948773079907800,16.456907958984374,0.5371032953262329,-1.4347697496414185,2.2566888332366943
1778948773096237800,16.47323779296875,0.60429847240448,-1.6394095420837402,2.599384307861328
1778948773112571600,16.489571533203126,0.46364670991897583,-1.5361733436584473,2.8626673221588135
1778948773128904200,16.505904296875,-0.06551529467105865,-1.1359039545059204,3.107471466064453
1778948773145233700,16.522233642578126,-0.5021312236785889,-0.5662720799446106,3.2287282943725586
1778948773161568500,16.538568603515625,-0.2050980031490326,-0.7040221691131592,3.1303789615631104
1778948773177890300,16.554890380859376,-0.11514809727668762,-1.3274102210998535,2.7447702884674072
1778948773194224000,16.57122412109375,-0.5629123449325562,-2.054034471511841,2.1981985569000244
1778948773210579200,16.5875791015625,-0.741284966468811,-2.5060746669769287,1.4960089921951294
1778948773226908700,16.60390869140625,-0.7828238010406494,-2.4937045574188232,0.7828238010406494
1778948773243241200,16.6202412109375,-0.9246972799301147,-2.217288017272949,0.29168814420700073
1778948773259564000,16.63656396484375,-1.0997101068496704,-1.958433985710144,0.30833423137664795
1778948773275906800,16.65290673828125,-0.9983065128326416,-0.8159632682800293,0.5028948187828064
1778948773292215600,16.669215576171876,-0.44623705744743347,0.9404270648956299,-0.10048733651638031
1778948773308569600,16.685569580078123,0.2845104932785034,0.13271047174930573,-1.4477506875991821
1778948773324906000,16.701906005859374,-0.6516404747962952,-0.49357911944389343,-1.1352930068969727
1778948773341240600,16.718240478515625,-1.1012372970581055,0.5991060733795166,-0.21288654208183289
1778948773357569800,16.73456982421875,-0.579405665397644,1.3290899991989136,-0.23777928948402405
1778948773373900300,16.750900390625,-0.49205195903778076,1.4610369205474854,-0.5291619896888733
1778948773390228700,16.767228759765626,-0.31459560990333557,0.0780380368232727,-0.5459607839584351
1778948773406564400,16.783564453125,-0.11545353382825851,-1.3652838468551636,-0.8527678847312927
1778948773422869000,16.799868896484377,-0.18310685455799103,-0.5364924073219299,-0.9517280459403992
1778948773439215400,16.81621533203125,0.030237829312682152,-0.4158465266227722,-0.5187773108482361
1778948773455549000,16.832548828125,0.22159136831760406,-1.013272762298584,-0.09804387390613556
1778948773471876600,16.848876708984374,0.24358251690864563,-0.8327620625495911,0.13637566566467285
1778948773488215800,16.8652158203125,0.3130684494972229,-0.4928155243396759,0.24908030033111572
1778948773504547800,16.8815478515625,0.3191770911216736,-0.11484266817569733,0.13515393435955048
1778948773520878300,16.89787841796875,0.2791654169559479,0.28695395588874817,0.13958270847797394
1778948773537211000,16.9142109375,0.2915354371070862,0.6395758986473083,0.08735372871160507
1778948773553541600,16.930541748046874,0.36071592569351196,0.9279043078422546,-0.01466076634824276
1778948773569872000,16.946871826171876,0.44745880365371704,0.9631817936897278,-0.10262536257505417
1778948773586205700,16.963205810546874,0.5641340613365173,0.5490151643753052,-0.21731531620025635
1778948773602542800,16.97954296875,0.7044803500175476,0.30222558975219727,-0.3361285924911499
1778948773618872000,16.9958720703125,0.7932085394859314,0.45555275678634644,-0.3701843321323395
1778948773635202800,17.012202880859373,0.7461718916893005,0.5676465034484863,-0.29184088110923767
1778948773651555300,17.028555419921876,0.6530149579048157,0.6630942225456238,-0.12858712673187256
1778948773667897300,17.0448974609375,0.6409503817558289,0.9920451641082764,-0.09605856239795685
1778948773684213000,17.061212890625,0.6215553879737854,1.3918564319610596,-0.21930062770843506
1778948773700547300,17.07754736328125,0.5587889552116394,1.4995214939117432,-0.3926336467266083
1778948773716877600,17.093877685546875,0.5134322643280029,1.318858027458191,-0.5253441333770752
1778948773733184800,17.110184814453124,0.4902193546295166,0.7861835956573486,-0.5412266254425049
1778948773749533400,17.126533447265626,0.5183191895484924,0.36392298340797424,-0.49067750573158264
1778948773765857500,17.142857421875,0.5250386595726013,0.11789698898792267,-0.3833179473876953
1778948773782197800,17.15919775390625,0.4492913782596588,0.044745877385139465,-0.2382374405860901
1778948773798526700,17.175526611328124,0.37888917326927185,0.2698497176170349,-0.23319780826568604
1778948773814859500,17.191859619140626,0.34926220774650574,0.6301075220108032,-0.29504790902137756
1778948773831199000,17.208198974609374,0.27840182185173035,0.8570439219474792,-0.3862195611000061
1778948773847533000,17.224532958984376,0.2987131178379059,0.9158397316932678,-0.6440047025680542
1778948773863869200,17.240869140625,0.3455969989299774,0.7148650288581848,-1.149037480354309
1778948773880181800,17.257181640625,0.3790418803691864,0.6246097087860107,-1.6421585083007812
1778948773896519200,17.273519287109377,0.4841107130050659,0.956156849861145,-2.0806069374084473
1778948773912849400,17.289849365234375,0.5450445413589478,1.1362093687057495,-2.5244007110595703
1778948773929177600,17.306177490234376,0.34773504734039307,0.9882272481918335,-2.6337454319000244
1778948773945515800,17.322515869140624,0.1540907621383667,0.33399057388305664,-2.465604782104492
1778948773961861600,17.338861572265625,-0.15515977144241333,-0.8329147696495056,-2.4046709537506104
1778948773978180600,17.3551806640625,-0.22510384023189545,-1.178359031677246,-2.3660337924957275
1778948773994514700,17.3715146484375,-0.33017265796661377,-1.1876747608184814,-2.0671679973602295
1778948774010844400,17.387844482421876,-0.3937026560306549,-0.9593638777732849,-1.6311628818511963
1778948774027172000,17.404172119140625,-0.25534167885780334,-0.7444919943809509,-1.3238977193832397
1778948774043511000,17.420510986328125,-0.08994990587234497,-0.6395758986473083,-0.9219483733177185
1778948774059841300,17.43684130859375,0.0913243517279625,-0.41233405470848083,-0.5035057067871094
1778948774076174000,17.453174072265625,0.11438451707363129,-0.36789360642433167,-0.04642575979232788
1778948774092509200,17.46950927734375,0.08720101416110992,-0.1898263692855835,0.413097620010376
1778948774108836600,17.485836669921873,0.04734205827116966,0.235030397772789,0.9193521738052368
1778948774125173500,17.502173583984376,0.06612616032361984,0.5404630303382874,1.324508547782898
1778948774141521400,17.518521484375,0.21303924918174744,0.656680166721344,1.6339118480682373
1778948774157848300,17.534848388671875,0.30146199464797974,0.7498371005058289,1.963779091835022
1778948774174185000,17.55118505859375,0.35475999116897583,0.959669291973114,2.4013113975524902
1778948774190485000,17.567485107421874,0.3998112976551056,1.0190759897232056,2.8736627101898193
1778948774206835000,17.5838349609375,0.39675697684288025,0.7338019013404846,3.311195135116577
1778948774223166200,17.600166259765626,0.251676470041275,0.07116580009460449,3.5217907428741455
1778948774239484700,17.616484619140625,-0.12751811742782593,-0.451123982667923,3.419929027557373
1778948774255829200,17.632829345703126,-0.5997169613838196,-0.894001305103302,3.16825270652771
1778948774272145200,17.649145263671876,-0.8210029006004333,-1.3687963485717773,2.7878363132476807
1778948774288500500,17.66550048828125,-0.6065891981124878,-1.7563903331756592,2.5749497413635254
1778948774304841500,17.681841552734376,-0.6806566119194031,-2.165975332260132,2.4216225147247314
1778948774321171500,17.69817138671875,-0.9906707406044006,-2.621680974960327,2.2316434383392334
1778948774337505500,17.714505615234376,-1.3054190874099731,-3.0492866039276123,1.9407188892364502
1778948774353838600,17.730838623046875,-0.9459248185157776,-4.354094982147217,0.8439103364944458
1778948774370153000,17.747153076171877,-0.46211954951286316,-5.862473964691162,0.13011430203914642
1778948774386484200,17.763484130859375,0.17073683440685272,-4.475962162017822,0.5907067060470581
1778948774402820400,17.7798203125,0.8350527882575989,0.6727153658866882,-0.6452264189720154
1778948774419156500,17.796156494140625,-0.6397286057472229,5.605605125427246,-0.4990769028663635
1778948774435482400,17.812482421875,-1.3431400060653687,3.446959972381592,0.6603453159332275
1778948774451821800,17.82882177734375,-0.956156849861145,-1.0668761730194092,-0.47280970215797424
1778948774468149000,17.84514892578125,-0.5297728776931763,0.7290676832199097,-1.5369369983673096
1778948774484482600,17.861482666015625,-0.4277583956718445,1.8545868396759033,-1.1568260192871094
1778948774500814600,17.877814697265624,-0.22861631214618683,0.969443142414093,-0.4631885588169098
1778948774517147000,17.89414697265625,-0.10842858254909515,-0.2454151064157486,0.02672535367310047
1778948774533479000,17.91047900390625,-0.10125091671943665,-0.9419541954994202,0.5413793325424194
1778948774549810200,17.92681005859375,0.03420845419168472,-1.0723739862442017,0.7400632500648499
1778948774566142000,17.943141845703124,0.2716823220252991,-1.1757628917694092,0.5366451144218445
1778948774582476000,17.95947607421875,0.48747047781944275,-1.185231328010559,0.22403483092784882
1778948774598794000,17.9757939453125,0.5487096905708313,-0.6950119137763977,0.07498370856046677
1778948774615137500,17.992137451171875,0.35094207525253296,0.3425426781177521,0.1443169116973877
1778948774631479000,18.00847900390625,0.10980302840471268,1.0288498401641846,0.3188716471195221
1778948774647817000,18.02481689453125,0.1670716404914856,0.8810204267501831,0.45005497336387634
1778948774664137500,18.041137451171874,0.18020524084568024,0.7049384713172913,0.4915938079357147
1778948774680483300,18.0574833984375,0.05314527451992035,0.8633053302764893,0.4729624092578888
1778948774696813800,18.073813720703125,-0.016493361443281174,1.475545048713684,0.42791110277175903
1778948774713146400,18.090146484375,-0.06490442901849747,2.462092399597168,0.4607451260089874
1778948774729480000,18.10647998046875,-0.18539759516716003,3.2446107864379883,0.3355177342891693
1778948774745783000,18.122782958984374,-0.4265366494655609,2.8744263648986816,-0.052381694316864014
1778948774762129400,18.13912939453125,-0.432645320892334,1.63467538356781,-0.7903069257736206
1778948774778453000,18.155452880859375,-0.3289509415626526,0.5821545720100403,-1.424843192100525
1778948774794795500,18.17179541015625,-0.37430769205093384,0.6244570016860962,-2.143526077270508
1778948774811128000,18.188128173828126,-0.6192646622657776,1.0102183818817139,-3.0030136108398438
1778948774827459600,18.20445947265625,-0.9326385259628296,0.645684540271759,-3.271336078643799
1778948774843810300,18.220810302734375,-0.9676105380058289,0.2840523421764374,-3.374877691268921
1778948774860121900,18.237121826171876,-0.9570731520652771,-0.4173736870288849,-3.274848461151123
1778948774876468500,18.253468505859374,-0.9207266569137573,-1.6904168128967285,-3.028669834136963
1778948774892801300,18.26980126953125,-0.43447789549827576,-1.9648480415344238,-3.11312198638916
1778948774909111300,18.286111328125,-0.16539175808429718,-0.9779952764511108,-2.6091582775115967
1778948774925453300,18.302453369140625,0.023060163483023643,0.5923865437507629,-1.5057828426361084
1778948774941775400,18.318775390625,0.29397889971733093,1.0836749076843262,-0.6673702597618103
1778948774958118100,18.3351181640625,0.6682865619659424,1.2209669351577759,-0.016798794269561768
1778948774974451000,18.351450927734376,0.9584475755691528,1.0016663074493408,0.5283984541893005
1778948774990781400,18.367781494140626,1.107956886291504,0.8199338912963867,1.130711555480957
1778948775015262500,18.392262451171874,1.2301298379898071,1.508989930152893,2.096336841583252
1778948775031619600,18.40861962890625,1.2602150440216064,1.9434677362442017,2.5132522583007812
1778948775047946500,18.424946533203126,1.2779301404953003,2.1222984790802,2.9602530002593994
1778948775064279000,18.441279052734377,1.347110629081726,1.97385835647583,3.3797647953033447
1778948775080609800,18.45760986328125,1.4950926303863525,1.804801344871521,3.9376373291015625
1778948775096943600,18.473943603515625,1.359175205230713,1.1142182350158691,4.368144512176514
1778948775113262600,18.4902626953125,0.7493789196014404,-0.6288857460021973,4.144262313842773
1778948775129624000,18.5066240234375,0.06582073122262955,-1.598328948020935,3.7339138984680176
1778948775145952000,18.522951904296875,-0.3689626157283783,-1.7841846942901611,3.473227024078369
1778948775162284500,18.539284423828125,-0.8246681094169617,1.4329371452331543,2.0763309001922607
1778948775178630100,18.555630126953126,-1.1571314334869385,4.598440647125244,1.4408783912658691
1778948775194956500,18.57195654296875,-1.1899654865264893,3.81851863861084,1.2615894079208374
1778948775211281400,18.588281494140624,-1.5500705242156982,0.9668469429016113,0.7338019013404846
1778948775227598800,18.604598876953126,-1.505935549736023,0.009010262787342072,-0.88987797498703
1778948775243934000,18.620933837890625,-1.1160508394241333,0.09239336848258972,-1.4517213106155396
1778948775260267000,18.63726708984375,-0.043218716979026794,-0.2838996350765228,-0.27809640765190125
1778948775276597000,18.653596923828125,0.3323107063770294,-0.03481931984424591,0.5166392922401428
1778948775292920600,18.669920654296874,-0.18570303916931152,0.8208501935005188,0.5494732856750488
1778948775309263400,18.686263427734374,-0.12064588814973831,2.2040019035339355,0.8023715019226074
1778948775325598500,18.702598388671873,-0.08032877743244171,2.8687758445739746,0.8333728909492493
1778948775341939000,18.71893896484375,-0.21151208877563477,3.7953057289123535,1.0355693101882935
1778948775358269700,18.735269775390623,-0.14248432219028473,2.794861316680908,0.6681338548660278
1778948775374589400,18.75158935546875,0.2217440903186798,1.6430747509002686,-0.2635883390903473
1778948775390935300,18.767935302734376,0.6531676650047302,0.8393288254737854,-0.7310529947280884
1778948775407257900,18.7842578125,0.9399688839912415,0.07819075137376785,-0.4138612151145935
1778948775423585500,18.80058544921875,0.7235698699951172,0.35934147238731384,0.1950187236070633
1778948775439922000,18.816921875,0.164170041680336,1.730581283569336,0.3878994286060333
1778948775456238800,18.83323876953125,-0.4213443100452423,3.56760573387146,0.06612616032361984
1778948775472584200,18.849584228515624,-0.6600399017333984,4.485278129577637,-0.31581732630729675
1778948775488919000,18.8659189453125,-0.12232576310634613,3.143665313720703,-0.4210388660430908
1778948775505250600,18.88225048828125,0.01466076634824276,1.1523972749710083,-0.9447031021118164
1778948775521569500,18.898569580078124,-0.2444988191127777,-2.534479856491089,-2.7598891258239746
1778948775537915600,18.91491552734375,0.07147123664617538,-1.9824104309082031,-3.1957414150238037
1778948775554247200,18.9312470703125,-0.10903944820165634,-0.903775155544281,-3.5103371143341064
1778948775570577200,18.9475771484375,-0.2588541507720947,-0.29306259751319885,-3.6549594402313232
1778948775586917400,18.96391748046875,-0.5525276064872742,-0.02519819140434265,-3.391523838043213
1778948775603239200,18.9802392578125,0.08338310569524765,-0.6452264189720154,-2.8678596019744873
1778948775619566800,18.99656689453125,0.4141666293144226,0.3168863356113434,-2.0505218505859375
1778948775635922200,19.012922119140626,0.2548835277557373,1.9746218919754028,-1.7516560554504395
1778948775652250600,19.029250732421875,-0.17592918872833252,1.9521726369857788,-1.477835774421692
1778948775668587300,19.045587158203126,-0.3929390609264374,2.3159427642822266,-1.176831841468811
1778948775684923100,19.061923095703126,-0.8252789378166199,2.2255349159240723,-1.2359330654144287
1778948775701252600,19.078252685546875,-0.8072584271430969,2.065182685852051,-1.2655600309371948
1778948775717567200,19.094567138671874,-0.5320636034011841,1.2651019096374512,-1.1059715747833252
1778948775733911000,19.1109111328125,-0.19562959671020508,1.3716979026794434,-0.5723807215690613
1778948775750249200,19.127249267578126,0.03084869496524334,1.2006556987762451,-0.2968805134296417
1778948775766586400,19.14358642578125,0.4642575979232788,0.39797869324684143,-0.2047925740480423
1778948775782910700,19.15991064453125,0.6290385127067566,-0.23228150606155396,0.11728613078594208
1778948775799251700,19.176251708984374,0.6681338548660278,-0.41462478041648865,0.6403394937515259
1778948775815561500,19.1925615234375,0.7396050691604614,-0.2539672255516052,1.1948524713516235
1778948775831896800,19.208896728515626,0.9512699246406555,0.11071932315826416,1.5763378143310547
1778948775848237600,19.225237548828126,0.9779952764511108,0.8232936263084412,2.0331122875213623
1778948775864564700,19.241564697265623,0.9552405476570129,1.204779028892517,2.4246768951416016
1778948775880881000,19.257880859375,0.8153523802757263,1.33168625831604,2.66031813621521
1778948775897224200,19.27422412109375,0.6511823534965515,1.7751743793487549,2.9014573097229004
1778948775913573000,19.290572998046876,0.4893030524253845,3.327383041381836,2.5329527854919434
1778948775929889000,19.306888916015627,-0.04001167416572571,4.7998738288879395,1.3072515726089478
1778948775946221000,19.323220947265625,0.1264491081237793,3.4297029972076416,1.1305588483810425
1778948775962555000,19.339554931640624,0.34437528252601624,2.4017693996429443,1.2331842184066772
1778948775978886000,19.355885986328126,-0.304669052362442,3.137403964996338,1.0479393005371094
1778948775995219200,19.37221923828125,-0.5781839489936829,2.6589436531066895,0.7422012686729431
1778948776011550000,19.388550048828126,-0.6091853380203247,0.5957463383674622,-1.4993687868118286
1778948776027873000,19.404873046875,-0.7489207983016968,1.1946996450424194,-2.526386022567749
1778948776044203500,19.42120361328125,-1.1676689386367798,1.8880317211151123,-1.8988746404647827
1778948776060551400,19.437551513671874,-1.0348057746887207,1.7886134386062622,-0.8558222055435181
1778948776076878800,19.45387890625,-0.4821254014968872,1.5836681127548218,0.24465152621269226
1778948776093213400,19.47021337890625,0.5474879741668701,2.3072381019592285,1.2235630750656128
1778948776109532000,19.486531982421877,1.436144232749939,3.3455562591552734,1.5529721975326538
1778948776125876000,19.5028759765625,1.8112154006958008,3.299741268157959,1.5338826179504395
1778948776142226700,19.519226806640624,1.3267992734909058,2.3603832721710205,1.750128984451294
1778948776158556200,19.53555615234375,0.5575672388076782,0.2041817009449005,1.5341880321502686
1778948776174886400,19.551886474609375,0.10491610318422318,-1.2504411935806274,1.7887661457061768
1778948776191220200,19.56822021484375,-0.30085113644599915,-1.3148874044418335,1.772883653640747
1778948776207552800,19.584552734375,-0.49464812874794006,-0.20784689486026764,1.887420892715454
1778948776223874300,19.600874267578124,-0.17104226350784302,2.5645649433135986,1.9491182565689087
1778948776240215800,19.6172158203125,0.008246680721640587,4.539950370788574,1.023046612739563
1778948776256550700,19.633550537109375,-0.2669481039047241,4.69770622253418,0.1082758679986
1778948776272877800,19.6498779296875,-0.6233879923820496,4.281249046325684,-0.06017022579908371
1778948776289199400,19.666199462890624,-0.8283332586288452,3.5937201976776123,0.16019940376281738
1778948776305517800,19.682517822265623,-0.7586946487426758,2.903289794921875,0.21533000469207764
1778948776321875500,19.69887548828125,-0.5201517343521118,2.2062926292419434,0.04749477282166481
1778948776338213600,19.715213623046875,-0.3286454975605011,1.5989397764205933,-0.2635883390903473
1778948776354527200,19.73152734375,-0.2831360399723053,1.4010194540023804,-0.3604104816913605
1778948776370873300,19.747873291015626,-0.2831360399723053,1.4260649681091309,-0.04444044828414917
1778948776387194600,19.764194580078126,-0.2278527319431305,1.3972015380859375,0.3810271918773651
1778948776403510300,19.78051025390625,-0.3211624026298523,1.2467759847640991,0.5230533480644226
1778948776419857200,19.796857177734374,-0.3674354553222656,1.1189523935317993,0.4277583956718445
1778948776436191500,19.81319140625,-0.2739730477333069,1.149953842163086,0.20402899384498596
1778948776452522800,19.829522705078126,-0.22892175614833832,1.4291192293167114,0.05772676691412926
1778948776468855300,19.845855224609377,-0.25824329257011414,1.633453607559204,0.05604688450694084
1778948776485187800,19.862187744140623,-0.31444287300109863,1.6899586915969849,0.10949759185314178
1778948776501521000,19.87852099609375,-0.34804046154022217,1.8832975625991821,0.1134682223200798
1778948776518113800,19.89511376953125,-0.41141775250434875,2.1540634632110596,0.055741455405950546
1778948776534184200,19.91118408203125,-0.5013676285743713,2.5453226566314697,0.01970040425658226
1778948776550504200,19.927504150390625,-0.5968153476715088,3.361133337020874,-0.36010506749153137
1778948776566848500,19.9438486328125,-0.8391761183738708,4.337448596954346,-1.5196800231933594
1778948776583178800,19.9601787109375,-1.180649757385254,4.460079669952393,-2.8686232566833496
1778948776599501300,19.976501220703124,-1.1791226863861084,3.1119003295898438,-3.550654172897339
1778948776615843600,19.992843505859376,-1.0761919021606445,0.0959058403968811,-4.100585460662842
1778948776632177400,20.009177490234375,-1.4537066221237183,-4.87730073928833,-5.098281383514404
1778948776648510000,20.025510009765625,-0.04932736977934837,-6.798624515533447,-4.972137451171875
1778948776664842200,20.04184228515625,1.1122329235076904,-5.355302810668945,-4.316068172454834
1778948776681172500,20.05817236328125,0.8950703144073486,-1.5625933408737183,-2.9213104248046875
1778948776697525000,20.07452490234375,0.8013024926185608,2.671771764755249,-1.5372424125671387
1778948776713852700,20.090852783203125,0.48747047781944275,5.514280796051025,-1.0093021392822266
1778948776730167600,20.10716748046875,0.36361753940582275,5.210222244262695,-1.3281737565994263
1778948776746505500,20.12350537109375,0.30543261766433716,3.4636058807373047,-1.4555391073226929
1778948776762832600,20.13983251953125,0.1437060534954071,2.5857925415039062,-1.4077389240264893
1778948776779169300,20.156169189453124,-0.04581489413976669,2.3069326877593994,-1.2397509813308716
1778948776795497200,20.172497314453125,-0.022449297830462456,1.9675970077514648,-0.9666942358016968
1778948776811835400,20.18883544921875,-0.04917465150356293,1.0787880420684814,-0.6188064813613892
1778948776828179500,20.205179443359373,-0.12186761945486069,0.11468994617462158,-0.2773328125476837
1778948776844510700,20.2215107421875,-0.029168816283345222,-0.3856086730957031,-0.11209376901388168
1778948776860844300,20.23784423828125,0.098502017557621,-0.4440990388393402,0.01878410577774048
1778948776877173800,20.254173828125,0.26633724570274353,-0.3539963960647583,0.13057245314121246
1778948776893478100,20.27047802734375,0.3880521357059479,-0.13377949595451355,0.3104722499847412
1778948776909826000,20.286825927734377,0.4340197443962097,0.384845107793808,0.6730207800865173
1778948776926157000,20.303156982421875,0.4879286289215088,1.049619197845459,1.1230757236480713
1778948776942489300,20.3194892578125,0.5520694851875305,1.6003142595291138,1.5280793905258179
1778948776958824000,20.335823974609376,0.5911648273468018,1.8803958892822266,1.7733417749404907
1778948776975152000,20.352152099609373,0.6174320578575134,2.109928607940674,1.787697196006775
1778948776991494400,20.368494384765626,0.6890559792518616,2.5717427730560303,1.6006196737289429
1778948777007814400,20.384814453125,0.6976081132888794,2.9275717735290527,1.2286027669906616
1778948777024144000,20.401143798828127,0.44135013222694397,3.0060677528381348,0.8083274364471436
1778948777040484400,20.417484375,0.044135015457868576,1.9582812786102295,0.4294382631778717
1778948777056815600,20.433815673828125,-0.10613783448934555,0.05345070734620094,0.20326541364192963
1778948777073147600,20.450147705078123,-0.2718350291252136,-0.6635523438453674,0.11835514008998871
1778948777089481500,20.4664814453125,-0.3171917796134949,-0.6907358765602112,-0.006872233934700489
1778948777105812000,20.48281201171875,-0.49266281723976135,0.3608686327934265,-0.11591167747974396
1778948777122124500,20.49912451171875,-0.5041165351867676,1.381624460220337,-0.1992947906255722
