time,seconds_elapsed,z,y,x
1779111639946869200,0.080869140625,-0.045750103890895844,0.2840505838394165,0.08827484399080276
1779111639956860400,0.0908603515625,-0.11628361791372299,0.257784366607666,0.10748984664678574
1779111639966851600,0.1008515625,-0.15944653749465942,0.15199482440948486,0.17573708295822144
1779111639976842500,0.110842529296875,-0.17584095895290375,-0.23216761648654938,0.3024645149707794
1779111639986833400,0.12083349609375,-0.20236311852931976,-0.8386836647987366,0.44505417346954346
1779111639996824300,0.13082421875,-0.2062070667743683,-1.4147226810455322,0.5661149621009827
1779111640006815500,0.1408154296875,-0.15244103968143463,-1.7168060541152954,0.6598982214927673
1779111640016806400,0.150806396484375,-0.07438178360462189,-1.5695134401321411,0.7653381824493408
1779111640026797300,0.16079736328125,-0.008585994131863117,-1.1890510320663452,0.8507649302482605
1779111640036788500,0.17078857421875,-0.0015762485563755035,-0.7919312119483948,0.8280211091041565
1779111640046779400,0.180779296875,-0.05268896371126175,-0.45496702194213867,0.7215282320976257
1779111640056770300,0.190770263671875,-0.10352227836847305,-0.3373015224933624,0.5729205012321472
1779111640066761200,0.20076123046875,-0.143675297498703,-0.3455940783023834,0.4078998267650604
1779111640076752400,0.21075244140625,-0.18642497062683105,-0.5219196677207947,0.24980440735816956
1779111640086743300,0.220743408203125,-0.27527227997779846,-0.8899248838424683,0.07432553172111511
1779111640096734200,0.230734130859375,-0.34510233998298645,-1.3573130369186401,-0.14882640540599823
1779111640106725400,0.240725341796875,-0.2591724991798401,-1.6593314409255981,-0.27197548747062683
1779111640116716300,0.25071630859375,-0.08587959408760071,-1.6425907611846924,-0.17434383928775787
1779111640126707200,0.260707275390625,0.038505204021930695,-1.4409765005111694,0.04608068987727165
1779111640136698400,0.270698486328125,0.08223056048154831,-1.142743468284607,0.31691309809684753
1779111640146689500,0.280689453125,0.051100075244903564,-0.7858375310897827,0.5723491311073303
1779111640156680400,0.290680419921875,-0.024036796763539314,-0.5541785359382629,0.7104656100273132
1779111640166671400,0.30067138671875,-0.16734282672405243,-0.6520667672157288,0.6482712030410767
1779111640176662500,0.31066259765625,-0.35096392035484314,-0.8869771957397461,0.4532175064086914
1779111640186653400,0.3206533203125,-0.32819095253944397,-0.8530789017677307,0.19266903400421143
1779111640196644400,0.330644287109375,0.08916261047124863,-0.6222905516624451,-0.05800244212150574
1779111640206635500,0.340635498046875,0.40477460622787476,-0.21020205318927765,-0.3008662462234497
1779111640216626400,0.35062646484375,0.4336721897125244,0.04705306887626648,-0.5163006782531738
1779111640226617300,0.360617431640625,0.4004679024219513,0.19515225291252136,-0.5595439672470093
1779111640236608300,0.370608154296875,0.43568477034568787,0.18777942657470703,-0.4556082487106323
1779111640246599400,0.380599365234375,0.4842405915260315,0.24784408509731293,-0.18410323560237885
1779111640256590300,0.39059033203125,0.41916918754577637,0.22875002026557922,-0.007946052588522434
1779111640266581200,0.400581298828125,0.2287808507680893,0.286678284406662,-0.03881901502609253
1779111640276572400,0.410572509765625,0.04158967733383179,0.4217308759689331,-0.2467760443687439
1779111640286563300,0.420563232421875,-0.0025114715099334717,0.5238977074623108,-0.544215977191925
1779111640296554200,0.43055419921875,0.06188565120100975,0.6571924686431885,-0.7490703463554382
1779111640306545200,0.440545166015625,0.21323761343955994,0.7747595906257629,-0.7415810227394104
1779111640316536300,0.450536376953125,0.46738532185554504,0.753325343132019,-0.5825386047363281
1779111640326527200,0.46052734375,0.6717248558998108,0.7361524701118469,-0.3860441744327545
1779111640336518400,0.470518310546875,0.7311993837356567,0.7452110648155212,-0.24579963088035583
1779111640346509600,0.480509521484375,0.6934956908226013,0.751206636428833,-0.1686244159936905
1779111640356500500,0.49050048828125,0.6200621128082275,0.806672990322113,-0.12325115501880646
1779111640366491400,0.500491455078125,0.5129092931747437,0.890661895275116,-0.09504108875989914
1779111640376482300,0.510482421875,0.3822675943374634,0.8313553333282471,-0.07853318005800247
1779111640386473500,0.520473388671875,0.3044244647026062,0.6384026408195496,-0.06494306772947311
1779111640396464400,0.53046435546875,0.30647143721580505,0.41686856746673584,-0.031170271337032318
1779111640406455300,0.540455322265625,0.3230413496494293,0.2858807146549225,-0.0009577739983797073
1779111640416446500,0.550446533203125,0.3345576226711273,0.18254056572914124,-0.0008204744663089514
1779111640426437400,0.560437255859375,0.35607677698135376,0.1318739354610443,-0.007022976875305176
1779111640436428300,0.57042822265625,0.3887704610824585,0.14857999980449677,0.00035287634818814695
1779111640446419500,0.58041943359375,0.3792526125907898,0.16447080671787262,0.0244547501206398
1779111640456410400,0.590410400390625,0.32706546783447266,0.17318987846374512,0.052937183529138565
1779111640466401300,0.6004013671875,0.2282739132642746,0.20281434059143066,0.05380963534116745
1779111640476392200,0.61039208984375,0.09902382642030716,0.28105461597442627,-0.0031406553462147713
1779111640486383400,0.62038330078125,-0.006482623051851988,0.33173617720603943,-0.1075512170791626
1779111640496374300,0.630374267578125,-0.0892518013715744,0.3429628610610962,-0.22413033246994019
1779111640506365700,0.64036572265625,-0.12389393895864487,0.3569053113460541,-0.29904904961586
1779111640516356600,0.650356689453125,-0.07987000048160553,0.3682636618614197,-0.29414495825767517
1779111640526347500,0.660347412109375,-0.017854826524853706,0.32204023003578186,-0.23022828996181488
1779111640536338700,0.670338623046875,0.03614439815282822,0.22195890545845032,-0.12569525837898254
1779111640546329900,0.680329833984375,0.09628549963235855,0.10001595318317413,-0.0018915554974228144
1779111640556320800,0.69032080078125,0.14556100964546204,0.014084274880588055,0.09867503494024277
1779111640566312000,0.70031201171875,0.15250785648822784,0.0037070016842335463,0.14623455703258514
1779111640576302800,0.710302734375,0.14129574596881866,0.06818242371082306,0.18090009689331055
1779111640586293800,0.720293701171875,0.1148500144481659,0.07555486261844635,0.21721522510051727
1779111640596284700,0.73028466796875,0.02421748824417591,0.014330406673252583,0.23399989306926727
1779111640606275800,0.74027587890625,-0.011653161607682705,-0.02489902265369892,0.2377709299325943
1779111640616266800,0.750266845703125,-0.0004465412348508835,-0.05996411666274071,0.23003119230270386
1779111640626257700,0.760257568359375,0.002848854288458824,-0.06554131209850311,0.19774968922138214
1779111640636248800,0.770248779296875,0.01895887218415737,-0.04900685325264931,0.13937024772167206
1779111640646239700,0.78023974609375,0.041365914046764374,0.03848118335008621,0.05846180021762848
1779111640656230700,0.790230712890625,0.041737549006938934,0.1330409198999405,-0.04547331482172012
1779111640666221800,0.800221923828125,0.0392533540725708,0.1884370595216751,-0.13294963538646698
1779111640676212700,0.810212646484375,0.029848827049136162,0.15713511407375336,-0.16423191130161285
1779111640686203600,0.82020361328125,-0.007326237857341766,0.04040076956152916,-0.12966302037239075
1779111640696194600,0.830194580078125,-0.043697722256183624,-0.10830605775117874,-0.035931963473558426
1779111640706185700,0.840185791015625,-0.07182230055332184,-0.23010148108005524,0.05870798975229263
1779111640716176600,0.8501767578125,-0.09872227162122726,-0.2866789996623993,0.11091716587543488
1779111640726167600,0.86016748046875,-0.1045181080698967,-0.2747805118560791,0.10790086537599564
1779111640736158700,0.87015869140625,-0.07889735698699951,-0.1930101215839386,0.04854825139045715
1779111640746150000,0.88014990234375,-0.026344137266278267,-0.06710118800401688,-0.02469772845506668
1779111640756140800,0.890140869140625,0.027755271643400192,0.05820539966225624,-0.07741370797157288
1779111640766131700,0.900131591796875,0.07165587693452835,0.14626868069171906,-0.11011013388633728
1779111640776123000,0.910122802734375,0.04143793508410454,0.1814761757850647,-0.1382470428943634
1779111640786113800,0.92011376953125,-0.002437375485897064,0.15539264678955078,-0.14989995956420898
1779111640796104700,0.930104736328125,-0.052990157157182693,0.06891463696956635,-0.14574939012527466
1779111640806096000,0.940095947265625,-0.10283228009939194,0.006184674799442291,-0.11991433799266815
1779111640816086800,0.950086669921875,-0.13629485666751862,-0.026568444445729256,-0.1009950116276741
1779111640826077700,0.96007763671875,-0.1496300995349884,-0.022421637549996376,-0.09514670819044113
1779111640836068600,0.970068603515625,-0.11922754347324371,0.054692987352609634,-0.09618595242500305
1779111640846059800,0.980059814453125,-0.060862235724925995,0.1657412052154541,-0.10994943231344223
1779111640856050700,0.99005078125,0.001032440923154354,0.22847293317317963,-0.12014104425907135
1779111640866041600,1.00004150390625,0.05879001319408417,0.19813980162143707,-0.09805944561958313
1779111640876032800,1.01003271484375,0.0956246629357338,0.06851118803024292,-0.0341477207839489
1779111640886023700,1.020023681640625,0.12196891754865646,-0.09290806949138641,0.06481720507144928
1779111640896014600,1.0300146484375,0.13067936897277832,-0.20672565698623657,0.1510435938835144
1779111640906005800,1.040005859375,0.12615147233009338,-0.25435391068458557,0.1776576191186905
1779111640915996700,1.04999658203125,0.10091382265090942,-0.21719688177108765,0.13849131762981415
1779111640925987800,1.05998779296875,0.05689922720193863,-0.1229311004281044,0.059969864785671234
1779111640935978800,1.069978759765625,0.017685672268271446,-0.010617642663419247,-0.02627214975655079
1779111640945970000,1.079969970703125,0.02010755054652691,0.1070040613412857,-0.10394111275672913
1779111640955960800,1.0899609375,0.054068729281425476,0.12067024409770966,-0.1661301851272583
1779111640965951700,1.09995166015625,0.10126660019159317,-0.01485882606357336,-0.17925184965133667
1779111640975943000,1.10994287109375,0.15987583994865417,-0.2622546851634979,-0.11565183103084564
1779111640985933800,1.119933837890625,0.2592572867870331,-0.5785378217697144,0.019284149631857872
1779111640995924700,1.1299248046875,0.36061015725135803,-0.9185135364532471,0.20519787073135376
1779111641005917000,1.1399169921875,0.37797635793685913,-1.0718051195144653,0.36882272362709045
1779111641015907800,1.149907958984375,0.29762282967567444,-0.919901430606842,0.4074667990207672
1779111641025898800,1.159898681640625,0.17442847788333893,-0.5408483743667603,0.29227498173713684
1779111641035889700,1.1698896484375,0.03645138442516327,0.06581338495016098,0.03142150491476059
1779111641045880800,1.179880859375,-0.04009212553501129,0.7394014000892639,-0.32114720344543457
1779111641055871700,1.189871826171875,-0.01717931590974331,1.194653034210205,-0.6576471328735352
1779111641065862700,1.199862548828125,0.08628395944833755,1.3412672281265259,-0.8813998103141785
1779111641075853800,1.209853759765625,0.18779513239860535,1.1096577644348145,-0.9393783807754517
1779111641085844700,1.2198447265625,0.26526862382888794,0.5681831240653992,-0.8005805611610413
1779111641095835600,1.229835693359375,0.4393167197704315,-0.3236162066459656,-0.4730184078216553
1779111641105826800,1.239826904296875,0.612433671951294,-1.3097655773162842,0.012320324778556824
1779111641115817700,1.249817626953125,0.6978785991668701,-2.2095119953155518,0.5920810103416443
1779111641125808600,1.25980859375,0.6370583772659302,-2.787553310394287,1.1267335414886475
1779111641135799600,1.269799560546875,0.4604555368423462,-2.712524652481079,1.467061996459961
1779111641145790700,1.279790771484375,0.232347771525383,-2.005573272705078,1.4246785640716553
1779111641155781600,1.28978173828125,0.1274346262216568,-1.0157731771469116,0.974176287651062
1779111641165772800,1.299772705078125,0.2573505640029907,-0.07592291384935379,0.4035774767398834
1779111641175764000,1.309763916015625,0.4603326618671417,0.49968254566192627,-0.0066336956806480885
1779111641185755000,1.3197548828125,0.5547688603401184,0.4745607078075409,-0.12091339379549026
1779111641195745800,1.329745849609375,0.5803819298744202,-0.19155187904834747,0.11690090596675873
1779111641205736700,1.33973681640625,0.6228404641151428,-1.2432475090026855,0.64156174659729
1779111641215727900,1.349727783203125,0.6853230595588684,-2.377890110015869,1.2699733972549438
1779111641225718800,1.35971875,0.7972807288169861,-3.4763271808624268,1.9311965703964233
1779111641235709700,1.369709716796875,1.0502856969833374,-4.7450995445251465,2.681284189224243
1779111641245700900,1.379700927734375,1.4100662469863892,-6.044374465942383,3.4969162940979004
1779111641255691800,1.38969189453125,1.7981724739074707,-7.071079730987549,4.301046371459961
1779111641265682700,1.3996826171875,2.163374423980713,-7.843090534210205,5.034613132476807
1779111641275673600,1.409673583984375,2.3528196811676025,-8.326944351196289,5.635558605194092
1779111641285664800,1.419664794921875,2.347939968109131,-8.456765174865723,5.923886775970459
1779111641295655700,1.42965576171875,2.378129243850708,-8.563273429870605,5.764487266540527
1779111641305646600,1.439646484375,2.4725959300994873,-8.672547340393066,5.3576531410217285
1779111641315637800,1.4496376953125,2.4663267135620117,-8.344609260559082,4.984132289886475
1779111641325628700,1.459628662109375,1.7939822673797607,-8.667847633361816,3.949373245239258
1779111641335619600,1.46961962890625,1.2754909992218018,-9.173748970031738,1.4701812267303467
1779111641345610800,1.47961083984375,1.9202356338500977,-6.72660493850708,1.1473772525787354
1779111641355601700,1.4896015625,1.6331441402435303,-4.767330646514893,0.7490113377571106
1779111641365592800,1.4995927734375,0.8755937814712524,-3.463029623031616,-0.2391122579574585
1779111641375583700,1.509583740234375,0.354969322681427,-2.0002710819244385,-0.43177664279937744
1779111641385575000,1.519574951171875,0.09356221556663513,-0.9102712869644165,-0.40118199586868286
1779111641395565800,1.52956591796875,0.09684307873249054,-0.6772848963737488,-0.3885613977909088
1779111641405556700,1.539556640625,-0.06192073971033096,-1.2175160646438599,-0.19010847806930542
1779111641415548000,1.5495478515625,-0.36528539657592773,-2.0720291137695312,0.013975896872580051
1779111641425538800,1.559538818359375,-0.502529501914978,-2.5556204319000244,0.14722609519958496
1779111641435529700,1.56952978515625,-0.47049304842948914,-2.4785194396972656,0.1918458789587021
1779111641445520600,1.579520751953125,-0.34959912300109863,-1.8970293998718262,0.28745415806770325
1779111641455512800,1.589512939453125,-0.24528440833091736,-1.2504277229309082,0.36663612723350525
1779111641465503700,1.599503662109375,-0.3565390408039093,-0.6731985807418823,0.46535685658454895
1779111641475494700,1.60949462890625,-0.47201967239379883,-0.544045627117157,0.47222766280174255
1779111641485485800,1.61948583984375,-0.5451191663742065,-0.5859608054161072,0.4762250781059265
1779111641495476700,1.629476806640625,-0.5099049210548401,-0.6644077301025391,0.5628520250320435
1779111641505467600,1.639467529296875,-0.43147557973861694,-0.8896632194519043,0.6695566177368164
1779111641515457800,1.649457763671875,-0.5605212450027466,-0.6226397752761841,1.1252400875091553
1779111641525448700,1.65944873046875,-0.7335665225982666,-0.126250758767128,1.9012287855148315
1779111641535440000,1.66943994140625,-0.7692798376083374,0.5977842211723328,2.8761281967163086
1779111641545430800,1.6794306640625,-0.47470998764038086,0.3730294704437256,3.1776583194732666
1779111641555422000,1.689421875,-0.21182765066623688,-0.5075949430465698,2.3950212001800537
1779111641565412900,1.699412841796875,0.10644911974668503,-0.9518027901649475,1.5383031368255615
1779111641575404000,1.709404052734375,0.29598090052604675,-0.773826539516449,1.1857457160949707
1779111641585395000,1.71939501953125,0.3965807259082794,-0.3616490960121155,1.1638535261154175
1779111641595385900,1.7293857421875,0.5141862630844116,-0.44093409180641174,1.1261000633239746
1779111641605377000,1.739376953125,0.6625469923019409,-1.1289303302764893,0.8473578691482544
1779111641615368000,1.749367919921875,0.8338457345962524,-1.882144570350647,0.3402394652366638
1779111641625358800,1.75935888671875,0.9777778387069702,-2.246839761734009,-0.016239028424024582
1779111641635349800,1.769349853515625,1.0951323509216309,-1.997206211090088,-0.10768742114305496
1779111641645341000,1.7793408203125,1.190443754196167,-1.4258570671081543,-0.2846752405166626
1779111641655331800,1.789331787109375,1.2456694841384888,-0.9728531837463379,-0.7457224130630493
1779111641665322800,1.79932275390625,1.3170483112335205,-0.671433687210083,-1.2143969535827637
1779111641675314000,1.80931396484375,1.417335033416748,-0.4396210014820099,-1.41839599609375
1779111641685304800,1.819304931640625,1.4387396574020386,-0.32137587666511536,-1.3973160982131958
1779111641695295700,1.829295654296875,1.389793872833252,-0.1573646366596222,-1.2118157148361206
1779111641705287000,1.839286865234375,1.4978939294815063,0.3415042757987976,-1.0460747480392456
1779111641715277800,1.84927783203125,1.6311285495758057,0.9792739748954773,-1.3241653442382812
1779111641725268700,1.859268798828125,1.836795687675476,1.0254274606704712,-1.8978047370910645
1779111641735259600,1.869259765625,0.6349804997444153,-0.20425231754779816,-0.472345769405365
1779111641745250800,1.879250732421875,1.019504189491272,-0.6304952502250671,-0.5124164819717407
1779111641755242000,1.889241943359375,1.738695740699768,-1.508531093597412,-0.8577277064323425
1779111641765233000,1.89923291015625,2.053034782409668,-2.0940744876861572,-0.9166834354400635
1779111641775224000,1.90922412109375,2.425530433654785,-2.0275440216064453,-1.1376242637634277
1779111641785215700,1.9192158203125,2.8492929935455322,-1.662771463394165,-1.6118042469024658
1779111641795207000,1.92920703125,2.841088056564331,-0.9786774516105652,-2.21926212310791
1779111641805198000,1.939197998046875,2.941697597503662,-0.763507604598999,-2.405768871307373
1779111641815189000,1.94918896484375,2.7276673316955566,-0.4424717128276825,-2.1617844104766846
1779111641825180000,1.959179931640625,2.3194632530212402,0.1833338439464569,-1.4701465368270874
1779111641835171000,1.969171142578125,1.5697503089904785,-0.0494297556579113,-0.39168405532836914
1779111641845162000,1.979161865234375,0.861844003200531,-0.15032972395420074,-0.220139741897583
1779111641855153000,1.98915283203125,0.6110260486602783,-0.4036133587360382,-0.3265775740146637
1779111641865143800,1.999143798828125,0.6148124933242798,-0.6140981912612915,-0.25651779770851135
1779111641875135000,2.009135009765625,0.7126451730728149,-0.7713349461555481,-0.19556181132793427
1779111641885126000,2.0191259765625,0.7433306574821472,-0.698185384273529,0.007171871140599251
1779111641895116800,2.02911669921875,0.5819673538208008,-0.6243674159049988,-0.02225665934383869
1779111641905108000,2.03910791015625,0.47829580307006836,-0.902667224407196,-0.1348218321800232
1779111641915099000,2.049098876953125,0.37242060899734497,-1.2965495586395264,-0.21783000230789185
1779111641925089800,2.05908984375,0.03109123185276985,-1.6081242561340332,-0.23336103558540344
1779111641935080700,2.069080810546875,-0.45315638184547424,-1.5670617818832397,-0.06793270260095596
1779111641945071900,2.07907177734375,-0.823967456817627,-1.1253408193588257,0.1546148955821991
1779111641955062800,2.089062744140625,-0.7528930902481079,-0.8810657858848572,0.004294208716601133
1779111641965053700,2.0990537109375,-0.33083048462867737,-0.31584712862968445,0.021609017625451088
1779111641975044900,2.109044921875,-0.07995166629552841,0.3073822855949402,0.004785225261002779
1779111641985035800,2.119035888671875,-0.2965012788772583,-0.12217599898576736,-0.14604157209396362
1779111641995027000,2.12902685546875,-0.4668140113353729,-0.2954164147377014,-0.012225484475493431
1779111642005017900,2.139017822265625,-0.6665759086608887,-0.46063414216041565,-0.027904044836759567
1779111642015009000,2.149009033203125,-0.8305890560150146,-0.5015125274658203,-0.15184730291366577
1779111642025000000,2.159,-0.8811821937561035,-0.49666455388069153,-0.1922607719898224
1779111642034990800,2.168990966796875,-0.9193432927131653,-0.5616437196731567,-0.34101730585098267
1779111642044982800,2.178982666015625,-0.8355581164360046,-0.43206384778022766,-0.46224066615104675
1779111642054974000,2.188973876953125,-0.6736887693405151,-0.27171820402145386,-0.49155256152153015
1779111642064964900,2.19896484375,-0.483026921749115,-0.1312636137008667,-0.442741334438324
1779111642074956000,2.2089560546875,-0.32356908917427063,0.022280968725681305,-0.34537631273269653
1779111642084947000,2.218947021484375,-0.20539745688438416,0.3282313048839569,-0.28669968247413635
1779111642094937900,2.228937744140625,-0.13365937769412994,0.615980327129364,-0.2634025514125824
1779111642104929000,2.238928955078125,0.05053737014532089,0.6780378222465515,-0.3004511296749115
1779111642114920000,2.248919921875,0.29061582684516907,0.3709777593612671,-0.07423023134469986
1779111642124910800,2.258910888671875,0.7011231780052185,-0.0013723839074373245,0.3204542398452759
1779111642134901800,2.26890185546875,1.109013557434082,-0.5411363244056702,0.3204708993434906
1779111642144893000,2.278892822265625,1.6374882459640503,-0.9705486297607422,0.11280451714992523
1779111642154883800,2.2888837890625,2.175429105758667,-1.0965485572814941,-0.0217761117964983
1779111642164874800,2.298874755859375,2.4286272525787354,-0.8138592839241028,-0.08204025030136108
1779111642174866000,2.308865966796875,2.5739636421203613,-0.4634844958782196,-0.09761638939380646
1779111642184856800,2.31885693359375,2.62974214553833,0.3115723431110382,0.06171227991580963
1779111642194847700,2.32884765625,2.628452777862549,0.8380084037780762,0.2610226273536682
1779111642204838700,2.338838623046875,2.5537972450256348,0.9186025857925415,0.2952527701854706
1779111642214829800,2.348829833984375,2.639993906021118,0.569650411605835,0.10879018902778625
1779111642224820700,2.35882080078125,2.7633464336395264,0.7444954514503479,-0.0581524558365345
1779111642234812000,2.36881201171875,2.9344873428344727,1.3555183410644531,-0.05818106234073639
1779111642244803000,2.378802978515625,2.7623813152313232,1.8804819583892822,-0.08077505975961685
1779111642254794000,2.3887939453125,2.5533666610717773,2.128621816635132,-0.2534071207046509
1779111642264785700,2.39878564453125,2.7211358547210693,1.8505781888961792,-0.2717283368110657
1779111642274776800,2.40877685546875,3.1051149368286133,0.8707926273345947,-0.5891561508178711
1779111642284767700,2.418767822265625,3.280761241912842,-0.2416832000017166,-0.6078904271125793
1779111642294759000,2.428759033203125,2.920872688293457,-0.5363556146621704,-0.31843042373657227
1779111642304750000,2.43875,2.1899802684783936,-0.2851295471191406,-0.06771113723516464
1779111642314741000,2.448740966796875,1.2353739738464355,-0.011025249026715755,0.16217724978923798
1779111642324732000,2.45873193359375,0.10369299352169037,0.032144591212272644,0.16792167723178864
1779111642334722800,2.468722900390625,-0.34297317266464233,0.13941793143749237,0.05923859030008316
1779111642344714000,2.4787138671875,-0.4067750573158264,0.18791437149047852,0.022138359025120735
1779111642354705000,2.488704833984375,-0.4207204282283783,0.09105873107910156,0.0633324682712555
1779111642364695800,2.49869580078125,-0.3880426585674286,-0.01931171305477619,0.09654448181390762
1779111642374687000,2.50868701171875,-0.3480454087257385,-0.09973657876253128,0.08362100273370743
1779111642384678000,2.518677978515625,-0.2979835271835327,-0.1615821123123169,0.03962744399905205
1779111642394668800,2.528668701171875,-0.24102699756622314,-0.18783904612064362,0.001875534188002348
1779111642404659700,2.53865966796875,-0.20449988543987274,-0.16306579113006592,0.0040992735885083675
1779111642414651000,2.54865087890625,-0.17431646585464478,-0.11860401183366776,0.03956805542111397
1779111642424641800,2.558641845703125,-0.15247748792171478,-0.08446867763996124,0.06208162009716034
1779111642434632700,2.5686328125,-0.17705591022968292,-0.03208146616816521,0.07676856219768524
1779111642444624000,2.578623779296875,-0.226945161819458,0.0203095730394125,0.08828167617321014
1779111642454614800,2.58861474609375,-0.23740968108177185,-0.009606423787772655,0.07811305671930313
1779111642464605700,2.598605712890625,-0.21049045026302338,-0.04211776331067085,0.07846193015575409
1779111642474596900,2.608596923828125,-0.18056882917881012,-0.061479754745960236,0.07953310757875443
1779111642484588800,2.6185888671875,-0.15430447459220886,-0.0789269208908081,0.05191612243652344
1779111642494579700,2.628579833984375,-0.1109069287776947,-0.08915186673402786,0.0015964941121637821
1779111642504571000,2.63857080078125,-0.061282381415367126,-0.08936704695224762,-0.03073028475046158
1779111642514562800,2.648562744140625,-0.015213781967759132,-0.06522805988788605,-0.04891161620616913
1779111642524553700,2.6585537109375,0.03500358387827873,-0.009691024199128151,-0.02857411839067936
1779111642534545000,2.668544921875,0.046560052782297134,0.04281215742230415,0.01410304568707943
1779111642544535800,2.678535888671875,0.029838863760232925,0.07963887602090836,0.03757135197520256
1779111642554526700,2.688526611328125,0.014822065830230713,0.10491710156202316,0.07763153314590454
1779111642564518000,2.698517822265625,-0.035269595682621,0.11455775052309036,0.12805023789405823
1779111642574508800,2.7085087890625,-0.10001300275325775,0.11084598302841187,0.1647384911775589
1779111642584499700,2.718499755859375,-0.1562054306268692,0.13327352702617645,0.17657332122325897
1779111642594491000,2.728490966796875,-0.219742089509964,0.17813760042190552,0.10121821612119675
1779111642604482000,2.73848193359375,-0.2596910893917084,0.03415300324559212,-0.08450211584568024
1779111642614473000,2.748472900390625,-0.22903625667095184,-0.5249136686325073,-0.37973350286483765
1779111642624464000,2.7584638671875,-0.17835897207260132,-0.18883603811264038,-0.3397248387336731
1779111642634455000,2.768455078125,-0.20483018457889557,0.27208349108695984,-0.18361906707286835
1779111642644446000,2.778446044921875,-0.2196192443370819,0.535498857498169,-0.08841904997825623
1779111642654436900,2.788436767578125,-0.2888363003730774,0.6913366317749023,-0.02446511946618557
1779111642664429000,2.798428955078125,-0.32804176211357117,0.5769022107124329,-0.007669094949960709
1779111642674420000,2.808419921875,-0.2767397463321686,0.3106158971786499,-0.059758756309747696
1779111642684411000,2.818410888671875,-0.11781562119722366,0.13342835009098053,-0.1298760622739792
1779111642694402000,2.828402099609375,0.0038355877622962,0.045333266258239746,-0.1679355353116989
1779111642704393000,2.83839306640625,0.02317333221435547,0.03133143112063408,-0.1732834279537201
1779111642714384000,2.8483837890625,-0.02582724392414093,0.028332965448498726,-0.19264791905879974
1779111642724374800,2.858374755859375,-0.08702961355447769,0.06729660928249359,-0.16279813647270203
1779111642734366000,2.868365966796875,-0.1677629053592682,0.18302331864833832,-0.08622419089078903
1779111642744356900,2.87835693359375,-0.2208349108695984,0.3612194061279297,0.005568043328821659
1779111642754347800,2.88834765625,-0.04633478447794914,0.5426427125930786,0.0854814276099205
1779111642764339000,2.8983388671875,0.3364570736885071,0.5803179144859314,0.04948800429701805
1779111642774329900,2.908329833984375,0.6136023998260498,0.5225915908813477,-0.09697169810533524
1779111642784320800,2.91832080078125,0.7249614596366882,0.6477806568145752,-0.17919600009918213
1779111642794311700,2.928311767578125,0.7141553163528442,0.9537138938903809,-0.26751968264579773
1779111642804302800,2.938302734375,0.6314990520477295,0.45895183086395264,-0.33980000019073486
1779111642814293800,2.948293701171875,0.528777003288269,0.2709595561027527,-0.18927079439163208
1779111642824284700,2.95828466796875,0.31118637323379517,0.05471273139119148,-0.022175008431077003
1779111642834275800,2.96827587890625,0.21105137467384338,-0.329444944858551,-0.07688744366168976
1779111642844267800,2.978267822265625,0.2029593586921692,-0.6836677193641663,-0.23992669582366943
1779111642854258700,2.9882587890625,0.1030721515417099,-0.5948459506034851,-0.20503969490528107
1779111642864249900,2.998249755859375,-0.021294279024004936,-0.3441668748855591,-0.10112262517213821
1779111642874240800,3.00824072265625,-0.11202137917280197,-0.18370458483695984,0.02180907502770424
1779111642884231700,3.018231689453125,-0.1729302704334259,-0.2480284571647644,0.053913481533527374
1779111642894222800,3.028222900390625,-0.2052132487297058,-0.44166386127471924,-0.08256412297487259
1779111642904214000,3.038214111328125,-0.2682974338531494,-0.7632541060447693,-0.3839905560016632
1779111642914205000,3.048204833984375,-0.2994840443134308,-0.8399068117141724,-0.5484825372695923
1779111642924195800,3.05819580078125,-0.3064306378364563,-0.8046255111694336,-0.6005329489707947
1779111642934187000,3.06818701171875,-0.2866227924823761,-0.9759774208068848,-0.764458417892456
1779111642944178000,3.078177978515625,-0.2691822648048401,-0.7107433676719666,-0.6249591112136841
1779111642954168800,3.0881689453125,-0.23033970594406128,0.011618745513260365,-0.07807550579309464
1779111642964160000,3.098159912109375,-0.17886480689048767,0.8009181618690491,0.4554121196269989
1779111642974775800,3.10877587890625,-0.18976397812366486,1.2053483724594116,0.7208897471427917
1779111642984767000,3.11876708984375,-0.13245461881160736,0.9245388507843018,0.6088274121284485
1779111642994758000,3.1287578125,-0.03129514679312706,0.3303598165512085,0.2545299530029297
1779111643004748800,3.138748779296875,0.032047338783741,-0.15570808947086334,-0.07737715542316437
1779111643014739700,3.14873974609375,0.0010402323678135872,-0.16093195974826813,-0.1635536402463913
1779111643024731000,3.15873095703125,-0.017101220786571503,-0.03844466805458069,-0.1164601668715477
1779111643034721800,3.1687216796875,-0.017678767442703247,0.025434888899326324,-0.08019400388002396
1779111643044714000,3.1787138671875,-0.006930781528353691,0.01908138580620289,-0.08047123998403549
1779111643054705000,3.188704833984375,-0.0019317958503961563,-0.006303298287093639,-0.08538545668125153
1779111643064695800,3.19869580078125,-0.003652464598417282,-0.0398133248090744,-0.09474673867225647
1779111643074686700,3.208686767578125,-0.0032178256660699844,-0.07595989108085632,-0.10737794637680054
1779111643084678000,3.218677978515625,0.006958911195397377,-0.08212271332740784,-0.1198015958070755
1779111643094668800,3.228668701171875,0.017297055572271347,-0.05308014526963234,-0.12400557100772858
1779111643104659700,3.23865966796875,0.03212979808449745,-0.01805824600160122,-0.13271889090538025
1779111643114651000,3.24865087890625,0.046024974435567856,0.013700875453650951,-0.1438223272562027
1779111643124641800,3.258641845703125,0.04585213586688042,0.059416964650154114,-0.1473371684551239
1779111643134632700,3.2686328125,0.022133568301796913,0.09526675194501877,-0.15461619198322296
1779111643144623900,3.278623779296875,0.0007766140624880791,0.04912775754928589,-0.14318589866161346
1779111643154615000,3.288614990234375,-0.004704899154603481,-0.0041203550063073635,-0.1410960704088211
1779111643164606000,3.29860595703125,-0.006204259116202593,-0.044703468680381775,-0.14316855370998383
1779111643174596900,3.308596923828125,-0.004037119448184967,-0.07685381174087524,-0.1458754688501358
1779111643184588000,3.318588134765625,0.0033347774296998978,-0.09756094962358475,-0.14716310799121857
1779111643194579700,3.328579833984375,0.01739058457314968,-0.10907316952943802,-0.14258141815662384
1779111643204571000,3.33857080078125,0.031667523086071014,-0.1134420856833458,-0.1413971185684204
1779111643214562000,3.34856201171875,0.04247244819998741,-0.11317756772041321,-0.14042101800441742
1779111643224553000,3.358552978515625,0.04915085807442665,-0.1325179785490036,-0.14060185849666595
1779111643234543900,3.3685439453125,0.022774111479520798,-0.25454217195510864,-0.16200168430805206
1779111643244535000,3.37853515625,0.01935834065079689,-0.33682185411453247,-0.22313028573989868
1779111643254526000,3.38852587890625,0.006232863292098045,-0.3171950876712799,-0.29640915989875793
1779111643264516900,3.398516845703125,0.0013787196949124336,-0.3072766661643982,-0.34427177906036377
1779111643274507800,3.4085078125,0.012799848802387714,-0.29756587743759155,-0.35768041014671326
1779111643284499000,3.4184990234375,0.03255224600434303,-0.3406904339790344,-0.3075658679008484
1779111643294489900,3.42848974609375,0.01572701334953308,-0.40083855390548706,-0.20644383132457733
1779111643304480800,3.438480712890625,0.025437431409955025,-0.3084404468536377,-0.11815125495195389
1779111643314472000,3.448471923828125,0.01644248515367508,-0.08964698761701584,0.006454402580857277
1779111643324462800,3.458462890625,0.03461109846830368,0.071857750415802,0.11608289927244186
1779111643334454800,3.468454833984375,0.04512607678771019,0.11956799775362015,0.18667477369308472
1779111643344446000,3.478446044921875,0.045753251761198044,0.1437510997056961,0.20691479742527008
1779111643354436900,3.488436767578125,0.045858874917030334,0.17997418344020844,0.1973423808813095
1779111643364427800,3.498427734375,0.030643964186310768,0.17599621415138245,0.17721182107925415
1779111643374419000,3.5084189453125,0.0069109974429011345,0.1357307732105255,0.1577218770980835
1779111643384409900,3.518409912109375,-0.013979902490973473,0.143745556473732,0.15438680350780487
1779111643394400800,3.52840087890625,-0.03131898492574692,0.1198386624455452,0.1405000537633896
1779111643404391700,3.5383916015625,-0.029151704162359238,0.09575889259576797,0.1116982251405716
1779111643414382800,3.5483828125,-0.028997153043746948,0.09053342044353485,0.10223870724439621
1779111643424373800,3.558373779296875,-0.023343529552221298,0.09121252596378326,0.10785424709320068
1779111643434364700,3.56836474609375,-0.022505983710289,0.0838952511548996,0.11744741350412369
1779111643444355800,3.57835595703125,-0.026128681376576424,0.07171927392482758,0.11641224473714828
1779111643454347000,3.588346923828125,-0.03451114892959595,0.06113789975643158,0.10664636641740799
1779111643464338000,3.598337890625,-0.045623186975717545,0.0456705242395401,0.08905671536922455
1779111643474329900,3.608329833984375,-0.04701888561248779,0.04046772047877312,0.06179621070623398
1779111643484320800,3.61832080078125,-0.04374958574771881,0.005628776736557484,0.024341782554984093
1779111643494312000,3.62831201171875,-0.032947294414043427,-0.03122750110924244,-0.01634395122528076
1779111643504302000,3.638302001953125,-0.015198126435279846,-0.0076585253700613976,-0.034350115805864334
1779111643514293000,3.64829296875,0.00018394924700260162,0.009805504232645035,-0.04015388712286949
1779111643524284000,3.658283935546875,0.010096235200762749,0.004938044585287571,-0.05116019770503044
1779111643534274800,3.66827490234375,0.018178662285208702,-0.016683893278241158,-0.06822120398283005
1779111643544266000,3.678265869140625,0.02575429156422615,-0.041157543659210205,-0.08574134111404419
1779111643554257000,3.6882568359375,0.033078692853450775,-0.05250514671206474,-0.10268568992614746
1779111643564247800,3.698247802734375,0.046074386686086655,-0.05282525718212128,-0.1140344887971878
1779111643574239000,3.708239013671875,0.0454108826816082,-0.05989427492022514,-0.11409959942102432
1779111643584230000,3.71822998046875,0.03730262070894241,-0.06022237613797188,-0.11006757616996765
1779111643594220800,3.728220703125,0.026351768523454666,-0.0394577756524086,-0.10056990385055542
1779111643604211700,3.738211669921875,0.013036763295531273,-0.005983971990644932,-0.09602788090705872
1779111643614203000,3.748202880859375,-0.0032937368378043175,0.012840302661061287,-0.09161566197872162
1779111643624194800,3.75819482421875,-0.013598572462797165,0.007133148610591888,-0.0922393724322319
1779111643634185700,3.768185791015625,-0.024091197177767754,-0.014145726338028908,-0.09382347017526627
1779111643644177000,3.778177001953125,-0.031311292201280594,-0.03580175340175629,-0.08874934911727905
1779111643654167800,3.788167724609375,-0.03290778025984764,-0.04703341796994209,-0.0870571956038475
1779111643664158700,3.79815869140625,-0.029015835374593735,-0.04016805440187454,-0.08541163057088852
1779111643674150000,3.80814990234375,-0.014533376321196556,-0.0038174684159457684,-0.08614861220121384
1779111643684140800,3.818140869140625,-0.014487836509943008,0.09120065718889236,-0.06640180200338364
1779111643694132000,3.828132080078125,-0.008399538695812225,0.19002869725227356,-0.04808731749653816
1779111643704123100,3.838123046875,-0.025909557938575745,0.2509509027004242,-0.057789213955402374
1779111643714114000,3.848114013671875,-0.05787961184978485,0.2995094954967499,-0.06828335672616959
1779111643724105000,3.85810498046875,-0.05872729420661926,0.2642742693424225,-0.0735204666852951
1779111643734096000,3.868095947265625,-0.06594379246234894,0.13727441430091858,-0.06769324094057083
1779111643744087000,3.878087158203125,-0.0696067065000534,-0.013821898028254509,-0.05919909104704857
1779111643754078000,3.888077880859375,-0.07646502554416656,-0.10646537691354752,-0.05569913238286972
1779111643764068900,3.89806884765625,-0.0812523365020752,-0.14286759495735168,-0.05724296718835831
1779111643774060000,3.90806005859375,-0.07548604160547256,-0.16662782430648804,-0.07695137709379196
1779111643784052000,3.918052001953125,-0.06275932490825653,-0.18078279495239258,-0.09914109855890274
1779111643794043000,3.92804296875,-0.04845631867647171,-0.1926759034395218,-0.12476059794425964
1779111643804034000,3.938033935546875,-0.036982085555791855,-0.2063342034816742,-0.14875540137290955
1779111643814025000,3.94802490234375,-0.018753593787550926,-0.21621842682361603,-0.17074213922023773
1779111643824016000,3.958015869140625,0.0034766104072332382,-0.21061913669109344,-0.17940753698349
1779111643834007000,3.968007080078125,0.02756568416953087,-0.18913543224334717,-0.17674100399017334
1779111643843998000,3.977998046875,0.04659956321120262,-0.17461082339286804,-0.17559638619422913
1779111643853988900,3.98798876953125,0.061717454344034195,-0.1576077938079834,-0.17559440433979034
1779111643863979800,3.997979736328125,0.07509450614452362,-0.12600646913051605,-0.18291810154914856
1779111643873971000,4.007970947265625,0.07917440682649612,-0.10778532922267914,-0.18877719342708588
1779111643883961900,4.0179619140625,0.08590341359376907,-0.08795170485973358,-0.19125765562057495
1779111643893952800,4.027952880859375,0.08172444999217987,-0.05094761401414871,-0.18000108003616333
1779111643903944000,4.03794384765625,0.07740693539381027,-0.02597701922059059,-0.16742803156375885
1779111643913934800,4.047934814453125,0.07046229392290115,-0.014447948895394802,-0.15498670935630798
1779111643923925800,4.05792578125,0.06417377293109894,-0.019625132903456688,-0.14304110407829285
1779111643933917000,4.0679169921875,0.06618355214595795,-0.03291882202029228,-0.13219425082206726
1779111643943908000,4.077908203125,0.06437607109546661,-0.026689691469073296,-0.11767388880252838
1779111643953899800,4.087899658203125,0.06206822395324707,-0.023201240226626396,-0.1041807308793068
1779111643963890700,4.097890625,0.061253830790519714,-0.04669617861509323,-0.0980067253112793
1779111643973881900,4.1078818359375,0.056585125625133514,-0.044481292366981506,-0.08985491096973419
1779111643983872800,4.117872802734375,0.049620963633060455,-0.06189357116818428,-0.07912663370370865
1779111643993864000,4.127864013671875,0.04949786514043808,-0.10232378542423248,-0.078178271651268
1779111644003855000,4.137855224609375,0.032677605748176575,-0.10133389383554459,-0.0658198669552803
1779111644013846000,4.147845947265625,0.011456414125859737,-0.02301744930446148,-0.03865513578057289
1779111644023837000,4.1578369140625,0.012101165018975735,-0.05116838961839676,-0.047228116542100906
1779111644033828000,4.167828125,0.01686887815594673,-0.10147697478532791,-0.05817336216568947
1779111644043819000,4.177819091796875,0.005736866034567356,-0.09423583745956421,-0.044917743653059006
1779111644053810000,4.187809814453125,0.000761641189455986,-0.0713719055056572,-0.02936575375497341
1779111644063800800,4.19780078125,0.00945313274860382,-0.11389566212892532,-0.040103089064359665
1779111644073792000,4.2077919921875,0.01193635817617178,-0.10763627290725708,-0.03483649343252182
1779111644083783000,4.217782958984375,0.013653830625116825,-0.07524903863668442,-0.008803027682006359
1779111644093773800,4.22777392578125,0.019564248621463776,-0.030874187126755714,0.02947329543530941
1779111644103765000,4.237764892578125,0.014459234662353992,0.014348951168358326,0.0673394501209259
1779111644113756000,4.247755859375,0.008121115155518055,0.05520777031779289,0.0951092541217804
1779111644123746800,4.257746826171875,-0.0008292375132441521,0.07262644171714783,0.10891242325305939
1779111644133739000,4.267739013671875,-0.008343125693500042,0.0668853148818016,0.10881496220827103
1779111644143730000,4.27772998046875,-0.016325684264302254,0.04540000110864639,0.09626109153032303
1779111644153720800,4.287720947265625,-0.02082265168428421,0.02527863346040249,0.07658883929252625
1779111644163712000,4.2977119140625,-0.019475892186164856,0.012640601955354214,0.056960005313158035
1779111644173703000,4.307702880859375,-0.016379687935113907,0.00245859008282423,0.04619423300027847
1779111644183693800,4.31769384765625,-0.0140526182949543,-0.00005277065793052316,0.03939571604132652
1779111644193684700,4.327684814453125,-0.013499063439667225,0.0006810249178670347,0.034625161439180374
1779111644203676000,4.337676025390625,-0.011467071250081062,0.010545107536017895,0.035160455852746964
1779111644213666800,4.347666748046875,-0.007977409288287163,0.02302507497370243,0.03493763133883476
1779111644223657700,4.35765771484375,-0.006003207992762327,0.031717099249362946,0.033500056713819504
1779111644233649000,4.36764892578125,-0.00433858809992671,0.043237049132585526,0.029280420392751694
1779111644243640000,4.37764013671875,0.0027733836323022842,0.05427904799580574,0.020626211538910866
1779111644253631000,4.387630859375,0.009244748391211033,0.054037902504205704,0.009834736585617065
1779111644263622000,4.397621826171875,0.008962186984717846,0.047545649111270905,0.0016076992033049464
1779111644273613000,4.407613037109375,0.010113201104104519,0.041188109666109085,-0.003262643702328205
1779111644283604000,4.41760400390625,0.009387490339577198,0.03361833840608597,-0.006517559289932251
1779111644293595000,4.427594970703125,0.009668104350566864,0.02845115028321743,-0.00842648558318615
1779111644303586000,4.4375859375,0.011673465371131897,0.01936577633023262,-0.016772564500570297
1779111644313577000,4.447576904296875,0.012448676861822605,0.00680230837315321,-0.021233201026916504
1779111644323567900,4.45756787109375,0.009723729453980923,-0.013747175224125385,-0.0255387332290411
1779111644333560000,4.46756005859375,0.0025690970942378044,-0.035115472972393036,-0.02966485545039177
1779111644343551000,4.477551025390625,-0.0056680599227547646,-0.056952860206365585,-0.04098089411854744
1779111644353542000,4.4875419921875,-0.009675528854131699,-0.07238488644361496,-0.05243990197777748
1779111644363533000,4.497532958984375,-0.014425542205572128,-0.09719009697437286,-0.06178094074130058
1779111644373524000,4.50752392578125,-0.012257528491318226,-0.11426720768213272,-0.07174193114042282
1779111644383515000,4.517514892578125,-0.016850681975483894,-0.12832683324813843,-0.07631750404834747
1779111644393505800,4.527505859375,-0.030817067250609398,-0.06777308881282806,-0.0501030869781971
1779111644403497000,4.5374970703125,-0.013966714963316917,-0.0990295484662056,-0.06105799973011017
1779111644413487900,4.54748779296875,-0.010042929090559483,-0.07446680963039398,-0.04758274927735329
1779111644423478800,4.557478759765625,-0.0036755772307515144,-0.02980613149702549,-0.025902489200234413
1779111644433470000,4.567469970703125,-0.008243097923696041,-0.014156892895698547,-0.00808008760213852
1779111644443460900,4.5774609375,-0.024530459195375443,0.11109370738267899,0.04278868809342384
1779111644453451800,4.58745166015625,-0.007576651405543089,0.024958260357379913,0.007598580792546272
1779111644463442700,4.597442626953125,-0.00841554719954729,-0.0035804412327706814,-0.011932776309549809
1779111644473433900,4.607433837890625,-0.009910885244607925,-0.0246101263910532,-0.016326306387782097
1779111644483425000,4.617425048828125,-0.029624667018651962,0.04607256501913071,0.02078431099653244
1779111644493416000,4.627416015625,-0.016133833676576614,-0.04163318872451782,-0.014055460691452026
1779111644503407000,4.637406982421875,-0.018838273361325264,-0.04696936532855034,-0.0228100698441267
1779111644513397800,4.647397705078125,-0.015802165493369102,-0.042076826095581055,-0.016642550006508827
1779111644523388700,4.657388671875,-0.015312143601477146,-0.034737952053546906,-0.011568164452910423
1779111644533379800,4.6673798828125,-0.027629293501377106,0.05670826509594917,0.02702139876782894
1779111644543370800,4.677370849609375,-0.016840029507875443,0.049801621586084366,0.03253787010908127
1779111644553361700,4.687361572265625,-0.010845539160072803,-0.01676599308848381,-0.002985726110637188
1779111644563353900,4.697353759765625,-0.003717321902513504,-0.015275420621037483,-0.005027305334806442
1779111644573344800,4.7073447265625,0.00026718806475400925,-0.009594496339559555,-0.004096076358109713
1779111644583335700,4.717335693359375,0.0052201347425580025,0.003133016638457775,-0.0034052524715662003
1779111644593326800,4.727326904296875,0.002331133931875229,0.0013817930594086647,-0.005432912148535252
1779111644603317800,4.73731787109375,0.0035151755437254906,-0.005712868180125952,-0.007311239838600159
1779111644613308700,4.74730859375,0.0037807244807481766,-0.003696693805977702,-0.006746834143996239
1779111644623299800,4.7572998046875,-0.00743571063503623,0.0729655921459198,0.02791181020438671
1779111644633290800,4.767290771484375,0.0017550475895404816,0.02892780303955078,0.005507654044777155
1779111644643281700,4.77728173828125,-0.0031385114416480064,0.0006112106493674219,-0.01117864903062582
1779111644653272600,4.7872724609375,0.0025850683450698853,-0.008103951811790466,-0.012203164398670197
1779111644663263700,4.797263671875,0.005143299698829651,-0.007928716018795967,-0.010832169093191624
1779111644673254700,4.807254638671875,0.005540112033486366,-0.01260549295693636,-0.014185355044901371
1779111644683245600,4.81724560546875,0.004441823810338974,-0.035956356674432755,-0.02312585338950157
1779111644693236700,4.82723681640625,0.002985183149576187,-0.05254272744059563,-0.029984552413225174
1779111644703227600,4.8372275390625,0.004560975357890129,-0.047417208552360535,-0.028054825961589813
1779111644713218800,4.84721875,0.009045364335179329,-0.02082374133169651,-0.017077814787626266
1779111644723210000,4.8572099609375,0.010360432788729668,0.007026531267911196,-0.000562753644771874
1779111644733201000,4.867200927734375,0.010629198513925076,0.031880877912044525,0.016299284994602203
1779111644743191800,4.87719189453125,0.019671693444252014,0.06636294722557068,0.03164042532444
1779111644753182700,4.8871826171875,0.025349313393235207,0.11523492634296417,0.052856720983982086
1779111644763174000,4.897173828125,0.03000239096581936,0.16909150779247284,0.07806433737277985
1779111644773164800,4.907164794921875,0.03451056778430939,0.20873072743415833,0.09621815383434296
1779111644783155700,4.91715576171875,0.034487929195165634,0.221346914768219,0.10725242644548416
1779111644793147000,4.92714697265625,0.03247156739234924,0.22043384611606598,0.10865059494972229
1779111644803137800,4.9371376953125,0.030485648661851883,0.20236270129680634,0.10255008935928345
1779111644813128700,4.947128662109375,0.029236918315291405,0.17666909098625183,0.08757323026657104
1779111644823119600,4.95711962890625,0.015749605372548103,0.1413116306066513,0.06966693699359894
1779111644833110800,4.96711083984375,0.00043111201375722885,0.08774200826883316,0.04639289528131485
1779111644843102700,4.977102783203125,0.01568543165922165,0.06127364933490753,0.038354940712451935
1779111644853093600,4.98709375,0.019651800394058228,0.045280277729034424,0.026065358892083168
1779111644863084800,4.997084716796875,0.015079152770340443,0.034863054752349854,0.011562849394977093
1779111644873075700,5.00707568359375,0.013635296374559402,0.02367052249610424,0.0008887830190360546
1779111644883066600,5.017066650390625,0.012482680380344391,0.013269547373056412,-0.0043949284590780735
1779111644893057800,5.027057861328125,0.012450910173356533,-0.008532053790986538,-0.007140306290239096
1779111644903048700,5.037048583984375,0.010984041728079319,-0.02541702799499035,-0.009191205725073814
1779111644913039600,5.04703955078125,0.008556011132895947,-0.025317391380667686,-0.0052192541770637035
1779111644923030800,5.05703076171875,0.008489699102938175,-0.02047150395810604,-0.0017289152601733804
1779111644933021700,5.067021728515625,0.01000804454088211,-0.015490694902837276,0.0005176522536203265
1779111644943012600,5.0770126953125,0.01325736753642559,-0.016786854714155197,0.004487892612814903
1779111644953003500,5.08700341796875,0.014710593037307262,-0.024588685482740402,0.004186572507023811
1779111644962994700,5.09699462890625,0.017085600644350052,-0.027191923931241035,0.0020483206026256084
1779111644972985900,5.10698583984375,0.014788043685257435,-0.029445158317685127,-0.0011674845591187477
1779111644982976800,5.116976806640625,0.015101230703294277,-0.028422771021723747,-0.0066005997359752655
1779111644992968000,5.126968017578125,0.01574760302901268,-0.03151153773069382,-0.006384997628629208
1779111645002958800,5.136958740234375,0.01511803362518549,-0.02833998017013073,-0.006245980504900217
1779111645012949800,5.14694970703125,0.013360637240111828,-0.02596260979771614,-0.0025509584229439497
1779111645022940700,5.156940673828125,0.015774261206388474,-0.021527914330363274,0.0019207552541047335
1779111645032931800,5.166931884765625,0.015302739106118679,-0.017387129366397858,0.007274470292031765
1779111645042922800,5.1769228515625,0.012639577500522137,-0.01638578064739704,0.013287089765071869
1779111645052913700,5.18691357421875,0.013426152057945728,-0.011344517581164837,0.016849104315042496
1779111645062904800,5.19690478515625,0.0122940419241786,-0.005230432376265526,0.022988757118582726
1779111645072895700,5.206895751953125,0.012453734874725342,0.005160822067409754,0.029935801401734352
1779111645082886700,5.21688671875,0.01172269694507122,0.014606256037950516,0.0364629402756691
1779111645092877600,5.226877685546875,0.00843993853777647,0.01216796599328518,0.03783789277076721
1779111645102868700,5.23686865234375,0.004815642721951008,0.0035443834494799376,0.03435394540429115
1779111645112859600,5.246859619140625,-0.0003196569159626961,-0.0029505339916795492,0.025161363184452057
1779111645122850600,5.2568505859375,-0.005092840176075697,-0.011666527017951012,0.014142267405986786
1779111645132841700,5.266841796875,-0.008122066035866737,-0.011774019338190556,0.008077679201960564
1779111645142832600,5.27683251953125,-0.00895243976265192,-0.004453788511455059,0.00973789393901825
1779111645152823800,5.28682373046875,-0.007788631599396467,0.003729206044226885,0.00873023085296154
1779111645162815000,5.29681494140625,-0.005061022005975246,0.007418749388307333,0.00938749872148037
1779111645172806000,5.306805908203125,-0.0017186887562274933,0.00825764611363411,0.006101271137595177
1779111645182796800,5.316796875,0.004904859699308872,0.008195328526198864,0.003952632658183575
1779111645192787700,5.32678759765625,0.009675961919128895,0.007249839138239622,0.0005715219886042178
1779111645202779000,5.33677880859375,0.010234693996608257,0.003149902680888772,-0.0009667198173701763
1779111645212769800,5.346769775390625,0.009924890473484993,0.0021558068692684174,-0.004334246274083853
1779111645222760700,5.3567607421875,0.007279306650161743,-0.0026341546326875687,-0.010778564028441906
1779111645232753000,5.3667529296875,0.002299596555531025,-0.00819889921694994,-0.019369767978787422
1779111645242743800,5.376743896484375,0.00043032411485910416,-0.007242558058351278,-0.02164623886346817
1779111645252734700,5.386734619140625,-0.0011924970895051956,-0.008891447447240353,-0.022627349942922592
1779111645262726000,5.396725830078125,-0.0013373726978898048,-0.007493553217500448,-0.02178153023123741
1779111645272716800,5.406716796875,-0.0005065761506557465,-0.013527213595807552,-0.022456945851445198
1779111645282707700,5.416707763671875,0.0003075525164604187,-0.022479962557554245,-0.029833901673555374
1779111645292698600,5.42669873046875,0.0029628602787852287,-0.028696777299046516,-0.03420776501297951
1779111645302689800,5.436689697265625,-0.004526481032371521,0.005578904412686825,-0.02398042567074299
1779111645312680700,5.4466806640625,0.004644131287932396,-0.020789489150047302,-0.034067753702402115
1779111645322671600,5.456671630859375,0.006467331200838089,-0.021473921835422516,-0.03135266155004501
1779111645332662800,5.466662841796875,0.007501443848013878,-0.024973710998892784,-0.02697819471359253
1779111645342653700,5.47665380859375,0.004968777298927307,-0.03145105391740799,-0.02349824085831642
1779111645352644600,5.48664453125,0.0017581069841980934,-0.04789227619767189,-0.027252156287431717
1779111645362635800,5.4966357421875,0.0005690054967999458,-0.05305348336696625,-0.03251935541629791
1779111645372626700,5.506626708984375,0.0005142353475093842,-0.05735675245523453,-0.036870088428258896
1779111645382617600,5.51661767578125,0.001970185898244381,-0.05167197063565254,-0.03808369114995003
1779111645392608800,5.52660888671875,0.00144929438829422,-0.04609774053096771,-0.03224216029047966
1779111645402600000,5.536599853515625,0.0035167066380381584,-0.04951164498925209,-0.030529482290148735
1779111645412590800,5.5465908203125,0.00017959065735340118,-0.060649383813142776,-0.03152942284941673
1779111645422581800,5.556581787109375,-0.014717865735292435,-0.026873843744397163,-0.016397342085838318
1779111645432573000,5.566572998046875,-0.011383830569684505,-0.0986013263463974,-0.0331207774579525
1779111645442563800,5.576563720703125,-0.017018280923366547,-0.10334548354148865,-0.02715209871530533
1779111645452554800,5.5865546875,-0.017023658379912376,-0.06744826585054398,-0.011176858097314835
1779111645462545700,5.596545654296875,-0.01885191909968853,0.00965902954339981,0.015464605763554573
1779111645472536800,5.606536865234375,-0.010793770663440228,0.0443401113152504,0.03153727576136589
1779111645482527700,5.61652783203125,-0.008675226010382175,0.09328901022672653,0.0537501722574234
1779111645492518700,5.6265185546875,-0.013739909045398235,0.1060955822467804,0.06835814565420151
1779111645502509800,5.636509765625,-0.029897838830947876,0.09892288595438004,0.0743960589170456
1779111645512501800,5.646501708984375,-0.042226456105709076,0.08858456462621689,0.07856254279613495
1779111645522492700,5.65649267578125,-0.05941849201917648,0.0778576210141182,0.08309737592935562
1779111645532483800,5.66648388671875,-0.07620595395565033,0.07577350735664368,0.09245385229587555
1779111645542474800,5.676474853515625,-0.08960005640983582,0.06961147487163544,0.10570520907640457
1779111645552465700,5.686465576171875,-0.11980237066745758,0.1482313573360443,0.1454826444387436
1779111645562456800,5.696456787109375,-0.1119401827454567,0.08447155356407166,0.13448591530323029
1779111645572447700,5.70644775390625,-0.10596855729818344,0.07226824760437012,0.1344653218984604
1779111645582438700,5.716438720703125,-0.0944349393248558,0.08386178314685822,0.14093974232673645
1779111645592429600,5.7264296875,-0.08272460848093033,0.10190212726593018,0.14837640523910522
1779111645602420700,5.736420654296875,-0.08586341142654419,0.20562265813350677,0.18388992547988892
1779111645612411600,5.74641162109375,-0.07393085211515427,0.18489724397659302,0.1770760715007782
1779111645622402600,5.756402587890625,-0.06420046091079712,0.12054356187582016,0.14956828951835632
1779111645632393700,5.766393798828125,-0.0590890571475029,0.1134803295135498,0.13170672953128815
1779111645642384600,5.776384521484375,-0.05927947163581848,0.19551527500152588,0.14245711266994476
1779111645652375800,5.786375732421875,-0.06371623277664185,0.2301114946603775,0.14322108030319214
1779111645662366700,5.79636669921875,-0.04096591845154762,0.16605448722839355,0.1108064204454422
1779111645672358000,5.80635791015625,-0.03327435255050659,0.16718487441539764,0.11199932545423508
1779111645682348800,5.816348876953125,-0.02267204411327839,0.17274156212806702,0.11648941040039062
1779111645692339700,5.826339599609375,-0.01749279350042343,0.17612306773662567,0.11738192290067673
1779111645702331000,5.836330810546875,-0.01278778724372387,0.16815462708473206,0.10555508732795715
1779111645712321800,5.84632177734375,-0.007127939723432064,0.1403094083070755,0.08921778202056885
1779111645722312700,5.856312744140625,-0.0022863131016492844,0.11136537045240402,0.0670408383011818
1779111645732304000,5.866303955078125,0.001228228211402893,0.09678526967763901,0.051644906401634216
1779111645742294800,5.876294677734375,0.005439750850200653,0.10601925104856491,0.036478735506534576
1779111645752285700,5.88628564453125,0.0050452472642064095,0.12670402228832245,0.02465684711933136
1779111645762276600,5.896276611328125,0.004545104689896107,0.13685545325279236,0.010140489786863327
1779111645772267800,5.906267822265625,0.0013615032657980919,0.13446949422359467,-0.00556511664763093
1779111645782258700,5.9162587890625,-0.005831694696098566,0.11368273198604584,-0.022364601492881775
1779111645792249600,5.92624951171875,-0.023249482735991478,0.1625731736421585,-0.01927552931010723
1779111645802240800,5.93624072265625,-0.016913555562496185,0.11861211061477661,-0.038081441074609756
1779111645812231700,5.946231689453125,-0.00958431325852871,0.06809360533952713,-0.044115666300058365
1779111645822222600,5.95622265625,-0.007851926609873772,0.06514841318130493,-0.03783193975687027
1779111645832213800,5.9662138671875,0.0077581508085131645,0.07938696444034576,-0.02921835519373417
1779111645842205000,5.976204833984375,0.014727910049259663,0.10109545290470123,-0.014627426862716675
1779111645852195800,5.98619580078125,0.012579739093780518,0.12942183017730713,-0.0027671223506331444
1779111645862186800,5.996186767578125,0.006177766248583794,0.15454423427581787,0.006075904238969088
1779111645872178000,6.006177978515625,-0.004556326195597649,0.1687144786119461,0.0069589391350746155
1779111645882168800,6.0161689453125,-0.010250963270664215,0.1546977311372757,0.006559198722243309
1779111645892159700,6.02615966796875,-0.020155057311058044,0.18548540771007538,0.014656457118690014
1779111645902150700,6.036150634765625,-0.022675473242998123,0.15302734076976776,0.000303883571177721
1779111645912141800,6.046141845703125,-0.01751498132944107,0.10248082876205444,-0.026972511783242226
1779111645922132700,6.0561328125,-0.01727263256907463,0.09124469012022018,-0.03762542083859444
1779111645932123600,6.06612353515625,-0.01740802824497223,0.09634411334991455,-0.04352817311882973
1779111645942114800,6.07611474609375,-0.019435759633779526,0.10204274952411652,-0.03602764382958412
1779111645952105700,6.086105712890625,-0.03136899322271347,0.15027575194835663,-0.0027559692971408367
1779111645962096600,6.0960966796875,-0.018511250615119934,0.052335336804389954,-0.020928047597408295
1779111645972087600,6.106087646484375,-0.018911849707365036,-0.013489915989339352,-0.03245386481285095
1779111645982078700,6.11607861328125,-0.015472909435629845,-0.053857844322919846,-0.041801828891038895
1779111645992069600,6.126069580078125,-0.010904609225690365,-0.06353393197059631,-0.05085467919707298
1779111646002060500,6.136060546875,-0.010460927151143551,-0.06653638184070587,-0.053455788642168045
1779111646012051700,6.1460517578125,-0.009046275168657303,-0.06735127419233322,-0.05415342003107071
1779111646022042600,6.156042724609375,-0.006945840083062649,-0.06935663521289825,-0.054911356419324875
1779111646032033800,6.16603369140625,-0.005484758410602808,-0.061958663165569305,-0.05531259998679161
1779111646042025000,6.17602490234375,-0.0039497120305895805,-0.06067848205566406,-0.06085064262151718
1779111646052015900,6.186015869140625,-0.0011382745578885078,-0.07284415513277054,-0.07332801818847656
1779111646062006800,6.1960068359375,0.00040529388934373856,-0.09226153045892715,-0.09112060070037842
1779111646071997700,6.205997802734375,0.00565617810934782,-0.11046402901411057,-0.1103963777422905
1779111646081988900,6.21598876953125,0.009257038123905659,-0.11880718171596527,-0.13055996596813202
1779111646091979800,6.225979736328125,0.011675016954541206,-0.12366484105587006,-0.14588594436645508
1779111646101970700,6.235970703125,0.00977325439453125,-0.08746768534183502,-0.1427900195121765
1779111646111961900,6.2459619140625,0.017682205885648727,-0.0947195515036583,-0.15019479393959045
1779111646121952800,6.255952880859375,0.02967202290892601,-0.11449778079986572,-0.15157003700733185
1779111646131943700,6.265943603515625,0.03490042686462402,-0.11187233030796051,-0.14161331951618195
1779111646141934600,6.2759345703125,0.04449180141091347,-0.10045748949050903,-0.13180409371852875
1779111646151925800,6.28592578125,0.05001812055706978,-0.10011865198612213,-0.12667405605316162
1779111646161916700,6.295916748046875,0.06082203611731529,-0.10274586081504822,-0.12656407058238983
1779111646171907600,6.305907470703125,0.05754787102341652,-0.08151759952306747,-0.1275673657655716
1779111646181898800,6.315898681640625,0.07049296796321869,-0.13814972341060638,-0.1499088853597641
1779111646191889700,6.3258896484375,0.07704690843820572,-0.16472318768501282,-0.15906745195388794
1779111646201880600,6.335880615234375,0.07523062825202942,-0.18856993317604065,-0.16808705031871796
1779111646211871700,6.345871826171875,0.0717291459441185,-0.21289843320846558,-0.17955273389816284
1779111646221863000,6.35586279296875,0.05311444774270058,-0.15374483168125153,-0.172593355178833
1779111646231853800,6.365853759765625,0.05936582013964653,-0.18586452305316925,-0.1907435804605484
1779111646241844700,6.3758447265625,0.06417522579431534,-0.2116769552230835,-0.1813327670097351
1779111646251836000,6.3858359375,0.06430485099554062,-0.1964845508337021,-0.167256698012352
1779111646261826800,6.395826904296875,0.06172610819339752,-0.18334825336933136,-0.15111181139945984
1779111646271817700,6.405817626953125,0.04544134438037872,-0.11131516098976135,-0.1285901963710785
1779111646281809000,6.415808837890625,0.0545930340886116,-0.16948844492435455,-0.1348683387041092
1779111646291799800,6.4257998046875,0.055842187255620956,-0.19341690838336945,-0.12110752612352371
1779111646301790700,6.435790771484375,0.059627871960401535,-0.1919305920600891,-0.11150257289409637
1779111646311781600,6.44578173828125,0.05898810178041458,-0.174884632229805,-0.09236623346805573
1779111646321772800,6.455772705078125,0.05701230466365814,-0.1605118215084076,-0.07829009741544724
1779111646331763700,6.465763671875,0.05513940006494522,-0.1336585432291031,-0.058880750089883804
1779111646341754600,6.475754638671875,0.05409437417984009,-0.10021190345287323,-0.036381568759679794
1779111646351745800,6.485745849609375,0.04899916797876358,-0.06803237646818161,-0.015712151303887367
1779111646361736700,6.49573681640625,0.04383236914873123,-0.04156561195850372,0.0010825415374711156
1779111646371727600,6.5057275390625,0.03753519803285599,-0.017651483416557312,0.01675592176616192
1779111646381718500,6.515718505859375,0.031702347099781036,-0.0016456195153295994,0.02819260023534298
1779111646391709700,6.525709716796875,0.02896370366215706,0.005578479263931513,0.03402320668101311
1779111646401700600,6.53570068359375,0.02173668146133423,0.006161178927868605,0.03554333746433258
1779111646411691800,6.54569189453125,0.013138268142938614,-0.0021082430612295866,0.03550446033477783
1779111646421683000,6.555682861328125,0.008090246468782425,-0.010380287654697895,0.036736972630023956
1779111646431673900,6.565673828125,0.006577358581125736,-0.011349774897098541,0.04009673744440079
1779111646441664800,6.575664794921875,0.005143779329955578,-0.006365935318171978,0.0428863987326622
1779111646451655700,6.58565576171875,0.003374139778316021,-0.007921336218714714,0.043086566030979156
1779111646461646800,6.595646728515625,0.004820236936211586,-0.001445593312382698,0.046264249831438065
1779111646471637800,6.6056376953125,0.006352268159389496,0.013197742402553558,0.054366566240787506
1779111646481628700,6.615628662109375,0.01142745278775692,0.037963010370731354,0.062137670814991
1779111646491619800,6.625619873046875,0.007803424261510372,0.04939604178071022,0.06492012739181519
1779111646501610800,6.63561083984375,0.0012051770463585854,0.052560675889253616,0.06253526359796524
1779111646511601200,6.64560107421875,-0.006282979156821966,0.0373627245426178,0.05011361837387085
1779111646521592000,6.655592041015625,-0.00499747134745121,0.03356292471289635,0.04037497192621231
1779111646531583000,6.6655830078125,-0.012927118688821793,0.03262410685420036,0.03363548964262009
1779111646541574000,6.675573974609375,-0.017323996871709824,0.044306330382823944,0.03562886640429497
1779111646551565000,6.68556494140625,-0.022751906886696815,0.060987479984760284,0.04928728938102722
1779111646561556200,6.69555615234375,-0.0278843492269516,0.08596765995025635,0.06634058058261871
1779111646571547100,6.705547119140625,-0.02833046391606331,0.08468993753194809,0.07165008038282394
1779111646581538300,6.715538330078125,-0.028924614191055298,0.05330459028482437,0.05751163139939308
1779111646591529200,6.725529296875,-0.028944753110408783,0.028283199295401573,0.03310359641909599
1779111646601520000,6.73552001953125,-0.028674710541963577,0.0301242433488369,0.007743115536868572
1779111646611511300,6.74551123046875,-0.027060935273766518,0.04690022021532059,-0.00040679745143279433
1779111646621502200,6.755502197265625,-0.02629074826836586,0.07613532990217209,0.006318483501672745
1779111646631493000,6.7654931640625,-0.02441610023379326,0.09814786911010742,0.01986643671989441
1779111646641484000,6.775484130859375,-0.021193675696849823,0.10473252832889557,0.03822653368115425
1779111646651475200,6.78547509765625,-0.019690699875354767,0.09509506076574326,0.04407832771539688
1779111646661466000,6.795466064453125,-0.02338876575231552,0.06318213790655136,0.03591068089008331
1779111646671457000,6.80545703125,-0.027228381484746933,0.01692434959113598,0.015594878233969212
1779111646681448200,6.8154482421875,-0.03082524798810482,-0.027707567438483238,-0.010603170841932297
1779111646691439000,6.825439208984375,-0.0293288491666317,-0.053163595497608185,-0.029824038967490196
1779111646701429200,6.83542919921875,-0.023312237113714218,-0.055389728397130966,-0.04340136796236038
1779111646711420200,6.845420166015625,-0.01830325834453106,-0.033894509077072144,-0.04672836512327194
1779111646721411300,6.855411376953125,-0.012285579927265644,0.00010766711784526706,-0.04081721231341362
1779111646731402200,6.86540234375,-0.010332949459552765,0.03248238563537598,-0.028286240994930267
1779111646741393200,6.87539306640625,-0.007968861609697342,0.04830954968929291,-0.017681799829006195
1779111646751384000,6.885384033203125,-0.010614817030727863,0.05074682459235191,-0.00515943905338645
1779111646761375200,6.895375244140625,-0.014787990599870682,0.04537549614906311,0.002329370006918907
1779111646771366100,6.9053662109375,-0.017375115305185318,0.030446600168943405,0.0009843314765021205
1779111646781357000,6.915357177734375,-0.025588303804397583,0.016842108219861984,-0.004617361351847649
1779111646791348200,6.92534814453125,-0.030576009303331375,0.0032522762194275856,-0.011051949113607407
1779111646801339100,6.935339111328125,-0.03284288942813873,-0.007839789614081383,-0.020426543429493904
1779111646811330000,6.945330078125,-0.02758774161338806,-0.010113469325006008,-0.028796395286917686
1779111646821321000,6.955321044921875,-0.024251867085695267,-0.006232711020857096,-0.03229605779051781
1779111646831312100,6.96531201171875,-0.019029906019568443,-0.006127313245087862,-0.029492244124412537
1779111646841303000,6.975302978515625,-0.01858595758676529,-0.006071919575333595,-0.02272222377359867
1779111646851294000,6.9852939453125,-0.020593198016285896,-0.0066327499225735664,-0.015248212032020092
1779111646861285000,6.99528515625,-0.025147203356027603,-0.002937613520771265,-0.011234828270971775
1779111646871276000,7.005276123046875,-0.03383603319525719,-0.00021479770657606423,-0.01966213621199131
1779111646881267000,7.015266845703125,-0.042305417358875275,-0.0008510268526151776,-0.030102524906396866
1779111646891258000,7.025258056640625,-0.046996377408504486,-0.012872142717242241,-0.04407992959022522
1779111646901249300,7.035249267578125,-0.04920573532581329,-0.030936097726225853,-0.051212940365076065
1779111646911240200,7.045240234375,-0.048521459102630615,-0.054050154983997345,-0.05131245404481888
1779111646921231000,7.055231201171875,-0.047320373356342316,-0.06957318633794785,-0.04613872990012169
1779111646931222300,7.06522216796875,-0.04176647588610649,-0.06805653125047684,-0.04031996428966522
1779111646941213200,7.075213134765625,-0.03810862451791763,-0.0544469840824604,-0.03860621899366379
1779111646951204000,7.0852041015625,-0.03784256428480148,-0.04088563099503517,-0.03976646065711975
1779111646961195300,7.0951953125,-0.03615971654653549,-0.03588155284523964,-0.039975784718990326
1779111646971186200,7.105186279296875,-0.03738429397344589,-0.030537258833646774,-0.03232725337147713
1779111646981177000,7.115177001953125,-0.038899898529052734,-0.01733623631298542,-0.01874619908630848
1779111646991168000,7.12516796875,-0.044920049607753754,-0.00030945995240472257,-0.005818055476993322
1779111647001159200,7.1351591796875,-0.049804285168647766,0.016027433797717094,0.006689746864140034
1779111647011150000,7.145150146484375,-0.057264816015958786,0.026368962600827217,0.015287100337445736
1779111647021141000,7.15514111328125,-0.0643584132194519,0.01621672697365284,0.01894495077431202
1779111647031132200,7.165132080078125,-0.06444724649190903,-0.004688540939241648,0.012235257774591446
1779111647041123000,7.175123046875,-0.060840800404548645,-0.0354352667927742,0.003905688179656863
1779111647051114000,7.185114013671875,-0.05251702666282654,-0.05297630652785301,-0.00782040599733591
1779111647061105000,7.19510498046875,-0.04295734316110611,-0.04732241481542587,-0.009030546061694622
1779111647071096000,7.205095947265625,-0.03071269392967224,-0.053991176187992096,-0.021560853347182274
1779111647081087200,7.215087158203125,-0.017265861853957176,-0.039361368864774704,-0.0249145720154047
1779111647091078100,7.225078125,-0.0049375989474356174,-0.033577680587768555,-0.028460126370191574
1779111647101069300,7.2350693359375,0.00793665461242199,-0.033168088644742966,-0.03144419938325882
1779111647111059200,7.24505908203125,0.021206378936767578,-0.03980788588523865,-0.036839861422777176
1779111647121050000,7.255050048828125,0.035699035972356796,-0.04402553290128708,-0.045740146189928055
1779111647131041000,7.265041015625,0.05323967710137367,-0.057897306978702545,-0.053573280572891235
1779111647141032200,7.2750322265625,0.0711856558918953,-0.06930548697710037,-0.059118516743183136
1779111647151023000,7.285023193359375,0.089519202709198,-0.07821082323789597,-0.05682044103741646
1779111647161014000,7.295013916015625,0.10990890115499496,-0.0779074877500534,-0.04113175719976425
1779111647171005000,7.3050048828125,0.1303839236497879,-0.06130662187933922,-0.008582244627177715
1779111647180996000,7.31499609375,0.13337120413780212,-0.003225477412343025,0.0379897877573967
1779111647190987000,7.324987060546875,0.10947707295417786,0.06714262813329697,0.06200876832008362
1779111647200978000,7.33497802734375,0.08571608364582062,0.1436416655778885,0.022403301671147346
1779111647210969000,7.344968994140625,0.04177496209740639,0.12830302119255066,-0.06179554760456085
1779111647220960300,7.354960205078125,-0.03980618342757225,0.02884380705654621,-0.09448398649692535
1779111647230951200,7.364951171875,-0.09442879259586334,-0.04219263419508934,-0.03503498435020447
1779111647240942000,7.374942138671875,-0.06415663659572601,-0.054136909544467926,0.08859428018331528
1779111647250933200,7.384933349609375,0.013661033473908901,0.016616664826869965,0.18688568472862244
1779111647260924200,7.394924072265625,0.08514001220464706,0.1534179151058197,0.19371242821216583
1779111647270915000,7.4049150390625,0.11620395630598068,0.23539584875106812,0.14050698280334473
1779111647280906200,7.41490625,0.11174928396940231,0.18886643648147583,0.08227378129959106
1779111647290897200,7.424897216796875,0.09785725176334381,0.09797469526529312,0.06489542871713638
1779111647300888000,7.43488818359375,0.07160806655883789,0.04837171733379364,0.08163605630397797
1779111647310879200,7.444879150390625,0.044489145278930664,0.04717639461159706,0.10306030511856079
1779111647320870100,7.4548701171875,0.021439755335450172,0.04921397939324379,0.10701003670692444
1779111647330861000,7.464861083984375,0.007389092817902565,0.0278974287211895,0.09477084130048752
1779111647340852000,7.47485205078125,0.0033544041216373444,-0.004325489047914743,0.08141296356916428
1779111647350843100,7.484843017578125,0.009452481754124165,-0.030923480167984962,0.07233820110559464
1779111647360834000,7.494833984375,0.015579615719616413,-0.0433785542845726,0.07505515962839127
1779111647370825000,7.504824951171875,0.025141891092061996,-0.021808654069900513,0.08311127126216888
1779111647380816100,7.514816162109375,0.03636578470468521,0.01575896143913269,0.08427400887012482
1779111647390807000,7.52480712890625,0.04455593600869179,0.04312192276120186,0.08007402718067169
1779111647400798200,7.534798095703125,0.04577060416340828,0.046225037425756454,0.06270062923431396
1779111647410788000,7.5447880859375,0.03622204437851906,0.018155647441744804,0.0299002006649971
1779111647420779300,7.554779296875,0.024468716233968735,-0.021557142958045006,-0.009535355493426323
1779111647430770200,7.564770263671875,0.015256757847964764,-0.057553038001060486,-0.04340634122490883
1779111647440761000,7.574760986328125,0.01144284475594759,-0.07960933446884155,-0.06453107297420502
1779111647450752000,7.584751953125,0.01022169180214405,-0.08277801424264908,-0.07570355385541916
1779111647460743200,7.5947431640625,0.009025931358337402,-0.08180756121873856,-0.07818534970283508
1779111647470734000,7.604734130859375,0.012488588690757751,-0.07441844791173935,-0.07282271981239319
1779111647480725000,7.61472509765625,0.015363471582531929,-0.0646427795290947,-0.06190110370516777
1779111647490716200,7.624716064453125,0.018793661147356033,-0.055879950523376465,-0.05134620890021324
1779111647500707000,7.63470703125,0.01942402869462967,-0.05252303183078766,-0.042348720133304596
1779111647510698000,7.644697998046875,0.016646593809127808,-0.04949815198779106,-0.040979355573654175
1779111647520689000,7.65468896484375,0.01280152052640915,-0.04388980194926262,-0.041822779923677444
1779111647530680000,7.66468017578125,0.005750170908868313,-0.04080037772655487,-0.04446975514292717
1779111647540671000,7.6746708984375,0.0002944180741906166,-0.03623651713132858,-0.04826795309782028
1779111647550662100,7.684662109375,-0.004761785734444857,-0.03277083858847618,-0.049613162875175476
1779111647560653000,7.694653076171875,-0.007604976184666157,-0.028694072738289833,-0.04902113974094391
1779111647570644000,7.70464404296875,-0.012456356547772884,-0.02623363956809044,-0.04776601493358612
1779111647580635100,7.71463525390625,-0.014907529577612877,-0.024219226092100143,-0.04077814519405365
1779111647590626000,7.7246259765625,-0.017159372568130493,-0.023185696452856064,-0.033695828169584274
1779111647600617000,7.734616943359375,-0.023352820426225662,-0.022957997396588326,-0.02218618057668209
1779111647610608000,7.744608154296875,-0.025920536369085312,-0.02449956350028515,-0.010269689373672009
1779111647620599000,7.75459912109375,-0.026407361030578613,-0.015685033053159714,-0.0007984235999174416
1779111647630590000,7.76458984375,-0.028558993712067604,-0.0030584188643842936,0.008332498371601105
1779111647640580900,7.774580810546875,-0.03148207813501358,0.0053965849801898,0.01507349219173193
1779111647650572000,7.784572021484375,-0.03289143741130829,0.016231687739491463,0.016911720857024193
1779111647660562000,7.79456201171875,-0.031601402908563614,0.02560921013355255,0.017631040886044502
1779111647670553000,7.804552978515625,-0.027140848338603973,0.031117361038923264,0.017723487690091133
1779111647680544000,7.8145439453125,-0.026539772748947144,0.031133074313402176,0.01388107892125845
1779111647690535200,7.82453515625,-0.027330607175827026,0.021580394357442856,0.007583712227642536
1779111647700526000,7.834526123046875,-0.02458728477358818,0.003352121915668249,0.0023460732772946358
1779111647710517000,7.84451708984375,-0.025918126106262207,-0.011719084344804287,-0.003734408412128687
1779111647720508200,7.854508056640625,-0.024646200239658356,-0.01435667835175991,-0.002154354937374592
1779111647730499000,7.8644990234375,-0.021454185247421265,-0.013121113181114197,0.0006277811480686069
1779111647740490000,7.874489990234375,-0.018003258854150772,-0.01115596666932106,0.003781762905418873
1779111647750481000,7.88448095703125,-0.014811210334300995,-0.008358406834304333,-0.00045604867045767605
1779111647760472000,7.89447216796875,-0.013545677065849304,-0.004032634198665619,-0.005024968180805445
1779111647770463000,7.904462890625,-0.010948601178824902,0.0017981843557208776,-0.011193832382559776
1779111647780454000,7.914453857421875,-0.005243044812232256,0.0034030049573630095,-0.016704443842172623
1779111647790445000,7.924445068359375,0.0007327329367399216,0.0025653932243585587,-0.024167142808437347
1779111647800436000,7.93443603515625,0.005368497222661972,0.0018410133197903633,-0.027205543592572212
1779111647810427000,7.944427001953125,0.007207253947854042,0.0008840106311254203,-0.023642588406801224
1779111647820417800,7.954417724609375,0.008482640609145164,0.00005283800419420004,-0.01591436006128788
1779111647830409000,7.964408935546875,0.009674927219748497,-0.0031439894810318947,-0.005444560199975967
1779111647840400000,7.97439990234375,0.009664807468652725,-0.004706998821347952,0.0021142899058759212
1779111647850390800,7.984390869140625,0.007924040779471397,-0.0015134422574192286,0.006411238573491573
1779111647860382200,7.99438232421875,0.0042800381779670715,0.0034411028027534485,0.013286721892654896
1779111647870373000,8.004373046875,0.0033605610951781273,0.01443956233561039,0.015505579300224781
1779111647880363000,8.014363037109375,0.005119312554597855,0.023497240617871284,0.02136053703725338
1779111647890354000,8.02435400390625,0.005323090590536594,0.03361659497022629,0.02622273936867714
1779111647900345000,8.034344970703126,0.0054003214463591576,0.04471132159233093,0.029566871002316475
1779111647910336000,8.0443359375,0.009091257117688656,0.05085209757089615,0.03464452922344208
1779111647920327000,8.054326904296875,0.013361635617911816,0.05048804357647896,0.03333878144621849
1779111647930317800,8.06431787109375,0.016349459066987038,0.04337500035762787,0.03430541977286339
1779111647940309000,8.07430908203125,0.015241051092743874,0.03713361546397209,0.032482750713825226
1779111647950300000,8.0842998046875,0.01811770349740982,0.029027201235294342,0.028968574479222298
1779111647960290800,8.094290771484374,0.015721656382083893,0.02559198997914791,0.023896051570773125
1779111647970282000,8.104281982421876,0.013913477770984173,0.020235825330018997,0.015949465334415436
1779111647980273000,8.11427294921875,0.014879406429827213,0.013429319486021996,0.010227663442492485
1779111647990264000,8.12426416015625,0.014606960117816925,0.008790035732090473,0.003117682645097375
1779111648000255200,8.134255126953125,0.014658892527222633,-0.001730515155941248,-0.006245458964258432
1779111648010246100,8.14424609375,0.016801346093416214,-0.012948098592460155,-0.01323422696441412
1779111648020237000,8.154237060546874,0.0160018652677536,-0.022371159866452217,-0.02018161676824093
1779111648030228000,8.16422802734375,0.016401298344135284,-0.023863205686211586,-0.025629978626966476
1779111648040219100,8.17421923828125,0.01824074238538742,-0.02051587961614132,-0.024296533316373825
1779111648050210000,8.1842099609375,0.01592237502336502,-0.016543680801987648,-0.019977271556854248
1779111648060201000,8.194200927734375,0.012249342165887356,-0.016334354877471924,-0.018039556220173836
1779111648070192000,8.204192138671875,0.009974979795515537,-0.012628771364688873,-0.012452279217541218
1779111648080182000,8.21418212890625,0.006299550645053387,-0.007765838876366615,-0.004173044580966234
1779111648090173000,8.2241728515625,0.005322789773344994,-0.0038249597419053316,0.006409435998648405
1779111648100163800,8.234163818359375,0.0020210025832057,-0.002434257185086608,0.017250899225473404
1779111648110155000,8.244155029296875,-0.000006115064024925232,-0.001862959936261177,0.03001594729721546
1779111648120146000,8.25414599609375,-0.0013717832043766975,0.005542492028325796,0.038821425288915634
1779111648130137000,8.26413720703125,-0.0037791943177580833,0.014136828482151031,0.042411353439092636
1779111648140128000,8.2741279296875,-0.0048340726643800735,0.02706354483962059,0.0420592837035656
1779111648150119200,8.284119140625,-0.006474908906966448,0.034134335815906525,0.038908135145902634
1779111648160110000,8.294110107421876,-0.0067460183054208755,0.03343898430466652,0.03456931561231613
1779111648170101000,8.30410107421875,-0.00643368111923337,0.030835630372166634,0.026819033548235893
1779111648180092200,8.314092041015625,-0.005746052600443363,0.03263752907514572,0.01693098247051239
1779111648190083000,8.3240830078125,-0.0030007166787981987,0.0332060344517231,0.00807326938956976
1779111648200074000,8.334073974609375,-0.007150720339268446,0.03706788644194603,-0.002547682961449027
1779111648210065000,8.34406494140625,-0.009213797748088837,0.029104461893439293,-0.013434425927698612
1779111648220056000,8.35405615234375,-0.012143541127443314,0.009313181973993778,-0.023227933794260025
1779111648230047000,8.364046875,-0.01739032380282879,-0.013392683118581772,-0.034700170159339905
1779111648240038000,8.374037841796875,-0.01824386604130268,-0.028980430215597153,-0.044161051511764526
1779111648250029000,8.384029052734375,-0.02397141605615616,-0.037757985293865204,-0.05343161150813103
1779111648260019000,8.39401904296875,-0.02452082559466362,-0.04138068109750748,-0.05861997976899147
1779111648270010000,8.404010009765624,-0.026329200714826584,-0.040406253188848495,-0.06117648258805275
1779111648280001000,8.4140009765625,-0.026503639295697212,-0.04051411151885986,-0.06053332984447479
1779111648289992200,8.4239921875,-0.027465492486953735,-0.03309185802936554,-0.05560412257909775
1779111648299983000,8.433983154296875,-0.029467390850186348,-0.032762158662080765,-0.0477408729493618
1779111648309974000,8.44397412109375,-0.03201938793063164,-0.03742435947060585,-0.04112579673528671
1779111648319965000,8.45396484375,-0.03574994206428528,-0.04378185793757439,-0.03300342336297035
1779111648329956000,8.4639560546875,-0.03545699641108513,-0.03870374336838722,-0.02185383066534996
1779111648339947000,8.473947021484374,-0.03415657579898834,-0.023375654593110085,-0.005195757374167442
1779111648349938000,8.48393798828125,-0.033790223300457,-0.0013816310092806816,0.014928784221410751
1779111648359929000,8.49392919921875,-0.031095905229449272,0.025218287482857704,0.03632888197898865
1779111648369920000,8.503919921875,-0.028798837214708328,0.0483345165848732,0.05564374104142189
1779111648379911000,8.513910888671875,-0.02544352039694786,0.06865443289279938,0.0714714378118515
1779111648389901800,8.52390185546875,-0.02082207053899765,0.08130855858325958,0.08459102362394333
1779111648399893000,8.53389306640625,-0.0166691392660141,0.08934731036424637,0.08998951315879822
1779111648409884000,8.5438837890625,-0.013873386196792126,0.09166885167360306,0.09221791476011276
1779111648419874800,8.553874755859376,-0.00945014227181673,0.08733615279197693,0.08949856460094452
1779111648429865000,8.563864990234375,-0.004410642199218273,0.08180876076221466,0.08289605379104614
1779111648439856000,8.573856201171875,0.000264802947640419,0.07657671719789505,0.07315368205308914
1779111648449847000,8.583846923828125,0.00252327136695385,0.06520523875951767,0.06166666001081467
1779111648459838000,8.593837890625,0.004718514159321785,0.0484723336994648,0.04972797632217407
1779111648469829000,8.6038291015625,0.007276016287505627,0.028866194188594818,0.03287840634584427
1779111648479820000,8.613820068359376,0.00826085265725851,0.0037113060243427753,0.014909792691469193
1779111648489811000,8.62381103515625,0.010919647291302681,-0.020317792892456055,-0.0036010912153869867
1779111648499801900,8.6338017578125,0.014924775809049606,-0.036873865872621536,-0.01904396340250969
1779111648509793000,8.64379296875,0.017856774851679802,-0.04871015250682831,-0.02992209419608116
1779111648519784000,8.653783935546874,0.022334612905979156,-0.05335017666220665,-0.036920614540576935
1779111648529774800,8.66377490234375,0.024809204041957855,-0.052558090537786484,-0.04005492106080055
1779111648539766000,8.67376611328125,0.02753574773669243,-0.04801926389336586,-0.045014262199401855
1779111648549757000,8.6837568359375,0.029533565044403076,-0.048680517822504044,-0.048895664513111115
1779111648559747800,8.693747802734375,0.029639557003974915,-0.04750553146004677,-0.05229998379945755
1779111648569739000,8.703739013671875,0.02744945138692856,-0.049898892641067505,-0.054589807987213135
1779111648579730000,8.71372998046875,0.02824147418141365,-0.05127042159438133,-0.05824792757630348
1779111648589720000,8.723719970703126,0.025618314743041992,-0.05087083578109741,-0.05629348009824753
1779111648599711000,8.7337109375,0.02230161428451538,-0.045101094990968704,-0.05305507779121399
1779111648609702000,8.743701904296875,0.017299119383096695,-0.03785886615514755,-0.04405800253152847
1779111648619693000,8.753693115234375,0.01793694496154785,-0.03037192113697529,-0.034265559166669846
1779111648629684000,8.76368408203125,0.01543677132576704,-0.021150460466742516,-0.02424381673336029
1779111648639675000,8.7736748046875,0.01145987119525671,-0.015421733260154724,-0.012515256181359291
1779111648649666000,8.783666015625,0.008943324908614159,-0.014382702298462391,-0.006436675321310759
1779111648659657000,8.793656982421876,0.007592037320137024,-0.013396800495684147,-0.00030687754042446613
1779111648669648000,8.80364794921875,0.0051744962111115456,-0.010767705738544464,0.0031878557056188583
1779111648679639000,8.81363916015625,0.003099360503256321,-0.004783051088452339,0.006194564513862133
1779111648689630000,8.8236298828125,0.0016201650723814964,-0.0005936536472290754,0.011817695572972298
1779111648699620900,8.833620849609375,0.003701958805322647,0.005990213248878717,0.01713309995830059
1779111648709611800,8.84361181640625,0.0010925475507974625,0.013079671189188957,0.02419244311749935
1779111648719603000,8.85360302734375,-0.0005096103996038437,0.015393691137433052,0.026985034346580505
1779111648729594000,8.863593994140626,-0.0028202440589666367,0.014443778432905674,0.029981553554534912
1779111648739584000,8.873583984375,-0.003067918121814728,0.009501217864453793,0.028678735718131065
1779111648749575000,8.883574951171875,-0.004488327540457249,0.0011941263219341636,0.026313548907637596
1779111648759566000,8.893566162109375,-0.004837201442569494,-0.005663246847689152,0.022145701572299004
1779111648769557000,8.903556884765624,-0.007993720471858978,-0.009755858220160007,0.019245602190494537
1779111648779548000,8.9135478515625,-0.007910629734396935,-0.007556087803095579,0.016477245837450027
1779111648789539000,8.9235390625,-0.007862897589802742,-0.0038068077992647886,0.015648305416107178
1779111648799530000,8.933530029296875,-0.00965147651731968,-0.00325766415335238,0.012537732720375061
1779111648809521000,8.94352099609375,-0.007968926802277565,-0.0003631603321991861,0.011579793877899647
1779111648819511800,8.95351171875,-0.008643772453069687,0.0000975665170699358,0.009568308480083942
1779111648829503000,8.9635029296875,-0.008448190987110138,0.0004910823190584779,0.006502143107354641
1779111648839494000,8.973493896484374,-0.010282576084136963,-0.0019222742412239313,0.003172126365825534
1779111648849484800,8.98348486328125,-0.010051699355244637,-0.009184387512505054,-0.0029923259280622005
1779111648859476000,8.99347607421875,-0.008000798523426056,-0.01547717023640871,-0.007715708576142788
1779111648869467100,9.003467041015625,-0.010745193809270859,-0.020695338025689125,-0.012962818145751953
1779111648879458000,9.0134580078125,-0.010698854923248291,-0.02348260208964348,-0.016474196687340736
1779111648889448000,9.023447998046874,-0.011291648261249065,-0.022669097408652306,-0.017950203269720078
1779111648899439000,9.033439208984374,-0.012169958092272282,-0.01867222599685192,-0.020482869818806648
1779111648909430000,9.043429931640626,-0.012199873104691505,-0.015242569148540497,-0.02084389328956604
1779111648919421000,9.0534208984375,-0.011304519139230251,-0.00948614627122879,-0.02150062844157219
1779111648929411800,9.063411865234375,-0.01160520687699318,-0.004180002957582474,-0.020888933911919594
1779111648939403000,9.073403076171875,-0.009428871795535088,0.0033458243124186993,-0.015352221205830574
1779111648949394000,9.083393798828125,-0.009142439812421799,0.008161396719515324,-0.013398794457316399
1779111648959384800,9.093384765625,-0.00782737135887146,0.011950542218983173,-0.009307379834353924
1779111648969376000,9.1033759765625,-0.004132005386054516,0.017121192067861557,-0.006311656441539526
1779111648979367000,9.113366943359376,-0.004138397052884102,0.023741543292999268,-0.0029177239630371332
1779111648989357800,9.12335791015625,-0.005087519995868206,0.023874610662460327,-0.0028509621042758226
1779111648999349000,9.133348876953125,-0.006487810052931309,0.023381657898426056,-0.0033716100733727217
1779111649009340200,9.143340087890625,-0.004779730457812548,0.020118199288845062,-0.005994690582156181
1779111649019331000,9.1533310546875,-0.0061714984476566315,0.019213523715734482,-0.006694835610687733
1779111649029321000,9.163321044921876,-0.008418597280979156,0.018277617171406746,-0.005607327912002802
1779111649039312000,9.173311767578125,-0.007160520181059837,0.019979111850261688,-0.0057261050678789616
1779111649049303000,9.183302978515625,-0.005878577474504709,0.020007770508527756,-0.006173571106046438
1779111649059294000,9.1932939453125,-0.005926248151808977,0.018665270879864693,-0.004437722731381655
1779111649069284900,9.203284912109375,-0.003918815404176712,0.01454424113035202,-0.0064406683668494225
1779111649079276000,9.213276123046874,-0.004658907651901245,0.011730611324310303,-0.009170142002403736
1779111649089267000,9.223266845703124,-0.003789009526371956,0.005119717214256525,-0.013731522485613823
1779111649099257900,9.2332578125,-0.002644116058945656,-0.0002715860609896481,-0.016451142728328705
1779111649109248800,9.243248779296875,-0.00264698825776577,-0.008177988231182098,-0.017650257796049118
1779111649119240000,9.253239990234375,-0.0021335305646061897,-0.014331487938761711,-0.019272126257419586
1779111649129231000,9.263231201171875,-0.0016627321019768715,-0.016638606786727905,-0.01839270442724228
1779111649139222000,9.273221923828125,-0.0016627321019768715,-0.018451418727636337,-0.016215568408370018
1779111649149212000,9.2832119140625,-0.0005362061783671379,-0.017835194244980812,-0.013096858747303486
1779111649159203000,9.293203125,-0.00006429385393857956,-0.018709510564804077,-0.010469384491443634
1779111649169194000,9.303194091796875,0.001017330214381218,-0.0177795197814703,-0.006811030209064484
1779111649179185000,9.313184814453125,0.0007962882518768311,-0.017271121963858604,-0.00567332748323679
1779111649189176000,9.323176025390625,0.002369433641433716,-0.012667110189795494,-0.001013828325085342
1779111649199167000,9.3331669921875,0.003933241590857506,-0.007279534358531237,0.0027809098828583956
1779111649209158000,9.343157958984374,0.005214761942625046,-0.0036211805418133736,0.004864184185862541
1779111649219148800,9.353148681640626,0.006722910329699516,0.00009259744547307491,0.007848256267607212
1779111649229140000,9.363139892578126,0.005947292782366276,0.0004589396412484348,0.008647507056593895
1779111649239131000,9.373130859375,0.008154786191880703,0.00184618029743433,0.01205448992550373
1779111649249121800,9.383121826171875,0.006906143389642239,0.0030577306170016527,0.014791533350944519
1779111649259113000,9.393113037109375,0.005571634508669376,0.00479357922449708,0.018186796456575394
1779111649269104000,9.403104248046875,0.00706818513572216,0.006344976369291544,0.02029252238571644
1779111649279095000,9.413094970703124,0.007248746231198311,0.008466717787086964,0.023653432726860046
1779111649289085000,9.4230849609375,0.007385271601378918,0.010214352048933506,0.025859545916318893
1779111649299076000,9.433076171875,0.008806600235402584,0.011296660639345646,0.029047617688775063
1779111649309067000,9.44306689453125,0.007314358837902546,0.01569807343184948,0.03149637579917908
1779111649319058000,9.453057861328125,0.00817642267793417,0.017780134454369545,0.03012724779546261
1779111649329048800,9.463048828125,0.007746581919491291,0.018398283049464226,0.02771054580807686
1779111649339040000,9.4730400390625,0.007806503213942051,0.01913810893893242,0.024157356470823288
1779111649349031000,9.483031005859376,0.008087675087153912,0.01842701993882656,0.018440216779708862
1779111649359021800,9.493021728515625,0.007553444243967533,0.018285339698195457,0.016533393412828445
1779111649369013000,9.503012939453125,0.008762642741203308,0.01607043854892254,0.013231336139142513
1779111649379004000,9.51300390625,0.008561840280890465,0.013610209338366985,0.00852286722511053
1779111649388994800,9.522994873046875,0.009692954830825329,0.010870632715523243,0.004504116252064705
1779111649398986000,9.532986083984374,0.00830810982733965,0.008680982515215874,0.0009698352077975869
1779111649408976100,9.54297607421875,0.006242070347070694,0.004461555276066065,-0.004688751883804798
1779111649418967000,9.552967041015625,0.005711834877729416,0.00011154788080602884,-0.010006817989051342
1779111649428958000,9.5629580078125,0.005021590739488602,-0.005147873889654875,-0.015769651159644127
1779111649438949000,9.57294921875,0.0050173308700323105,-0.010440373793244362,-0.021973751485347748
1779111649448940000,9.58293994140625,0.005889013409614563,-0.01643660105764866,-0.027035290375351906
1779111649458931000,9.592930908203124,0.004155827686190605,-0.021479297429323196,-0.030763182789087296
1779111649468921900,9.602921875,0.002922236919403076,-0.02664177492260933,-0.0359148345887661
1779111649478913000,9.6129130859375,0.002901197411119938,-0.03187861293554306,-0.03973247855901718
1779111649488904000,9.622904052734375,-0.00044884905219078064,-0.0346299484372139,-0.042594172060489655
1779111649498894800,9.632894775390625,-0.0007497863844037056,-0.03490665182471275,-0.04780811071395874
1779111649508886300,9.64288623046875,-0.004127985797822475,-0.032793790102005005,-0.048100609332323074
1779111649518876400,9.65287646484375,-0.007398614194244146,-0.03401618078351021,-0.051300130784511566
1779111649528867300,9.662867431640626,-0.010321130976080894,-0.03519371524453163,-0.048466313630342484
1779111649538858200,9.672858154296875,-0.01203913614153862,-0.03591516613960266,-0.04773953557014465
1779111649548849400,9.682849365234375,-0.012041028589010239,-0.03611265495419502,-0.043842863291502
1779111649558840300,9.69284033203125,-0.012368598021566868,-0.03821814805269241,-0.0380086749792099
1779111649568831200,9.702831298828125,-0.010267677716910839,-0.040234751999378204,-0.031192563474178314
1779111649578822400,9.712822509765624,-0.010497242212295532,-0.03822726011276245,-0.02335008606314659
1779111649588813300,9.722813232421874,-0.011783774942159653,-0.037253785878419876,-0.016024697571992874
1779111649598804200,9.73280419921875,-0.011170981451869011,-0.03226861730217934,-0.006025860086083412
1779111649608795100,9.742795166015625,-0.009202140383422375,-0.024354351684451103,0.001046215882524848
1779111649618786300,9.752786376953125,-0.007932877168059349,-0.016905490309000015,0.010199501179158688
1779111649628777200,9.762777099609375,-0.008153093978762627,-0.008223704062402248,0.018671613186597824
1779111649638767400,9.772767333984374,-0.004296836908906698,-0.001609210972674191,0.02629224956035614
1779111649648758300,9.78275830078125,-0.0028827060014009476,0.0048055751249194145,0.02874060906469822
1779111649658749400,9.79274951171875,0.0005983123555779457,0.014452343806624413,0.03296305239200592
1779111649668740400,9.802740234375,0.0017329668626189232,0.024004342034459114,0.03516078367829323
1779111649678731300,9.812731201171875,0.004488806240260601,0.029176201671361923,0.036831650882959366
1779111649688722400,9.822722412109375,0.007248876616358757,0.035524122416973114,0.038938380777835846
1779111649698713300,9.83271337890625,0.009091785177588463,0.03844614326953888,0.039847053587436676
1779111649708704300,9.842704345703124,0.00993188563734293,0.04098145291209221,0.03932546079158783
1779111649718695200,9.852695068359376,0.011297288350760937,0.037049297243356705,0.03335332125425339
1779111649728686300,9.862686279296875,0.013849369250237942,0.028548073023557663,0.02856995165348053
1779111649738677200,9.87267724609375,0.013307948596775532,0.020686954259872437,0.019889911636710167
1779111649748667100,9.882667236328125,0.014253302477300167,0.01301338616758585,0.0131779033690691
1779111649758658000,9.892657958984374,0.01653509959578514,0.010399493388831615,0.007332796696573496
1779111649768649200,9.902649169921874,0.019366271793842316,0.006713857874274254,-0.000022417763830162585
1779111649778640400,9.912640380859376,0.01806691661477089,0.002724442631006241,-0.002809682162478566
1779111649788631300,9.92263134765625,0.019314318895339966,0.0015197478933259845,-0.008992007933557034
1779111649798622500,9.93262255859375,0.021851245313882828,0.0003626045072451234,-0.010584578849375248
1779111649808613400,9.94261328125,0.02250485122203827,-0.0008233936387114227,-0.012584153562784195
1779111649818604300,9.952604248046875,0.021891262382268906,0.00028741086134687066,-0.012751400470733643
1779111649828595500,9.962595458984374,0.02331814356148243,-0.001929461257532239,-0.013611048460006714
1779111649838586400,9.97258642578125,0.02061210386455059,-0.0016016261652112007,-0.013710117898881435
1779111649848577300,9.982577392578126,0.019640300422906876,-0.0008859449881128967,-0.01424373034387827
1779111649858567200,9.992567138671875,0.01871298812329769,0.003113323822617531,-0.013956375420093536
1779111649868558000,10.00255810546875,0.018190521746873856,0.002931190887466073,-0.01134155411273241
1779111649878549200,10.01254931640625,0.018073339015245438,0.001892291707918048,-0.009825416840612888
1779111649888540200,10.0225400390625,0.017086360603570938,0.001591414213180542,-0.008456851355731487
1779111649898531000,10.032531005859376,0.01619180664420128,0.0010145734995603561,-0.007567354943603277
1779111649908522200,10.042522216796876,0.014621180482208729,0.002300370018929243,-0.005449734162539244
1779111649918513400,10.052513427734375,0.011243493296205997,0.005038099363446236,-0.003483522217720747
1779111649928504300,10.06250439453125,0.011803721077740192,0.0039514778181910515,-0.003224921878427267
1779111649938495500,10.07249560546875,0.01058212947100401,0.0022840723395347595,-0.0030299783684313297
1779111649948486400,10.082486328125,0.010907300747931004,0.002134136389940977,-0.0016669725300744176
1779111649958477300,10.092477294921874,0.00980208907276392,0.005913694854825735,0.001383944763801992
1779111649968467200,10.10246728515625,0.009129379875957966,0.006153082940727472,0.0034030363894999027
1779111649978458000,10.1124580078125,0.008900082670152187,0.00488861370831728,0.004888014867901802
1779111649988449300,10.12244921875,0.008324002847075462,0.00422383239492774,0.005144497845321894
1779111649998440200,10.132440185546875,0.007729584351181984,0.0036296811886131763,0.004983376711606979
1779111650008431000,10.14243115234375,0.006660896353423595,0.004167696461081505,0.0029582884162664413
1779111650018422300,10.15242236328125,0.0070055099204182625,0.00278524961322546,0.00254416698589921
1779111650028413200,10.1624130859375,0.004716217517852783,0.0025028977543115616,0.0015401758719235659
1779111650038404400,10.172404296875,0.0041020940989255905,0.000864521018229425,-0.0021112842950969934
1779111650048395500,10.1823955078125,0.005271543748676777,0.0024392148479819298,-0.0029915645718574524
1779111650058386400,10.192386474609375,0.005698981694877148,0.005835277959704399,-0.0025918239261955023
1779111650068376300,10.202376220703124,0.004139024764299393,0.005746098700910807,-0.003600544761866331
1779111650078367200,10.2123671875,0.006461301818490028,0.005112798884510994,-0.0034841648302972317
1779111650088358100,10.222358154296876,0.004080026410520077,0.0033069627825170755,-0.004433581605553627
1779111650098349300,10.232349365234375,0.0036326153203845024,0.00118948332965374,-0.007080497220158577
1779111650108340200,10.24234033203125,0.0013385256752371788,-0.0036170168314129114,-0.009859368205070496
1779111650118331100,10.2523310546875,0.00007592048496007919,-0.008338268846273422,-0.012333977967500687
1779111650128322300,10.262322265625,0.001080930233001709,-0.00897727720439434,-0.011355489492416382
1779111650138313200,10.272313232421874,-0.00013213977217674255,-0.009050246328115463,-0.011308351531624794
1779111650148304100,10.28230419921875,0.0010210881009697914,-0.008660837076604366,-0.010075051337480545
1779111650158295300,10.29229541015625,0.0014370735734701157,-0.007004617713391781,-0.010115265846252441
1779111650168285400,10.302285400390625,-0.0000273827463388443,-0.007626554928719997,-0.009407748468220234
1779111650178276400,10.3122763671875,0.00008313823491334915,-0.006715754047036171,-0.008187754079699516
1779111650188267300,10.322267333984374,-0.0003890451043844223,-0.010337356477975845,-0.006081875879317522
1779111650198258400,10.332258544921874,-0.0027480730786919594,-0.010930709540843964,-0.00683794729411602
1779111650208249300,10.342249267578126,-0.003766425885260105,-0.013379163108766079,-0.008228936232626438
1779111650218240300,10.352240234375,-0.003470814786851406,-0.01145849097520113,-0.008334397338330746
1779111650228231200,10.362231201171875,-0.002819174900650978,-0.01086176373064518,-0.01007167436182499
1779111650238222300,10.372222412109375,-0.0022732261568307877,-0.011599458754062653,-0.008728109300136566
1779111650248213200,10.382213134765625,-0.0005224533379077911,-0.009153138846158981,-0.00878933072090149
1779111650258204200,10.3922041015625,0.0024530962109565735,-0.009497751481831074,-0.007236441597342491
1779111650268194300,10.4021943359375,0.0029067974537611008,-0.00624836515635252,-0.006046860944479704
1779111650278185500,10.412185546875,0.004803501069545746,-0.0026624188758432865,-0.005327275022864342
1779111650288176400,10.42217626953125,0.004266094416379929,-0.0035363207571208477,-0.0034494162537157536
1779111650298167300,10.432167236328125,0.005155855789780617,-0.004373618867248297,-0.0011319335317239165
1779111650308158500,10.442158447265625,0.001326478086411953,-0.005102406721562147,-0.0011351930443197489
1779111650318149400,10.4521494140625,0.0037997551262378693,-0.005198014434427023,-0.000820141052827239
1779111650328140300,10.462140380859376,0.004014663398265839,-0.004152930807322264,0.0007484290981665254
1779111650338131200,10.472131103515625,0.0032532652840018272,-0.004586759489029646,0.0002424284757580608
1779111650348122400,10.482122314453125,0.0017999829724431038,-0.007447290699928999,0.0009696204215288162
1779111650358113300,10.49211328125,0.0022005224600434303,-0.006159918382763863,-0.0008234858978539705
1779111650368103200,10.502103271484375,0.00047287438064813614,-0.008070321753621101,-0.0008234412525780499
1779111650378094000,10.512093994140624,0.0020694397389888763,-0.0026257550343871117,-0.0003917428548447788
1779111650388085200,10.522085205078126,0.0022724363952875137,-0.0027628494426608086,-0.0013464988442137837
1779111650398076400,10.532076416015625,0.0022585876286029816,0.000853190605994314,-0.0013217314844951034
1779111650408067300,10.5420673828125,0.001200084574520588,0.0005822826060466468,-0.0007666749297641218
1779111650418058500,10.55205859375,0.0009252466261386871,0.002832653932273388,-0.0005754599696956575
1779111650428049400,10.56204931640625,0.0023992136120796204,0.0031048336531966925,0.0007318637799471617
1779111650438040300,10.572040283203124,0.00008492637425661087,0.0020968271419405937,-0.0003810711787082255
1779111650448031200,10.58203125,0.0013823658227920532,0.0014396491460502148,0.0009455252438783646
1779111650458021000,10.592021240234375,0.0012345602735877037,0.00122340046800673,0.0007694902596995234
1779111650468012300,10.60201220703125,-0.001145808957517147,-0.0005944438162259758,0.0005927647580392659
1779111650478003200,10.612003173828125,-0.001427837647497654,-0.00486269174143672,-0.000096194984507747
1779111650487994000,10.621994140625,-0.002241055481135845,-0.004725541453808546,-0.0021105811465531588
1779111650497985300,10.6319853515625,-0.002773420885205269,-0.007302149664610624,-0.003194754011929035
1779111650507976200,10.64197607421875,-0.003004620783030987,-0.009068119339644909,-0.004758157301694155
1779111650517967000,10.651967041015626,-0.0012256288900971413,-0.009457740001380444,-0.0033583997283130884
1779111650527958000,10.6619580078125,-0.003896007314324379,-0.007576571777462959,-0.005131627433001995
1779111650537949200,10.67194921875,-0.0011465596035122871,-0.0046356432139873505,-0.002201884286478162
1779111650547939000,10.68193896484375,-0.002876552753150463,-0.0026696675922721624,-0.0021722058299928904
1779111650557930000,10.691929931640624,-0.00258733332157135,-0.0005071808118373156,-0.000012914912076666951
1779111650567921000,10.7019208984375,-0.004200710915029049,0.0009618190233595669,0.001602549571543932
1779111650577912000,10.711912109375,-0.0005921274423599243,0.002080080332234502,0.0012917587300762534
1779111650587903000,10.721903076171875,-0.0019026612862944603,0.0012507126666605473,0.0030944838654249907
1779111650597894000,10.731893798828125,-0.0008168909698724747,-0.000716564420145005,0.0012371954508125782
1779111650607885000,10.741885009765625,-0.0016048494726419449,-0.0020963200367987156,-0.000043382373405620456
1779111650617876000,10.7518759765625,-0.002620312385261059,-0.0024851413909345865,-0.001978168962523341
1779111650627867000,10.761866943359376,-0.003923158161342144,-0.0016239630058407784,-0.0014711985131725669
1779111650637857000,10.77185693359375,-0.005009728018194437,-0.0006521755130961537,-0.0006839680718258023
1779111650647848200,10.78184814453125,-0.003770073875784874,-0.0007061485666781664,-0.001249280758202076
1779111650657839000,10.791839111328125,-0.0029918979853391647,0.0014166571199893951,-0.002159815514460206
1779111650667830000,10.801830078125,-0.004215031862258911,-0.0018980618333444,-0.0007454552687704563
1779111650677821000,10.811821044921874,-0.004550590645521879,-0.0017680994933471084,-0.00021894832025282085
1779111650687812000,10.82181201171875,-0.002879817970097065,-0.0010860937181860209,0.00013564073015004396
1779111650697803000,10.831802978515626,-0.003879302181303501,-0.0021239276975393295,-0.0004665000014938414
1779111650707794000,10.8417939453125,-0.003295181319117546,-0.00032303869375027716,-0.0008172433008439839
1779111650717785000,10.85178515625,-0.005131164100021124,-0.001380313653498888,-0.003105964045971632
1779111650727775000,10.86177490234375,-0.005225243046879768,-0.0014327771496027708,-0.0013938358752056956
1779111650737766100,10.87176611328125,-0.004076887853443623,-0.0027731461450457573,-0.0021970453672111034
1779111650747757000,10.881757080078126,-0.00491153821349144,-0.003102698130533099,-0.003126434050500393
1779111650757748200,10.891748291015626,-0.003601529635488987,-0.0034286691807210445,-0.0024143047630786896
1779111650767739100,10.9017392578125,-0.004184401594102383,-0.0021140738390386105,-0.0018185601802542806
1779111650777730000,10.91172998046875,-0.004570026881992817,-0.001996628474444151,0.00009305686398874968
1779111650787721000,10.921720947265625,-0.005260637495666742,-0.0014881116803735495,-0.0008966465829871595
1779111650797712100,10.931712158203124,-0.0037974966689944267,0.00008847966091707349,0.0002818022039718926
1779111650807703000,10.941703125,-0.004701939877122641,0.00014017405919730663,-0.000702393357641995
1779111650817693000,10.95169287109375,-0.0031229518353939056,0.002414247253909707,0.00012265397526789457
1779111650827683800,10.961683837890625,-0.0037104394286870956,0.0024962136521935463,0.00043960148468613625
1779111650837675000,10.971675048828125,-0.0022467663511633873,0.0034379074349999428,0.0031051593832671642
1779111650847666000,10.981666015625,-0.004002607427537441,0.003271902911365032,0.005213756114244461
1779111650857656800,10.99165673828125,-0.0023482516407966614,0.004181638825684786,0.007597818039357662
1779111650867648000,11.00164794921875,-0.002541506662964821,0.0040778350085020065,0.00988946296274662
1779111650877639200,11.01163916015625,-0.003883739933371544,0.0024570352397859097,0.011892959475517273
1779111650887630000,11.021630126953125,-0.006175144109874964,0.0013104267418384552,0.015643808990716934
1779111650897621000,11.03162109375,-0.004345019813627005,-0.00018840041593648493,0.014378541149199009
1779111650907611100,11.041611083984375,-0.005033459048718214,-0.00141842570155859,0.015072381123900414
1779111650917602000,11.05160205078125,-0.005202569533139467,-0.0018956642597913742,0.014407921582460403
1779111650927593000,11.061593017578126,-0.004245234653353691,0.002244336297735572,0.01588190160691738
1779111650937583900,11.071583984375,-0.004104087129235268,0.005670758895576,0.017705900594592094
1779111650947575000,11.081574951171875,-0.0020775916054844856,0.008227897807955742,0.016751598566770554
1779111650957566000,11.09156591796875,0.00035653822124004364,0.009577588178217411,0.01587568409740925
1779111650967556900,11.101556884765625,0.00008110236376523972,0.007892310619354248,0.013894157484173775
1779111650977548000,11.111548095703125,0.001113077625632286,0.004878943786025047,0.010701559484004974
1779111650987538200,11.1215380859375,0.001117846928536892,0.005847238935530186,0.0082023236900568
1779111650997529000,11.131529052734376,0.0009727049618959427,0.009575131349265575,0.004950338043272495
1779111651007520000,11.14152001953125,0.002606538124382496,0.01449762936681509,0.003205074928700924
1779111651017511200,11.15151123046875,0.004116550087928772,0.016005510464310646,0.0025877542793750763
1779111651027502000,11.161502197265625,0.0018541878089308739,0.013617008924484253,0.0033119539730250835
1779111651037493000,11.171492919921874,0.004740521311759949,0.013520602136850357,0.0016717133112251759
1779111651047484000,11.18148388671875,0.005239666439592838,0.011807513423264027,0.0021867298055440187
1779111651057475000,11.19147509765625,0.0069054728373885155,0.012441079132258892,0.0006375688826665282
1779111651067466000,11.201466064453125,0.005643115378916264,0.012549379840493202,-0.004709087777882814
1779111651077456000,11.211455810546875,0.004707013256847858,0.011587180197238922,-0.007952018640935421
1779111651087447000,11.221447021484375,0.002409216947853565,0.010389496572315693,-0.011526756919920444
1779111651097438200,11.231438232421874,0.002968747168779373,0.007410218007862568,-0.014643720351159573
1779111651107429000,11.24142919921875,0.004326694644987583,0.004858081694692373,-0.018479855731129646
1779111651117420000,11.251419921875,0.006222332827746868,0.0032130470499396324,-0.019373612478375435
1779111651127411200,11.2614111328125,0.004601028747856617,0.0016969103598967195,-0.020017823204398155
1779111651137402000,11.271402099609375,0.0048889173194766045,-0.00024772979668341577,-0.020899862051010132
1779111651147393000,11.28139306640625,0.002548239193856716,-0.00274900090880692,-0.023680593818426132
1779111651157383000,11.2913828125,0.002169271931052208,-0.0051759397611021996,-0.02096044085919857
1779111651167374000,11.3013740234375,-0.0003005657345056534,-0.006241767667233944,-0.020273471251130104
1779111651177365000,11.311364990234376,-0.003018587827682495,-0.008287074975669384,-0.018276898190379143
1779111651187356000,11.32135595703125,-0.003670516423881054,-0.011746135540306568,-0.01424838975071907
1779111651197346800,11.331346923828125,-0.00418716948479414,-0.01537149678915739,-0.009845386259257793
1779111651207338000,11.341337890625,-0.006242082454264164,-0.015744132921099663,-0.002858825260773301
1779111651217329200,11.3513291015625,-0.006996822077780962,-0.014961963519454002,0.0021327375434339046
1779111651227320000,11.361320068359374,-0.007571237161755562,-0.012011771090328693,0.008969644084572792
1779111651237310000,11.37131005859375,-0.009806960821151733,-0.007211423013359308,0.016937820240855217
1779111651247301000,11.381301025390625,-0.010283387266099453,-0.0055534569546580315,0.022495102137327194
1779111651257292000,11.3912919921875,-0.00885646604001522,-0.0022727088071405888,0.025501012802124023
1779111651267283000,11.401282958984375,-0.010447431355714798,0.0016090556746348739,0.02591622993350029
1779111651277274000,11.411274169921874,-0.009759004227817059,-0.00016247911844402552,0.02621530368924141
1779111651287265000,11.42126513671875,-0.008773678913712502,0.003893690649420023,0.02717101015150547
1779111651297256000,11.431255859375,-0.008231991901993752,0.0029570572078227997,0.023636462166905403
1779111651307246800,11.441246826171875,-0.006201573647558689,0.0032129883766174316,0.022702233865857124
1779111651317237200,11.4512373046875,-0.005792245734483004,0.003210857743397355,0.021203406155109406
1779111651327228200,11.461228271484375,-0.004003421403467655,0.0039543816819787025,0.018058354035019875
1779111651337219000,11.471218994140624,-0.0031232470646500587,0.001816395903006196,0.014797047711908817
1779111651347210000,11.4812099609375,-0.003033003769814968,-0.0009761998662725091,0.010302150622010231
1779111651357201200,11.491201171875,0.0004085991531610489,-0.002945873886346817,0.0053468067198991776
1779111651367192000,11.501192138671875,0.0006914520636200905,-0.004216316156089306,0.0036072987131774426
1779111651377183000,11.511182861328125,-0.0005264114588499069,-0.004031492862850428,-0.0006505631608888507
1779111651387174100,11.521174072265625,-0.0005229329690337181,-0.00554810231551528,-0.005100196693092585
1779111651397164000,11.5311640625,-0.0007644817233085632,-0.007381156086921692,-0.009192143566906452
1779111651407155000,11.541155029296876,0.0011782655492424965,-0.008982133120298386,-0.013706004247069359
1779111651417145900,11.551145751953126,-0.0005016559734940529,-0.011312665417790413,-0.017939899116754532
1779111651427137000,11.561136962890625,-0.0005794437602162361,-0.009517285972833633,-0.017403220757842064
1779111651437128200,11.571128173828125,-0.0018151504918932915,-0.008552422747015953,-0.01744343526661396
1779111651447119000,11.581119140625,-0.0021408144384622574,-0.0063913785852491856,-0.016248134896159172
1779111651457110000,11.591110107421875,-0.0013186968863010406,-0.006109882611781359,-0.01696772128343582
1779111651467101200,11.60110107421875,0.0004823831841349602,-0.005447082687169313,-0.015166600234806538
1779111651477091000,11.611091064453126,0.0005484297871589661,-0.0021982924081385136,-0.011776928789913654
1779111651487082000,11.62108203125,-0.0002774149179458618,-0.0011311930138617754,-0.00810028612613678
1779111651497073000,11.631072998046875,-0.0011509312316775322,0.0024542207829654217,-0.0033478750847280025
1779111651507064000,11.64106396484375,0.0004922607913613319,0.0037546446546912193,-0.0009808503091335297
1779111651517055200,11.65105517578125,-0.0011943196877837181,0.009784574620425701,0.002817083615809679
1779111651527046400,11.66104638671875,-0.0011456115171313286,0.012987909838557243,0.005660353694111109
1779111651537037300,11.671037353515626,-0.001316586509346962,0.014987677335739136,0.006217487156391144
1779111651547028200,11.6810283203125,0.0016131391748785973,0.015126483514904976,0.008410563692450523
1779111651557018400,11.691018310546875,0.0006197802722454071,0.0172604750841856,0.00857354886829853
1779111651567009500,11.701009521484375,0.0014355005696415901,0.014285307377576828,0.007857096381485462
1779111651577000400,11.71100048828125,0.0022437702864408493,0.015077597461640835,0.007428859826177359
1779111651586991400,11.720991455078124,0.0019173016771674156,0.015225055627524853,0.007024517748504877
1779111651596982500,11.730982421875,0.001287464052438736,0.014236490242183208,0.005789610091596842
1779111651606973400,11.740973388671875,0.002162833698093891,0.012114126235246658,0.005436381790786982
1779111651616964400,11.75096435546875,0.002113564871251583,0.011388415470719337,0.004515727050602436
1779111651626954200,11.760954345703125,0.0035226931795477867,0.007157130166888237,0.0030691437423229218
1779111651636945200,11.770945068359374,0.0025817984715104103,0.006722501944750547,0.002236639615148306
1779111651646936300,11.780936279296874,0.0028488533571362495,0.0020906962454319,-0.0008114869706332684
1779111651656927200,11.79092724609375,0.0007833056151866913,0.0009442055597901344,-0.0018506523920223117
1779111651666918400,11.80091845703125,0.0004581306129693985,0.0003397263353690505,-0.0048757679760456085
1779111651676909600,11.81090966796875,0.001768672838807106,-0.0008661530446261168,-0.007121611852198839
1779111651686900500,11.820900390625,-0.0006132563576102257,-0.004694505129009485,-0.008251826278865337
1779111651696891400,11.830891357421875,-0.0009490801021456718,-0.006658586673438549,-0.010271301493048668
1779111651706881300,11.84088134765625,-0.0006512599065899849,-0.008288849145174026,-0.012240475974977016
1779111651716872400,11.85087255859375,-0.001644885167479515,-0.01020738948136568,-0.0140365120023489
1779111651726863400,11.86086328125,-0.0029959864914417267,-0.011585966683924198,-0.014203990809619427
1779111651736854300,11.870854248046875,-0.0025128889828920364,-0.011952684260904789,-0.017638403922319412
1779111651746845400,11.880845458984375,-0.0028591006994247437,-0.012950276024639606,-0.017553064972162247
1779111651756836400,11.89083642578125,-0.002255096100270748,-0.014858962967991829,-0.018811941146850586
1779111651766827300,11.9008271484375,-0.0034953411668539047,-0.014931196346879005,-0.017892593517899513
1779111651776818200,11.910818115234376,-0.004391228314489126,-0.009589161723852158,-0.01853015460073948
1779111651786808300,11.920808349609375,-0.004507340490818024,-0.009895721450448036,-0.015562444925308228
1779111651796799500,11.930799560546875,-0.005223730579018593,-0.013782339170575142,-0.013386109843850136
1779111651806790400,11.940790283203125,-0.005653549917042255,-0.01737257093191147,-0.010574455372989178
1779111651816781300,11.95078125,-0.006968086119741201,-0.022767869755625725,-0.01092519424855709
1779111651826772500,11.9607724609375,-0.0058565023355185986,-0.024714497849345207,-0.007928288541734219
1779111651836763400,11.970763427734376,-0.007136151194572449,-0.024052701890468597,-0.006755166687071323
1779111651846754300,11.98075439453125,-0.007942819967865944,-0.024238411337137222,-0.0023320091422647238
1779111651856744200,11.990744140625,-0.006773159373551607,-0.02230069600045681,0.0022203982807695866
1779111651866735400,12.0007353515625,-0.0074679353274405,-0.019329814240336418,0.006254778243601322
1779111651876726300,12.010726318359374,-0.004799714311957359,-0.014501502737402916,0.01029958762228489
1779111651886717400,12.020717529296874,-0.0033339420333504677,-0.010735857300460339,0.012510827742516994
1779111651896708400,12.030708251953126,-0.0027983803302049637,-0.0064993007108569145,0.016832340508699417
1779111651906699500,12.040699462890625,-0.0021419236436486244,-0.003257171716541052,0.017400383949279785
1779111651916690400,12.0506904296875,-0.003235151059925556,0.0012406408786773682,0.01809919811785221
1779111651926680300,12.060680419921875,-0.0013770582154393196,0.002704168204218149,0.01783016324043274
