time,seconds_elapsed,z,y,x
1779998638077963800,0.1229638671875,-2.3545801639556885,0.3530801236629486,2.302656650543213
1779998638094289400,0.139289306640625,-1.8446602821350098,-0.13225232064723969,2.04349684715271
1779998638110636500,0.155636474609375,-0.7962628602981567,-1.7143932580947876,1.8350391387939453
1779998638126962200,0.171962158203125,-0.12324206531047821,-3.3896913528442383,1.575726866722107
1779998638143296800,0.188296875,-0.6394231915473938,-4.7054948806762695,0.9873109459877014
1779998638159628000,0.2046279296875,-1.5173892974853516,-5.484959125518799,0.14874568581581116
1779998638175961600,0.220961669921875,-1.1858421564102173,-2.858085870742798,0.23655757308006287
1779998638192291300,0.237291259765625,-0.37140607833862305,-0.5755877494812012,0.43539419770240784
1779998638208617200,0.2536171875,0.5835290551185608,-0.6600399017333984,-0.8458956480026245
1779998638224959200,0.269959228515625,0.8550586104393005,-1.0283915996551514,-1.6218472719192505
1779998638241292800,0.286292724609375,1.140179991722107,-1.901318073272705,-1.9851592779159546
1779998638257621800,0.302621826171875,0.9126327037811279,-3.1696269512176514,-2.2395846843719482
1779998638273947600,0.31894775390625,0.15363261103630066,-3.5416438579559326,-2.0369300842285156
1779998638290305300,0.33530517578125,-0.16752979159355164,-4.221384048461914,-1.3374894857406616
1779998638306660600,0.35166064453125,-0.0734565481543541,-6.504493236541748,-0.30054569244384766
1779998638322955500,0.36795556640625,-0.2854267954826355,-7.504785060882568,0.39217549562454224
1779998638339287800,0.384287841796875,0.23487769067287445,-8.232172966003418,1.1716395616531372
1779998638355619300,0.400619384765625,1.146135926246643,-9.965350151062012,2.4026856422424316
1779998638371953700,0.41695361328125,1.9648480415344238,-11.162951469421387,3.8008036613464355
1779998638388273400,0.4332734375,3.0534098148345947,-10.501384735107422,4.358370780944824
1779998638404617500,0.449617431640625,3.891364336013794,-8.69413948059082,3.3267722129821777
1779998638420968400,0.465968505859375,4.631427764892578,-6.793585300445557,2.412001371383667
1779998638437298000,0.4822978515625,5.142569065093994,-5.477933883666992,2.203085422515869
1779998638453629000,0.49862890625,5.2832207679748535,-4.726875305175781,2.2879958152770996
1779998638469962800,0.514962646484375,5.220759868621826,-3.8032469749450684,2.3524420261383057
1779998638486294000,0.5312939453125,4.955644130706787,-2.624582529067993,2.2033908367156982
1779998638502631400,0.54763134765625,5.262451171875,-1.1525499820709229,1.9014707803726196
1779998638518936800,0.563936767578125,4.76062536239624,-0.8620835542678833,2.0557143688201904
1779998638535266800,0.580266845703125,4.2668938636779785,-0.42928555607795715,2.0783162117004395
1779998638551609900,0.59660986328125,4.150829315185547,-0.17088955640792847,1.8238909244537354
1779998638567946800,0.61294677734375,3.9458839893341064,-0.027183502912521362,1.6566665172576904
1779998638584277800,0.62927783203125,3.7398698329925537,-0.2431243658065796,1.742187738418579
1779998638600621300,0.645621337890625,3.3073770999908447,-0.4434881806373596,2.0563251972198486
1779998638616931600,0.661931640625,2.9437596797943115,-0.5001459121704102,2.6177103519439697
1779998638633276000,0.67827587890625,2.808605670928955,-0.4433354437351227,3.229491949081421
1779998638649605600,0.694605712890625,2.330451011657715,-0.5940664410591125,3.5779905319213867
1779998638665941200,0.710941162109375,1.4123204946517944,-0.6849326491355896,3.6222782135009766
1779998638682262000,0.727261962890625,0.7121161818504333,-0.2223549485206604,3.279735565185547
1779998638698592300,0.74359228515625,-0.1511891484260559,0.6423248052597046,2.2117903232574463
1779998638714936300,0.759936279296875,-1.1036807298660278,1.3857477903366089,0.8426886200904846
1779998638731274500,0.7762744140625,-1.901012659072876,1.8209892511367798,-0.05757404863834381
1779998638747604700,0.792604736328125,-2.372753381729126,1.7527251243591309,-0.16569720208644867
1779998638763937300,0.808937255859375,-2.6594018936157227,0.9295842051506042,0.3068070709705353
1779998638780273200,0.825273193359375,-2.5382978916168213,0.152105450630188,0.40225476026535034
1779998638796615700,0.84161572265625,-2.077399969100952,-0.16233743727207184,0.11804971098899841
1779998638812931300,0.857931396484375,-1.617876648902893,-0.4282165467739105,0.005192354787141085
1779998638829268000,0.87426806640625,-1.055269718170166,-0.5827654600143433,0.0027488935738801956
1779998638845602300,0.890602294921875,-0.3361285924911499,-0.3819434940814972,-0.14874568581581116
1779998638861929700,0.9069296875,-0.28756481409072876,-0.3614795207977295,-0.01817324012517929
1779998638878273500,0.9232734375,-0.5209153294563293,-0.5071708559989929,0.16493362188339233
1779998638894595800,0.939595947265625,-0.8254316449165344,-0.8567385077476501,0.3332269787788391
1779998638910946800,0.95594677734375,-0.864679753780365,-1.147357702255249,0.6123924255371094
1779998638927251700,0.972251708984375,-0.6805039048194885,-1.018923282623291,0.698066234588623
1779998638943611600,0.988611572265625,-0.49296826124191284,-1.1838568449020386,0.9450085163116455
1779998638959930000,1.00493017578125,-0.2984076738357544,-1.2240211963653564,1.1134545803070068
1779998638976276700,1.02127685546875,-0.20173825323581696,-1.1233811378479004,0.9534079432487488
1779998638992577000,1.037576904296875,-0.2246456891298294,-1.1895073652267456,0.7174612283706665
1779998639008940500,1.0539404296875,-0.31459560990333557,-1.6890424489974976,1.102611780166626
1779998639025272600,1.0702724609375,-0.5412266254425049,-2.375807762145996,1.6142114400863647
1779998639041608000,1.08660791015625,-0.19654589891433716,-1.5752687454223633,1.2654073238372803
1779998639057937700,1.102937744140625,-0.8420777320861816,-0.6192646622657776,1.1635456085205078
1779998639074255600,1.119255615234375,-1.0210613012313843,0.06719517707824707,0.6737843751907349
1779998639090594300,1.13559423828125,-1.1551461219787598,0.9488264322280884,0.15332718193531036
1779998639106923800,1.151923828125,-1.4995214939117432,0.9816604256629944,0.3933972120285034
1779998639123256800,1.1682568359375,-1.4674509763717651,0.7710646390914917,0.5161811113357544
1779998639139570700,1.18457080078125,-1.3132075071334839,0.683863639831543,0.6400340795516968
1779998639155919000,1.200919189453125,-1.2570079565048218,0.9104946255683899,0.5838344693183899
1779998639172255200,1.217255126953125,-1.0083857774734497,0.33735033869743347,0.8026769161224365
1779998639188572400,1.233572509765625,-0.28695395588874817,0.34147366881370544,0.6262896060943604
1779998639204922600,1.249922607421875,0.17699819803237915,0.5198463201522827,0.16691893339157104
1779998639221258200,1.26625830078125,0.19196440279483795,0.8260425329208374,-0.2597704529762268
1779998639237604400,1.282604248046875,0.24205535650253296,1.5427402257919312,-0.6959282159805298
1779998639253918700,1.298918701171875,0.02626720629632473,2.3915374279022217,-0.9279043078422546
1779998639270240800,1.31524072265625,0.0065668015740811825,2.6754369735717773,-1.1571314334869385
1779998639286603300,1.331603271484375,0.48319441080093384,2.2209532260894775,-1.3376421928405762
1779998639302924300,1.34792431640625,1.2945761680603027,1.7968600988388062,-1.321912407875061
1779998639319244800,1.364244873046875,1.7745635509490967,1.3730723857879639,-0.9188940525054932
1779998639335591400,1.38059130859375,2.5746443271636963,1.169806957244873,-1.239292860031128
1779998639351915000,1.3969150390625,3.5361461639404297,2.085952043533325,-1.8669569492340088
1779998639368236800,1.41323681640625,3.280651807785034,3.5294265747070312,-2.155590772628784
1779998639384584200,1.429584228515625,2.189035654067993,3.579059362411499,-1.5248724222183228
1779998639400915200,1.445915283203125,1.1148290634155273,2.6510024070739746,-1.1507173776626587
1779998639417262800,1.462262939453125,1.1374311447143555,1.5068517923355103,-1.078940749168396
1779998639433591600,1.478591552734375,2.0703749656677246,0.2580905556678772,-1.4214833974838257
1779998639449890300,1.494890380859375,2.7475192546844482,-0.005497787147760391,-1.8208365440368652
1779998639466254600,1.511254638671875,2.9998064041137695,-0.7228062748908997,-2.350609540939331
1779998639482576600,1.52757666015625,2.512946844100952,-1.06351637840271,-3.152064561843872
1779998639498924500,1.543924560546875,1.1218540668487549,-1.3894129991531372,-3.2840116024017334
1779998639515254500,1.560254638671875,-0.21609358489513397,-1.9657644033432007,-2.671619176864624
1779998639531592400,1.576592529296875,-0.9608910083770752,-1.1447614431381226,-2.1039726734161377
1779998639547933200,1.59293310546875,-0.9859365224838257,-0.5396994352340698,-1.4343116283416748
1779998639564234800,1.60923486328125,-0.5441282391548157,-0.4008803069591522,-0.7014260292053223
1779998639580563200,1.625563232421875,-0.08414668589830399,-0.5400048494338989,-0.25335636734962463
1779998639596906200,1.64190625,0.10980302840471268,-0.8358163833618164,0.04856378585100174
1779998639613229800,1.658229736328125,-0.6064364910125732,-0.7874053120613098,0.15729780495166779
1779998639629573600,1.67457373046875,-0.8529205918312073,-0.45524731278419495,0.3139847218990326
1779998639645894400,1.690894287109375,-0.346818745136261,0.2376265823841095,0.266184538602829
1779998639662231600,1.7072314453125,0.046273041516542435,1.0326677560806274,0.1992947906255722
1779998639678554600,1.7235546875,-0.1059851199388504,1.0793988704681396,0.30115658044815063
1779998639694903000,1.739903076171875,-0.20112738013267517,0.702800452709198,0.26221391558647156
1779998639711236900,1.75623681640625,-0.40653082728385925,0.1996002197265625,0.07223481684923172
1779998639727568000,1.77256787109375,-0.585667073726654,-0.30054569244384766,-0.06612616032361984
1779998639743902000,1.78890185546875,-0.6866125464439392,-0.3387247920036316,0.35185837745666504
1779998639760233000,1.80523291015625,-0.45234572887420654,-0.6524040699005127,0.6197227835655212
1779998639776566800,1.82156689453125,0.052228979766368866,-0.16783522069454193,1.1661417484283447
1779998639792901000,1.837901123046875,-0.003359758760780096,-0.3289509415626526,0.6983717083930969
1779998639809230000,1.85422998046875,-0.19746218621730804,0.11316278576850891,-0.247094988822937
1779998639825567500,1.8705673828125,-0.4967861473560333,-0.35903605818748474,-0.07696902006864548
1779998639841899300,1.886899169921875,-0.9402743577957153,-0.7168503403663635,0.013744467869400978
1779998639858231300,1.903231201171875,-0.9202684760093689,-0.3068070709705353,-0.17806722223758698
1779998639874562800,1.919562744140625,-0.4948008358478546,-0.28435778617858887,-0.15286903083324432
1779998639890887200,1.93588720703125,-0.44745880365371704,-0.6959282159805298,-0.0065668015740811825
1779998639907230000,1.95222998046875,-0.4407392740249634,-1.1003210544586182,0.06200282275676727
1779998639923549700,1.9685498046875,0.20922134816646576,-1.7922786474227905,0.15073099732398987
1779998639939910000,1.984909912109375,0.4576907753944397,-1.5221234560012817,0.06933320313692093
1779998639956238000,2.001238037109375,0.33292156457901,-1.072068452835083,0.15683965384960175
1779998639972560000,2.017559814453125,-0.18081611394882202,-0.35323283076286316,0.47937649488449097
1779998639988894200,2.033894287109375,-0.337503045797348,-0.7324274182319641,0.5287038683891296
1779998640005226800,2.050226806640625,0.0009162978967651725,-1.7192802429199219,0.5931501388549805
1779998640021562400,2.066562255859375,-0.5647448897361755,-1.9170478582382202,1.060614824295044
1779998640037892900,2.082892822265625,-0.6824892163276672,-2.1739165782928467,1.1983648538589478
1779998640054222600,2.09922265625,-0.721737265586853,-2.428189277648926,1.0560332536697388
1779998640070562600,2.1155625,-1.6310101747512817,-2.710561752319336,0.7867944240570068
1779998640086892000,2.13189208984375,-2.4697282314300537,-2.2377521991729736,0.5867360830307007
1779998640103210800,2.148210693359375,-2.0528125762939453,-1.9747745990753174,0.1134682223200798
1779998640119555600,2.1645556640625,-1.6751452684402466,-2.4222333431243896,-0.395077109336853
1779998640135892500,2.180892578125,-1.1557570695877075,-3.184898614883423,-0.8823948502540588
1779998640152221000,2.197220947265625,-0.9618073105812073,-2.9153544902801514,-1.1829406023025513
1779998640168542000,2.2135419921875,-0.7812966704368591,-2.1085541248321533,-1.29549241065979
1779998640184891100,2.22989111328125,-0.16768251359462738,-0.9196576476097107,-1.9665279388427734
1779998640201221600,2.2462216796875,0.6711881756782532,0.4309654235839844,-2.9878945350646973
1779998640217555200,2.26255517578125,0.4818199574947357,0.7383833527565002,-3.832263231277466
1779998640233879800,2.2788798828125,-0.707534670829773,0.8032878041267395,-3.0834951400756836
1779998640250219500,2.295219482421875,-1.8832975625991821,-0.3211624026298523,-2.0367774963378906
1779998640266567700,2.311567626953125,-2.1850650310516357,-0.4966334402561188,-1.6618589162826538
1779998640282890200,2.32789013671875,-1.9007072448730469,-0.038179077208042145,-1.9217820167541504
1779998640299205400,2.344205322265625,-1.4694362878799438,0.8168795704841614,-2.0971004962921143
1779998640315539200,2.360539306640625,-0.3136793076992035,1.9109392166137695,-1.9113973379135132
1779998640331871500,2.37687158203125,1.1986702680587769,2.978579044342041,-1.496467113494873
1779998640348204000,2.3932041015625,2.7670669555664062,3.83882999420166,-0.3923282027244568
1779998640364538400,2.409538330078125,3.369227170944214,3.6922223567962646,0.25274550914764404
1779998640380884200,2.42588427734375,2.4909558296203613,3.039818286895752,-0.3539963960647583
1779998640397202000,2.442201904296875,1.7730363607406616,2.7850873470306396,-1.1207849979400635
1779998640413548800,2.458548828125,1.7843374013900757,2.350456714630127,0.2773328125476837
1779998640429894100,2.47489404296875,1.0626001358032227,1.7599027156829834,2.727360486984253
1779998640446231000,2.49123095703125,0.43799036741256714,-0.06352998316287994,4.322482585906982
1779998640462547000,2.507546875,0.5820018649101257,-1.0265589952468872,3.062878370285034
1779998640478893000,2.52389306640625,0.5516113042831421,0.3723223805427551,0.5474879741668701
1779998640495216600,2.540216552734375,0.9990701079368591,1.013272762298584,0.31780263781547546
1779998640511563000,2.55656298828125,2.0279200077056885,1.4720325469970703,1.2458596229553223
1779998640527894500,2.57289453125,2.79119610786438,3.081357002258301,1.6701055765151978
1779998640544205000,2.589205078125,3.4515414237976074,4.625777244567871,1.652695894241333
1779998640560534000,2.605533935546875,2.6794075965881348,3.1952834129333496,-0.06994406878948212
1779998640576877300,2.621877197265625,1.3116804361343384,1.6042848825454712,-0.9312640428543091
1779998640593207800,2.638207763671875,0.08552113175392151,0.17073683440685272,-1.901012659072876
1779998640609545500,2.65454541015625,-0.47418415546417236,1.201724648475647,-3.2762229442596436
1779998640625876200,2.670876220703125,0.9660834074020386,2.280359983444214,-4.027740001678467
1779998640642221800,2.687221923828125,2.020742177963257,0.6629415154457092,-3.7026069164276123
1779998640658526000,2.70352587890625,2.7600419521331787,-1.4811954498291016,-3.4468071460723877
1779998640674876200,2.719876220703125,3.492469310760498,-1.8623753786087036,-2.503478527069092
1779998640691202600,2.73620263671875,1.691791296005249,-2.386803150177002,-1.617876648902893
1779998640707539700,2.752539794921875,-1.4161384105682373,-3.6917641162872314,-1.0343475341796875
1779998640723873500,2.76887353515625,-2.592817544937134,-3.8423423767089844,-1.2157745361328125
1779998640740206600,2.78520654296875,-2.266615390777588,-4.095240592956543,-1.6862934827804565
1779998640756538400,2.801538330078125,-2.1542162895202637,-3.5195000171661377,-2.7768406867980957
1779998640772888300,2.817888427734375,-1.9721784591674805,-2.8034133911132812,-3.0024027824401855
1779998640789217000,2.834217041015625,-1.331380844116211,-3.2200233936309814,-3.22674298286438
1779998640805550800,2.85055078125,-0.6824892163276672,-3.9829940795898438,-3.743535041809082
1779998640821883100,2.866883056640625,-1.4555391073226929,-4.307974338531494,-3.799276351928711
1779998640838200600,2.88320068359375,-2.450791358947754,-4.133877754211426,-2.983771324157715
1779998640854532900,2.899532958984375,-3.0865492820739746,-3.185509443283081,-1.589929461479187
1779998640870872600,2.91587255859375,-3.3209688663482666,-2.432007312774658,-0.24892759323120117
1779998640887203300,2.932203369140625,-3.9290852546691895,-2.2211060523986816,1.1339186429977417
1779998640903535000,2.94853515625,-4.6184468269348145,-2.2536346912384033,1.7843374013900757
1779998640919867400,2.964867431640625,-4.2192463874816895,-1.8813122510910034,1.3006848096847534
1779998640936216800,2.981216796875,-3.1141910552978516,-1.08718740940094,1.3584115505218506
1779998640952547000,2.997547119140625,-2.026545524597168,-1.448819637298584,1.6172657012939453
1779998640968881700,3.013881591796875,-1.768760323524475,-1.6128369569778442,1.6853772401809692
1779998640985213000,3.030212890625,-2.043649673461914,-2.166586399078369,1.28434419631958
1779998641001546000,3.0465458984375,-1.3112221956253052,-2.0780107975006104,1.0088438987731934
1779998641017880600,3.062880615234375,-0.29764407873153687,-1.6175711154937744,1.1635456085205078
1779998641034171600,3.079171630859375,0.20983220636844635,-1.404073715209961,1.5995506048202515
1779998641050517800,3.095517822265625,0.33460143208503723,-1.4269812107086182,1.875814437866211
1779998641066856200,3.111856201171875,0.30314189195632935,-1.662164330482483,1.8077030181884766
1779998641083191800,3.12819189453125,0.18906278908252716,-1.5184582471847534,1.5986343622207642
1779998641099533800,3.144533935546875,0.12140946835279465,-1.0089967250823975,1.521359920501709
1779998641115863800,3.16086376953125,0.5436700582504272,-0.7371616363525391,1.9407188892364502
1779998641132184000,3.17718408203125,1.003804326057434,-0.5258022546768188,2.4463624954223633
1779998641148516900,3.193516845703125,1.2643383741378784,-0.3741549551486969,2.1488711833953857
1779998641164862700,3.20986279296875,2.110386610031128,-0.15882496535778046,2.350151300430298
1779998641181198000,3.226197998046875,3.291800022125244,0.4688390791416168,2.984687566757202
1779998641197525800,3.24252587890625,3.8815903663635254,1.4167492389678955,3.461620569229126
1779998641213848800,3.258848876953125,4.452902317047119,3.6277759075164795,3.446959972381592
1779998641230195200,3.2751953125,5.2163310050964355,6.192035675048828,2.94269061088562
1779998641246524000,3.29152392578125,5.59689998626709,8.24209976196289,2.2069034576416016
1779998641262865000,3.307864990234375,5.302157402038574,9.863030433654785,1.6171129941940308
1779998641279207400,3.32420751953125,4.628983974456787,10.063852310180664,1.6908750534057617
1779998641295508000,3.340508056640625,3.2342259883880615,10.132880210876465,2.6345090866088867
1779998641311850000,3.35685009765625,3.034625768661499,9.094866752624512,3.347236156463623
1779998641328192300,3.373192138671875,2.822502851486206,8.103738784790039,3.1581733226776123
1779998641344524000,3.38952392578125,1.1966849565505981,2.6366472244262695,1.1288789510726929
1779998641360863000,3.405863037109375,-1.243721604347229,-0.9703594446182251,0.4398229718208313
1779998641377192000,3.42219189453125,-2.1922426223754883,-1.3290899991989136,0.41630467772483826
1779998641393523700,3.438523681640625,-1.427744746208191,0.05665775015950203,1.093143343925476
1779998641409858000,3.454858154296875,-0.536797821521759,0.8329147696495056,1.9834794998168945
1779998641426189000,3.47118896484375,0.04886921867728233,0.14798210561275482,1.1661417484283447
1779998641442522400,3.4875224609375,0.42898011207580566,0.9954048991203308,0.7202101349830627
1779998641458849500,3.503849609375,0.11194105446338654,0.5468770861625671,1.1468994617462158
1779998641475188500,3.5201884765625,-1.0465649366378784,-0.38377609848976135,1.6540703773498535
1779998641491518500,3.5365185546875,-1.9309450387954712,-1.3167200088500977,0.9459248185157776
1779998641507859500,3.552859375,-1.580308437347412,-1.6998852491378784,0.34804046154022217
1779998641524188400,3.5691884765625,-1.0154107809066772,-1.4828753471374512,0.9306532144546509
1779998641540509700,3.585509765625,-0.632398247718811,-1.6368134021759033,0.764345109462738
1779998641556853500,3.601853515625,-0.11942415684461594,-0.8969029188156128,0.2370157092809677
1779998641573188000,3.61818798828125,0.2970332205295563,0.0013744467869400978,0.07177666574716568
1779998641589504800,3.6345048828125,0.4590652287006378,0.5780312418937683,0.058948494493961334
1779998641605841200,3.650841064453125,0.49785518646240234,0.4778493344783783,-0.27458393573760986
1779998641622174200,3.66717431640625,0.4662429094314575,0.49846604466438293,0.26603180170059204
1779998641638497800,3.683497802734375,-0.21624629199504852,-0.5714644193649292,0.6860016584396362
1779998641654840000,3.699840087890625,-0.518471896648407,-1.0829113721847534,1.7243198156356812
1779998641671173600,3.716173583984375,-0.2548835277557373,-1.3487904071807861,1.116814374923706
1779998641687507000,3.7325068359375,0.5655084848403931,-1.046717643737793,1.6853772401809692
1779998641703855900,3.74885595703125,1.9830212593078613,-2.824946403503418,0.6327036619186401
1779998641720185000,3.76518505859375,3.1334333419799805,-0.46761733293533325,-0.16722436249256134
1779998641736519400,3.78151953125,3.5793650150299072,0.08277224004268646,-0.3358231782913208
1779998641752848400,3.797848388671875,3.0114128589630127,-0.5587889552116394,-1.3939944505691528
1779998641769184300,3.814184326171875,2.037540912628174,-0.8390234112739563,-2.668564796447754
1779998641785516300,3.830516357421875,1.5439618825912476,-0.7780895829200745,-2.799748182296753
1779998641801867000,3.846866943359375,1.3048081398010254,-0.5169447064399719,-2.548224449157715
1779998641818195700,3.86319580078125,1.0532844066619873,-0.05513058975338936,-2.512183427810669
1779998641834521600,3.879521484375,0.5632177591323853,0.7499898076057434,-2.7560713291168213
1779998641850866400,3.895866455078125,0.04505131021142006,1.405600905418396,-2.797152042388916
1779998641867182300,3.912182373046875,-0.38667771220207214,1.9356791973114014,-2.465604782104492
1779998641883515100,3.92851513671875,-0.8155050873756409,2.459954261779785,-1.8254181146621704
1779998641899856000,3.94485595703125,-1.2968668937683105,2.414902925491333,-1.3060299158096313
1779998641916181500,3.961181396484375,-1.9781343936920166,3.93351411819458,-1.7256942987442017
1779998641932514800,3.977514892578125,-3.059823989868164,5.440824031829834,-3.2977559566497803
1779998641948848600,3.9938486328125,-3.860821008682251,2.942996025085449,-3.5937201976776123
1779998641965194800,4.01019482421875,-3.4959816932678223,-1.9437731504440308,-2.729804039001465
1779998641981525500,4.026525390625,-2.501951217651367,-4.802317142486572,-1.9008599519729614
1779998641997856300,4.042856201171875,-1.405295491218567,-4.0853142738342285,-1.624596118927002
1779998642014181000,4.05918115234375,-0.7542658448219299,-2.0279200077056885,-1.6383405923843384
1779998642030502100,4.075502197265625,-0.6282749176025391,-0.128434419631958,-1.6180293560028076
1779998642046845700,4.091845703125,-0.7916813492774963,0.9471465349197388,-1.3652838468551636
1779998642063179500,4.108179443359375,-0.9355401396751404,1.1520918607711792,-0.8300131559371948
1779998642079513000,4.12451318359375,-0.7255551815032959,0.816726803779602,-0.29856038093566895
1779998642095843600,4.140843505859375,-0.3701843321323395,0.5958990454673767,0.005497787147760391
1779998642112195000,4.157195068359375,-0.0861319974064827,0.23747386038303375,0.16050484776496887
1779998642128510000,4.173510009765625,0.06490442901849747,0.049785517156124115,0.45173484086990356
1779998642144845000,4.189844970703125,0.23258693516254425,-0.033139441162347794,0.8439103364944458
1779998642161179100,4.20617919921875,0.43875396251678467,-0.1036943718791008,1.257924199104309
1779998642177510700,4.2225107421875,0.6627888083457947,-0.12965615093708038,1.6183347702026367
1779998642193832200,4.238832275390625,0.9039278626441956,-0.1082758679986,1.8866573572158813
1779998642210177000,4.255177001953125,1.1316279172897339,-0.06536258012056351,2.073582172393799
1779998642226512000,4.271511962890625,1.3095424175262451,-0.007788531947880983,2.1734585762023926
1779998642242859800,4.28785986328125,1.3892602920532227,0.10735956579446793,2.19163179397583
1779998642259175200,4.304175048828125,1.3254249095916748,0.1823432743549347,2.1951441764831543
1779998642275521300,4.320521240234375,1.1565206050872803,0.14126259088516235,2.275625705718994
1779998642291838000,4.336837890625,0.8756753206253052,0.20631973445415497,2.551126003265381
1779998642308176600,4.3531767578125,0.5453499555587769,0.3790418803691864,2.8904616832733154
1779998642324507100,4.369507080078125,0.21700987219810486,0.5242751240730286,2.797304630279541
1779998642340863200,4.38586328125,-0.06994406878948212,0.6536257863044739,2.0812180042266846
1779998642357174300,4.40217431640625,-0.1385136991739273,0.6911939978599548,1.2722796201705933
1779998642373508900,4.4185087890625,-0.11911872029304504,0.7632761001586914,0.7151705026626587
1779998642389839400,4.43483935546875,-0.1722639948129654,0.9677632451057434,0.5128213763237
1779998642406174000,4.451174072265625,-0.247094988822937,0.6537785530090332,0.4735732674598694
1779998642422509000,4.467509033203125,-0.2987131178379059,-0.2942843437194824,0.7145596146583557
1779998642438840000,4.483840087890625,-0.23625212907791138,-1.6635388135910034,0.942259669303894
1779998642455185400,4.500185302734375,-0.1290452778339386,-2.557387351989746,0.7819074988365173
1779998642471505400,4.51650537109375,0.10125091671943665,-3.006984233856201,0.7258606553077698
1779998642487852800,4.532852783203125,0.4216497242450714,-2.8148670196533203,0.5664247870445251
1779998642504155100,4.549155029296875,0.7342600226402283,-1.7794504165649414,0.39248090982437134
1779998642520511000,4.565510986328125,0.9101892113685608,-0.24678955972194672,0.2822197377681732
1779998642536836900,4.5818369140625,0.9384417533874512,1.0714576244354248,0.3321579694747925
1779998642553172000,4.598171875,0.8846855759620667,1.782352089881897,0.6969972252845764
1779998642569506600,4.614506591796875,0.5007568001747131,1.955379605293274,1.1200214624404907
1779998642585837800,4.630837890625,-0.5361869931221008,3.1529810428619385,0.3243694305419922
1779998642602185200,4.647185302734375,-1.3738359212875366,5.2077789306640625,-1.7724255323410034
1779998642618503000,4.6635029296875,-1.3946053981781006,4.714963436126709,-1.9605720043182373
1779998642634837200,4.679837158203125,-1.0520626306533813,3.413973093032837,-1.4940236806869507
1779998642651172600,4.696172607421875,-0.5254968404769897,1.9196439981460571,-1.0047205686569214
1779998642667505700,4.712505615234375,0.21303924918174744,0.4460843503475189,-0.2096794992685318
1779998642683838500,4.72883837890625,0.5792529582977295,-0.8280278444290161,0.423329621553421
1779998642700168000,4.74516796875,0.6763805150985718,-1.7499761581420898,0.5371032953262329
1779998642716507600,4.761507568359375,0.8475755453109741,-2.249664068222046,0.5158756971359253
1779998642732839200,4.777839111328125,1.04289972782135,-2.13008713722229,0.4821254014968872
1779998642749166000,4.794166015625,1.0227410793304443,-1.0697777271270752,0.12599095702171326
1779998642765513700,4.810513671875,0.7058547735214233,0.5801692605018616,-0.6433938145637512
1779998642781849900,4.826849853515625,0.2541199326515198,1.7727309465408325,-1.2476922273635864
1779998642798182100,4.84318212890625,-0.08368854224681854,2.219120740890503,-1.399950385093689
1779998642814498000,4.859498046875,-0.2860376536846161,2.5441009998321533,-1.4214833974838257
1779998642830847200,4.87584716796875,-0.3995058834552765,3.092963457107544,-1.4285084009170532
1779998642847164400,4.892164306640625,-0.3900374472141266,3.2279646396636963,-1.242347240447998
1779998642863506400,4.90850634765625,-0.2955060601234436,2.5059218406677246,-0.95462965965271
1779998642879833000,4.9248330078125,-0.2054034322500229,1.1847730875015259,-0.8665123581886292
1779998642896165600,4.94116552734375,-0.18066339194774628,-0.05513058975338936,-1.057865858078003
1779998642912505900,4.957505859375,-0.2561052441596985,-0.7252497673034668,-1.2657127380371094
1779998642928834000,4.973833984375,-0.5285511612892151,-0.5858197808265686,-1.4605787992477417
1779998642945172200,4.990172119140625,-1.0873401165008545,0.44089198112487793,-1.8574885129928589
1779998642961508000,5.006508056640625,-1.8768835067749023,1.1439979076385498,-2.393064498901367
1779998642977846800,5.0228466796875,-2.5773932933807373,0.48609602451324463,-2.8125762939453125
1779998642994160600,5.03916064453125,-2.7488934993743896,-1.4399621486663818,-2.7627906799316406
1779998643010507300,5.05550732421875,-2.215913772583008,-3.2682816982269287,-2.4472789764404297
1779998643026829000,5.0718291015625,-1.4553864002227783,-3.7093265056610107,-2.1339049339294434
1779998643043157500,5.088157470703125,-0.997848391532898,-3.137556552886963,-1.8828394412994385
1779998643059504400,5.10450439453125,-0.7386888265609741,-1.7869335412979126,-1.6641496419906616
1779998643075830500,5.12083056640625,-0.6204863786697388,-0.21410827338695526,-1.4045319557189941
1779998643092181200,5.13718115234375,-0.5088507533073425,0.7434229850769043,-0.969443142414093
1779998643108496400,5.153496337890625,-0.30802878737449646,0.6230825781822205,-0.4934264123439789
1779998643124830700,5.169830810546875,-0.15271630883216858,0.37888917326927185,-0.10506882518529892
1779998643141162800,5.186162841796875,0.001527163083665073,0.3248275816440582,0.230448916554451
1779998643157499100,5.2024990234375,0.22800545394420624,0.44806966185569763,0.5007568001747131
1779998643173828000,5.218828125,0.41661009192466736,0.5560401082038879,0.7328855991363525
1779998643190163700,5.235163818359375,0.5517640113830566,0.48869219422340393,0.967915952205658
1779998643206481000,5.25148095703125,0.6931793093681335,0.2724458873271942,1.146135926246643
1779998643222833700,5.267833740234375,0.8426886200904846,0.08185594528913498,1.3200798034667969
1779998643239163000,5.284162841796875,1.0277807712554932,-0.014508049935102463,1.5514450073242188
1779998643255510800,5.3005107421875,1.2359330654144287,-0.017409659922122955,1.8437440395355225
1779998643271830300,5.316830322265625,1.4101824760437012,0.016340645030140877,2.1458168029785156
1779998643288174800,5.3331748046875,1.5302174091339111,0.038637228310108185,2.40940523147583
1779998643304504600,5.349504638671875,1.5566374063491821,0.13744467496871948,2.6010642051696777
1779998643320827400,5.365827392578125,1.4378241300582886,0.4179845452308655,2.6699392795562744
1779998643337180000,5.382179931640625,1.156978726387024,0.9242390990257263,2.6395487785339355
1779998643353485300,5.3984853515625,0.7667886018753052,1.5473216772079468,2.4663684368133545
1779998643369813200,5.414813232421875,0.38988474011421204,2.144136905670166,2.059837579727173
1779998643386159900,5.431159912109375,0.056352317333221436,2.7394251823425293,1.4917329549789429
1779998643402476500,5.4474765625,-0.1875356286764145,3.268739938735962,0.9133962392807007
1779998643418817000,5.463817138671875,-0.26908615231513977,3.3370041847229004,0.6849326491355896
1779998643435168300,5.480168212890625,-0.15195272862911224,2.5809056758880615,0.8544477820396423
1779998643451498200,5.496498291015625,-0.08659014850854874,1.3532192707061768,0.816726803779602
1779998643467828000,5.512827880859375,-0.16432274878025055,0.3831652104854584,0.5112941861152649
1779998643484158500,5.529158447265625,-0.3701843321323395,-0.04092797264456749,0.289702832698822
1779998643500500700,5.545500732421875,-0.6774495840072632,-0.2958115041255951,0.3399465084075928
1779998643516826000,5.561826171875,-0.8106181621551514,-1.1575896739959717,0.5152648091316223
1779998643533160400,5.578160400390625,-0.5653557777404785,-2.285705089569092,0.7481572031974792
1779998643549497000,5.5944970703125,-0.06902777403593063,-2.492482900619507,0.9153815507888794
1779998643565826800,5.610826904296875,0.4590652287006378,-1.8661932945251465,1.031598687171936
1779998643582175500,5.627175537109375,0.8064948320388794,-0.7344127297401428,1.0323622226715088
1779998643598501600,5.643501708984375,0.8910996913909912,0.3582724630832672,0.9054549932479858
1779998643614838000,5.659838134765625,0.8280278444290161,1.2226468324661255,0.8048149347305298
1779998643631159000,5.676158935546875,0.6589708924293518,1.882992148399353,0.8616254329681396
1779998643647494100,5.692494140625,0.30054569244384766,2.2099578380584717,0.9912815690040588
1779998643663826700,5.70882666015625,-0.26771169900894165,2.189035654067993,1.0680978298187256
1779998643680159500,5.725159423828125,-0.7243334650993347,2.2768476009368896,1.0795515775680542
1779998643696495000,5.7414951171875,-0.888961672782898,2.442850112915039,1.0415252447128296
1779998643712825300,5.757825439453125,-0.8376489877700806,2.6781859397888184,0.9593638777732849
1779998643729156900,5.774156982421875,-0.6785185933113098,2.942385196685791,0.8327620625495911
1779998643745492000,5.790491943359375,-0.47708576917648315,3.076775550842285,0.7191411256790161
1779998643761842000,5.806842041015625,-0.3052799105644226,2.657416582107544,0.5740606188774109
1779998643778172200,5.823172119140625,-0.15760323405265808,1.793500304222107,0.4158465266227722
1779998643794499800,5.839499755859375,-0.06185010448098183,0.864679753780365,0.3029891550540924
1779998643810814700,5.855814697265625,-0.04382958263158798,0.07391469180583954,0.31154128909111023
1779998643827145200,5.872145263671875,-0.31261029839515686,-0.3271183371543884,0.17562375962734222
1779998643843478800,5.888478759765625,-1.2463178634643555,0.5963571667671204,-1.1355985403060913
1779998643859811600,5.9048115234375,-2.0204367637634277,2.0758728981018066,-2.052049160003662
1779998643876145000,5.921144775390625,-2.1342103481292725,2.8237245082855225,-1.8090773820877075
1779998643892496000,5.937495849609375,-1.892765998840332,3.046232223510742,-1.2811371088027954
1779998643908824000,5.953823974609375,-1.4202617406845093,2.9576568603515625,-0.8243626356124878
1779998643925159400,5.970159423828125,-0.7081455588340759,2.5115723609924316,-0.5346598029136658
1779998643941492200,5.9864921875,0.08491026610136032,1.7912095785140991,-0.4369213581085205
1779998643957823700,6.00282373046875,0.6473644375801086,1.1035280227661133,-0.43478333950042725
1779998643974156000,6.019156005859375,0.7499898076057434,0.7651087045669556,-0.38377609848976135
1779998643990493400,6.035493408203125,0.5644394755363464,0.7226535677909851,-0.2880229651927948
1779998644006822400,6.051822509765625,0.2791654169559479,0.9147707223892212,-0.16035212576389313
1779998644023145000,6.06814501953125,-0.04642575979232788,1.2315043210983276,-0.05497787147760391
1779998644039477200,6.084477294921875,-0.3171917796134949,1.4845552444458008,-0.016035212203860283
1779998644055822600,6.100822509765625,-0.5198463201522827,1.5138767957687378,-0.02229658141732216
1779998644072155000,6.11715478515625,-0.7721336483955383,1.4436272382736206,-0.08368854224681854
1779998644088477700,6.133477783203125,-1.2672399282455444,3.0057623386383057,-1.2646437883377075
1779998644104809700,6.149809814453125,-1.835650086402893,4.469395637512207,-3.0799825191497803
1779998644121154800,6.16615478515625,-2.0189096927642822,4.1245622634887695,-4.14349889755249
1779998644137491000,6.182490966796875,-1.6913331747055054,2.5526530742645264,-5.2108330726623535
1779998644153822200,6.198822265625,-1.1117748022079468,1.0758863687515259,-5.557499408721924
1779998644170155500,6.215155517578125,-1.088714599609375,0.849255383014679,-3.5741724967956543
1779998644186488300,6.23148828125,-0.6209444999694824,-0.23609942197799683,-2.2047653198242188
1779998644202821400,6.2478212890625,0.3309362530708313,-1.2009611129760742,-1.6572774648666382
1779998644219156000,6.264156005859375,1.5161675214767456,-1.1797335147857666,-1.3952162265777588
1779998644235500500,6.28050048828125,2.580142021179199,-0.28557950258255005,-1.401477575302124
1779998644251818500,6.296818603515625,2.9633073806762695,1.1562151908874512,-1.9799669981002808
1779998644268142300,6.313142333984375,2.512183427810669,2.299907684326172,-2.8289170265197754
1779998644284486100,6.329486083984375,1.589624047279358,2.456136465072632,-3.308293342590332
1779998644300826600,6.34582666015625,0.5962044596672058,1.6969836950302124,-3.0312659740448
1779998644317155300,6.3621552734375,-0.039706241339445114,0.645684540271759,-2.090380907058716
1779998644333489000,6.378489013671875,-0.016493361443281174,0.10659598559141159,-1.1508700847625732
1779998644349807900,6.394807861328125,0.2243402600288391,0.22418753802776337,-0.6688974499702454
1779998644366143500,6.4111435546875,0.38148534297943115,0.7241807579994202,-0.651945948600769
1779998644382489900,6.42748974609375,0.4021020531654358,1.3231340646743774,-0.7846564054489136
1779998644398820900,6.44382080078125,0.32528573274612427,1.671021819114685,-0.7386888265609741
1779998644415156000,6.460156005859375,0.21242839097976685,1.6383405923843384,-0.42668938636779785
1779998644431488300,6.47648828125,0.14752395451068878,1.5752687454223633,-0.043676864355802536
1779998644447821800,6.49282177734375,0.21609358489513397,1.7655532360076904,0.266184538602829
1779998644464141600,6.5091416015625,0.37110063433647156,1.7734944820404053,0.5510004758834839
1779998644480472800,6.525472900390625,0.6004805564880371,1.5673274993896484,0.90728759765625
1779998644496811000,6.54181103515625,0.8799513578414917,1.3103059530258179,1.3046554327011108
1779998644513154300,6.558154296875,1.0850493907928467,0.9862419366836548,1.6525431871414185
1779998644529488000,6.57448779296875,1.0566442012786865,0.48808133602142334,1.9243782758712769
1779998644545821200,6.5908212890625,0.6050620079040527,0.1976149082183838,1.9955440759658813
1779998644562149000,6.607149169921875,-0.41599923372268677,0.967915952205658,1.642616629600525
1779998644578482700,6.623482666015625,-1.8475619554519653,3.2594242095947266,0.979827880859375
1779998644594820000,6.639820068359375,-2.9750664234161377,5.563149929046631,0.6380487680435181
1779998644611154200,6.656154296875,-3.407864570617676,5.9365410804748535,0.3729332387447357
1779998644627485400,6.6724853515625,-3.1357240676879883,5.28245735168457,0.2515237629413605
1779998644643820300,6.6888203125,-1.690264105796814,3.0330986976623535,-0.2255619913339615
1779998644660153300,6.7051533203125,0.43875396251678467,-0.3387247920036316,-0.5326744914054871
1779998644676488200,6.72148828125,2.0619757175445557,-2.2064452171325684,-0.18157969415187836
1779998644692819700,6.73781982421875,2.8342621326446533,-1.7597500085830688,0.30115658044815063
1779998644709153800,6.75415380859375,2.9743027687072754,-0.7409795522689819,0.44425174593925476
1779998644725487600,6.770487548828125,2.5645649433135986,-0.09254608303308487,0.3321579694747925
1779998644741857300,6.786857177734375,1.8683313131332397,0.009773843921720982,0.21639901399612427
1779998644758165000,6.8031650390625,1.0538952350616455,-0.25106561183929443,0.2422080636024475
1779998644774493400,6.819493408203125,0.34315356612205505,-0.5351179838180542,0.4147774875164032
1779998644790840000,6.835840087890625,0.037110064178705215,-0.29794952273368835,0.7150177955627441
1779998644807166700,6.852166748046875,-0.024892758578062057,0.3413209617137909,1.065043568611145
1779998644823498800,6.868498779296875,-0.060475658625364304,0.7115052938461304,1.3744467496871948
1779998644839816400,6.88481640625,-0.23258693516254425,0.5648976564407349,1.623374342918396
1779998644856153000,6.901153076171875,-0.984867513179779,1.858099341392517,0.7360926270484924
1779998644872486700,6.917486572265625,-1.8617645502090454,3.7612500190734863,-0.6892086863517761
1779998644888806700,6.933806640625,-2.105194330215454,4.362799644470215,-1.1618657112121582
1779998644905153300,6.9501533203125,-1.7799086570739746,4.37684965133667,-1.013578176498413
1779998644921487000,6.966487060546875,-1.1429288387298584,3.8756344318389893,-0.6520986557006836
1779998644937822000,6.982822021484375,-0.5581781268119812,2.7369816303253174,-0.4080579876899719
1779998644954152400,6.99915234375,-0.25473082065582275,1.3390166759490967,-0.46211954951286316
1779998644970486500,7.015486572265625,-0.13148874044418335,0.4282165467739105,-0.6197227835655212
1779998644986819000,7.031819091796875,-0.1342376321554184,0.1336267739534378,-0.8535314798355103
1779998645003152100,7.048152099609375,-0.2321287989616394,0.41951170563697815,-1.1571314334869385
1779998645019473400,7.064473388671875,-0.2817615866661072,0.8999572396278381,-1.315040111541748
1779998645035818500,7.080818603515625,-0.16829337179660797,1.0772608518600464,-1.1609493494033813
1779998645052152600,7.097152587890625,0.08857546001672745,1.1227703094482422,-0.8381071090698242
1779998645068498700,7.113498779296875,0.39797869324684143,1.2374602556228638,-0.5076290369033813
1779998645084802300,7.12980224609375,0.6155994534492493,1.4572190046310425,-0.21670444309711456
1779998645101139700,7.1461396484375,0.6067419052124023,1.7458528280258179,-0.04902193695306778
1779998645117472800,7.16247265625,0.299018532037735,2.16322660446167,-0.12751811742782593
1779998645133805800,7.178805908203125,-0.07009678333997726,2.4607179164886475,-0.30512720346450806
1779998645150139600,7.1951396484375,-0.2981022298336029,2.342820882797241,-0.46410486102104187
1779998645166472400,7.211472412109375,-0.4103487432003021,2.032654047012329,-0.7429648637771606
1779998645182809000,7.22780908203125,-0.3081815242767334,1.553583025932312,-0.9246972799301147
1779998645199150600,7.244150634765625,-0.16035212576389313,1.0448850393295288,-1.0980303287506104
1779998645215483000,7.26048291015625,-0.3202461004257202,1.084285855293274,-1.6471980810165405
1779998645231820800,7.27682080078125,-0.9004153609275818,1.5262467861175537,-2.4743096828460693
1779998645248152000,7.293152099609375,-1.577559471130371,1.3881912231445312,-2.875495433807373
1779998645264481500,7.3094814453125,-2.2156083583831787,0.7382306456565857,-2.9321532249450684
1779998645280824600,7.325824462890625,-2.6751315593719482,-0.00733038317412138,-2.7797422409057617
1779998645297152000,7.342152099609375,-2.657721996307373,-0.7130324840545654,-2.4295637607574463
1779998645313487000,7.358487060546875,-2.157728672027588,-1.072068452835083,-2.0809123516082764
1779998645329844500,7.374844482421875,-1.542281985282898,-0.7846564054489136,-2.055103302001953
1779998645346162200,7.391162109375,-1.0758863687515259,-0.15836681425571442,-2.1342103481292725
1779998645362486500,7.407486572265625,-0.7547240257263184,0.2119702398777008,-2.1123719215393066
1779998645378817800,7.42381787109375,-0.5499314665794373,0.21105393767356873,-1.9469802379608154
1779998645395152600,7.440152587890625,-0.46410486102104187,0.1586722433567047,-1.4885258674621582
1779998645411486700,7.45648681640625,-0.39553526043891907,0.028099801391363144,-0.8680394887924194
1779998645427818200,7.472818359375,-0.22388210892677307,0.17287486791610718,-0.3686571717262268
1779998645444152300,7.48915234375,0.17318029701709747,0.3926336467266083,-0.031154127791523933
1779998645460486400,7.505486328125,0.7258606553077698,0.3378084897994995,0.20372356474399567
1779998645476816600,7.521816650390625,1.2805262804031372,0.2816088795661926,0.4616613984107971
1779998645493153500,7.538153564453125,1.7081319093704224,0.30222558975219727,0.7689266204833984
1779998645509484500,7.554484619140625,1.9547687768936157,0.4833471179008484,1.1088731288909912
1779998645525818400,7.570818359375,2.085646629333496,0.7553348541259766,1.4048373699188232
1779998645542154500,7.587154541015625,2.121229648590088,0.9915869832038879,1.6862934827804565
1779998645558493400,7.603493408203125,2.060142993927002,0.7777841687202454,1.9587393999099731
1779998645574829600,7.61982958984375,1.86191725730896,0.13790282607078552,2.2377521991729736
1779998645591167000,7.6361669921875,1.4741705656051636,-0.5230533480644226,2.529745578765869
1779998645607483400,7.6524833984375,0.9818131923675537,-0.8393288254737854,2.7062857151031494
1779998645623817700,7.668817626953125,0.4547891616821289,-0.7301366925239563,2.6561946868896484
1779998645640151800,7.68515185546875,-0.013133603148162365,-0.4833471179008484,2.339155673980713
1779998645656487000,7.70148681640625,-0.2292271852493286,-0.1872301995754242,2.0334177017211914
1779998645672816400,7.71781640625,-0.2565633952617645,0.06459899991750717,2.027308940887451
1779998645689152000,7.734152099609375,-0.3562871515750885,-0.008399397134780884,1.7185167074203491
1779998645705486600,7.750486572265625,-0.4818199574947357,0.46761733293533325,1.0317513942718506
1779998645721816600,7.766816650390625,-0.4031710624694824,0.6586654782295227,0.28038713335990906
1779998645738151200,7.783151123046875,-0.021991148591041565,-0.11530081182718277,-0.6766859889030457
1779998645754488300,7.79948828125,0.34315356612205505,-0.644768238067627,-0.6869179606437683
1779998645770831000,7.8158310546875,0.5707008838653564,-0.9346238374710083,-0.26251932978630066
1779998645787152600,7.832152587890625,0.8026769161224365,-0.9584475755691528,-0.07269296050071716
1779998645803500000,7.8485,0.8866708874702454,-0.7266241908073425,0.038179077208042145
1779998645819805000,7.864804931640625,0.7388415336608887,-0.8324565887451172,0.2675589919090271
1779998645836150000,7.88114990234375,0.5442809462547302,-1.5140295028686523,0.7089090943336487
1779998645852475100,7.89747509765625,0.44226643443107605,-2.197587728500366,1.285413146018982
1779998645868808400,7.913808349609375,-0.0065668015740811825,1.0254900455474854,0.8407033085823059
1779998645885153000,7.930153076171875,-0.6491970419883728,4.626540660858154,-0.4314235746860504
1779998645901483500,7.9464833984375,-0.5798638463020325,3.8921279907226562,-0.4807509481906891
1779998645917809000,7.962808837890625,-0.24663683772087097,2.250274896621704,-0.1889100819826126
1779998645934144500,7.97914453125,0.11545353382825851,0.9118691086769104,0.0659734457731247
1779998645950487000,7.995487060546875,0.49357911944389343,0.032681290060281754,0.3078760802745819
1779998645966817000,8.011817138671875,0.8710938692092896,-0.4973970353603363,0.584139883518219
1779998645983152000,8.028152099609375,1.0778716802597046,-0.9439395070075989,0.6803511381149292
1779998645999487000,8.044487060546874,0.7843509912490845,-1.1256719827651978,0.01664607785642147
1779998646015805000,8.060804931640625,0.33918291330337524,-0.7263187766075134,-0.7637342810630798
1779998646032152000,8.077152099609375,0.14019356667995453,0.07681630551815033,-0.9947940707206726
1779998646048477700,8.093477783203125,-0.03497203439474106,0.8124507665634155,-1.042441487312317
1779998646064817700,8.109817626953125,-0.11255192011594772,1.3025174140930176,-1.1659890413284302
1779998646081148000,8.12614794921875,-0.07330382615327835,1.4460707902908325,-1.2107349634170532
1779998646097483800,8.14248388671875,0.04764748737215996,1.1832460165023804,-1.044274091720581
1779998646113817900,8.15881787109375,0.14248432219028473,0.48640143871307373,-0.7762570381164551
1779998646130152400,8.17515234375,0.1518000066280365,-0.4834998548030853,-0.49464812874794006
1779998646146483700,8.191483642578126,0.08704829961061478,-1.2637274265289307,-0.2603813111782074
1779998646162820400,8.2078203125,-0.16982053220272064,-0.945772111415863,-0.3381139039993286
1779998646179139600,8.2241396484375,-0.6444628238677979,0.3900374472141266,-0.8306240439414978
1779998646195503600,8.240503662109376,-1.006095051765442,1.0888673067092896,-1.1844676733016968
1779998646211816200,8.256816162109375,-1.3309226036071777,1.1734721660614014,-1.5083789825439453
1779998646228150800,8.27315087890625,-1.6235270500183105,1.693318486213684,-2.302503824234009
1779998646244484400,8.289484375,-2.0201313495635986,1.811673641204834,-3.0666961669921875
1779998646260825900,8.305825927734375,-2.4553728103637695,0.4740314185619354,-3.2180380821228027
1779998646277152500,8.322152587890624,-2.58762526512146,-2.7094926834106445,-2.596482753753662
1779998646293486800,8.33848681640625,-2.3489296436309814,-4.867068767547607,-2.211179494857788
1779998646309820400,8.3548203125,-1.9352210760116577,-4.400215148925781,-2.2624921798706055
1779998646326170400,8.37117041015625,-1.4288138151168823,-2.6143505573272705,-2.3160955905914307
1779998646342501400,8.38750146484375,-0.9926560521125793,-0.36560285091400146,-2.129781723022461
1779998646358813200,8.403813232421875,-0.7773260474205017,1.1218540668487549,-1.7528778314590454
1779998646375154400,8.420154541015625,-0.6262896060943604,0.915534257888794,-1.3246612548828125
1779998646391487700,8.43648779296875,-0.35674530267715454,-0.23457226157188416,-0.9077457785606384
1779998646407816200,8.452816162109375,-0.15882496535778046,-0.608421802520752,-0.4856378734111786
1779998646424156200,8.46915625,-0.17119498550891876,-0.16264286637306213,-0.12568552792072296
1779998646440487700,8.48548779296875,-0.22403483092784882,0.039095375686883926,0.19135354459285736
1779998646456819500,8.5018193359375,-0.054367005825042725,0.0403171069920063,0.5326744914054871
1779998646473153300,8.5181533203125,0.32971450686454773,-0.0708603709936142,0.9243918061256409
1779998646489488000,8.53448779296875,0.6417139172554016,-0.2629774808883667,1.323439598083496
1779998646505816600,8.550816650390624,0.7962628602981567,-0.41202861070632935,1.676366925239563
1779998646522156800,8.56715673828125,0.9382890462875366,-0.4544837474822998,1.9773707389831543
1779998646538478800,8.583478759765624,1.1189523935317993,-0.40744712948799133,2.215913772583008
1779998646554818600,8.599818603515626,1.2867876291275024,-0.32971450686454773,2.4214699268341064
1779998646571154000,8.61615380859375,1.3808609247207642,-0.25274550914764404,2.660928964614868
1779998646587486700,8.63248681640625,1.3684908151626587,-0.12079860270023346,2.9715540409088135
1779998646603820000,8.648820068359376,1.2431107759475708,0.09682214260101318,3.2681291103363037
1779998646620153600,8.665153564453124,0.9932668805122375,0.21013765037059784,3.341280221939087
1779998646636488700,8.68148876953125,0.6499606370925903,0.29596421122550964,3.1279354095458984
1779998646652820000,8.697820068359375,0.2701551616191864,0.33948835730552673,2.638021469116211
1779998646669154000,8.714154052734376,-0.02535090781748295,0.43050727248191833,1.8455766439437866
1779998646685474600,8.730474609375,-0.18478673696517944,0.7408268451690674,0.8666650652885437
1779998646701835500,8.74683544921875,-0.22067506611347198,1.0743592977523804,0.3433062732219696
1779998646718166500,8.76316650390625,-0.10323622822761536,0.6348416805267334,0.5259549617767334
1779998646734479600,8.779479736328126,0.04505131021142006,-0.5561928153038025,1.1094839572906494
1779998646750828800,8.795828857421874,0.05910121276974678,-1.9422460794448853,1.71989107131958
1779998646767154000,8.81215380859375,-0.0806342139840126,-3.1509957313537598,1.9346102476119995
1779998646783478000,8.82847802734375,-0.07528914511203766,-4.074929237365723,1.8425222635269165
1779998646799820000,8.844820068359375,0.1371392458677292,-3.9709296226501465,1.5598443746566772
1779998646816154600,8.861154541015624,0.5642867684364319,-2.17437481880188,1.2179125547409058
1779998646832491300,8.8774912109375,0.9421069025993347,0.346818745136261,0.8701775670051575
1779998646848808000,8.893807861328124,0.9764680862426758,2.135279417037964,0.6044511795043945
1779998646865143600,8.9101435546875,0.5992587804794312,2.252718210220337,0.5598580241203308
1779998646881487400,8.9264873046875,0.11942415684461594,1.5259413719177246,0.7863363027572632
1779998646897821400,8.942821533203125,-0.6125451326370239,0.6218608021736145,-0.698677122592926
1779998646914153700,8.95915380859375,-1.2744176387786865,0.5707008838653564,-3.2786664962768555
1779998646930488600,8.975488525390626,-0.8455902338027954,1.425148606300354,-2.7039949893951416
1779998646946821000,8.991821044921876,-0.23075434565544128,1.8191566467285156,-1.524261474609375
1779998646963156000,9.008156005859375,0.013133603148162365,1.3968961238861084,-0.7701483368873596
1779998646979486200,9.024486328125,0.08124507963657379,0.4499022662639618,-0.3171917796134949
1779998646995823400,9.0408232421875,0.15332718193531036,-0.38667771220207214,0.06750060617923737
1779998647012155100,9.057155029296876,0.3926336467266083,-0.7712173461914062,0.4683809280395508
1779998647028481800,9.073481689453125,0.8254316449165344,-0.685390830039978,0.8257371187210083
1779998647044822000,9.089822021484375,1.2794572114944458,-0.2719877362251282,1.089020013809204
1779998647061154300,9.106154296875,1.5538884401321411,0.1748601794242859,1.275639295578003
1779998647077490000,9.122489990234374,1.544114589691162,0.4775438904762268,1.3565789461135864
1779998647093822700,9.13882275390625,1.2287554740905762,0.6603453159332275,1.2218831777572632
1779998647110142700,9.155142822265624,-0.007941247895359993,2.481487274169922,-1.8303049802780151
1779998647126491400,9.171491455078124,-0.8619308471679688,4.084092140197754,-3.729179620742798
1779998647142821000,9.187821044921876,-0.6713408827781677,4.332714557647705,-3.0497448444366455
1779998647159157500,9.204157470703125,0.023976460099220276,3.2980613708496094,-1.3912456035614014
1779998647175491600,9.22049169921875,0.46502116322517395,1.3119858503341675,-0.21853704750537872
1779998647191810000,9.23681005859375,0.44593164324760437,-0.5600107312202454,0.19624045491218567
1779998647208156700,9.25315673828125,0.12339477986097336,-1.8840610980987549,0.02626720629632473
1779998647224488200,9.26948828125,-0.4579962193965912,-1.5748106241226196,-0.898124635219574
1779998647240831200,9.285831298828125,-0.9576839804649353,-0.3445279896259308,-1.815796971321106
1779998647257154300,9.302154296875,-1.2084441184997559,0.6282749176025391,-2.1474967002868652
1779998647273495300,9.318495361328125,-1.6762142181396484,2.149329423904419,-2.836705446243286
1779998647289826300,9.334826416015625,-2.5689938068389893,3.7304012775421143,-4.175722122192383
1779998647306167300,9.351167236328125,-3.2543845176696777,2.305863618850708,-3.9072468280792236
1779998647322475800,9.367475830078124,-3.1943671703338623,-2.392606496810913,-2.5274548530578613
1779998647338812200,9.383812255859375,-2.467437505722046,-5.215261936187744,-2.082134246826172
1779998647355144200,9.400144287109375,-1.507462739944458,-4.240473747253418,-2.0861048698425293
1779998647371478800,9.416478759765624,-1.0407617092132568,-1.9839376211166382,-1.914909839630127
1779998647387811300,9.432811279296875,-0.9518807530403137,0.6091853380203247,-1.6714800596237183
1779998647404159200,9.4491591796875,-0.8052731156349182,1.760208249092102,-1.4060590267181396
1779998647420494300,9.465494384765625,-0.5632177591323853,0.8613200187683105,-0.7513642311096191
1779998647436822300,9.481822265625,-0.35613444447517395,0.4156937897205353,-0.15424346923828125
1779998647453158700,9.49815869140625,-0.1895209401845932,0.6041457056999207,0.039248090237379074
1779998647469493800,9.51449365234375,-0.03390302136540413,0.6322455406188965,0.21410827338695526
1779998647485824800,9.53082470703125,0.1569923609495163,0.7590000629425049,0.5881105065345764
1779998647502174500,9.547174560546875,0.42348232865333557,1.0057896375656128,1.0358747243881226
1779998647518502400,9.56350244140625,0.7443392872810364,1.1385000944137573,1.4567608833312988
1779998647534845200,9.57984521484375,0.9697485566139221,0.8489499688148499,1.8373299837112427
1779998647551149800,9.59614990234375,1.1462886333465576,0.3517056703567505,2.1177170276641846
1779998647567505000,9.6125048828125,1.3570371866226196,-0.08109235763549805,2.28631591796875
1779998647583821800,9.62882177734375,1.5418238639831543,-0.38377609848976135,2.3455698490142822
1779998647600158700,9.64515869140625,1.540602207183838,-0.45494189858436584,2.3739750385284424
1779998647616494000,9.661494140625,1.3213015794754028,-0.30970868468284607,2.5244007110595703
1779998647632825300,9.677825439453125,1.0476338863372803,-0.13255776464939117,2.850755453109741
1779998647649159700,9.69415966796875,0.8471173644065857,-0.026419922709465027,3.1117475032806396
1779998647665494500,9.71049462890625,0.6711881756782532,0.0933096632361412,3.073721170425415
1779998647681810000,9.726809814453125,0.43447789549827576,0.2278527319431305,2.724306344985962
1779998647698146800,9.743146728515624,0.046273041516542435,0.4489859640598297,2.0948095321655273
1779998647714495200,9.7594951171875,-0.3191770911216736,0.8827002644538879,0.9917397499084473
1779998647730834000,9.775833984375,-0.4236350357532501,1.6394095420837402,0.0010690141934901476
1779998647747146800,9.792146728515625,-0.14095716178417206,2.3469443321228027,-0.13561208546161652
1779998647763496400,9.808496337890626,0.1408044397830963,2.2438607215881348,0.0656680166721344
1779998647779814400,9.824814453125,0.18081611394882202,1.091310739517212,0.3104722499847412
1779998647796160500,9.841160400390624,0.08750644326210022,-0.5157229900360107,0.5196936130523682
1779998647812494600,9.85749462890625,0.07925976812839508,-1.9976820945739746,0.5907067060470581
1779998647828828000,9.873827880859375,0.26633724570274353,-3.271641492843628,0.5343543887138367
1779998647845150500,9.890150390625,0.5384777188301086,-3.5100317001342773,0.4749477207660675
1779998647861495000,9.9064951171875,0.8788823485374451,-2.662761688232422,0.4804455041885376
1779998647877825500,9.922825439453124,1.1575896739959717,-1.4558446407318115,0.5230533480644226
1779998647894158800,9.939158935546875,1.2072224617004395,-0.28420504927635193,0.6207917928695679
1779998647910484700,9.955484619140625,0.9172141551971436,0.4331034719944,0.7811439037322998
1779998647926826800,9.97182666015625,0.3643811047077179,0.6863071322441101,0.9993755221366882
1779998647943151600,9.988151611328124,-0.1963931769132614,0.8486445546150208,1.2684617042541504
1779998647959494700,10.00449462890625,-0.7686212062835693,3.332728147506714,0.7579310536384583
1779998647975829000,10.0208291015625,-0.9605855941772461,6.146373271942139,-0.45142942667007446
1779998647992160800,10.037160888671876,-0.579405665397644,6.239988327026367,-0.9665415287017822
1779998648008507400,10.05350732421875,0.026114489883184433,4.974275588989258,-1.1169670820236206
1779998648024823800,10.06982373046875,0.3700316250324249,2.719419240951538,-0.9495900273323059
1779998648041166000,10.086166015625,0.1895209401845932,0.1921171247959137,-0.41813725233078003
1779998648057499600,10.102499755859375,-0.06627888232469559,-1.5351043939590454,0.11484266817569733
1779998648073828400,10.118828369140624,-0.07024950534105301,-2.3907737731933594,0.4502076804637909
1779998648090162400,10.135162353515625,0.07254024595022202,-2.7177395820617676,0.6559165716171265
1779998648106509000,10.151509033203125,0.24098633229732513,-2.539672374725342,0.784503698348999
1779998648122829600,10.16782958984375,0.11988230794668198,-1.0054842233657837,0.4334088861942291
1779998648139161300,10.184161376953124,-0.39797869324684143,1.8599319458007812,-0.865290641784668
1779998648155504000,10.200504150390625,-0.5836817622184753,2.942385196685791,-1.5276212692260742
1779998648171826200,10.216826171875,-0.45265114307403564,2.568840980529785,-1.4802792072296143
1779998648188163300,10.233163330078124,-0.19547687470912933,1.8248071670532227,-1.2220358848571777
1779998648204497400,10.249497314453125,0.06520986557006836,1.3600914478302002,-0.8782715201377869
1779998648220813000,10.26581298828125,0.26801711320877075,1.1296426057815552,-0.4216497242450714
1779998648237163500,10.28216357421875,0.19975294172763824,0.5592471361160278,-0.09162978827953339
1779998648253503700,10.298503662109376,-0.20631973445415497,0.08429940044879913,-0.12003502249717712
1779998648269831700,10.314831787109375,-0.841619610786438,0.6896668672561646,-0.8915578126907349
1779998648286176000,10.331176025390626,-1.2087496519088745,0.9436340928077698,-1.7536413669586182
1779998648302510800,10.3475107421875,-1.2573133707046509,0.4164573848247528,-2.3666446208953857
1779998648318835500,10.36383544921875,-1.6099354028701782,0.4356996417045593,-3.3174564838409424
1779998648335179300,10.38017919921875,-2.311361312866211,-0.03451388701796532,-3.389538526535034
1779998648351511000,10.396510986328124,-2.758056640625,-1.8736764192581177,-2.813950777053833
1779998648367828000,10.412827880859375,-2.7824912071228027,-3.4713945388793945,-2.644282817840576
1779998648384161000,10.4291611328125,-2.4498751163482666,-3.785073757171631,-2.6451992988586426
1779998648400502800,10.445502685546876,-1.9130772352218628,-2.50714373588562,-2.5445592403411865
1779998648416830000,10.461829833984375,-1.6468926668167114,-0.6579018831253052,-2.071138620376587
1779998648433165800,10.478165771484376,-1.4999796152114868,0.6062837839126587,-1.576032280921936
1779998648449504500,10.49450439453125,-1.1325441598892212,0.7342600226402283,-1.3362677097320557
1779998648465829400,10.510829345703126,-0.7539604306221008,0.5592471361160278,-1.1606439352035522
1779998648482181000,10.52718115234375,-0.536797821521759,0.47601673007011414,-0.8147414922714233
1779998648498505700,10.543505615234375,-0.2721404731273651,0.5230533480644226,-0.41431936621665955
1779998648514842600,10.559842529296875,0.12247848510742188,0.299018532037735,-0.18707747757434845
1779998648531167500,10.57616748046875,0.46822822093963623,0.2814561724662781,0.04444044828414917
1779998648547513600,10.592513671875,0.8098546266555786,0.2767219543457031,0.3995058834552765
1779998648563833000,10.6088330078125,1.1566733121871948,0.14569136500358582,0.9039278626441956
1779998648580150500,10.625150634765625,1.461495041847229,-0.010537425056099892,1.460120677947998
1779998648596487400,10.6414873046875,1.6627751588821411,-0.13500121235847473,1.8978055715560913
1779998648612821500,10.657821533203125,1.7931948900222778,-0.15974126756191254,2.1697933673858643
1779998648629153800,10.67415380859375,1.8823812007904053,-0.13454307615756989,2.3483188152313232
1779998648645490200,10.690490234375,1.878868818283081,-0.24724771082401276,2.52608060836792
1779998648661821000,10.706821044921876,1.6942347288131714,-0.6357579827308655,2.7687466144561768
1779998648678154000,10.723154052734374,1.2806789875030518,-0.9237809777259827,3.2473597526550293
1779998648694489600,10.739489501953125,0.5907067060470581,-0.4766276180744171,4.10089111328125
1779998648710822000,10.75582177734375,-0.18478673696517944,0.40103304386138916,4.9200615882873535
1779998648727154700,10.77215478515625,-0.7903069257736206,2.3331997394561768,1.5079208612442017
1779998648743489000,10.788489013671875,-1.659568190574646,5.10286283493042,-2.6116015911102295
1779998648759828500,10.804828369140624,-1.2111930847167969,5.928905487060547,-1.7748689651489258
1779998648776156200,10.82115625,-0.07696902006864548,2.6920831203460693,-0.13271047174930573
1779998648792491000,10.837490966796874,0.508698046207428,0.8417723178863525,0.804051399230957
1779998648808838400,10.85383837890625,0.7677049040794373,-0.3223841190338135,0.8440630435943604
1779998648825170700,10.870170654296874,0.892779529094696,-1.722181797027588,0.5958990454673767
1779998648841488600,10.886488525390625,1.0459539890289307,-2.0366246700286865,0.27779096364974976
1779998648857836300,10.902836181640625,1.13758385181427,-1.8383989334106445,-0.0013744467869400978
1779998648874164700,10.919164794921874,0.9996809959411621,-1.4080443382263184,-0.021991148591041565
1779998648890506500,10.935506591796875,0.6559165716171265,-0.6459900140762329,0.3280346393585205
1779998648906841000,10.951841064453125,0.27519479393959045,0.36972618103027344,0.9347765445709229
1779998648923168500,10.96816845703125,0.19165897369384766,1.2721269130706787,1.4395039081573486
1779998648939507700,10.9845078125,0.1569923609495163,2.032654047012329,1.5383113622665405
1779998648955836200,11.000836181640626,-0.08521570265293121,2.4356725215911865,1.3866641521453857
1779998648972167000,11.0171669921875,-0.4179845452308655,2.6473371982574463,1.152855396270752
1779998648988518400,11.033518310546874,-0.664315938949585,2.785698175430298,1.0024298429489136
1779998649004827100,11.0498271484375,-0.8263479471206665,2.877633571624756,0.9627236127853394
1779998649021169200,11.066169189453126,-0.9297369122505188,2.8515188694000244,1.018770456314087
1779998649037502200,11.082502197265624,-0.9534079432487488,2.6342036724090576,1.1186469793319702
1779998649053837800,11.098837890625,-0.8397870063781738,2.3298399448394775,1.1730140447616577
1779998649070171000,11.1151708984375,-0.6669121384620667,1.9709566831588745,1.007622241973877
1779998649086509300,11.13150927734375,-0.9940304756164551,1.8245017528533936,-0.42531493306159973
1779998649102837500,11.14783740234375,-1.4081971645355225,2.3133466243743896,-1.79090416431427
1779998649119168500,11.16416845703125,-1.2718214988708496,2.7620272636413574,-1.8642079830169678
1779998649135507000,11.1805068359375,-0.9205739498138428,2.9697213172912598,-1.49906325340271
1779998649151840300,11.19684033203125,-0.5940664410591125,2.959642171859741,-1.1045970916748047
1779998649168171000,11.2131708984375,-0.32100969552993774,2.775008201599121,-0.7379252314567566
1779998649184491000,11.229490966796876,-0.06490442901849747,2.464383125305176,-0.4395175576210022
1779998649200862500,11.245862548828125,0.17928895354270935,1.9804251194000244,-0.2629774808883667
1779998649217172200,11.262172119140626,0.3321579694747925,1.3671164512634277,-0.2047925740480423
1779998649233507300,11.27850732421875,0.37629300355911255,0.8032878041267395,-0.21013765037059784
1779998649249843500,11.294843505859374,0.36621370911598206,0.432645320892334,-0.23609942197799683
1779998649266166000,11.311166015625,0.31749722361564636,0.3413209617137909,-0.24129177629947662
1779998649282524700,11.327524658203124,0.19624045491218567,0.5482515692710876,-0.2370157092809677
1779998649298836000,11.3438359375,-0.01466076634824276,0.9305005073547363,-0.2528982162475586
1779998649315192800,11.36019287109375,-0.2877175211906433,1.2597568035125732,-0.31749722361564636
1779998649331519000,11.37651904296875,-0.5679519772529602,1.3603968620300293,-0.41661009192466736
1779998649347837200,11.392837158203125,-0.8790351152420044,3.324634075164795,-1.3634512424468994
1779998649364175000,11.409175048828125,-1.3487904071807861,4.897001266479492,-3.000875473022461
1779998649380506400,11.42550634765625,-1.980883240699768,4.093255519866943,-3.721543788909912
1779998649396840200,11.441840087890625,-2.4472789764404297,2.942232370376587,-4.202753067016602
1779998649413174800,11.4581748046875,-2.498744249343872,2.361604928970337,-4.994128704071045
1779998649429506300,11.47450634765625,-2.308765172958374,2.458885431289673,-4.749019145965576
1779998649445841700,11.490841552734375,-1.677588701248169,1.528384804725647,-3.079219102859497
1779998649462174700,11.5071748046875,-0.2096794992685318,0.328340083360672,-2.211484909057617
1779998649478518500,11.5235185546875,1.7521142959594727,0.050854530185461044,-2.0167715549468994
1779998649494852900,11.539852783203125,3.13847279548645,0.8150469660758972,-2.149482011795044
1779998649511189000,11.55618896484375,3.045163154602051,1.8301522731781006,-2.6922359466552734
1779998649527521300,11.572521240234375,2.0590739250183105,2.584876298904419,-3.2566752433776855
1779998649543839200,11.588839111328125,0.9205739498138428,2.813339948654175,-3.3368513584136963
1779998649560174300,11.60517431640625,-0.08521570265293121,2.0833559036254883,-2.7598891258239746
1779998649576510700,11.6215107421875,-0.4593706727027893,0.9430232048034668,-1.9158260822296143
1779998649592842200,11.63784228515625,-0.3504839241504669,0.039095375686883926,-1.479668378829956
1779998649609176600,11.654176513671874,0.016493361443281174,-0.4027129113674164,-1.5279266834259033
1779998649625511700,11.67051171875,0.4801400899887085,-0.2275473028421402,-1.7580702304840088
1779998649641842000,11.686842041015625,0.8162686824798584,0.4317290186882019,-1.8784105777740479
1779998649658177300,11.70317724609375,0.8361217975616455,1.2147055864334106,-1.7527251243591309
1779998649674528000,11.719528076171875,0.6243042945861816,1.6699528694152832,-1.4430164098739624
1779998649690856400,11.7358564453125,0.4072943925857544,1.6859880685806274,-1.0613783597946167
1779998649707190000,11.75218994140625,0.28787025809288025,1.5274685621261597,-0.7041749358177185
1779998649723526000,11.76852587890625,0.3257438838481903,1.4054481983184814,-0.45723262429237366
1779998649739840500,11.784840576171876,0.46150869131088257,1.2903001308441162,-0.3010038435459137
1779998649756178000,11.801177978515625,0.6148358583450317,1.2446379661560059,-0.10842858254909515
1779998649772512000,11.817511962890626,0.7255551815032959,1.3168727159500122,0.1368338167667389
1779998649788845000,11.833844970703124,0.8136724829673767,1.3558154106140137,0.3539963960647583
1779998649805176600,11.850176513671874,0.8677340745925903,1.2860240936279297,0.5609270334243774
1779998649821499000,11.866498779296874,0.8949176073074341,1.1409435272216797,0.7360926270484924
1779998649837853700,11.882853759765625,0.8391761183738708,0.9466884136199951,0.8005388975143433
1779998649854182000,11.899181884765625,0.6114761233329773,1.0070114135742188,0.6944010853767395
1779998649870508000,11.915508056640626,0.15851953625679016,1.6096298694610596,0.566119372844696
1779998649886848500,11.9318486328125,-0.45524731278419495,2.5919013023376465,0.8095491528511047
1779998649903166500,11.94816650390625,-1.0960450172424316,3.1583261489868164,1.2434161901474
1779998649919514600,11.9645146484375,-1.5259413719177246,2.6557366847991943,1.348484992980957
1779998649935841500,11.980841552734375,-1.6116151809692383,1.3333661556243896,1.1061242818832397
1779998649952180200,11.99718017578125,-1.3031282424926758,-0.17501288652420044,0.797789990901947
1779998649968512000,12.013511962890625,-0.7209737300872803,-0.979827880859375,0.618195652961731
1779998649984846800,12.029846923828124,-0.040164388716220856,-0.9068294763565063,0.8917105197906494
1779998650001179400,12.046179443359375,0.47219884395599365,-0.22357667982578278,1.2279918193817139
1779998650017513700,12.062513671875,1.1320860385894775,0.6372851729393005,1.0702359676361084
1779998650033863200,12.07886328125,2.339003086090088,0.33628132939338684,-0.3608686327934265
1779998650050179800,12.095179931640626,3.118008852005005,-0.9100365042686462,-1.2927435636520386
1779998650066513700,12.111513671875,2.8211283683776855,-0.6530149579048157,-0.5238169431686401
1779998650082847700,12.12784765625,2.165975332260132,0.4415028691291809,0.08384125679731369
1779998650099180000,12.144179931640625,1.4717271327972412,1.3171781301498413,0.1889100819826126
1779998650115517400,12.160517333984375,0.8721628785133362,1.6800321340560913,0.1644754707813263
1779998650131847400,12.176847412109375,0.3205515444278717,1.595274567604065,0.21639901399612427
1779998650148182000,12.19318212890625,0.015118914656341076,1.2936599254608154,0.41630467772483826
1779998650164513000,12.209512939453125,0.001527163083665073,0.9210320711135864,0.7307475209236145
1779998650180867600,12.22586767578125,0.22770002484321594,0.49006664752960205,1.103833556175232
1779998650197181000,12.242180908203125,0.5534439086914062,0.052228979766368866,1.4262176752090454
1779998650213516500,12.2585166015625,0.7770205736160278,-0.5396994352340698,1.6285667419433594
1779998650229853200,12.274853271484375,0.7002043128013611,-1.3017538785934448,1.7478381395339966
1779998650246195500,12.291195556640625,0.39904773235321045,-1.9480493068695068,1.9029979705810547
1779998650262528500,12.307528564453126,0.0731511116027832,-2.1627683639526367,2.079385280609131
1779998650278850300,12.323850341796875,-0.23350323736667633,-1.8949040174484253,2.200031280517578
1779998650295196200,12.340196044921875,-1.0364855527877808,2.0218112468719482,0.2672535479068756
1779998650311514000,12.35651416015625,-1.6649131774902344,5.708077430725098,-1.7220290899276733
1779998650327846700,12.3728466796875,-1.7475327253341675,6.700886249542236,-1.7270687818527222
1779998650344184800,12.389184814453126,-1.2267701625823975,6.527706146240234,-0.6722571849822998
1779998650360516600,12.4055166015625,-0.38637226819992065,5.066058158874512,0.327729195356369
1779998650376851000,12.421850830078125,0.1241583600640297,2.8041768074035645,0.5140430927276611
1779998650393183500,12.43818359375,0.08567385375499725,0.9239336848258972,-0.1586722433567047
1779998650409517000,12.45451708984375,-0.20265454053878784,0.11728613078594208,-0.916450560092926
1779998650425852000,12.470851806640624,-0.34437528252601624,0.0024434609804302454,-1.1888965368270874
1779998650442185200,12.487185302734375,-0.25213462114334106,-0.016951510682702065,-1.0726794004440308
1779998650458511400,12.503511474609375,-0.07910704612731934,0.06017022579908371,-0.7922922372817993
1779998650474851800,12.519851806640625,0.038026362657547,0.2845104932785034,-0.49464812874794006
1779998650491170600,12.536170654296875,0.13408492505550385,0.5404630303382874,-0.26481008529663086
1779998650507533000,12.552532958984376,0.2874121069908142,0.697149932384491,-0.13927727937698364
1779998650523848400,12.568848388671874,0.39187005162239075,0.9416487812995911,-0.17776179313659668
1779998650540187000,12.585186767578126,0.2938261926174164,1.574657917022705,-0.42149701714515686
1779998650556520700,12.601520751953124,0.05497787147760391,2.2146918773651123,-0.7081455588340759
1779998650572849400,12.617849365234376,-0.09758572280406952,2.3072381019592285,-0.8316930532455444
1779998650589177000,12.634177001953125,-0.15485434234142303,1.7768542766571045,-0.803135097026825
1779998650605510000,12.650510009765625,-0.256868839263916,0.9341656565666199,-0.8147414922714233
1779998650621854200,12.666854248046874,-0.5268712639808655,0.26313021779060364,-1.0600038766860962
1779998650638189000,12.68318896484375,-0.8666650652885437,0.12751811742782593,-1.4772248268127441
1779998650654536400,12.699536376953125,-1.1090258359909058,0.4207334518432617,-2.0366246700286865
1779998650670848500,12.7158486328125,-1.285413146018982,0.40622538328170776,-2.682767391204834
1779998650687201800,12.732201904296875,-1.6380351781845093,-0.2817615866661072,-3.0856330394744873
1779998650703535600,12.74853564453125,-1.9879082441329956,-1.0377073287963867,-3.173597574234009
1779998650719848000,12.764847900390626,-2.1123719215393066,-1.3584115505218506,-2.975830078125
1779998650736189000,12.78118896484375,-1.9732474088668823,-0.6963863968849182,-2.7233898639678955
1779998650752520400,12.7975205078125,-1.6879733800888062,0.8229882121086121,-2.696664571762085
1779998650768858400,12.8138583984375,-1.3866641521453857,1.860695481300354,-2.529134750366211
1779998650785190400,12.8301904296875,-1.0772608518600464,1.2625057697296143,-1.8429805040359497
1779998650801522700,12.846522705078126,-0.8168795704841614,-0.3168863356113434,-1.0610729455947876
1779998650817859600,12.862859619140625,-0.6745479702949524,-1.0386236906051636,-0.7014260292053223
1779998650834171000,12.8791708984375,-0.6114761233329773,-0.726471483707428,-0.6618725061416626
1779998650850510800,12.8955107421875,-0.30863967537879944,-0.20036379992961884,-0.6160575747489929
1779998650866835000,12.9118349609375,0.2840523421764374,0.304669052362442,-0.38499781489372253
1779998650883179300,12.92817919921875,0.8629998564720154,0.570853590965271,-0.013591751456260681
1779998650899510800,12.9445107421875,1.1554516553878784,0.6239988207817078,0.3562871515750885
1779998650915847000,12.960846923828125,1.190729022026062,0.5183191895484924,0.651945948600769
1779998650932179200,12.97717919921875,1.1239920854568481,0.3081815242767334,0.9497427344322205
1779998650948526600,12.993526611328125,1.1084150075912476,0.03375030308961868,1.2301298379898071
1779998650964848000,13.00984814453125,1.165683627128601,-0.23518311977386475,1.4674509763717651
1779998650981178000,13.02617822265625,1.2553280591964722,-0.42928555607795715,1.6907222270965576
1779998650997512000,13.042511962890625,1.3222178220748901,-0.6513350605964661,1.9129245281219482
1779998651013846000,13.058845947265626,1.2712105512619019,-0.8694139719009399,2.0902280807495117
1779998651030193700,13.075193603515626,1.076344609260559,-0.887739896774292,2.1626157760620117
1779998651046526700,13.091526611328124,0.7884743213653564,-0.4980078935623169,2.1565070152282715
1779998651062856700,13.107856689453126,0.4674646258354187,-0.012980886735022068,2.108401298522949
1779998651079192000,13.124192138671875,0.20173825323581696,0.19532416760921478,2.059837579727173
1779998651095525400,13.140525390625,0.1082758679986,0.15241087973117828,1.9518672227859497
1779998651111859700,13.156859619140626,0.11194105446338654,-0.08491026610136032,1.7507398128509521
1779998651128193300,13.173193359375,0.1310305893421173,-0.6298020482063293,1.5503759384155273
1779998651144528100,13.189528076171875,0.13148874044418335,-1.1100949048995972,1.4744759798049927
1779998651160872000,13.205871826171874,0.15546520054340363,-1.0503827333450317,1.4384349584579468
1779998651177193700,13.22219384765625,0.14263702929019928,-0.566730260848999,1.411251425743103
1779998651193523200,13.238523193359375,0.019394971430301666,-0.05742133408784866,1.4576772451400757
1779998651209867500,13.254867431640625,-0.17806722223758698,0.2710714638233185,1.5280793905258179
1779998651226206000,13.2712060546875,-0.3449861407279968,0.13255776464939117,1.5083789825439453
1779998651242523400,13.2875234375,-0.4219551682472229,-0.38576140999794006,1.297935962677002
1779998651258861300,13.303861328125,-0.342695415019989,-0.8712465763092041,0.8651378750801086
1779998651275193000,13.320193115234375,-0.09254608303308487,-0.8002334833145142,0.1722639948129654
1779998651291527700,13.336527587890625,0.2119702398777008,-0.23609942197799683,-0.3194825351238251
1779998651307862000,13.352862060546874,0.4862487316131592,0.34376442432403564,-0.3637702465057373
1779998651324193500,13.369193603515624,0.6013968586921692,0.8003861904144287,-0.2548835277557373
1779998651340530000,13.385530029296875,0.5476406812667847,1.1045970916748047,-0.06368270516395569
1779998651356862200,13.4018623046875,0.13225232064723969,2.278221845626831,-0.8077165484428406
1779998651373196500,13.418196533203124,-0.8544477820396423,4.837441921234131,-2.484389066696167
1779998651389516500,13.4345166015625,-0.6282749176025391,4.034917831420898,-1.5745052099227905
1779998651405861400,13.450861328125,0.04993823543190956,2.056936025619507,-0.4308127164840698
1779998651422193700,13.467193603515625,0.512210488319397,0.3234531581401825,0.3436116874217987
1779998651438523100,13.483523193359375,0.7864890098571777,-0.8390234112739563,0.7843509912490845
1779998651454862000,13.499862060546874,0.8962920308113098,-1.5525140762329102,1.0447323322296143
1779998651471195600,13.516195556640625,0.8049677014350891,-2.2287418842315674,1.1696542501449585
1779998651487532500,13.532532470703124,0.5723807215690613,-2.850297212600708,1.2078332901000977
1779998651503840300,13.54884033203125,0.4202753007411957,-2.886796474456787,1.1801916360855103
1779998651520197400,13.565197265625,0.38728857040405273,-2.2954788208007812,1.0923798084259033
1779998651536533000,13.581532958984376,0.24037547409534454,-0.4082106947898865,0.4034765064716339
1779998651552862200,13.5978623046875,-0.1108720451593399,2.7429375648498535,-1.1371256113052368
1779998651569198300,13.6141982421875,-0.26221391558647156,3.8044686317443848,-1.5332717895507812
1779998651585530400,13.6305302734375,-0.2970332205295563,3.9658899307250977,-1.2719742059707642
1779998651601852200,13.64685205078125,-0.1966986060142517,4.16549015045166,-0.922711968421936
1779998651618199000,13.663198974609376,-0.1941024363040924,3.6610682010650635,-0.7498371005058289
1779998651634545000,13.679544921875,-0.2298380434513092,1.7626516819000244,-0.6687447428703308
1779998651650881000,13.695881103515624,-0.12140946835279465,-0.46303585171699524,-0.6485861539840698
1779998651667209000,13.712208984375,0.030543262138962746,-1.7931948900222778,-0.6856962442398071
1779998651683547000,13.728546875,0.06612616032361984,-1.674839735031128,-0.8298604488372803
1779998651699850500,13.7448505859375,-0.08689557760953903,-0.5568036437034607,-1.1183415651321411
1779998651716200200,13.7612001953125,-0.2845104932785034,0.2269364446401596,-1.2319624423980713
1779998651732530200,13.7775302734375,-0.475253164768219,0.47418415546417236,-1.1618657112121582
1779998651748868900,13.793868896484375,-0.7809911966323853,0.7470881938934326,-1.1983648538589478
1779998651765188600,13.810188720703126,-1.1942415237426758,0.8515461683273315,-1.5012013912200928
1779998651781535200,13.82653515625,-1.6838500499725342,0.7641924023628235,-2.1287126541137695
1779998651797865700,13.84286572265625,-2.323273181915283,0.1915062516927719,-2.6870434284210205
1779998651814200000,13.859199951171876,-2.9524643421173096,-1.4253013134002686,-2.613586902618408
1779998651830535400,13.875535400390625,-3.043025255203247,-2.9602530002593994,-2.4779748916625977
1779998651846867500,13.891867431640625,-2.4853053092956543,-3.2612569332122803,-2.4083361625671387
1779998651863201800,13.908201904296876,-1.9701931476593018,-2.5465445518493652,-2.1600193977355957
1779998651879534000,13.9245341796875,-1.6589572429656982,-0.9173668622970581,-1.8836029767990112
1779998651895864300,13.9408642578125,-1.3461942672729492,0.6378960609436035,-1.6048957109451294
1779998651912194300,13.9571943359375,-0.9760099649429321,0.9109528064727783,-1.2525792121887207
1779998651928516400,13.973516357421875,-0.5626068711280823,0.23915374279022217,-0.8245153427124023
1779998651944869600,13.98986962890625,-0.20204368233680725,0.031154127791523933,-0.5154175758361816
1779998651961189000,14.006189208984376,-0.0936150997877121,0.4407392740249634,-0.3225368559360504
1779998651977535500,14.022535400390625,-0.11224649101495743,0.5748242139816284,-0.02321287989616394
1779998651993887200,14.03888720703125,0.028405234217643738,0.4714352488517761,0.31810808181762695
1779998652010199800,14.05519970703125,0.3594942092895508,0.46334129571914673,0.5662720799446106
1779998652026533600,14.07153369140625,0.6142250299453735,0.3507893681526184,0.812298059463501
1779998652042870300,14.087870361328125,0.840397834777832,0.029932396486401558,1.079246163368225
1779998652059200300,14.1042001953125,1.1213958263397217,-0.24465152621269226,1.3416128158569336
1779998652075541200,14.120541259765625,1.4384349584579468,-0.471129834651947,1.588555097579956
1779998652091856100,14.136856201171875,1.729664921760559,-0.6963863968849182,1.8115209341049194
1779998652108194000,14.153194091796875,1.9304869174957275,-0.7635815739631653,1.9741637706756592
1779998652124524800,14.16952490234375,1.9695823192596436,-0.6244570016860962,2.0616703033447266
1779998652140859600,14.185859619140626,1.8742872476577759,-0.5085453391075134,2.1901047229766846
1779998652157193700,14.20219384765625,1.637271523475647,-0.5013676285743713,2.423149824142456
1779998652173525800,14.21852587890625,1.2741122245788574,-0.5748242139816284,2.7462973594665527
1779998652189859600,14.234859619140625,0.8371908068656921,-0.579405665397644,2.9654452800750732
1779998652206193400,14.251193359375,0.45952337980270386,-0.29733866453170776,2.741868734359741
1779998652222527000,14.26752685546875,0.18035796284675598,0.09010262042284012,2.0703749656677246
1779998652238859800,14.28385986328125,-0.15851953625679016,0.3594942092895508,1.235474944114685
1779998652255193900,14.30019384765625,-0.39996400475502014,0.28527405858039856,0.7544185519218445
1779998652271527000,14.31652685546875,-0.3165809214115143,-0.40362921357154846,0.7910705208778381
1779998652287860200,14.332860107421874,-0.13148874044418335,-1.0112874507904053,0.7812966704368591
1779998652304207000,14.34920703125,-0.1134682223200798,-1.282817006111145,0.769690215587616
1779998652320542500,14.36554248046875,-0.2617557644844055,-1.9142990112304688,0.7188356518745422
1779998652336872000,14.381871826171874,-0.30085113644599915,-2.777146100997925,0.6047565937042236
1779998652353207600,14.39820751953125,-0.126143679022789,-3.0883820056915283,0.3908010423183441
1779998652369541400,14.414541259765626,0.21930062770843506,-2.18552303314209,0.15653422474861145
1779998652385874700,14.430874755859374,0.5705481171607971,-0.30482175946235657,0.058337632566690445
1779998652402207500,14.44720751953125,0.746630072593689,1.820225715637207,0.08185594528913498
1779998652418539800,14.463539794921875,0.5676465034484863,2.8406760692596436,0.2808452844619751
1779998652434864600,14.47986474609375,-0.00809396430850029,3.4246633052825928,0.2577851414680481
1779998652451209200,14.496209228515625,-1.5462526082992554,6.19173002243042,-2.1562016010284424
1779998652467541500,14.51254150390625,-1.7996090650558472,5.641493320465088,-2.3692407608032227
1779998652483875300,14.528875244140625,-1.0627528429031372,3.0243937969207764,-1.1479685306549072
1779998652500207600,14.54520751953125,-0.4265366494655609,0.04932736977934837,-0.06276640295982361
1779998652516529700,14.56152978515625,-0.005192354787141085,-1.916437029838562,0.5135849714279175
1779998652532876300,14.577876220703125,0.43768495321273804,-2.8984029293060303,0.8260425329208374
1779998652549209600,14.594209716796875,0.9497427344322205,-3.112663745880127,1.081842303276062
1779998652565542100,14.610542236328126,1.4524848461151123,-2.6780333518981934,1.3524556159973145
1779998652581875000,14.626875,1.7458528280258179,-1.793653130531311,1.5804611444473267
1779998652598219800,14.6432197265625,1.7427985668182373,-0.7817547917366028,1.7105754613876343
1779998652614542800,14.65954296875,1.3113750219345093,0.46929723024368286,1.2779301404953003
1779998652630888000,14.675887939453125,0.3104722499847412,2.699871778488159,-0.7521278262138367
1779998652647228700,14.692228759765625,-0.3439171314239502,3.7791178226470947,-1.6572774648666382
1779998652663524900,14.70852490234375,-0.5287038683891296,4.075387477874756,-1.4005613327026367
1779998652679873500,14.72487353515625,-0.304210901260376,3.8198931217193604,-0.6881396770477295
1779998652696212000,14.7412119140625,-0.032681290060281754,3.098308563232422,-0.06643159687519073
1779998652712540700,14.757540771484376,-0.0887281745672226,1.9712620973587036,-0.05513058975338936
1779998652728878300,14.77387841796875,-0.251218318939209,0.7137960195541382,-0.3831652104854584
1779998652745214000,14.7902138671875,-0.2538145184516907,-0.35414913296699524,-0.6125451326370239
1779998652761532400,14.806532470703125,-0.16814066469669342,-0.8559749126434326,-0.6577491760253906
1779998652777880300,14.82288037109375,-0.1638645976781845,-0.5929974317550659,-0.6924157738685608
1779998652794206700,14.839206787109376,-0.2793181240558624,-0.012064588256180286,-0.6765332818031311
1779998652810548200,14.85554833984375,-0.4537201523780823,0.5479460954666138,-0.6498079299926758
1779998652826879200,14.871879150390624,-0.6675229668617249,0.9474520087242126,-0.7203628420829773
1779998652843213300,14.88821337890625,-1.0257954597473145,1.490816593170166,-1.0407617092132568
1779998652859546400,14.90454638671875,-1.6001615524291992,2.4782803058624268,-1.7592918872833252
1779998652875879000,14.92087890625,-2.305863618850708,2.939483642578125,-2.358703374862671
1779998652892213200,14.937213134765624,-3.0167579650878906,2.255925416946411,-2.3434317111968994
1779998652908538400,14.953538330078125,-3.431535482406616,0.005803219974040985,-1.9120081663131714
1779998652924880400,14.96988037109375,-3.2840116024017334,-2.4080307483673096,-2.032654047012329
1779998652941212400,14.98621240234375,-2.5813639163970947,-2.992781639099121,-2.342515468597412
1779998652957545000,15.002544921875,-1.7259997129440308,-2.562427043914795,-2.0862574577331543
1779998652973884700,15.018884765625,-1.1027644872665405,-1.6417003870010376,-1.535562515258789
1779998652990214400,15.03521435546875,-0.6748533844947815,-0.4294382631778717,-1.1895073652267456
1779998653006563800,15.051563720703125,-0.37827831506729126,0.5426010489463806,-1.0900890827178955
1779998653022878500,15.06787841796875,-0.18906278908252716,1.118036150932312,-0.9909761548042297
1779998653039215000,15.084215087890625,-0.10384709388017654,1.140485405921936,-0.7857254147529602
1779998653055537000,15.100536865234375,-0.12400564551353455,1.0723739862442017,-0.5097670555114746
1779998653071880400,15.11688037109375,0.022143865004181862,0.7228062748908997,-0.20830504596233368
1779998653088216300,15.13321630859375,0.3819434940814972,0.24495697021484375,0.017562376335263252
1779998653104548900,15.149548828125,0.8148942589759827,-0.1492038369178772,0.28588494658470154
1779998653120881700,15.165881591796875,1.2331842184066772,-0.47448956966400146,0.6395758986473083
1779998653137214200,15.182214111328125,1.6010777950286865,-0.8139779567718506,1.0254900455474854
1779998653153549600,15.198549560546875,1.8857409954071045,-1.1899654865264893,1.4039210081100464
1779998653169883400,15.21488330078125,2.0554087162017822,-1.5012013912200928,1.7438675165176392
1779998653186216400,15.231216552734375,2.122145891189575,-1.5946637392044067,1.9573649168014526
1779998653202550800,15.24755078125,2.108248710632324,-1.361007809638977,1.9701931476593018
1779998653218882300,15.26388232421875,1.9239200353622437,-0.707840085029602,1.9428569078445435
1779998653235245800,15.280245849609376,1.4625641107559204,0.5100724697113037,2.350456714630127
1779998653251563800,15.296563720703125,0.8920159935951233,1.5583171844482422,3.2172744274139404
1779998653267879400,15.31287939453125,0.4415028691291809,1.630246639251709,3.7643043994903564
1779998653284214800,15.32921484375,0.21868975460529327,1.0954340696334839,3.665802240371704
1779998653300555800,15.3455556640625,0.010537425056099892,0.6021603941917419,2.4350616931915283
1779998653316884200,15.36188427734375,-0.2562579810619354,0.2499966025352478,0.9772316813468933
1779998653333218600,15.378218505859374,-0.5435173511505127,0.8272642493247986,0.197004035115242
1779998653349549600,15.394549560546874,-0.7939720749855042,2.585181713104248,0.08933904021978378
1779998653365889000,15.410888916015624,-0.9317222237586975,3.589749574661255,0.23167064785957336
1779998653382233900,15.42723388671875,-0.6569855809211731,2.7623326778411865,0.25076019763946533
1779998653398538200,15.443538330078125,-0.16829337179660797,1.1966849565505981,0.24037547409534454
1779998653414882600,15.459882568359374,0.3194825351238251,0.06261368840932846,0.21303924918174744
1779998653431206100,15.4762060546875,0.7162395119667053,-0.5827654600143433,0.19822576642036438
1779998653447554600,15.492554443359374,0.898124635219574,-1.0335839986801147,0.2428189367055893
1779998653463886600,15.508886474609374,0.8746063113212585,-1.4228578805923462,0.3672827184200287
1779998653480220000,15.525219970703125,0.7344127297401428,-1.8080084323883057,0.6206390857696533
1779998653496554500,15.541554443359376,0.6114761233329773,-1.488220453262329,0.9778425693511963
1779998653512886500,15.557886474609376,0.23671028017997742,1.0856602191925049,0.504574716091156
1779998653529220600,15.574220703125,-0.11667526513338089,3.4521522521972656,-0.43967026472091675
1779998653545540900,15.590540771484376,-0.0754418596625328,3.4100024700164795,-0.4579962193965912
1779998653561884200,15.60688427734375,-0.03787364438176155,2.5117251873016357,-0.27977627515792847
1779998653578207700,15.623207763671875,-0.13836097717285156,1.3535246849060059,-0.22907446324825287
1779998653594541800,15.639541748046875,-0.25702154636383057,0.26282477378845215,-0.230448916554451
1779998653610903000,15.655903076171874,-0.22143864631652832,-0.3845396637916565,-0.19532416760921478
1779998653627241200,15.6722412109375,0.03481931984424591,-0.42409318685531616,-0.08796459436416626
1779998653643558100,15.68855810546875,0.342237263917923,0.12064588814973831,0.06475171446800232
1779998653659900200,15.704900146484375,0.3878994286060333,1.5360206365585327,0.002138028386980295
1779998653676238800,15.72123876953125,0.09834930300712585,2.791501522064209,-0.3425426781177521
1779998653692553200,15.73755322265625,-0.1921171247959137,2.9443705081939697,-0.5551238059997559
1779998653708892700,15.753892578125,-0.22815817594528198,2.4136812686920166,-0.5700899958610535
1779998653725224000,15.770223876953125,-0.04108068719506264,1.7400496006011963,-0.5238169431686401
1779998653741555000,15.786554931640625,0.14584407210350037,1.0709995031356812,-0.4509712755680084
1779998653757889500,15.8028896484375,0.2603813111782074,0.4639521539211273,-0.34086281061172485
1779998653774219800,15.8192197265625,0.3052799105644226,-0.04245513305068016,-0.17318029701709747
1779998653790557000,15.835556884765625,0.28420504927635193,-0.3530801236629486,0.06994406878948212
1779998653806894000,15.85189404296875,0.06154467165470123,0.5267185568809509,0.1748601794242859
1779998653823224300,15.868224365234376,-0.5274821519851685,2.953227996826172,-0.2519819140434265
1779998653839555800,15.884555908203126,-0.8358163833618164,3.4822373390197754,-0.4813618063926697
1779998653855890400,15.900890380859375,-0.7623597979545593,2.5784621238708496,-0.44654250144958496
1779998653872224500,15.917224609375,-0.5523748993873596,1.5928311347961426,-0.45555275678634644
1779998653888544500,15.93354443359375,-0.32268956303596497,1.1551461219787598,-0.6418666839599609
1779998653904904700,15.94990478515625,-0.12950342893600464,1.0926852226257324,-0.8298604488372803
1779998653921224000,15.966223876953125,-0.00931569468230009,0.9395107626914978,-0.7887797355651855
1779998653937558800,15.982558837890625,0.01542434748262167,0.9257662892341614,-0.6145304441452026
1779998653953888800,15.998888671875,-0.0354301854968071,1.2988522052764893,-0.4668537676334381
1779998653970226700,16.015226806640626,-0.10033461451530457,1.9744691848754883,-0.44623705744743347
1779998653986560800,16.031560791015625,-0.14584407210350037,2.7769935131073,-0.7640396952629089
1779998654002891800,16.047891845703123,-0.20784689486026764,3.609450101852417,-1.5572482347488403
1779998654019225600,16.0642255859375,-0.3773620128631592,3.7734673023223877,-2.373364210128784
1779998654035558000,16.080557861328124,-0.7481572031974792,3.0741794109344482,-2.4497222900390625
1779998654051893200,16.096893310546875,-1.22279953956604,1.7857118844985962,-1.6827809810638428
1779998654068213800,16.1132138671875,-1.7148514986038208,0.004734205547720194,-1.0141890048980713
1779998654084543700,16.129543701171876,-1.942704200744629,-1.4869986772537231,-0.6536257863044739
1779998654100896800,16.145896728515623,-1.9763017892837524,-1.7577646970748901,-0.5952881574630737
1779998654117226200,16.162226318359377,-2.0260872840881348,-1.1847730875015259,-0.7473936080932617
1779998654133548800,16.178548828125,-2.160477638244629,-0.26221391558647156,-0.9697485566139221
1779998654149894000,16.194893798828126,-2.045940399169922,1.1073459386825562,-1.2930489778518677
1779998654166227500,16.2112275390625,-1.472490668296814,2.7568347454071045,-1.8078557252883911
1779998654182577000,16.227576904296875,-0.5917757153511047,2.832887649536133,-2.4601070880889893
1779998654198892800,16.243892822265625,0.020463986322283745,1.285413146018982,-2.292119026184082
1779998654215241200,16.2602412109375,0.2922990322113037,-0.052839845418930054,-1.5986343622207642
1779998654231560000,16.276559814453126,0.493731826543808,-0.8268061280250549,-1.2154691219329834
1779998654247892500,16.292892578125,0.8042041063308716,-0.9486737251281738,-1.1785117387771606
1779998654264225000,16.30922509765625,1.0525208711624146,-0.7357872128486633,-1.350012183189392
1779998654280566000,16.32556591796875,0.9941831827163696,-0.365755558013916,-1.5735888481140137
1779998654296894700,16.341894775390625,0.7002043128013611,0.02779436856508255,-1.683544635772705
1779998654313228800,16.358228759765623,0.437226802110672,0.15622878074645996,-1.6253596544265747
1779998654329563400,16.3745634765625,0.2791654169559479,0.10262536257505417,-1.4140002727508545
1779998654345896000,16.39089599609375,0.17348572611808777,0.17501288652420044,-1.1432342529296875
1779998654362213000,16.407213134765627,0.09208793938159943,0.5798638463020325,-0.9459248185157776
1779998654378550300,16.42355029296875,0.06490442901849747,1.049924612045288,-0.8643743395805359
1779998654394883600,16.439883544921877,0.11652254313230515,1.1091785430908203,-0.7924449443817139
1779998654411218000,16.456218017578124,0.20693060755729675,0.9172141551971436,-0.6104071140289307
1779998654427552000,16.472552001953126,0.35582900047302246,0.6259841322898865,-0.34284812211990356
1779998654443883500,16.488883544921876,0.5511531829833984,0.32528573274612427,-0.1287398487329483
1779998654460219600,16.5052197265625,0.7156286239624023,0.12293662875890732,-0.025961773470044136
1779998654476552400,16.521552490234374,0.8077165484428406,0.05253441259264946,0.013439035043120384
1779998654492887600,16.537887451171876,0.8862127661705017,0.04642575979232788,0.08628471940755844
1779998654509218000,16.554218017578126,0.9230173826217651,0.14614951610565186,0.15653422474861145
1779998654525566200,16.570566162109376,0.8695666790008545,0.4996877610683441,0.21853704750537872
1779998654541894400,16.586894287109374,0.7735081315040588,1.0166324377059937,0.25824329257011414
1779998654558233900,16.60323388671875,0.7657195925712585,1.3016011714935303,0.2730567753314972
1779998654574567000,16.61956689453125,0.8532260060310364,1.2400563955307007,0.2675589919090271
1779998654590896400,16.635896484375,0.9314168095588684,0.9573785662651062,0.25854870676994324
1779998654607243800,16.652243896484375,0.8991936445236206,0.6632469296455383,0.2921462953090668
1779998654623569700,16.668569580078124,0.7257078886032104,0.5012149214744568,0.3497203588485718
1779998654639893000,16.68489306640625,0.4784601926803589,0.608421802520752,0.2292271852493286
1779998654656232200,16.701232177734376,0.24190263450145721,1.0731375217437744,-0.08277224004268646
1779998654672567600,16.717567626953127,0.03329215571284294,1.6551393270492554,-0.3066543638706207
1779998654688899600,16.733899658203125,-0.07987063378095627,1.7800613641738892,0.045204028487205505
1779998654705229300,16.750229248046875,0.03436116874217987,1.0758863687515259,0.7666358947753906
1779998654721568500,16.766568603515626,0.3703370690345764,0.3214678466320038,1.2837333679199219
1779998654737901600,16.782901611328125,0.7197519540786743,-0.03191770985722542,1.5215126276016235
1779998654754227500,16.7992275390625,0.9876163601875305,-0.04459316283464432,1.571908950805664
1779998654770572000,16.815572021484375,1.154077172279358,0.10552696883678436,1.4993687868118286
1779998654786900500,16.831900390625,1.1798862218856812,0.8825475573539734,1.2434161901474
1779998654803234000,16.848234130859375,0.6956228017807007,3.0969340801239014,0.760832667350769
1779998654819568400,16.864568359375,-0.3274237811565399,4.410599708557129,0.49617528915405273
1779998654835887600,16.8808876953125,-0.7651087045669556,3.6778669357299805,0.5771149396896362
1779998654852231200,16.897231201171873,-0.6827946305274963,2.3547327518463135,0.5694791078567505
1779998654868557300,16.913557373046874,-0.31093040108680725,1.3017538785934448,0.6873761415481567
1779998654884888300,16.929888427734376,0.16951510310173035,0.6609562039375305,0.7620543837547302
1779998654901233400,16.9462333984375,0.6311765313148499,0.4378376603126526,0.7206682562828064
1779998654917569500,16.962569580078124,0.964403510093689,0.2590068578720093,0.589179515838623
1779998654933901800,16.97890185546875,1.1227703094482422,-0.021380282938480377,0.4161519408226013
1779998654950235100,16.995235107421873,1.1803443431854248,-0.3660610020160675,0.30695977807044983
1779998654966579000,17.011578857421874,1.277166485786438,-0.8181012868881226,0.3831652104854584
1779998654982900500,17.027900390625,1.3078625202178955,-1.1928671598434448,0.6082690954208374
1779998654999232800,17.044232666015624,0.9892962574958801,-0.8219192028045654,0.732122004032135
1779998655015569700,17.060569580078123,0.5177083015441895,-0.01466076634824276,0.7081455588340759
1779998655031903000,17.076903076171874,0.03436116874217987,0.7661777138710022,0.6349944472312927
1779998655048235000,17.093235107421876,-0.3744603991508484,1.3347405195236206,0.5334380865097046
1779998655064571600,17.109571533203123,-0.6696610450744629,1.6798794269561768,0.44104471802711487
1779998655080902000,17.12590185546875,-0.9263771176338196,1.944536805152893,0.36193767189979553
1779998655097236500,17.142236572265624,-1.2128729820251465,2.317164659500122,0.17211128771305084
1779998655113571800,17.15857177734375,-1.5183055400848389,3.0694451332092285,-0.2984076738357544
1779998655129904000,17.174904052734377,-1.6172657012939453,3.659540891647339,-0.8868235945701599
1779998655146236000,17.19123583984375,-1.3698652982711792,3.653737783432007,-1.286940336227417
1779998655162572300,17.207572265625,-0.9082038998603821,3.383429765701294,-1.4489723443984985
1779998655178903800,17.22390380859375,-0.4931209683418274,3.099224805831909,-1.4685200452804565
1779998655195255800,17.240255859375,-0.25503623485565186,2.673909902572632,-1.3385584354400635
1779998655211549400,17.256549560546876,-0.1719585657119751,2.1865921020507812,-1.0977247953414917
1779998655227901700,17.272901611328123,-0.1319468915462494,1.6922494173049927,-0.8124507665634155
1779998655244234500,17.289234375,-0.03375030308961868,1.1705704927444458,-0.513737678527832
1779998655260575200,17.3055751953125,0.15561792254447937,0.6863071322441101,-0.2099849283695221
1779998655276901000,17.321901123046874,0.3527746796607971,0.32421672344207764,0.12110403180122375
1779998655293238500,17.338238525390626,0.46853363513946533,0.39996400475502014,0.4054618179798126
1779998655309564700,17.354564697265626,0.2912299931049347,1.7481436729431152,0.24648413062095642
1779998655325905700,17.37090576171875,-0.12965615093708038,3.551417827606201,-0.35643985867500305
1779998655342247200,17.3872470703125,-0.34773504734039307,4.283234596252441,-0.812908947467804
1779998655358556200,17.40355615234375,-0.36361753940582275,4.047134876251221,-1.0456485748291016
1779998655374905900,17.41990576171875,-0.33887749910354614,3.263853073120117,-1.0877982378005981
1779998655391238100,17.436238037109376,-0.21380282938480377,2.2064452171325684,-0.8733845949172974
1779998655407574000,17.452573974609376,0.049785517156124115,0.8022187948226929,-0.4763221740722656
1779998655423905000,17.468905029296874,0.2915354371070862,-0.5325217843055725,-0.10384709388017654
1779998655440238300,17.48523828125,0.32818734645843506,-1.1551461219787598,0.0607810914516449
1779998655456574200,17.50157421875,-0.19349156320095062,0.07635815441608429,-0.6278167366981506
1779998655472905500,17.517905517578125,-0.9271407127380371,1.7997617721557617,-1.542281985282898
1779998655489240300,17.534240234375,-1.4387403726577759,2.5700628757476807,-1.8509217500686646
1779998655505568000,17.550568115234373,-2.202474594116211,4.100738525390625,-2.722473621368408
1779998655521911600,17.56691162109375,-2.696817398071289,4.260785102844238,-3.13205885887146
1779998655538234400,17.583234375,-2.741257905960083,2.515542984008789,-2.5089762210845947
1779998655554573600,17.599573486328126,-2.5648703575134277,0.27320948243141174,-1.7527251243591309
1779998655570904000,17.615904052734376,-2.3354904651641846,-0.9563095569610596,-1.6833919286727905
1779998655587234800,17.63223486328125,-2.034486770629883,-0.9425650835037231,-1.943009614944458
1779998655603562200,17.648562255859375,-1.7548631429672241,-0.1518000066280365,-2.0781636238098145
1779998655619894800,17.664894775390625,-1.557706356048584,0.8086328506469727,-1.9233092069625854
1779998655636229000,17.68122900390625,-1.2264647483825684,1.3865114450454712,-1.3903292417526245
1779998655652562700,17.697562744140626,-0.7594582438468933,1.0209085941314697,-0.8571966290473938
1779998655668896000,17.71389599609375,-0.323147714138031,-0.04993823543190956,-0.8897252082824707
1779998655685230600,17.730230712890624,0.11194105446338654,-0.7603744864463806,-1.1078041791915894
1779998655701564200,17.746564208984374,0.5635231733322144,-0.5593998432159424,-1.0384708642959595
1779998655717895000,17.76289501953125,0.9824240207672119,-0.20066922903060913,-0.7525860071182251
1779998655734231300,17.779231201171875,1.3782646656036377,-0.05451972410082817,-0.4453207552433014
1779998655750564600,17.795564697265625,1.751808762550354,0.0064140851609408855,-0.1443169116973877
1779998655766897000,17.81189697265625,2.043191432952881,0.2597704529762268,0.22449298202991486
1779998655783230200,17.828230224609374,2.216066360473633,0.6026185750961304,0.6716463565826416
1779998655799566300,17.84456640625,2.2015583515167236,0.6760751008987427,1.2211196422576904
1779998655815906300,17.86090625,1.9740110635757446,0.41951170563697815,1.786475419998169
1779998655832246500,17.87724658203125,1.6152803897857666,-0.038637228310108185,2.125047445297241
1779998655848560600,17.893560546875,1.3237450122833252,-0.422871470451355,1.9753854274749756
1779998655864913400,17.909913330078126,1.1197160482406616,-0.6867652535438538,1.5387696027755737
1779998655881236500,17.926236572265626,0.9636399149894714,-0.6736316680908203,1.0870347023010254
1779998655897604000,17.94260400390625,0.7541131377220154,-0.31383201479911804,0.9428704977035522
1779998655913927400,17.958927490234377,0.5007568001747131,-0.004734205547720194,1.315040111541748
1779998655930227000,17.97522705078125,0.30970868468284607,-0.10980302840471268,1.768149495124817
1779998655946578400,17.991578369140626,0.21242839097976685,-0.11133018881082535,1.7475327253341675
1779998655962894300,18.007894287109377,0.04184427112340927,0.4282165467739105,1.1779009103775024
1779998655979247400,18.024247314453124,-0.07528914511203766,1.1049025058746338,0.5065600275993347
1779998655995579400,18.040579345703126,-0.2554943859577179,1.0053315162658691,0.2942843437194824
1779998656011911000,18.056910888671876,-0.4479169547557831,-0.2217440903186798,0.22968533635139465
1779998656028233700,18.073233642578124,-0.31871894001960754,-1.5505287647247314,0.009621127508580685
1779998656044578800,18.089578857421873,0.02367102913558483,-2.415055751800537,-0.012064588256180286
1779998656060910000,18.10591015625,0.44455718994140625,-2.462092399597168,0.037110064178705215
1779998656077243100,18.1222431640625,0.7870998978614807,-1.9120081663131714,0.09239336848258972
1779998656093578500,18.13857861328125,0.9607383012771606,-1.0580185651779175,0.1817324161529541
1779998656109916700,18.154916748046876,0.9111055135726929,-0.1696678251028061,0.27748554944992065
1779998656126251800,18.171251708984375,0.6653849482536316,0.9040805697441101,0.44165557622909546
1779998656142583600,18.18758349609375,0.2565633952617645,2.587777853012085,0.41722095012664795
1779998656158910500,18.203910400390626,-0.14416420459747314,3.545461893081665,0.0708603709936142
1779998656175249200,18.220249267578126,-0.1774563491344452,2.9681942462921143,0.027183502912521362
1779998656191577000,18.2365771484375,0.01572977937757969,2.0897700786590576,0.16493362188339233
1779998656207912400,18.252912353515626,0.22800545394420624,1.3312281370162964,0.285121351480484
1779998656224248800,18.269248779296873,0.39125919342041016,0.7127270102500916,0.3654501438140869
1779998656240572200,18.285572265625,0.4882340431213379,0.13087788224220276,0.40362921357154846
1779998656256913000,18.301912841796874,0.49296826124191284,-0.6327036619186401,0.3903428912162781
1779998656273233200,18.318233154296873,0.4518875777721405,-1.296714186668396,0.2701551616191864
1779998656289589800,18.33458984375,0.34345898032188416,-1.1840095520019531,-0.029932396486401558
1779998656305913600,18.35091357421875,0.29474249482154846,-0.5258022546768188,-0.256868839263916
1779998656322275600,18.367275634765626,0.323147714138031,0.1359175145626068,-0.30405816435813904
1779998656338580000,18.383580078125,0.3095559775829315,0.7304421067237854,-0.35445454716682434
1779998656354911000,18.399910888671876,0.182648703455925,1.3376421928405762,-0.5907067060470581
1779998656371259600,18.416259765625,-0.0861319974064827,1.9591975212097168,-1.1450668573379517
1779998656387592000,18.432592041015624,-0.31291571259498596,2.316706418991089,-1.5795447826385498
1779998656403910000,18.448909912109375,-0.2664899528026581,1.9353737831115723,-1.4008667469024658
1779998656420247600,18.46524755859375,-0.1137736514210701,0.7782423496246338,-0.9048441648483276
1779998656436589300,18.48158935546875,-0.06765332818031311,-0.6214026808738708,-0.5302310585975647
1779998656452915000,18.4979150390625,-0.11591167747974396,-1.5851953029632568,-0.3649919927120209
1779998656469247000,18.5142470703125,-0.299476683139801,-1.4805846214294434,-0.5650503635406494
1779998656485590000,18.530590087890626,-0.665232241153717,-0.35262197256088257,-1.1275044679641724
1779998656501918200,18.546918212890624,-0.9198103547096252,0.48869219422340393,-1.518610954284668
1779998656518228700,18.563228759765625,-1.1378892660140991,0.7725918292999268,-1.6659822463989258
1779998656534592000,18.579592041015626,-1.6210836172103882,1.4697418212890625,-2.0703749656677246
1779998656550907400,18.595907470703125,-2.372600555419922,2.1398608684539795,-2.5480716228485107
1779998656567248400,18.612248291015625,-2.9946141242980957,0.5873469114303589,-2.3038783073425293
1779998656583579400,18.628579345703123,-3.1363348960876465,-1.9165897369384766,-2.285857677459717
1779998656599914000,18.6449140625,-2.790890693664551,-2.4669792652130127,-2.587472438812256
1779998656616248800,18.661248779296876,-2.2130119800567627,-1.7666223049163818,-2.4390323162078857
1779998656632581000,18.6775810546875,-1.7426458597183228,-1.0488556623458862,-2.027308940887451
1779998656648915700,18.693915771484374,-1.50211763381958,-0.31230485439300537,-1.6607898473739624
1779998656665250300,18.710250244140624,-1.229519009590149,0.2373211532831192,-1.4831807613372803
1779998656681581000,18.7265810546875,-0.9456194043159485,0.379652738571167,-1.1801916360855103
1779998656697918700,18.742918701171874,-0.770301103591919,0.3727805018424988,-0.7281513810157776
1779998656714251000,18.7592509765625,-0.6487388610839844,0.3315471112728119,-0.34513887763023376
1779998656730584000,18.775583984375,-0.3423899710178375,0.04688390716910362,-0.09315694868564606
1779998656746916000,18.791916015625,0.007788531947880983,-0.1186605766415596,0.19792033731937408
1779998656763250200,18.808250244140623,0.3217732608318329,-0.12919799983501434,0.5497786998748779
1779998656779586600,18.824586669921874,0.6827946305274963,-0.13225232064723969,0.9046914577484131
1779998656795920000,18.840919921875,1.065043568611145,-0.16798794269561768,1.2770137786865234
1779998656812250000,18.85725,1.4034628868103027,-0.2226603776216507,1.6345226764678955
1779998656828571600,18.873571533203126,1.6781995296478271,-0.3159700334072113,1.91231369972229
1779998656844914200,18.8899140625,1.8530597686767578,-0.456163614988327,2.1039726734161377
1779998656861252000,18.906252197265626,1.8851301670074463,-0.6290385127067566,2.2464568614959717
1779998656877589000,18.922589111328126,1.7887661457061768,-0.7266241908073425,2.386955976486206
1779998656893937200,18.938937255859376,1.6123788356781006,-0.8257371187210083,2.507449150085449
1779998656910263000,18.955262939453124,1.306488037109375,-0.935081958770752,2.6513078212738037
1779998656926592500,18.971592529296874,0.9312640428543091,-0.9201157689094543,2.872441053390503
1779998656942918100,18.987918212890627,0.6212499737739563,-0.8187121152877808,3.0941851139068604
1779998656959251200,19.004251220703125,0.4158465266227722,-0.38347065448760986,3.1138856410980225
1779998656975582700,19.020582763671875,0.29626965522766113,0.12599095702171326,2.556623697280884
1779998656991918000,19.03691796875,0.2041817009449005,0.2831360399723053,1.5070046186447144
1779998657008234800,19.05323486328125,0.11316278576850891,0.3289509415626526,0.8016079068183899
1779998657024586800,19.069586669921875,0.1466076523065567,0.1892155110836029,0.5641340613365173
1779998657040919800,19.085919921875,0.18555031716823578,-0.02076941914856434,0.47769662737846375
1779998657057251300,19.102251220703124,0.10170906037092209,-0.2906191349029541,0.6849326491355896
1779998657073583900,19.118583984375,0.14706580340862274,-1.1133018732070923,0.5528330206871033
1779998657089918000,19.13491796875,0.45433104038238525,-2.154674530029297,0.001679879380390048
1779998657106252800,19.151252685546876,0.5612324476242065,-2.409710645675659,-0.22846360504627228
1779998657122593800,19.16759375,0.5093088746070862,-1.627497673034668,-0.4008803069591522
1779998657138919400,19.18391943359375,0.37858372926712036,-0.22449298202991486,-0.470060795545578
1779998657155264000,19.200263916015626,0.07849618047475815,0.6704245805740356,-0.26145032048225403
1779998657171598300,19.216598388671876,-0.4262312352657318,0.59803706407547,0.13775011897087097
1779998657187915800,19.232915771484375,-0.8121453523635864,1.1693488359451294,0.6415612101554871
1779998657204264200,19.24926416015625,-1.2278391122817993,5.132795333862305,0.4888449013233185
1779998657220587500,19.26558740234375,-1.279915452003479,5.63278865814209,-0.45753806829452515
1779998657236918500,19.28191845703125,-0.7225008606910706,3.6227364540100098,-0.8281805515289307
1779998657253253000,19.298253173828126,-0.08139779418706894,1.451874017715454,-0.5728389024734497
1779998657269569800,19.31456982421875,0.3995058834552765,-0.14752395451068878,-0.18936823308467865
1779998657285906400,19.330906494140624,0.7939720749855042,-1.0816895961761475,0.10277807712554932
1779998657302256400,19.34725634765625,1.23394775390625,-1.6076445579528809,0.31673362851142883
1779998657318578000,19.363577880859374,1.6843081712722778,-1.97385835647583,0.5115996599197388
1779998657334919700,19.379919677734375,2.0696115493774414,-2.1204659938812256,0.6954700946807861
1779998657351251500,19.39625146484375,2.2401955127716064,-1.9196439981460571,0.8400924205780029
1779998657367587300,19.41258740234375,2.163532018661499,-1.5025757551193237,0.9326385259628296
1779998657383920000,19.428920166015626,1.8417587280273438,-1.1453723907470703,0.9576839804649353
1779998657400253200,19.445253173828124,0.837496280670166,0.2399173229932785,-0.5954409241676331
1779998657416587800,19.461587890625,-0.36193767189979553,2.2967007160186768,-2.328312873840332
1779998657432917200,19.477917236328125,-0.5273294448852539,2.7853927612304688,-1.5887078046798706
1779998657449257000,19.494257080078125,-0.2632829248905182,2.2322542667388916,-0.45555275678634644
1779998657465590000,19.510590087890623,-0.17852537333965302,1.2858713865280151,0.03573561832308769
1779998657481919200,19.526919189453125,-0.22372940182685852,0.11270463466644287,0.039095375686883926
1779998657498236200,19.543236083984375,-0.39813143014907837,-0.361174076795578,-0.4378376603126526
1779998657514567000,19.55956689453125,-0.6675229668617249,-0.1394299864768982,-1.0251846313476562
1779998657530922500,19.575922607421877,-0.722348153591156,-0.3061962127685547,-1.1114692687988281
1779998657547253200,19.592253173828126,-0.6065891981124878,-0.42302417755126953,-0.9140071272850037
1779998657563604700,19.608604736328125,-0.6180428862571716,0.19120082259178162,-0.7122688889503479
1779998657579903000,19.624903076171876,-0.9793696999549866,2.0335702896118164,-0.8532260060310364
1779998657596254500,19.64125439453125,-1.7056884765625,4.008039474487305,-1.425454020500183
1779998657612589000,19.657589111328125,-2.647031784057617,5.216636657714844,-2.2119431495666504
1779998657628921300,19.67392138671875,-3.7311649322509766,5.127755641937256,-2.9097039699554443
1779998657645254700,19.690254638671874,-4.132503509521484,1.8133535385131836,-2.403754711151123
1779998657661586200,19.706586181640624,-3.5527923107147217,-2.687807083129883,-1.8658878803253174
1779998657677920300,19.722920166015626,-2.7931814193725586,-3.9043452739715576,-2.0751092433929443
1779998657694255000,19.739255126953125,-2.225076675415039,-2.7365236282348633,-2.2634084224700928
1779998657710589400,19.75558935546875,-1.851074457168579,-0.9101892113685608,-2.1529946327209473
1779998657726921000,19.7719208984375,-1.5919147729873657,0.2646573781967163,-1.790598750114441
1779998657743251500,19.78825146484375,-1.2565498352050781,0.24678955972194672,-1.3070988655090332
1779998657759591700,19.804591796875,-0.8258898258209229,-0.28008171916007996,-1.0937541723251343
1779998657775918300,19.82091845703125,-0.46853363513946533,-0.008857546374201775,-1.0198395252227783
1779998657792258300,19.83725830078125,-0.31123584508895874,0.6162103414535522,-0.7956519722938538
1779998657808576800,19.85357666015625,-0.14095716178417206,0.7929030656814575,-0.4395175576210022
1779998657824909300,19.869909423828126,0.13347405195236206,0.45692721009254456,-0.10201449692249298
1779998657841253600,19.886253662109375,0.5713117122650146,-0.0006108652451075613,0.13439035415649414
1779998657857593000,19.902593017578123,0.9845620393753052,-0.2658790946006775,0.418748140335083
1779998657873916200,19.918916259765624,1.344361662864685,-0.49724429845809937,0.8237518072128296
1779998657890242800,19.935242919921876,1.6543757915496826,-0.6484334468841553,1.2754865884780884
1779998657906576100,19.951576171875,1.8884899616241455,-0.6681338548660278,1.6653714179992676
1779998657922910700,19.96791064453125,2.0384573936462402,-0.4977024495601654,1.972331166267395
1779998657939242800,19.98424267578125,2.073582172393799,-0.18524488806724548,2.227672815322876
1779998657955575300,20.0005751953125,1.9691240787506104,-0.10613783448934555,2.3999369144439697
1779998657971912700,20.01691259765625,1.7351627349853516,-0.35155296325683594,2.4492642879486084
1779998657988234800,20.03323486328125,1.3487904071807861,-0.7318165898323059,2.383596181869507
1779998658004586200,20.049586181640624,0.9393580555915833,-1.00197172164917,2.3356432914733887
1779998658020924400,20.06592431640625,0.6879869699478149,-0.7493789196014404,2.4043655395507812
1779998658037256000,20.082255859375,0.5523748993873596,-0.03940080851316452,2.414444923400879
1779998658053578000,20.098577880859374,0.47051894664764404,0.4671591818332672,2.183232307434082
1779998658069924600,20.114924560546875,0.3776674270629883,0.3591887652873993,1.8154915571212769
1779998658086269400,20.13126953125,0.28725937008857727,-0.2509129047393799,1.439351201057434
1779998658102602800,20.147602783203126,0.15317445993423462,-0.6876815557479858,1.0325149297714233
1779998658118920700,20.163920654296874,-0.14569136500358582,-1.0903944969177246,1.1133018732070923
1779998658135267600,20.180267578125,-0.2562579810619354,-1.670716404914856,1.3156510591506958
1779998658151599900,20.196599853515625,0.0555887371301651,-1.989129900932312,1.1539244651794434
1779998658167919900,20.212919921875,0.4184426963329315,-1.2169963121414185,0.7851145267486572
1779998658184255000,20.2292548828125,0.59803706407547,0.40133845806121826,0.31581732630729675
1779998658200592100,20.245592041015627,0.5823072791099548,1.5696182250976562,-0.22586742043495178
1779998658216923600,20.261923583984377,0.15347988903522491,1.620778203010559,-0.9755517840385437
1779998658233255000,20.2782548828125,-0.5258022546768188,1.2473868131637573,-1.7099645137786865
1779998658249589800,20.29458984375,-0.949895441532135,1.1630873680114746,-1.6623170375823975
1779998658265922800,20.3109228515625,-0.7428121566772461,1.0103710889816284,-0.5751296281814575
1779998658282273000,20.32727294921875,-0.3819434940814972,0.3219259977340698,-0.016340645030140877
1779998658298578000,20.343577880859375,-0.11285735666751862,-0.2814561724662781,0.16340644657611847
1779998658314905600,20.359905517578124,0.09651670604944229,-0.6656904220581055,0.34544429183006287
1779998658331269000,20.37626904296875,0.2952006161212921,-0.879493236541748,0.5293147563934326
1779998658347602400,20.3926025390625,0.5212207436561584,-0.7568620443344116,0.660192608833313
1779998658363918300,20.40891845703125,0.7541131377220154,-0.3266601860523224,0.7638869881629944
1779998658380243200,20.4252431640625,0.9892962574958801,0.2028072625398636,0.8993463516235352
1779998658396588300,20.44158837890625,1.208902359008789,0.6331618428230286,0.983951210975647
1779998658412924000,20.457923828125,1.1534663438796997,0.619111955165863,0.304669052362442
1779998658429256700,20.474256591796873,0.7907650470733643,0.6800457239151001,-0.6716463565826416
1779998658445585200,20.490585205078126,0.5036584138870239,1.1021536588668823,-0.8145887851715088
1779998658461926100,20.506926025390626,0.3784310221672058,1.5224288702011108,-0.5745187401771545
