time,seconds_elapsed,z,y,x
1780001849057164000,0.0961640625,-1.7852487564086914,-0.6234986782073975,0.7445417642593384
1780001849073500700,0.112500732421875,-4.015007019042969,-4.325867176055908,1.184698462486267
1780001849089839000,0.128839111328125,-0.9102263450622559,-4.587678909301758,4.27720832824707
1780001849106188300,0.145188232421875,-1.3257265090942383,-4.574874401092529,4.634164333343506
1780001849122506000,0.161506103515625,-1.7160120010375977,-3.594405174255371,5.751669883728027
1780001849138824000,0.177823974609375,-1.8327951431274414,-1.4547090530395508,3.4019980430603027
1780001849155182800,0.194182861328125,-0.22535324096679688,0.5426936149597168,-1.6344813108444214
1780001849171497200,0.210497314453125,0.9224510192871094,3.7010488510131836,-10.125208854675293
1780001849187848400,0.226848388671875,-2.953993797302246,-2.515608072280884,-1.8354365825653076
1780001849204161800,0.243161865234375,-6.464169502258301,-4.434108257293701,0.6861528158187866
1780001849220511700,0.25951171875,-6.573190689086914,-2.813751220703125,0.8993709087371826
1780001849236855600,0.27585546875,-9.689094543457031,-2.8155322074890137,0.25301671028137207
1780001849253181200,0.29218115234375,-8.693310737609863,-3.6765317916870117,0.31298089027404785
1780001849269507800,0.3085078125,-6.661149501800537,-6.202142715454102,-0.6558206081390381
1780001849285841400,0.32484130859375,-5.4658966064453125,-7.8743791580200195,-1.659151315689087
1780001849302171100,0.341171142578125,-4.098969459533691,-8.951995849609375,-0.7531223297119141
1780001849318506800,0.3575068359375,-1.2529263496398926,-7.968751430511475,0.3765869140625
1780001849334837800,0.373837646484375,1.2084884643554688,-8.078463554382324,1.6008954048156738
1780001849351181300,0.390181396484375,1.09672212600708,-9.122391700744629,1.77940034866333
1780001849367496700,0.40649658203125,-1.4301960468292236,-8.288535118103027,0.7997646331787109
1780001849383840300,0.42284033203125,-2.931837320327759,-8.605537414550781,1.4389934539794922
1780001849400162800,0.439162841796875,-2.10746169090271,-9.371623039245605,3.9610462188720703
1780001849416493000,0.4554931640625,-0.4048895835876465,-8.099469184875488,7.308084487915039
1780001849432828700,0.47182861328125,2.849191665649414,-6.251339912414551,9.788509368896484
1780001849449147000,0.48814697265625,3.590386390686035,-3.6822280883789062,11.570280075073242
1780001849465496600,0.50449658203125,3.839539051055908,-1.157047986984253,12.94576644897461
1780001849481811700,0.520811767578125,5.608980178833008,0.09966039657592773,13.735723495483398
1780001849498163200,0.5371630859375,6.1718034744262695,0.8051958084106445,14.241259574890137
1780001849514507500,0.553507568359375,4.780072212219238,2.4502878189086914,14.915346145629883
1780001849530821400,0.5698212890625,3.839728593826294,4.178126335144043,14.62625789642334
1780001849547142400,0.586142333984375,4.072253227233887,5.080277442932129,12.844419479370117
1780001849563480600,0.60248046875,2.5816128253936768,6.782487392425537,10.948895454406738
1780001849579810800,0.618810791015625,1.0036966800689697,9.009830474853516,8.881765365600586
1780001849596141600,0.6351416015625,0.0067403316497802734,8.88373851776123,6.118713855743408
1780001849612463900,0.6514638671875,0.5694096088409424,6.454337120056152,4.92235803604126
1780001849628806700,0.667806640625,1.0646765232086182,3.2838644981384277,5.120910167694092
1780001849645140000,0.684139892578125,-0.34426021575927734,2.5591816902160645,3.8463053703308105
1780001849661488000,0.700488037109375,-0.37703824043273926,5.281211853027344,2.3518776893615723
1780001849677814500,0.716814453125,-0.9501020908355713,6.984454154968262,1.5438156127929688
1780001849694179800,0.733179931640625,-3.4246582984924316,4.1847124099731445,2.30057954788208
1780001849710480600,0.749480712890625,-0.768033504486084,2.077613353729248,3.0062217712402344
1780001849726817800,0.76581787109375,-0.7388393878936768,4.951114654541016,1.4800505638122559
1780001849743146000,0.78214599609375,-1.3650487661361694,6.207887172698975,-2.0094456672668457
1780001849759462700,0.798462646484375,-2.489508628845215,4.372990608215332,-4.336139678955078
1780001849775811000,0.81481103515625,-5.47541618347168,1.4551444053649902,-2.946390151977539
1780001849792129000,0.83112890625,-7.150472164154053,0.2917337417602539,-2.079648017883301
1780001849808477400,0.8474775390625,-2.339303493499756,1.215116024017334,-1.2333550453186035
1780001849824780500,0.863780517578125,-3.0102107524871826,-2.5008668899536133,0.3831162452697754
1780001849841134000,0.880134033203125,-0.9172268509864807,-2.216977119445801,1.121328353881836
1780001849857470200,0.89647021484375,-0.20282196998596191,-0.4323282241821289,-0.6982240676879883
1780001849873804500,0.912804443359375,6.088010311126709,4.387245178222656,0.8020930290222168
1780001849890139000,0.929138916015625,-2.417882204055786,-1.2109861373901367,1.9431118965148926
1780001849906455600,0.94545556640625,2.4278316497802734,-3.9765920639038086,1.2112617492675781
1780001849922802400,0.961802490234375,-0.6098847389221191,-4.972548484802246,0.13770055770874023
1780001849939134000,0.978134033203125,-1.444107174873352,-5.9236650466918945,1.76277494430542
1780001849955468500,0.994468505859375,-0.2393951714038849,-5.527050971984863,2.864969253540039
1780001849971784400,1.010784423828125,0.4137827754020691,-3.582315444946289,2.670494556427002
1780001849988125700,1.027125732421875,-0.9628034830093384,-1.8725347518920898,1.275792121887207
1780001850004486000,1.04348583984375,-3.130154609680176,-1.2556276321411133,-0.11498260498046875
1780001850020797000,1.059796875,-2.6716244220733643,-1.3411865234375,-0.5084476470947266
1780001850037114400,1.0761142578125,-1.230555534362793,-2.1591997146606445,-0.7502636909484863
1780001850053448200,1.0924482421875,-0.7667841911315918,-3.439786911010742,-0.3470635414123535
1780001850069781800,1.10878173828125,-0.41095441579818726,-4.33925724029541,0.8110175132751465
1780001850086109400,1.125109375,1.0933294296264648,-2.418855667114258,1.4494891166687012
1780001850102436400,1.141436279296875,1.7493834495544434,-0.3180656433105469,1.3354969024658203
1780001850118758400,1.15775830078125,2.617795467376709,1.5495281219482422,1.4974713325500488
1780001850135109400,1.174109375,2.6730144023895264,1.485875129699707,1.770906925201416
1780001850151443000,1.19044287109375,3.7167680263519287,2.0740275382995605,1.4393973350524902
1780001850167775700,1.206775634765625,4.038191795349121,2.6654605865478516,0.6527919769287109
1780001850184118000,1.223117919921875,1.5412986278533936,2.4971141815185547,-0.18836545944213867
1780001850200454100,1.2394541015625,0.8806335926055908,-0.0027618408203125,-1.1451358795166016
1780001850216785400,1.255785400390625,1.5502254962921143,1.2285676002502441,-1.370750904083252
1780001850233119500,1.272119384765625,0.9690446853637695,4.283998012542725,-1.6743359565734863
1780001850249440800,1.288440673828125,-1.947818398475647,6.463561058044434,-4.309850692749023
1780001850265781800,1.30478173828125,-2.7306814193725586,6.327575206756592,-6.817502498626709
1780001850282089000,1.3210888671875,-4.567152500152588,4.7713847160339355,-6.505284309387207
1780001850298448400,1.337448486328125,-4.109043121337891,2.6144204139709473,-3.750309944152832
1780001850314766300,1.353766357421875,-2.7805333137512207,2.7755236625671387,-0.8347711563110352
1780001850331092700,1.3700927734375,-2.425508975982666,4.94110107421875,-0.9526486396789551
1780001850347430000,1.386429931640625,-2.9392147064208984,1.8816051483154297,-2.8597707748413086
1780001850363781600,1.40278173828125,-1.7459748983383179,-4.863375186920166,-3.6375277042388916
1780001850380107500,1.419107421875,2.7356953620910645,-2.2151293754577637,-3.4445314407348633
1780001850396441600,1.435441650390625,2.028867483139038,-0.994469165802002,-2.36763072013855
1780001850412765000,1.451764892578125,1.5655382871627808,-1.7531242370605469,0.18469905853271484
1780001850429108000,1.46810791015625,0.8367515802383423,-0.6947135925292969,2.252737045288086
1780001850445402400,1.48440234375,-0.36877602338790894,-1.004934310913086,2.1123523712158203
1780001850461779500,1.500779541015625,-0.7867200970649719,-2.551359176635742,3.5533699989318848
1780001850478086700,1.517086669921875,-0.7203099131584167,-2.4292831420898438,5.954218864440918
1780001850494435800,1.533435791015625,-1.1495262384414673,-2.462984085083008,7.6210150718688965
1780001850510767900,1.549767822265625,-0.7142543792724609,-1.327962875366211,5.6335930824279785
1780001850527083300,1.566083251953125,0.06179782748222351,0.23717498779296875,4.264612197875977
1780001850543421200,1.582421142578125,0.8756192922592163,-0.7690286636352539,4.652302265167236
1780001850559753000,1.5987529296875,2.379728317260742,-2.953915596008301,5.486245155334473
1780001850576083500,1.61508349609375,1.3958618640899658,-2.535811424255371,3.3077330589294434
1780001850592417500,1.63141748046875,-1.0463382005691528,-2.9726600646972656,3.5486137866973877
1780001850608748800,1.647748779296875,1.4060313701629639,1.7834863662719727,3.71506404876709
1780001850625074000,1.664073974609375,0.1218796968460083,3.191682815551758,4.285408973693848
1780001850641430500,1.680430419921875,0.4226198196411133,10.540979385375977,0.37937653064727783
1780001850657756700,1.696756591796875,-0.13559487462043762,11.012561798095703,0.6823421716690063
1780001850674088200,1.713088134765625,-0.22675196826457977,10.461959838867188,1.5506211519241333
1780001850692442400,1.7314423828125,-0.10841453075408936,9.70424747467041,2.941740036010742
1780001850708770000,1.74777001953125,-0.08848854899406433,9.756874084472656,3.1687450408935547
1780001850725118200,1.7641181640625,1.1617498397827148,8.96729564666748,2.938988208770752
1780001850741438200,1.780438232421875,7.687650680541992,6.808117866516113,2.0389413833618164
1780001850757783600,1.796783447265625,-0.7650555372238159,5.233630180358887,-2.1705307960510254
1780001850774115000,1.813114990234375,2.947371482849121,-3.9846887588500977,-16.850299835205078
1780001850790447600,1.829447509765625,9.521726608276367,-19.258930206298828,-22.98663330078125
1780001850806779600,1.845779541015625,7.452540397644043,-30.375513076782227,-16.97123146057129
1780001850823112400,1.862112548828125,-14.706131935119629,-10.706113815307617,-5.109855651855469
1780001850839444700,1.87844482421875,-9.868247985839844,1.6486234664916992,0.46572041511535645
1780001850855788000,1.8947880859375,-2.672877311706543,5.70489501953125,2.593465566635132
1780001850872107300,1.911107177734375,-3.1561074256896973,8.243572235107422,5.055818557739258
1780001850888445400,1.927445556640625,3.5246429443359375,5.288787841796875,3.4678564071655273
1780001850904783000,1.943783203125,3.1285548210144043,1.9116315841674805,1.9527966976165771
1780001850921107000,1.96010693359375,-0.592290997505188,-1.201974868774414,0.6314237117767334
1780001850937438500,1.9764384765625,-2.670509099960327,-2.5163497924804688,-0.5397284030914307
1780001850953771800,1.992771728515625,-1.2485733032226562,-1.2368268966674805,-1.2277445793151855
1780001850970102000,2.00910205078125,0.025118589401245117,-0.04428863525390625,-0.7038116455078125
1780001850986428700,2.0254287109375,0.739147424697876,0.061878204345703125,0.16664743423461914
1780001851002754800,2.0417548828125,0.7710413336753845,-0.13321876525878906,0.41526222229003906
1780001851019095800,2.058095703125,0.6120662093162537,-0.28594017028808594,0.38336825370788574
1780001851035432700,2.0744326171875,0.7530226707458496,0.09860992431640625,0.36875104904174805
1780001851051766300,2.090766357421875,-0.5671205520629883,-0.40138912200927734,0.6795053482055664
1780001851068097300,2.10709716796875,-0.6011537313461304,-0.21663284301757812,0.7657089233398438
1780001851084430800,2.123430908203125,0.18521660566329956,0.03793621063232422,0.6562747955322266
1780001851100762600,2.1397626953125,0.6886094808578491,0.13828754425048828,0.5095024108886719
1780001851117094700,2.1560947265625,1.2188136577606201,-0.0500946044921875,0.5873785018920898
1780001851133427500,2.172427490234375,0.6943808197975159,-0.1020803451538086,0.587827205657959
1780001851149759000,2.188759033203125,0.20762959122657776,-0.1254262924194336,0.13105297088623047
1780001851166091800,2.205091796875,0.19541075825691223,-0.20421886444091797,0.3455698490142822
1780001851182424300,2.22142431640625,0.3848458230495453,-0.07707500457763672,0.2869141101837158
1780001851198756400,2.23775634765625,0.3554268479347229,-0.024309158325195312,0.17127084732055664
1780001851215087900,2.254087890625,0.20203262567520142,-0.04314994812011719,0.0877237319946289
1780001851231424500,2.270424560546875,-0.2920987010002136,-0.052292823791503906,0.003185272216796875
1780001851247765000,2.286764892578125,-0.8296343088150024,-0.15270614624023438,-0.11599206924438477
1780001851264086000,2.3030859375,-0.6653338670730591,-0.05623340606689453,-0.24718856811523438
1780001851280418300,2.319418212890625,-0.26872777938842773,-0.09719085693359375,-0.22652482986450195
1780001851296750300,2.335750244140625,0.35535168647766113,-0.1509256362915039,-0.1425924301147461
1780001851313071900,2.35207177734375,0.5655006170272827,-0.12934398651123047,-0.11983013153076172
1780001851329417000,2.3684169921875,-0.040435194969177246,-0.039536476135253906,-0.11053609848022461
1780001851345748700,2.384748779296875,-0.3141387701034546,0.11433792114257812,-0.17755746841430664
1780001851362079700,2.401079833984375,-0.19114136695861816,0.07992172241210938,-0.15614843368530273
1780001851378412500,2.41741259765625,0.01633816957473755,0.10256481170654297,-0.025326251983642578
1780001851394745000,2.4337451171875,0.25010132789611816,0.19972991943359375,0.047794342041015625
1780001851411075300,2.450075439453125,0.38685858249664307,0.07171344757080078,0.1463322639465332
1780001851427411200,2.4664111328125,0.37800806760787964,-0.055652618408203125,0.27603650093078613
1780001851443742000,2.482741943359375,0.25718146562576294,-0.0642690658569336,0.42908477783203125
1780001851460074200,2.49907421875,0.1447257399559021,-0.060479164123535156,0.5523183345794678
1780001851476407800,2.51540771484375,0.16585981845855713,-0.10445308685302734,0.618309736251831
1780001851492739300,2.5317392578125,0.17495602369308472,-0.1987924575805664,0.6150040626525879
1780001851509058000,2.54805810546875,0.01596468687057495,-0.1922779083251953,0.49379682540893555
1780001851525401900,2.56440185546875,-0.15428465604782104,-0.1882925033569336,0.3515162467956543
1780001851541725700,2.5807255859375,-0.2649516463279724,-0.21533775329589844,0.19332075119018555
1780001851558067700,2.597067626953125,-0.332256555557251,-0.2025442123413086,0.04599475860595703
1780001851574402000,2.613402099609375,-0.4009699821472168,-0.15108489990234375,-0.059556007385253906
1780001851590733600,2.629733642578125,-0.35641980171203613,-0.1223592758178711,-0.14402246475219727
1780001851607066400,2.64606640625,-0.17930567264556885,-0.09075641632080078,-0.1798419952392578
1780001851623398400,2.6623984375,-0.03423130512237549,-0.02092266082763672,-0.21471023559570312
1780001851639742500,2.678742431640625,-0.02527010440826416,-0.032054901123046875,-0.2005138397216797
1780001851656061000,2.69506103515625,0.007305145263671875,-0.039855003356933594,-0.16068029403686523
1780001851672409900,2.711409912109375,0.053296566009521484,0.02602672576904297,-0.1069645881652832
1780001851688726000,2.72772607421875,0.11140197515487671,0.05246162414550781,-0.05618762969970703
1780001851705047600,2.744047607421875,0.18542641401290894,0.05706596374511719,-0.008583545684814453
1780001851721391900,2.760391845703125,0.20261359214782715,0.06916046142578125,0.012742042541503906
1780001851737725700,2.7767255859375,0.20965594053268433,0.12875938415527344,0.02093982696533203
1780001851754057000,2.793056884765625,0.23581600189208984,0.1367015838623047,0.006920814514160156
1780001851770389200,2.80938916015625,0.3284561038017273,0.10287666320800781,0.012276649475097656
1780001851786720300,2.82572021484375,0.365384578704834,0.06016731262207031,0.033265113830566406
1780001851803054800,2.842054931640625,0.27282923460006714,0.07037830352783203,0.08695268630981445
1780001851819386400,2.858386474609375,0.1764674186706543,0.009073257446289062,0.11268186569213867
1780001851835719000,2.874718994140625,0.14712095260620117,-0.02144622802734375,0.12731504440307617
1780001851852051200,2.89105126953125,0.15976762771606445,-0.0007276535034179688,0.14191246032714844
1780001851868371500,2.907371337890625,0.1626107096672058,0.01653289794921875,0.21072816848754883
1780001851884717600,2.923717529296875,0.10325074195861816,-0.011316299438476562,0.26485657691955566
1780001851901046300,2.94004638671875,0.0711403489112854,-0.06469249725341797,0.2520594596862793
1780001851917382400,2.95638232421875,0.01614314317703247,-0.12520694732666016,0.23515701293945312
1780001851933728300,2.972728271484375,-0.07287251949310303,-0.13863754272460938,0.22142791748046875
1780001851950056700,2.989056640625,-0.09416675567626953,-0.1637401580810547,0.15951061248779297
1780001851966374700,3.005374755859375,-0.05599856376647949,-0.1523752212524414,0.1406259536743164
1780001851982694100,3.021694091796875,0.035067617893218994,-0.06724739074707031,0.14942359924316406
1780001851999041800,3.038041748046875,0.06615132093429565,-0.014506340026855469,0.20155763626098633
1780001852015361500,3.054361572265625,0.07184046506881714,-0.03992176055908203,0.18516182899475098
1780001852031707400,3.070707275390625,0.03904926776885986,-0.026541709899902344,0.11659622192382812
1780001852048038000,3.087037841796875,-0.045169949531555176,-0.004036903381347656,0.027736663818359375
1780001852064373000,3.103373046875,-0.13457894325256348,0.004364967346191406,-0.05649614334106445
1780001852080704300,3.119704345703125,-0.13323378562927246,0.008921623229980469,-0.07425212860107422
1780001852097036500,3.13603662109375,-0.07971811294555664,0.01601886749267578,-0.00783395767211914
1780001852113368800,3.152368896484375,-0.04480105638504028,-0.03634357452392578,0.03596210479736328
1780001852129702400,3.168702392578125,-0.037374258041381836,-0.03434181213378906,0.08697700500488281
1780001852146034000,3.185033935546875,-0.05981367826461792,-0.04672431945800781,0.09651470184326172
1780001852162366000,3.201365966796875,-0.06398677825927734,-0.0895986557006836,0.05413246154785156
1780001852178695400,3.2176953125,-0.021363556385040283,-0.06182289123535156,0.0738821029663086
1780001852195017700,3.234017822265625,0.0013953447341918945,-0.011915206909179688,0.16565847396850586
1780001852233819400,3.2728193359375,-0.020731985569000244,-0.122894287109375,0.2474043369293213
1780001852250153700,3.28915380859375,-0.07303464412689209,-0.1473245620727539,0.23454070091247559
1780001852266484200,3.305484130859375,-0.11477518081665039,-0.09906482696533203,0.2161095142364502
1780001852282831600,3.32183154296875,-0.06001722812652588,-0.10450267791748047,0.21083760261535645
1780001852299159800,3.338159912109375,0.061458468437194824,-0.08978843688964844,0.18189716339111328
1780001852315495700,3.35449560546875,0.10511225461959839,-0.07898521423339844,0.1363372802734375
1780001852331827700,3.37082763671875,0.13234233856201172,-0.0010042190551757812,0.1395893096923828
1780001852348159200,3.3871591796875,0.1675928831100464,0.09561538696289062,0.0725870132446289
1780001852364493000,3.4034931640625,0.16153663396835327,0.06258392333984375,0.005705833435058594
1780001852380823000,3.419822998046875,0.15180641412734985,0.08694839477539062,-0.07814693450927734
1780001852397139500,3.436139404296875,0.2369399070739746,0.07220458984375,-0.04250526428222656
1780001852413489400,3.452489501953125,0.13504040241241455,0.010885238647460938,-0.01876544952392578
1780001852429819600,3.468819580078125,0.04153364896774292,-0.01761913299560547,0.014165878295898438
1780001852446154000,3.485154052734375,0.0453488826751709,-0.013256072998046875,0.03296804428100586
1780001852462486500,3.501486572265625,0.057787954807281494,-0.01945972442626953,0.014946460723876953
1780001852478818000,3.517818115234375,0.01992696523666382,-0.04058837890625,0.029863357543945312
1780001852495146800,3.534146728515625,-0.005058228969573975,-0.06183052062988281,0.0740818977355957
1780001852511469800,3.5504697265625,-0.0001722574234008789,-0.09724140167236328,0.08448171615600586
1780001852527786800,3.566786865234375,-0.027255713939666748,-0.11261844635009766,0.1267871856689453
1780001852544131800,3.5831318359375,-0.01884680986404419,-0.11749935150146484,0.12926816940307617
1780001852560467700,3.5994677734375,0.027658700942993164,-0.0926513671875,0.07860803604125977
1780001852576798700,3.615798828125,0.08648568391799927,-0.057387351989746094,0.00399017333984375
1780001852593131000,3.632131103515625,0.10662400722503662,0.011533737182617188,-0.06476020812988281
1780001852609463800,3.6484638671875,0.11388051509857178,0.04692554473876953,-0.09360599517822266
1780001852625799400,3.66479931640625,0.1345059871673584,0.024558067321777344,-0.07788848876953125
1780001852642142500,3.681142578125,0.1748674511909485,0.035414695739746094,-0.03271293640136719
1780001852658469400,3.697469482421875,0.16183727979660034,0.02186107635498047,0.040526390075683594
1780001852674806300,3.71380615234375,0.14989608526229858,-0.005443572998046875,0.05005455017089844
1780001852691121700,3.73012158203125,0.18885201215744019,0.029234886169433594,0.059977054595947266
1780001852707467800,3.7464677734375,0.22293120622634888,0.044737815856933594,0.07778787612915039
1780001852723804400,3.762804443359375,0.21977639198303223,0.01702594757080078,0.052060604095458984
1780001852740139800,3.779139892578125,0.2293681502342224,-0.006083488464355469,0.031047344207763672
1780001852756451800,3.795451904296875,0.14529502391815186,0.009417533874511719,0.03350496292114258
1780001852772801300,3.81180126953125,0.07646191120147705,0.009819984436035156,0.03545951843261719
1780001852789130000,3.8281298828125,0.05691945552825928,-0.023332595825195312,0.027704715728759766
1780001852805465600,3.844465576171875,0.08178287744522095,-0.013575553894042969,0.015597343444824219
1780001852821802800,3.860802734375,0.09444934129714966,-0.022411346435546875,-0.007685661315917969
1780001852838128000,3.877128173828125,0.061546266078948975,-0.016409873962402344,-0.026619434356689453
1780001852854450000,3.893449951171875,-0.03086000680923462,-0.014905929565429688,-0.04213762283325195
1780001852870795300,3.909795166015625,-0.05641359090805054,-0.008373260498046875,-0.028048038482666016
1780001852887141400,3.926141357421875,-0.04680222272872925,0.0031118392944335938,-0.02306985855102539
1780001852903455200,3.942455322265625,-0.03788459300994873,-0.0758504867553711,-0.048253536224365234
1780001852919790300,3.958790283203125,-0.0054934024810791016,-0.10613441467285156,-0.08657979965209961
1780001852936126200,3.975126220703125,-0.030059516429901123,-0.060333251953125,-0.06655502319335938
1780001852952457000,3.99145703125,-0.06097757816314697,-0.02486896514892578,0.03122568130493164
1780001852968789800,4.007789794921875,-0.02810811996459961,0.006091117858886719,0.1020052433013916
1780001852985121800,4.024121826171875,0.06100010871887207,-0.05409717559814453,0.17194652557373047
1780001853001437000,4.04043701171875,0.05837678909301758,-0.01844024658203125,0.21481084823608398
1780001853017772800,4.056772705078125,-0.015152931213378906,0.0026397705078125,0.23369431495666504
1780001853034105300,4.073105224609375,-0.01954209804534912,-0.05794715881347656,0.20941734313964844
1780001853050436600,4.0894365234375,0.03229343891143799,-0.07537078857421875,0.1863088607788086
1780001853066770400,4.1057705078125,0.12521427869796753,0.0012235641479492188,0.21569442749023438
1780001853083099400,4.122099365234375,0.045330584049224854,0.0018377304077148438,0.23797202110290527
1780001853099426800,4.1384267578125,-0.060496509075164795,-0.02111339569091797,0.25945496559143066
1780001853115783400,4.154783447265625,-0.09529292583465576,-0.059154510498046875,0.24173307418823242
1780001853132113700,4.17111376953125,-0.09099757671356201,-0.07349681854248047,0.18671274185180664
1780001853148445700,4.18744580078125,-0.11097544431686401,-0.03543663024902344,0.12180280685424805
1780001853164777200,4.203777099609375,-0.12625014781951904,-0.026273727416992188,0.08604598045349121
1780001853181110800,4.22011083984375,-0.07271784543991089,-0.02693653106689453,0.060738563537597656
1780001853197441000,4.23644091796875,-0.033986568450927734,-0.06596565246582031,0.07537484169006348
1780001853213776100,4.252776123046875,-0.04178696870803833,-0.08086967468261719,0.11420893669128418
1780001853230107000,4.26910693359375,-0.06803566217422485,-0.06635284423828125,0.14263367652893066
1780001853246446000,4.285446044921875,-0.0503695011138916,-0.0749349594116211,0.09421300888061523
1780001853262739500,4.301739501953125,0.007976353168487549,-0.07785320281982422,0.030611038208007812
1780001853279101200,4.31810107421875,0.08251327276229858,-0.04646778106689453,-0.02948904037475586
1780001853295440400,4.3344404296875,0.1354299783706665,-0.00017452239990234375,-0.08138656616210938
1780001853311769300,4.350769287109375,0.156213641166687,0.017360687255859375,-0.1570286750793457
1780001853328100900,4.367100830078125,0.15205341577529907,0.03484153747558594,-0.226715087890625
1780001853344433400,4.383433349609375,0.17835849523544312,0.06563854217529297,-0.23852062225341797
1780001853360749800,4.399749755859375,0.1915033459663391,0.11512565612792969,-0.2158517837524414
1780001853377098800,4.4160986328125,0.1878330111503601,0.13959217071533203,-0.14054012298583984
1780001853393429200,4.43242919921875,0.19721388816833496,0.12586593627929688,-0.06437444686889648
1780001853409748500,4.44874853515625,0.18669623136520386,0.10693073272705078,0.007791996002197266
1780001853426089700,4.46508984375,0.20486027002334595,0.08716678619384766,0.0708768367767334
1780001853442427400,4.481427490234375,0.22323888540267944,0.07731151580810547,0.12010312080383301
1780001853458752000,4.497751953125,0.19743752479553223,0.033908843994140625,0.15487003326416016
1780001853475095000,4.514094970703125,0.13073962926864624,-0.02385997772216797,0.1837911605834961
1780001853491395600,4.5303955078125,0.03599417209625244,-0.05283832550048828,0.2261364459991455
1780001853507744000,4.546743896484375,-0.06340628862380981,-0.0858774185180664,0.22355437278747559
1780001853524076000,4.563075927734375,-0.12603509426116943,-0.10032844543457031,0.17777800559997559
1780001853540408300,4.579408203125,-0.14535605907440186,-0.10454750061035156,0.10160183906555176
1780001853556740600,4.59574072265625,-0.13379818201065063,-0.07593536376953125,0.026268482208251953
1780001853573073000,4.612072998046875,-0.12462979555130005,-0.04760932922363281,-0.019947528839111328
1780001853589405200,4.6284052734375,-0.08982431888580322,-0.052753448486328125,-0.026070117950439453
1780001853605755000,4.6447548828125,-0.04525870084762573,-0.04815864562988281,-0.026344776153564453
1780001853622066000,4.66106591796875,0.01952892541885376,-0.029256820678710938,-0.02498149871826172
1780001853638416000,4.677415771484375,0.05451679229736328,-0.028405189514160156,-0.02344989776611328
1780001853654748200,4.693748046875,0.08590584993362427,-0.003437042236328125,-0.049559593200683594
1780001853671063300,4.710063232421875,0.15059202909469604,0.031266212463378906,-0.04304218292236328
1780001853687410200,4.72641015625,0.19046950340270996,0.05650615692138672,-0.046138763427734375
1780001853703748900,4.742748779296875,0.18033277988433838,0.07224082946777344,-0.0367274284362793
1780001853720062200,4.759062255859375,0.10965704917907715,0.04454612731933594,-0.03206825256347656
1780001853736410600,4.77541064453125,0.06630450487136841,0.044663429260253906,-0.011514663696289062
1780001853752743700,4.79174365234375,0.03968214988708496,0.05826568603515625,0.037882328033447266
1780001853769071900,4.80807177734375,0.04530066251754761,0.013588905334472656,0.05984902381896973
1780001853785409300,4.8244091796875,0.04490774869918823,-0.041518211364746094,0.0778193473815918
1780001853801739500,4.840739501953125,0.04885280132293701,-0.02993297576904297,0.13926196098327637
1780001853818072600,4.857072509765625,0.022003531455993652,-0.07090473175048828,0.22626781463623047
1780001853834378000,4.8733779296875,-0.051524579524993896,-0.10087013244628906,0.2690157890319824
1780001853850737000,4.88973681640625,-0.12226814031600952,-0.14839649200439453,0.26151514053344727
1780001853867064600,4.906064697265625,-0.141060471534729,-0.14798355102539062,0.19167709350585938
1780001853883407400,4.922407470703125,-0.14465641975402832,-0.08419418334960938,0.09777283668518066
1780001853899732200,4.938732177734375,-0.09869241714477539,-0.03517341613769531,0.028795242309570312
1780001853916093400,4.955093505859375,-0.046040356159210205,-0.010218620300292969,-0.023609161376953125
1780001853932395800,4.971395751953125,0.03543573617935181,0.009289741516113281,0.006407737731933594
1780001853948734500,4.987734375,0.0662882924079895,-0.0040607452392578125,0.04096269607543945
1780001853965063400,5.0040634765625,0.08348321914672852,-0.022138595581054688,0.06576156616210938
1780001853981379600,5.020379638671875,0.07852238416671753,0.007866859436035156,0.08955049514770508
1780001853997715000,5.03671484375,0.07025742530822754,0.01882648468017578,0.0787816047668457
1780001854014047000,5.053046875,0.050402939319610596,0.03888988494873047,0.029028892517089844
1780001854030376200,5.069376220703125,0.04322350025177002,0.015222549438476562,-0.015151500701904297
1780001854046700300,5.0857001953125,0.03957861661911011,-0.004305839538574219,-0.011026382446289062
1780001854063036700,5.10203662109375,0.04288667440414429,-0.009716987609863281,-0.0020837783813476562
1780001854079376400,5.11837646484375,0.050972163677215576,-0.04868030548095703,0.0069370269775390625
1780001854095725300,5.134725341796875,0.05587470531463623,-0.03005695343017578,0.016593456268310547
1780001854112039000,5.151038818359375,0.05993908643722534,-0.020691871643066406,0.025577545166015625
1780001854128386800,5.16738671875,0.07357794046401978,0.022507667541503906,0.03951692581176758
1780001854144720100,5.18372021484375,0.05386322736740112,0.041914939880371094,0.04451608657836914
1780001854161049600,5.200049560546875,0.032711565494537354,0.022934913635253906,0.0455775260925293
1780001854177384400,5.216384521484375,0.061183393001556396,0.013416290283203125,0.07111620903015137
1780001854193716700,5.232716796875,0.051048994064331055,0.0038299560546875,0.10162544250488281
1780001854210034000,5.249033935546875,0.030797839164733887,-0.02019500732421875,0.11223173141479492
1780001854226380300,5.26538037109375,0.010202467441558838,-0.039544105529785156,0.0893557071685791
1780001854242716400,5.28171630859375,0.026432037353515625,-0.039882659912109375,0.08957743644714355
1780001854259043300,5.298043212890625,0.037317752838134766,-0.04976081848144531,0.07440042495727539
1780001854275378200,5.314378173828125,0.007238566875457764,-0.045116424560546875,0.07749056816101074
1780001854291709200,5.330709228515625,-0.04747819900512695,-0.04982185363769531,0.07455277442932129
1780001854308028200,5.347028076171875,-0.09147399663925171,-0.058632850646972656,0.06731677055358887
1780001854324375600,5.36337548828125,-0.10054069757461548,-0.06310653686523438,0.05532646179199219
1780001854340708400,5.379708251953125,-0.07691973447799683,-0.04830455780029297,0.039003849029541016
1780001854357038300,5.396038330078125,-0.028037667274475098,-0.033875465393066406,0.028752803802490234
1780001854373357000,5.412357177734375,0.008560597896575928,-0.03777790069580078,0.023540496826171875
1780001854389705000,5.428705078125,0.015976905822753906,-0.05125617980957031,0.033498287200927734
1780001854406057000,5.445056884765625,0.03377199172973633,-0.02161407470703125,0.08186197280883789
1780001854422352400,5.461352294921875,0.07968741655349731,-0.020458221435546875,0.08708786964416504
1780001854438688800,5.477688720703125,0.09656572341918945,-0.014287948608398438,0.06218981742858887
1780001854455033900,5.494033935546875,0.11489909887313843,0.01597309112548828,0.026843547821044922
1780001854471333400,5.51033349609375,0.09586268663406372,0.017314910888671875,-0.018430233001708984
1780001854487685400,5.526685302734375,0.07568049430847168,0.032645225524902344,-0.050074100494384766
1780001854504018000,5.543017822265625,0.07018411159515381,0.023645401000976562,-0.06666803359985352
1780001854520350200,5.55935009765625,0.04349625110626221,0.010262489318847656,-0.05449342727661133
1780001854536682000,5.575681884765625,0.0022889375686645508,-0.003943443298339844,-0.041866302490234375
1780001854553014800,5.592014892578125,0.0103226900100708,0.010457992553710938,-0.01919412612915039
1780001854569334300,5.608334228515625,0.04014080762863159,0.009736061096191406,0.014014244079589844
1780001854585696300,5.6246962890625,0.10396444797515869,0.028812408447265625,0.04866480827331543
1780001854602026000,5.64102587890625,0.11700290441513062,-0.004475593566894531,0.08320379257202148
1780001854618356000,5.65735595703125,0.11445963382720947,-0.023212432861328125,0.08922219276428223
1780001854634664400,5.67366455078125,0.09788691997528076,-0.03687095642089844,0.09940147399902344
1780001854651005000,5.6900048828125,0.08921319246292114,-0.040671348571777344,0.10802531242370605
1780001854667346700,5.7063466796875,0.063113272190094,-0.02985382080078125,0.09697651863098145
1780001854683696600,5.722696533203125,0.05226242542266846,-0.00469970703125,0.06604242324829102
1780001854700014800,5.739014892578125,0.06479912996292114,0.010508537292480469,0.006420135498046875
1780001854716351000,5.75535107421875,0.07421869039535522,0.039463043212890625,-0.023779869079589844
1780001854732662500,5.77166259765625,0.06226789951324463,0.04446125030517578,-0.03852701187133789
1780001854749016800,5.788016845703125,0.036009788513183594,0.037972450256347656,-0.022969722747802734
1780001854765345500,5.804345458984375,0.040302813053131104,0.022088050842285156,0.012977123260498047
1780001854781685500,5.820685546875,0.04732996225357056,0.006152153015136719,0.05440974235534668
1780001854798015000,5.837014892578125,0.02057194709777832,-0.00007534027099609375,0.08187174797058105
1780001854814346000,5.853345947265625,0.019946038722991943,0.008134841918945312,0.07604360580444336
1780001854830667500,5.86966748046875,0.023850858211517334,0.0018568038940429688,0.05609321594238281
1780001854847006700,5.8860068359375,-0.002766847610473633,-0.0040302276611328125,0.05481910705566406
1780001854863345700,5.902345703125,-0.0220719575881958,-0.010785102844238281,0.06869673728942871
1780001854879677000,5.918677001953125,-0.032823801040649414,-0.027709007263183594,0.08707094192504883
1780001854895992600,5.93499267578125,-0.012160062789916992,-0.05825614929199219,0.11934256553649902
1780001854912324600,5.95132470703125,-0.019294559955596924,-0.059711456298828125,0.14604830741882324
1780001854928657400,5.967657470703125,-0.01219719648361206,-0.06079292297363281,0.11927247047424316
1780001854944989700,5.98398974609375,0.03268766403198242,-0.042342185974121094,0.07300448417663574
1780001854961311700,6.000311767578125,0.039096832275390625,-0.023087501525878906,0.0016207695007324219
1780001854977656600,6.016656494140625,-0.0073893070220947266,-0.023477554321289062,-0.03233766555786133
1780001854993988900,6.03298876953125,-0.04923659563064575,-0.02392292022705078,-0.03199911117553711
1780001855010320600,6.049320556640625,-0.03666013479232788,-0.009907722473144531,0.0019273757934570312
1780001855026653000,6.06565283203125,-0.012245416641235352,0.009136199951171875,0.012507438659667969
1780001855042986200,6.081986328125,0.0008680820465087891,0.00438690185546875,0.008276939392089844
1780001855059316500,6.09831640625,0.009894132614135742,-0.0052852630615234375,0.004466533660888672
1780001855075667500,6.11466748046875,0.018017351627349854,0.0231475830078125,0.015240192413330078
1780001855091996700,6.13099658203125,0.029287278652191162,0.008426666259765625,0.030698299407958984
1780001855108324600,6.14732470703125,0.005295276641845703,-0.016216278076171875,0.05138874053955078
1780001855124663600,6.16366357421875,-0.029494643211364746,-0.05538654327392578,0.08599734306335449
1780001855140994300,6.179994384765625,-0.016895413398742676,-0.07615184783935547,0.10706663131713867
1780001855157325600,6.19632568359375,-0.00043267011642456055,-0.024570465087890625,0.10004115104675293
1780001855173658600,6.21265869140625,-0.00723034143447876,-0.025135040283203125,0.12005949020385742
1780001855189991400,6.228991455078125,-0.02407759428024292,-0.030190467834472656,0.11482024192810059
1780001855206320600,6.245320556640625,-0.017025291919708252,-0.049378395080566406,0.1144707202911377
1780001855222655700,6.26165576171875,-0.02808058261871338,-0.06312942504882812,0.08536338806152344
1780001855238987800,6.27798779296875,-0.048946917057037354,-0.03435993194580078,0.07057905197143555
1780001855255318500,6.294318603515625,-0.06496214866638184,-0.043829917907714844,0.06048870086669922
1780001855271632000,6.3106318359375,-0.0417858362197876,-0.048575401306152344,0.06983518600463867
1780001855287988500,6.326988525390625,0.012158989906311035,-0.04415607452392578,0.10377049446105957
1780001855304296400,6.34329638671875,0.026245534420013428,-0.048325538635253906,0.13194990158081055
1780001855320653800,6.35965380859375,0.017108917236328125,-0.03787517547607422,0.1357426643371582
1780001855336981800,6.375981689453125,0.02488952875137329,-0.022571563720703125,0.11028099060058594
1780001855353314600,6.392314453125,0.07268226146697998,0.011907577514648438,0.08480095863342285
1780001855369629700,6.408629638671875,0.12368947267532349,0.032080650329589844,0.048754215240478516
1780001855385977000,6.42497705078125,0.12231594324111938,0.03776073455810547,0.008269786834716797
1780001855402290200,6.441290283203125,0.0647081732749939,0.029356002807617188,-0.027210235595703125
1780001855418648800,6.45764892578125,0.034614384174346924,0.019931793212890625,-0.05660104751586914
1780001855434963000,6.473962890625,0.045082926750183105,0.019751548767089844,-0.06647682189941406
1780001855451292200,6.490292236328125,0.07280302047729492,0.00991058349609375,-0.042292118072509766
1780001855467623400,6.50662353515625,0.08794963359832764,-0.02442646026611328,-0.056958675384521484
1780001855483959600,6.52295947265625,0.11316746473312378,-0.02511882781982422,-0.08479166030883789
1780001855500290600,6.53929052734375,0.15314620733261108,0.13220596313476562,-0.06897926330566406
1780001855516624100,6.5556240234375,0.1420002579689026,0.09361553192138672,-0.07338619232177734
1780001855532956200,6.5719560546875,0.11715346574783325,0.05909442901611328,-0.0623469352722168
1780001855549288700,6.588288818359375,0.0648043155670166,0.029052734375,0.007613182067871094
1780001855565615900,6.604615966796875,-0.0012621283531188965,0.0035810470581054688,0.07288026809692383
1780001855581968100,6.620968017578125,-0.04339563846588135,-0.036289215087890625,0.11898303031921387
1780001855598300200,6.637300048828125,-0.002208232879638672,-0.08079719543457031,0.13672780990600586
1780001855614614800,6.65361474609375,0.07513189315795898,-0.07698440551757812,0.13870549201965332
1780001855630958300,6.669958251953125,0.09372806549072266,-0.06368827819824219,0.11958813667297363
1780001855647296300,6.686296142578125,0.02578151226043701,-0.044132232666015625,0.06556510925292969
1780001855663627300,6.702627197265625,-0.02974414825439453,-0.034168243408203125,0.021504878997802734
1780001855679967700,6.7189677734375,-0.04631805419921875,-0.019989967346191406,-0.00826406478881836
1780001855696291300,6.735291259765625,-0.013621151447296143,-0.0010156631469726562,-0.018424510955810547
1780001855712626200,6.751626220703125,0.005118668079376221,0.013178825378417969,-0.04698038101196289
1780001855728960300,6.767960205078125,0.01646512746810913,0.017624855041503906,-0.045299530029296875
1780001855745291300,6.784291259765625,0.01347571611404419,0.0074100494384765625,-0.029678821563720703
1780001855761615400,6.800615478515625,0.01080387830734253,-0.017908096313476562,0.029874801635742188
1780001855777962000,6.8169619140625,-0.0024158358573913574,-0.03769111633300781,0.06988334655761719
1780001855794288400,6.833288330078125,-0.020991206169128418,-0.0477447509765625,0.09018492698669434
1780001855810620400,6.849620361328125,-0.007897913455963135,-0.047957420349121094,0.10954880714416504
1780001855826954200,6.865954345703125,0.032904207706451416,-0.038290977478027344,0.10951042175292969
1780001855843282400,6.882282470703125,0.04104644060134888,-0.03316211700439453,0.08456063270568848
1780001855859617800,6.89861767578125,0.02573525905609131,-0.01827716827392578,0.054514408111572266
1780001855875934200,6.914934326171875,0.020652592182159424,-0.036728858947753906,0.028314590454101562
1780001855892280300,6.9312802734375,0.020190060138702393,-0.05991554260253906,0.012250423431396484
1780001855908613600,6.947613525390625,0.03966653347015381,-0.049378395080566406,0.01081228256225586
1780001855924940800,6.96394091796875,0.050058186054229736,-0.0290069580078125,0.027549266815185547
1780001855941286700,6.98028662109375,0.057013094425201416,-0.0324249267578125,0.029765605926513672
1780001855957595000,6.996594970703125,0.07425099611282349,-0.007069587707519531,0.031978607177734375
1780001855973930000,7.012929931640625,0.08733057975769043,0.004029273986816406,0.014954566955566406
1780001855990262800,7.0292626953125,0.10081017017364502,0.03412437438964844,-0.01604175567626953
1780001856006595000,7.045594970703125,0.09563428163528442,0.03059864044189453,-0.05158233642578125
1780001856022925800,7.06192578125,0.09878122806549072,0.012569427490234375,-0.06778717041015625
1780001856039259400,7.07825927734375,0.08673804998397827,0.027700424194335938,-0.03555107116699219
1780001856055595500,7.094595458984375,0.09825003147125244,0.02834033966064453,0.020948410034179688
1780001856071938300,7.110938232421875,0.11950868368148804,0.02889537811279297,0.05912303924560547
1780001856088268500,7.1272685546875,0.12283051013946533,0.029314041137695312,0.05392313003540039
1780001856104608500,7.1436083984375,0.13404536247253418,0.01988506317138672,0.049130916595458984
1780001856120935700,7.159935791015625,0.13428568840026855,0.024606704711914062,0.039745330810546875
1780001856137267500,7.176267333984375,0.09940630197525024,-0.0043926239013671875,0.039516448974609375
1780001856153600000,7.19260009765625,0.06764543056488037,-0.03357887268066406,0.049555301666259766
1780001856169932300,7.208932373046875,0.029733598232269287,-0.053272247314453125,0.05413198471069336
1780001856186264000,7.22526416015625,-0.00904303789138794,-0.029870033264160156,0.06865239143371582
1780001856202580500,7.24158056640625,-0.034386634826660156,-0.0065460205078125,0.06880545616149902
1780001856218929700,7.2579296875,-0.05042898654937744,-0.0025033950805664062,0.0548405647277832
1780001856235261400,7.274261474609375,-0.046312034130096436,-0.0036029815673828125,0.05620241165161133
1780001856251600400,7.290600341796875,-0.01985985040664673,0.0000553131103515625,0.10130643844604492
1780001856267909000,7.3069091796875,-0.017197012901306152,-0.015175819396972656,0.11808991432189941
1780001856284258300,7.32325830078125,-0.011493086814880371,-0.03497791290283203,0.14945316314697266
1780001856300574200,7.33957421875,-0.024155735969543457,-0.03086376190185547,0.1425793170928955
1780001856316920000,7.355920166015625,-0.05368447303771973,-0.017313003540039062,0.15465927124023438
1780001856333260000,7.372260009765625,-0.0926823616027832,-0.02336406707763672,0.1470046043395996
1780001856349588200,7.388588134765625,-0.09494435787200928,-0.010493278503417969,0.17295122146606445
1780001856365901800,7.40490185546875,-0.10849261283874512,-0.021541595458984375,0.15524864196777344
1780001856382233000,7.421233154296875,-0.13901913166046143,-0.012765884399414062,0.14172625541687012
1780001856398601700,7.437601806640625,-0.11790525913238525,0.02406597137451172,0.07546472549438477
1780001856414917600,7.453917724609375,-0.07596635818481445,0.0034122467041015625,-0.013821125030517578
1780001856431249400,7.47024951171875,0.002120673656463623,0.03538799285888672,-0.08343362808227539
1780001856447552800,7.486552734375,0.0027419328689575195,0.03358650207519531,-0.10428953170776367
1780001856463887400,7.502887451171875,-0.021703720092773438,0.07000350952148438,-0.1338357925415039
1780001856480233200,7.519233154296875,-0.03982359170913696,0.03946208953857422,-0.13517045974731445
1780001856496565000,7.53556494140625,-0.03227728605270386,0.012979507446289062,-0.11078882217407227
1780001856512898600,7.551898681640625,-0.03101515769958496,0.00039196014404296875,-0.057122230529785156
1780001856529228300,7.568228271484375,-0.05503201484680176,0.030097007751464844,0.08840465545654297
1780001856545553400,7.584553466796875,-0.058104097843170166,-0.011442184448242188,0.1522207260131836
1780001856561905400,7.600905517578125,-0.036556363105773926,-0.058838844299316406,0.23165535926818848
1780001856578245000,7.6172451171875,0.005212306976318359,0.004428863525390625,0.16948366165161133
1780001856594565000,7.633565185546875,0.11339461803436279,-0.06218433380126953,0.144334077835083
1780001856610912500,7.64991259765625,0.11177319288253784,-0.017746925354003906,0.10950231552124023
1780001856627216600,7.666216552734375,0.1735469102859497,-0.039917945861816406,0.048741817474365234
1780001856643575800,7.682575927734375,0.16931456327438354,-0.051886558532714844,-0.013170719146728516
1780001856659901000,7.69890087890625,0.1831650733947754,-0.02864551544189453,-0.13030767440795898
1780001856676234200,7.715234130859375,0.17997848987579346,-0.028853416442871094,-0.1928558349609375
1780001856692567800,7.73156787109375,0.1982213854789734,0.03875255584716797,-0.28158044815063477
1780001856708900600,7.747900634765625,0.2011204957962036,0.04586219787597656,-0.36333227157592773
1780001856725230600,7.764230712890625,0.1894327998161316,0.0955667495727539,-0.430328369140625
1780001856741564200,7.780564208984375,0.18888461589813232,0.13549232482910156,-0.48293590545654297
1780001856757897200,7.796897216796875,0.17509454488754272,0.146484375,-0.4916520118713379
1780001856774225700,7.8132255859375,0.21666669845581055,0.14183807373046875,-0.42163896560668945
1780001856790565000,7.829565185546875,0.1973104476928711,0.14655017852783203,-0.3150944709777832
1780001856806895000,7.84589501953125,0.13529342412948608,0.11698532104492188,-0.1727766990661621
1780001856823226400,7.862226318359375,0.09966689348220825,0.10510921478271484,0.0011515617370605469
1780001856839559200,7.87855908203125,0.04981333017349243,0.03989601135253906,0.18059968948364258
1780001856855886800,7.894886962890625,-0.027444124221801758,-0.020355224609375,0.3266911506652832
1780001856872226300,7.911226318359375,-0.07270616292953491,-0.09981822967529297,0.4620697498321533
1780001856888556800,7.927556884765625,-0.10044735670089722,-0.18367576599121094,0.5720021724700928
1780001856904887600,7.943887451171875,-0.1713632345199585,-0.27106571197509766,0.6537775993347168
1780001856921221400,7.960221435546875,-0.24598729610443115,-0.30919361114501953,0.6789216995239258
1780001856937532700,7.97653271484375,-0.2680707573890686,-0.2545280456542969,0.5190589427947998
1780001856953874400,7.99287451171875,-0.24565279483795166,-0.19937419891357422,0.32245469093322754
1780001856970204000,8.009203857421875,-0.22921860218048096,-0.11463451385498047,0.10631656646728516
1780001856986536400,8.025536376953125,-0.24771153926849365,-0.0788116455078125,-0.046614646911621094
1780001857002868500,8.041868408203126,-0.2588212490081787,-0.014554977416992188,-0.15286970138549805
1780001857019201000,8.058200927734376,-0.18800312280654907,0.0006809234619140625,-0.19744396209716797
1780001857035532500,8.074532470703126,-0.1501617431640625,0.048850059509277344,-0.16657686233520508
1780001857051883500,8.090883544921875,-0.09088075160980225,0.02452373504638672,-0.10100364685058594
1780001857068212000,8.1072119140625,0.004508256912231445,0.010583877563476562,-0.04915285110473633
1780001857084543200,8.123543212890626,0.0797874927520752,0.0201873779296875,0.01629781723022461
1780001857100875000,8.139875,0.14835447072982788,0.02527141571044922,0.041681766510009766
1780001857117208800,8.156208740234375,0.16555321216583252,0.03620719909667969,0.05631256103515625
1780001857133544200,8.172544189453125,0.14885681867599487,0.037891387939453125,0.05838775634765625
1780001857149873700,8.188873779296875,0.10172951221466064,0.05451393127441406,0.02626180648803711
1780001857166205200,8.205205078125,0.07721686363220215,0.032161712646484375,-0.012434005737304688
1780001857182538800,8.221538818359376,0.09011667966842651,0.057903289794921875,-0.10779476165771484
1780001857198870500,8.23787060546875,0.08461564779281616,0.10197162628173828,-0.21853876113891602
1780001857215202300,8.254202392578126,0.07098197937011719,0.1170053482055664,-0.28141021728515625
1780001857231518200,8.270518310546874,0.00012761354446411133,0.10266971588134766,-0.271852970123291
1780001857247868200,8.2868681640625,-0.030836641788482666,0.05424690246582031,-0.21203088760375977
1780001857264199400,8.303199462890625,-0.031279921531677246,0.024672508239746094,-0.13097715377807617
1780001857280531700,8.31953173828125,-0.013619601726531982,-0.024308204650878906,-0.015194416046142578
1780001857296862500,8.335862548828125,0.03654909133911133,-0.06724071502685547,0.049083709716796875
1780001857313191400,8.35219140625,0.020734727382659912,-0.0856161117553711,0.10253334045410156
1780001857329512400,8.368512451171876,0.02156883478164673,-0.09862327575683594,0.13651466369628906
1780001857345862000,8.38486181640625,0.03530395030975342,-0.06321239471435547,0.14977073669433594
1780001857362192100,8.401192138671876,0.06962382793426514,-0.018457412719726562,0.1333467960357666
1780001857378526500,8.4175263671875,0.08107119798660278,-0.010694503784179688,0.06743669509887695
1780001857394860300,8.4338603515625,0.09880262613296509,-0.0038881301879882812,0.01102447509765625
1780001857411190800,8.450190673828125,0.11812353134155273,0.016790390014648438,-0.016186237335205078
1780001857427493000,8.4664931640625,0.08795076608657837,0.041678428649902344,-0.01378774642944336
1780001857443838700,8.482838623046876,0.10411417484283447,0.04232978820800781,-0.006267547607421875
1780001857460175000,8.499175048828125,0.09902888536453247,0.04256629943847656,0.006484508514404297
1780001857476508700,8.5155087890625,0.06771498918533325,0.042634010314941406,0.04314613342285156
1780001857492837600,8.531837646484375,0.055409252643585205,0.008525848388671875,0.06066703796386719
1780001857509171500,8.54817138671875,0.058680176734924316,0.0038938522338867188,0.07330036163330078
1780001857525503500,8.56450341796875,0.025831758975982666,-0.01900482177734375,0.07084941864013672
1780001857541846800,8.5808466796875,0.005130290985107422,-0.03293800354003906,0.0598750114440918
1780001857558175500,8.597175537109376,0.004483044147491455,-0.037247657775878906,0.0443415641784668
1780001857574517500,8.613517578125,0.004822731018066406,-0.031929969787597656,0.02412128448486328
1780001857590826000,8.629825927734375,0.02499210834503174,-0.031368255615234375,0.0087738037109375
1780001857607178200,8.64617822265625,0.05977511405944824,-0.006682395935058594,0.008009910583496094
1780001857623511300,8.66251123046875,0.056254804134368896,0.01813793182373047,0.011137008666992188
1780001857639844600,8.6788447265625,0.061351478099823,0.02377033233642578,-0.00020456314086914062
1780001857656176600,8.6951767578125,0.04138624668121338,0.034035682678222656,-0.016254901885986328
1780001857672509000,8.711509033203125,0.02527695894241333,0.015172958374023438,-0.04191780090332031
1780001857688835600,8.727835693359374,-0.00713878870010376,0.024648666381835938,-0.03296709060668945
1780001857705174000,8.744174072265626,0.0026432275772094727,0.019491195678710938,0.00044536590576171875
1780001857721508900,8.7605087890625,0.00493091344833374,-0.00017452239990234375,0.024948596954345703
1780001857737838300,8.77683837890625,0.013412296772003174,-0.02468585968017578,0.035540103912353516
1780001857754174000,8.793174072265625,0.032134413719177246,-0.025839805603027344,0.06550407409667969
1780001857770500400,8.809500244140626,0.053374409675598145,-0.03570842742919922,0.09115743637084961
1780001857786830800,8.825830810546876,0.0423702597618103,-0.04530906677246094,0.08659052848815918
1780001857803171600,8.842171630859376,0.021658003330230713,-0.0355072021484375,0.08681368827819824
1780001857819483000,8.85848291015625,-0.00547945499420166,-0.04406452178955078,0.08625912666320801
1780001857835827700,8.87482763671875,-0.029888927936553955,-0.03888225555419922,0.06122636795043945
1780001857852169000,8.8911689453125,-0.019340217113494873,-0.024193763732910156,0.0357213020324707
1780001857868496100,8.90749609375,0.01830899715423584,-0.01913166046142578,0.009967803955078125
1780001857884826000,8.923826171875,0.02287393808364868,-0.014055252075195312,-0.015733718872070312
1780001857901170000,8.940169921875,0.005235493183135986,-0.018523216247558594,-0.03631591796875
1780001857917472800,8.95647265625,0.018867433071136475,-0.018212318420410156,-0.027586936950683594
1780001857933812700,8.972812744140626,0.03580296039581299,-0.0034608840942382812,0.00145721435546875
1780001857950145000,8.98914501953125,0.056015849113464355,-0.0035114288330078125,0.015949249267578125
1780001857966464000,9.005464111328125,0.06902098655700684,-0.007552146911621094,0.025752544403076172
1780001857982809600,9.0218095703125,0.07791924476623535,-0.016231536865234375,0.02101421356201172
1780001857999140400,9.038140380859375,0.07152038812637329,0.009282112121582031,0.01105356216430664
1780001858015474400,9.054474365234375,0.06702035665512085,0.034020423889160156,0.005621433258056641
1780001858031810000,9.07081005859375,0.05447143316268921,0.024961471557617188,0.00968313217163086
1780001858048152300,9.08715234375,0.0586010217666626,-0.0034809112548828125,0.017922401428222656
1780001858064483600,9.103483642578125,0.051066577434539795,-0.003330230712890625,0.03147602081298828
1780001858080817700,9.119817626953125,0.058217644691467285,-0.01792430877685547,0.05408191680908203
1780001858097149400,9.1361494140625,0.05132758617401123,-0.02681255340576172,0.047341346740722656
1780001858113451800,9.15245166015625,0.040276408195495605,-0.006175994873046875,0.030563831329345703
1780001858129784800,9.168784912109375,0.03852403163909912,0.023721694946289062,-0.005912303924560547
1780001858146135600,9.185135498046876,0.03259700536727905,0.03448772430419922,-0.06142616271972656
1780001858162448400,9.201448486328125,0.028529465198516846,0.07385730743408203,-0.10684728622436523
1780001858178797800,9.2177978515625,0.030208170413970947,0.06980323791503906,-0.1320018768310547
1780001858195129900,9.2341298828125,0.0431293249130249,0.09374809265136719,-0.12591218948364258
1780001858211466000,9.250466064453125,0.04697614908218384,0.11702442169189453,-0.09000205993652344
1780001858227823900,9.266823974609375,0.05137151479721069,0.07738018035888672,-0.06691646575927734
1780001858244121600,9.28312158203125,0.03534841537475586,0.027533531188964844,0.009305477142333984
1780001858260445400,9.299445556640626,0.036284565925598145,-0.008036613464355469,0.062014102935791016
1780001858276806400,9.315806396484374,0.02594667673110962,-0.043487548828125,0.11396455764770508
1780001858293137000,9.332136962890624,-0.015527546405792236,-0.06913185119628906,0.14990568161010742
1780001858309470200,9.34847021484375,-0.059826016426086426,-0.08023357391357422,0.17585134506225586
1780001858325786000,9.3647861328125,-0.07232236862182617,-0.08141803741455078,0.1862962245941162
1780001858342135300,9.38113525390625,-0.07031911611557007,-0.08697223663330078,0.16236090660095215
1780001858358463700,9.397463623046875,-0.07515823841094971,-0.08232307434082031,0.10879707336425781
1780001858374802200,9.41380224609375,-0.07801169157028198,-0.07715511322021484,0.054680824279785156
1780001858391115500,9.430115478515624,-0.0444483757019043,-0.038125038146972656,-0.004490375518798828
1780001858407447000,9.446447021484374,-0.004193365573883057,-0.022637367248535156,-0.044196128845214844
1780001858423769900,9.462769775390624,0.009993791580200195,0.012316703796386719,-0.07025480270385742
1780001858440115500,9.479115478515626,0.03606760501861572,0.062233924865722656,-0.05871105194091797
1780001858456444000,9.49544384765625,0.05553710460662842,0.0024194717407226562,-0.10017251968383789
1780001858472783000,9.511783203125,0.051612794399261475,-0.04720783233642578,-0.10808229446411133
1780001858489113900,9.52811376953125,0.0652627944946289,-0.02619647979736328,-0.08271551132202148
1780001858505444400,9.5444443359375,0.08311837911605835,0.01464080810546875,-0.057680606842041016
1780001858521777200,9.560777099609375,0.09548616409301758,0.055281639099121094,-0.04627561569213867
1780001858538126800,9.577126953125,0.08542919158935547,0.08568286895751953,-0.05385589599609375
1780001858554456000,9.5934560546875,0.061167120933532715,0.10087013244628906,-0.03241872787475586
1780001858570787600,9.60978759765625,0.047266483306884766,0.08191585540771484,0.019019126892089844
1780001858587118600,9.62611865234375,-0.010404109954833984,0.024394989013671875,0.022212982177734375
1780001858603463000,9.642462890625,-0.016502201557159424,0.014652252197265625,-0.02179431915283203
1780001858619785000,9.658784912109375,-0.013005614280700684,0.00006580352783203125,-0.03217363357543945
1780001858636122600,9.67512255859375,0.0026941299438476562,-0.019733428955078125,-0.00695037841796875
1780001858652444700,9.691444580078125,0.0428849458694458,-0.0014286041259765625,-0.00948190689086914
1780001858668782600,9.707782470703124,0.09257066249847412,0.026434898376464844,-0.05344390869140625
1780001858685102600,9.7241025390625,0.10019892454147339,0.02997303009033203,0.013271331787109375
1780001858701427500,9.740427490234374,0.10933113098144531,0.04194927215576172,0.04783010482788086
1780001858717769500,9.75676953125,0.10511088371276855,0.016378402709960938,0.07747220993041992
1780001858734097700,9.77309765625,0.10589092969894409,0.005219459533691406,0.07290315628051758
1780001858750430000,9.789429931640624,0.11406654119491577,0.008929252624511719,0.06386756896972656
1780001858766761700,9.80576171875,0.10367453098297119,0.0023393630981445312,0.06381464004516602
1780001858783111400,9.822111328125,0.08390980958938599,0.004973411560058594,0.0731511116027832
1780001858799436800,9.838436767578125,0.08425396680831909,-0.00667572021484375,0.0767669677734375
1780001858815777000,9.854777099609375,0.058633267879486084,-0.02301311492919922,0.05091381072998047
1780001858832102700,9.8711025390625,0.04472243785858154,-0.029707908630371094,0.029250144958496094
1780001858848438500,9.8874384765625,0.05847650766372681,-0.02670764923095703,0.0022945404052734375
1780001858864770300,9.903770263671875,0.049929678440093994,-0.018857955932617188,-0.038965702056884766
1780001858881101800,9.920101806640625,0.019818603992462158,-0.0006504058837890625,-0.05610036849975586
1780001858897417200,9.936417236328126,0.0032344460487365723,0.0124053955078125,-0.05435609817504883
1780001858913753900,9.95275390625,-0.018202245235443115,0.0016460418701171875,-0.02254629135131836
1780001858930075100,9.9690751953125,-0.026357591152191162,-0.008889198303222656,0.014340877532958984
1780001858946418000,9.98541796875,-0.02323901653289795,-0.01967334747314453,0.05094766616821289
1780001858962749200,10.001749267578125,-0.014694511890411377,-0.010470390319824219,0.08221864700317383
1780001858979069200,10.018069091796875,-0.012296855449676514,-0.010576248168945312,0.09827232360839844
1780001858995415000,10.0344150390625,-0.00854349136352539,-0.025051116943359375,0.0849294662475586
1780001859011747600,10.05074755859375,-0.018716514110565186,0.008208274841308594,0.07097053527832031
1780001859028096800,10.0670966796875,-0.0183945894241333,0.012591361999511719,0.06614017486572266
1780001859044425200,10.08342529296875,-0.0384940505027771,0.0119171142578125,0.03757953643798828
1780001859060758000,10.099758056640624,-0.04516631364822388,0.006628990173339844,0.005074977874755859
1780001859077074000,10.116073974609375,-0.07524168491363525,0.000446319580078125,-0.008159637451171875
1780001859093421000,10.132421142578124,-0.07508879899978638,-0.0060558319091796875,0.009518146514892578
1780001859109755400,10.14875537109375,-0.10139977931976318,-0.01736164093017578,0.06000185012817383
1780001859126087700,10.165087646484375,-0.08224260807037354,-0.052460670471191406,0.08736371994018555
1780001859142397200,10.181397216796874,-0.04262608289718628,-0.0641031265258789,0.1202392578125
1780001859158750700,10.197750732421875,-0.028917253017425537,-0.06033897399902344,0.1328587532043457
1780001859175063600,10.2140634765625,-0.005897402763366699,-0.04670524597167969,0.14490461349487305
1780001859191400200,10.230400146484374,0.0032309889793395996,-0.027978897094726562,0.1274256706237793
1780001859207738000,10.246738037109376,-0.014139354228973389,-0.047496795654296875,0.09508895874023438
1780001859224078800,10.263078857421876,-0.04347354173660278,-0.03364086151123047,0.08634042739868164
1780001859240433700,10.27943359375,-0.08119183778762817,-0.0575103759765625,0.09559440612792969
1780001859256746500,10.29574658203125,-0.087191641330719,-0.057994842529296875,0.10495615005493164
1780001859273078300,10.312078369140625,-0.05937153100967407,-0.05390739440917969,0.09022808074951172
1780001859289411600,10.32841162109375,-0.03946852684020996,-0.029580116271972656,0.06460189819335938
1780001859305726500,10.3447265625,-0.007839560508728027,-0.005019187927246094,0.019782543182373047
1780001859322075400,10.361075439453124,-0.012362658977508545,-0.008584022521972656,-0.019780635833740234
1780001859338392300,10.377392333984375,-0.024340927600860596,0.0014886856079101562,-0.03483295440673828
1780001859354737000,10.39373681640625,-0.016914069652557373,-0.00772857666015625,-0.03503561019897461
1780001859371055900,10.410055908203125,-0.0247458815574646,0.0069599151611328125,-0.020896434783935547
1780001859387392300,10.426392333984374,-0.014755308628082275,-0.026342391967773438,-0.016443252563476562
1780001859403723300,10.44272314453125,-0.01638495922088623,-0.011935234069824219,-0.01689767837524414
1780001859420055600,10.4590556640625,-0.015138626098632812,0.0073146820068359375,0.0012731552124023438
1780001859436388400,10.475388427734375,0.0048427581787109375,0.030767440795898438,0.005562305450439453
1780001859452717300,10.49171728515625,0.011877477169036865,0.007526397705078125,-0.019093990325927734
1780001859469044200,10.508044189453125,0.006339907646179199,0.017128944396972656,-0.04325056076049805
1780001859485388000,10.524387939453124,0.007483065128326416,0.04588508605957031,-0.04309844970703125
1780001859501700600,10.54070068359375,0.024111032485961914,0.03160667419433594,-0.05235576629638672
1780001859518067500,10.5570673828125,0.051080405712127686,0.012529373168945312,-0.061423301696777344
1780001859534392600,10.573392578125,0.04937857389450073,0.007839202880859375,-0.03226470947265625
1780001859550732800,10.58973291015625,0.061364173889160156,0.017576217651367188,-0.027326107025146484
1780001859567057700,10.6060576171875,0.042761921882629395,-0.0013170242309570312,-0.0229644775390625
1780001859583396600,10.622396728515625,0.012570440769195557,-0.001148223876953125,-0.052474021911621094
1780001859599720200,10.63872021484375,0.0032058358192443848,0.008572578430175781,-0.06871366500854492
1780001859616057000,10.65505712890625,0.002683401107788086,0.027864456176757812,-0.08391571044921875
1780001859632390100,10.67139013671875,-0.0009120702743530273,0.018518447875976562,-0.05645036697387695
1780001859648728800,10.687728759765625,0.02259165048599243,0.02352142333984375,-0.05688190460205078
1780001859665053200,10.70405322265625,0.06502246856689453,0.028771400451660156,-0.0474238395690918
1780001859681387000,10.720386962890625,0.10545855760574341,0.014377593994140625,-0.03220558166503906
1780001859697712000,10.736712158203124,0.11800515651702881,0.029466629028320312,-0.022448062896728516
1780001859714059300,10.753059326171876,0.09756278991699219,0.011250495910644531,-0.03301382064819336
1780001859730382300,10.76938232421875,0.0827629566192627,0.016979217529296875,-0.06763839721679688
1780001859746717000,10.785717041015625,0.049304962158203125,0.01835346221923828,-0.07899141311645508
1780001859763055000,10.80205517578125,0.021076679229736328,0.019077301025390625,-0.0527191162109375
1780001859779371300,10.818371337890625,-0.008812189102172852,0.029354095458984375,-0.04159355163574219
1780001859795718700,10.83471875,0.0007739663124084473,0.06829166412353516,-0.04818153381347656
1780001859812043500,10.85104345703125,0.03721261024475098,0.05378437042236328,-0.039966583251953125
1780001859828378400,10.86737841796875,0.08259540796279907,0.05394172668457031,-0.06793451309204102
1780001859844711000,10.8837109375,0.08865195512771606,0.06356048583984375,-0.0476226806640625
1780001859861041000,10.900041015625,0.057559967041015625,0.04434394836425781,-0.008161544799804688
1780001859877339400,10.91633935546875,0.04118168354034424,0.010828971862792969,0.04606485366821289
1780001859893694000,10.93269384765625,0.027331411838531494,-0.032296180725097656,0.07537603378295898
1780001859910026500,10.949026611328126,0.0002512931823730469,-0.0562591552734375,0.0660858154296875
1780001859926358300,10.965358154296876,0.01445239782333374,-0.056168556213378906,0.06501340866088867
1780001859942690800,10.98169091796875,-0.002858877182006836,-0.017488479614257812,0.043311119079589844
1780001859959023000,10.998023193359375,-0.0273057222366333,0.012449264526367188,0.006367683410644531
1780001859975355000,11.01435498046875,-0.02741152048110962,0.01768970489501953,-0.04941272735595703
1780001859991665700,11.030665771484376,-0.05485719442367554,0.01794910430908203,-0.08044958114624023
1780001860008023800,11.04702392578125,-0.06797128915786743,-0.005770683288574219,-0.06730270385742188
1780001860024365800,11.06336572265625,-0.07988762855529785,-0.02445697784423828,-0.05400228500366211
1780001860040699000,11.079698974609375,-0.04417991638183594,-0.018800735473632812,-0.020163536071777344
1780001860057029000,11.096029052734375,0.015044689178466797,-0.03744697570800781,0.022937297821044922
1780001860073361200,11.112361083984375,0.062013208866119385,-0.026754379272460938,0.05275106430053711
1780001860089695500,11.128695556640626,0.0770043134689331,-0.0065097808837890625,0.06778764724731445
1780001860106006500,11.145006591796875,-0.006625354290008545,0.022844314575195312,0.05387544631958008
1780001860122361000,11.161361083984374,-0.0033368468284606934,0.06590747833251953,0.04018878936767578
1780001860138706000,11.177705810546875,0.056937336921691895,0.06513023376464844,0.021981239318847656
1780001860155024400,11.1940244140625,0.06303125619888306,0.006567955017089844,0.06008434295654297
1780001860171342800,11.2103427734375,0.023438870906829834,-0.03813743591308594,0.1179497241973877
1780001860187683300,11.226683349609376,-0.005429089069366455,-0.06808948516845703,0.1409153938293457
1780001860204022800,11.243022705078126,-0.03971099853515625,-0.12107276916503906,0.19689440727233887
1780001860220357000,11.259357177734374,-0.08173370361328125,-0.0682525634765625,0.1430683135986328
1780001860236669200,11.275669189453126,-0.06454485654830933,-0.06675434112548828,0.06012296676635742
1780001860253019000,11.292018798828124,-0.03260689973831177,-0.018184661865234375,-0.026872634887695312
1780001860269334500,11.30833447265625,-0.025263071060180664,-0.03678131103515625,-0.008367061614990234
1780001860285683700,11.32468359375,-0.03580641746520996,-0.055418968200683594,0.039209842681884766
1780001860302010000,11.341010009765625,-0.02534961700439453,-0.05997180938720703,0.053093910217285156
1780001860318351600,11.3573515625,0.02436131238937378,-0.0587005615234375,0.04694652557373047
1780001860334654700,11.37365478515625,0.07748377323150635,-0.028433799743652344,0.054854393005371094
1780001860351004700,11.390004638671876,0.0664743185043335,0.0352325439453125,0.05730915069580078
1780001860367325200,11.4063251953125,0.04221254587173462,0.041426658630371094,0.04548454284667969
1780001860383667000,11.4226669921875,0.056172192096710205,0.032942771911621094,0.04402875900268555
1780001860399996400,11.438996337890625,0.07054054737091064,0.014669418334960938,0.03354978561401367
1780001860416328200,11.455328125,0.08012962341308594,0.010692596435546875,0.027988433837890625
1780001860432648000,11.47164794921875,0.07472860813140869,-0.0027484893798828125,0.050772666931152344
1780001860448990200,11.487990234375,0.05350297689437866,-0.006564140319824219,0.044422149658203125
1780001860465326300,11.504326416015624,0.03992486000061035,0.0040149688720703125,0.03222370147705078
1780001860481660700,11.52066064453125,0.020314514636993408,0.015004158020019531,-0.008057594299316406
1780001860497997600,11.53699755859375,0.04179567098617554,0.015567779541015625,-0.06242084503173828
1780001860514354200,11.553354248046874,0.04830890893936157,0.03974151611328125,-0.09168529510498047
1780001860530669000,11.5696689453125,0.06581133604049683,0.054123878479003906,-0.11133861541748047
1780001860546997000,11.5859970703125,0.05998605489730835,0.03955841064453125,-0.10140132904052734
1780001860563341300,11.60234130859375,0.052747249603271484,0.034454345703125,-0.03802061080932617
1780001860579660500,11.61866064453125,0.043022990226745605,0.009913444519042969,0.025278568267822266
1780001860595998200,11.634998291015625,0.030077874660491943,-0.01865386962890625,0.0495305061340332
1780001860612324000,11.651323974609374,0.011505126953125,-0.022653579711914062,0.05497455596923828
1780001860628672500,11.667672607421874,-0.0002644062042236328,-0.0037317276000976562,0.05945253372192383
1780001860644990000,11.683989990234375,0.00991147756576538,0.001361846923828125,0.04454660415649414
1780001860661327400,11.700327392578124,0.009201645851135254,0.0014734268188476562,0.039376258850097656
1780001860677659600,11.71665966796875,-0.006270349025726318,0.02579784393310547,0.03959846496582031
1780001860693990100,11.732990234375,-0.011277616024017334,0.006247520446777344,0.02596282958984375
1780001860710324700,11.74932470703125,-0.011610865592956543,-0.00390625,0.022375106811523438
1780001860726658000,11.765657958984375,-0.0020956993103027344,0.014681816101074219,0.018784046173095703
1780001860742989600,11.781989501953126,-0.02132362127304077,0.014277458190917969,0.014861583709716797
1780001860759321600,11.798321533203126,-0.02687472105026245,-0.0004949569702148438,0.010825634002685547
1780001860775649800,11.81464990234375,-0.05226707458496094,0.003696441650390625,0.0016527175903320312
1780001860791990300,11.830990234375,-0.06866592168807983,0.0028362274169921875,-0.006460666656494141
1780001860808318000,11.84731787109375,-0.07571202516555786,-0.007833480834960938,0.005042552947998047
1780001860824649000,11.86364892578125,-0.06235206127166748,-0.037674903869628906,0.021645545959472656
1780001860840983000,11.879983154296875,-0.03269559144973755,-0.043198585510253906,0.047359466552734375
1780001860857298400,11.89629833984375,-0.0166471004486084,-0.03871345520019531,0.07298994064331055
1780001860873634000,11.912634033203124,-0.004479646682739258,-0.0008869171142578125,0.09234762191772461
1780001860889966300,11.92896630859375,0.026263177394866943,0.009064674377441406,0.07756328582763672
1780001860906287600,11.94528759765625,0.017633914947509766,0.023599624633789062,0.03908061981201172
1780001860922631000,11.961630859375,0.012747704982757568,0.023347854614257812,0.020345687866210938
1780001860938961700,11.977961669921875,-0.02276909351348877,-0.010213851928710938,0.03513813018798828
1780001860955295500,11.99429541015625,-0.039645612239837646,-0.039748191833496094,0.0507664680480957
1780001860971628000,12.0106279296875,-0.014189839363098145,-0.04100990295410156,0.08577203750610352
1780001860987960000,12.0269599609375,0.002426743507385254,-0.04622650146484375,0.08619880676269531
1780001861004294400,12.04329443359375,0.014164090156555176,-0.03223228454589844,0.07688570022583008
1780001861020639200,12.05963916015625,0.0023334622383117676,-0.017543792724609375,0.04829883575439453
1780001861036965600,12.075965576171875,0.0006874799728393555,-0.0033693313598632812,0.03400468826293945
1780001861053286700,12.09228662109375,-0.0049231648445129395,-0.00835418701171875,0.010218620300292969
1780001861069623800,12.108623779296876,-0.015254557132720947,0.020186424255371094,0.020012855529785156
1780001861085968000,12.1249677734375,-0.005630671977996826,0.010395050048828125,0.006137847900390625
1780001861102291700,12.141291748046875,0.028026700019836426,0.010189056396484375,-0.022096633911132812
1780001861118616000,12.157615966796875,0.0464746356010437,0.014693260192871094,-0.04016923904418945
1780001861134956800,12.173956787109375,0.025080859661102295,0.009464263916015625,-0.0546259880065918
1780001861151292400,12.19029248046875,-0.0065898895263671875,-0.0005626678466796875,-0.04479265213012695
1780001861167613200,12.20661328125,-0.03553330898284912,0.0038862228393554688,-0.03551530838012695
1780001861183961000,12.222961181640626,-0.04138869047164917,-0.01067352294921875,-0.02658557891845703
1780001861200277500,12.239277587890625,-0.04497593641281128,-0.006024360656738281,-0.05107831954956055
1780001861216626700,12.255626708984375,-0.00419086217880249,0.012995719909667969,-0.060735225677490234
1780001861232955400,12.271955322265624,0.026078402996063232,0.013006210327148438,-0.06941032409667969
1780001861249294800,12.288294921875,0.04932337999343872,0.027402877807617188,-0.07343482971191406
1780001861265622800,12.304622802734375,0.03976118564605713,0.032367706298828125,-0.06805849075317383
1780001861281944800,12.32094482421875,0.02431809902191162,0.02784252166748047,-0.029573440551757812
1780001861298291500,12.33729150390625,0.021232247352600098,0.018482208251953125,-0.01592397689819336
1780001861314600200,12.35360009765625,0.030388951301574707,0.013703346252441406,-0.010638236999511719
1780001861330939600,12.369939697265625,0.023620545864105225,0.0134735107421875,-0.02550220489501953
1780001861347255800,12.386255859375,0.03524214029312134,0.013154983520507812,-0.03913164138793945
1780001861363606800,12.402606689453124,0.027653932571411133,0.008055686950683594,-0.034842491149902344
1780001861379935700,12.418935791015626,0.011332929134368896,0.0029191970825195312,-0.015343666076660156
1780001861396268500,12.4352685546875,-0.013154327869415283,-0.016481399536132812,0.013811588287353516
1780001861412600800,12.451600830078124,-0.003092467784881592,-0.0020732879638671875,0.03306436538696289
1780001861428933000,12.46793310546875,0.013341426849365234,-0.0018682479858398438,0.023477554321289062
1780001861445265200,12.48426513671875,0.04941833019256592,0.007997512817382812,0.00961160659790039
1780001861461588700,12.500588623046875,0.07042503356933594,0.02198028564453125,-0.00006341934204101562
1780001861477930200,12.51693017578125,0.033467233180999756,0.022001266479492188,0.000038623809814453125
1780001861494275000,12.533275146484375,-0.0010239481925964355,0.008023262023925781,0.00928354263305664
1780001861510613000,12.549613037109374,-0.013310730457305908,0.0027790069580078125,0.02407693862915039
1780001861526934300,12.565934326171876,-0.007649540901184082,-0.007892608642578125,0.0436244010925293
1780001861543278300,12.5822783203125,0.018126726150512695,-0.013040542602539062,0.04858541488647461
1780001861559606800,12.598606689453124,0.03577005863189697,-0.008493423461914062,0.025463104248046875
1780001861575936500,12.6149365234375,0.03953593969345093,-0.018263816833496094,0.01132345199584961
1780001861592271000,12.63127099609375,0.015427052974700928,-0.012972831726074219,0.0011949539184570312
1780001861608603000,12.647602783203125,-0.019116699695587158,-0.02257061004638672,0.005820274353027344
1780001861624934100,12.66393408203125,-0.02976447343826294,-0.04156970977783203,0.01007223129272461
1780001861641267000,12.680266845703125,-0.01598525047302246,-0.022200584411621094,-0.004889011383056641
1780001861657593300,12.69659326171875,0.003222227096557617,0.0020580291748046875,-0.010374069213867188
1780001861673940200,12.712940185546875,0.0378110408782959,0.026322364807128906,-0.029422760009765625
1780001861690258400,12.729258544921874,0.058621883392333984,0.03617572784423828,-0.03447151184082031
1780001861706598000,12.745597900390624,0.051374852657318115,0.031546592712402344,-0.03432655334472656
1780001861722929400,12.761929443359374,0.05851578712463379,0.017271041870117188,-0.024446487426757812
1780001861739261700,12.77826171875,0.0513271689414978,0.007802009582519531,-0.014607429504394531
1780001861755593000,12.794593017578125,0.043003737926483154,0.0025272369384765625,0.004555702209472656
1780001861771926000,12.810926025390625,0.03283947706222534,-0.006832122802734375,0.013670921325683594
1780001861788256800,12.8272568359375,0.04121500253677368,-0.0065460205078125,0.012808799743652344
1780001861804589600,12.843589599609375,0.0295562744140625,0.0033597946166992188,0.006869792938232422
1780001861820923400,12.85992333984375,0.0038230419158935547,0.0090484619140625,-0.004454135894775391
1780001861837238000,12.876238037109376,-0.003398001194000244,-0.005120277404785156,-0.029290199279785156
1780001861853574100,12.89257421875,-0.014355599880218506,-0.00027179718017578125,-0.04407310485839844
1780001861869905700,12.90890576171875,-0.0042528510093688965,-0.00019931793212890625,-0.029763221740722656
1780001861886238200,12.92523828125,0.01267629861831665,-0.00003147125244140625,-0.010450363159179688
1780001861902569200,12.9415693359375,0.016492187976837158,0.014498710632324219,-0.010034561157226562
1780001861918903300,12.9579033203125,0.024637579917907715,0.009955406188964844,0.005206584930419922
1780001861935235600,12.974235595703124,0.018647193908691406,0.005452156066894531,0.014303207397460938
1780001861951568000,12.99056787109375,0.026356995105743408,0.010547637939453125,0.019609928131103516
1780001861967899400,13.0068994140625,0.047437965869903564,0.015513420104980469,0.01004648208618164
1780001861984236000,13.023236083984376,0.04409360885620117,0.025133132934570312,0.010234355926513672
1780001862000578800,13.039578857421875,0.04475963115692139,0.03877067565917969,0.015414714813232422
1780001862016894200,13.055894287109375,0.030300915241241455,0.034188270568847656,0.011464595794677734
1780001862033227000,13.07222705078125,0.00504302978515625,0.023984909057617188,0.021529197692871094
1780001862049575400,13.088575439453125,-0.011259794235229492,-0.005370140075683594,0.027187347412109375
1780001862065879000,13.104879150390625,-0.028644979000091553,-0.034549713134765625,0.032358646392822266
1780001862082240300,13.121240234375,-0.05552428960800171,-0.04920005798339844,0.022222518920898438
1780001862098538800,13.137538818359374,-0.06740295886993408,-0.03485679626464844,0.012206554412841797
1780001862114904800,13.15390478515625,-0.06871151924133301,-0.015659332275390625,0.00225067138671875
1780001862131220200,13.17022021484375,-0.04914093017578125,0.01796722412109375,0.0026602745056152344
1780001862147569700,13.186569580078125,-0.03703606128692627,0.02301788330078125,0.021752357482910156
1780001862163895800,13.202895751953125,-0.004688739776611328,0.02272796630859375,0.045877933502197266
1780001862180238000,13.219238037109376,0.01914799213409424,0.01834869384765625,0.04595041275024414
1780001862196550100,13.235550048828125,0.0711793303489685,0.01870441436767578,0.04662513732910156
1780001862212898000,13.25189794921875,0.04538208246231079,0.009406089782714844,0.022697925567626953
1780001862229226500,13.2682265625,-0.00206679105758667,-0.013834953308105469,0.012295722961425781
1780001862245567200,13.284567138671875,-0.0446438193321228,-0.02348804473876953,0.006221294403076172
1780001862261874700,13.300874755859375,-0.05718284845352173,-0.023673057556152344,0.005054473876953125
1780001862278232000,13.317232177734375,-0.04676026105880737,-0.019005775451660156,0.004119396209716797
1780001862294559000,13.33355908203125,-0.005725741386413574,0.0001068115234375,0.0027742385864257812
1780001862310891800,13.349891845703125,0.04833805561065674,0.014094352722167969,-0.012058258056640625
1780001862327193300,13.366193359375,0.06063997745513916,0.03366851806640625,-0.050827980041503906
1780001862343544600,13.382544677734375,0.037213802337646484,0.0441741943359375,-0.0648202896118164
1780001862359875800,13.398875732421875,0.014573454856872559,0.025035858154296875,-0.06417560577392578
1780001862376208400,13.41520849609375,-0.004723787307739258,0.015155792236328125,-0.029062271118164062
1780001862392531000,13.431531005859375,-0.011290192604064941,0.009862899780273438,0.015716075897216797
1780001862408872400,13.44787255859375,0.0036771297454833984,-0.020025253295898438,0.050702571868896484
1780001862425205000,13.464205078125,0.032062411308288574,-0.025194168090820312,0.05625200271606445
1780001862441537300,13.480537353515626,0.059002816677093506,-0.020559310913085938,0.05202913284301758
1780001862457871400,13.496871337890624,0.056162238121032715,-0.00618743896484375,0.032277584075927734
1780001862474204200,13.5132041015625,0.0531766414642334,-0.0011053085327148438,0.011882781982421875
1780001862490548700,13.529548828125,0.026877403259277344,0.009503364562988281,0.010450363159179688
1780001862506880000,13.5458798828125,0.007310926914215088,0.014698982238769531,-0.024744510650634766
1780001862523198000,13.562197998046875,0.012306451797485352,0.0244140625,-0.02979564666748047
1780001862539542500,13.57854248046875,0.013152539730072021,0.019594192504882812,-0.024761199951171875
1780001862555878000,13.5948779296875,-0.0007459521293640137,0.014532089233398438,-0.009714126586914062
1780001862572210200,13.611210205078125,0.008134186267852783,-0.014679908752441406,0.01035928726196289
1780001862588542700,13.627542724609375,0.015778779983520508,-0.015135765075683594,0.02543020248413086
1780001862604874000,13.6438740234375,0.008881747722625732,-0.01078033447265625,0.025925159454345703
1780001862621202200,13.6602021484375,0.006939291954040527,-0.03021240234375,0.030933380126953125
1780001862637543700,13.676543701171875,-0.01858288049697876,-0.02557659149169922,0.03571605682373047
1780001862653871900,13.692871826171874,-0.009560704231262207,-0.0117645263671875,0.04984283447265625
1780001862670201900,13.709201904296876,-0.018631398677825928,-0.016277313232421875,0.05414390563964844
1780001862686536400,13.725536376953125,0.00636744499206543,-0.03022480010986328,0.034338951110839844
1780001862702867700,13.74186767578125,0.02729344367980957,-0.02434062957763672,0.00957489013671875
1780001862719201000,13.758200927734375,0.0184822678565979,-0.009408950805664062,-0.0010843276977539062
1780001862735533000,13.774532958984375,0.004344582557678223,-0.008986473083496094,0.0028328895568847656
1780001862751866000,13.7908662109375,-0.01058417558670044,0.0008630752563476562,0.002109527587890625
1780001862768198000,13.807197998046876,-0.002215087413787842,-0.0035543441772460938,0.02033376693725586
1780001862784529400,13.823529296875,0.02156519889831543,-0.01746845245361328,0.0103759765625
1780001862800845300,13.83984521484375,0.027323246002197266,-0.0073833465576171875,0.004676342010498047
1780001862817178000,13.85617822265625,0.028936445713043213,0.0075817108154296875,-0.015451431274414062
1780001862833513000,13.872512939453125,0.02158534526824951,0.017774581909179688,-0.026029109954833984
1780001862849845800,13.888845703125,0.03174018859863281,0.036787986755371094,-0.01244497299194336
1780001862866170000,13.905170166015624,0.02304774522781372,0.027510643005371094,0.015808582305908203
1780001862882509800,13.921509765625,0.04306972026824951,0.01812267303466797,0.029952049255371094
1780001862898842000,13.937842041015625,0.053595900535583496,0.018291473388671875,0.034566402435302734
1780001862915174700,13.954174560546875,0.04939204454421997,0.013722419738769531,0.024644851684570312
1780001862931505700,13.970505615234375,0.05856454372406006,0.00913238525390625,0.009785175323486328
1780001862947839700,13.98683984375,0.027967870235443115,0.005034446716308594,0.004416465759277344
1780001862964171500,14.003171630859375,0.010652303695678711,-0.004641532897949219,-0.006259441375732422
1780001862980520400,14.0195205078125,-0.017965376377105713,-0.009672164916992188,0.0028738975524902344
1780001862996842500,14.035842529296875,-0.037212371826171875,-0.005092620849609375,0.002299785614013672
1780001863013182200,14.05218212890625,-0.03136223554611206,-0.019548416137695312,-0.007834434509277344
1780001863029498000,14.068498046875,-0.023795366287231445,-0.005116462707519531,-0.017991065979003906
1780001863045846800,14.0848466796875,-0.00931626558303833,0.00937652587890625,-0.027831554412841797
1780001863062162000,14.101161865234374,0.016965508460998535,0.009663581848144531,-0.02257680892944336
1780001863078512000,14.11751220703125,0.03550434112548828,0.009987831115722656,-0.02240610122680664
1780001863094844000,14.133843994140625,0.02021503448486328,0.019845962524414062,-0.007737636566162109
1780001863111179800,14.1501796875,0.02903294563293457,0.009795188903808594,-0.0025043487548828125
1780001863127502600,14.166502685546876,0.03467053174972534,0.009810447692871094,0.0025506019592285156
1780001863143844900,14.182844970703124,0.02964925765991211,0.005036354064941406,0.012043476104736328
1780001863160140800,14.199140869140624,0.03742426633834839,0.005047798156738281,0.0020813941955566406
1780001863176505600,14.215505615234376,0.02998870611190796,0.0008382797241210938,0.011148929595947266
1780001863192837600,14.231837646484376,0.022319793701171875,-0.003937721252441406,-0.00861215591430664
1780001863209170400,14.24817041015625,0.011056900024414062,0.00571441650390625,-0.01883840560913086
1780001863225478100,14.26447802734375,0.009784519672393799,0.005803108215332031,-0.019298076629638672
1780001863241835000,14.2808349609375,-0.018755078315734863,-0.0036792755126953125,-0.01526641845703125
1780001863258161200,14.2971611328125,0.015733182430267334,-0.008359909057617188,0.004580020904541016
1780001863274499800,14.313499755859375,0.00865393877029419,0.0008096694946289062,0.01843118667602539
1780001863290836200,14.329836181640625,0.016038119792938232,0.0010442733764648438,0.019063472747802734
1780001863307142400,14.346142333984375,0.027692198753356934,-0.0034694671630859375,0.018902301788330078
1780001863323492400,14.362492431640625,0.033972978591918945,-0.00260162353515625,0.004270076751708984
1780001863339802600,14.378802734375,0.034741878509521484,-0.0071277618408203125,0.0038657188415527344
1780001863356147500,14.3951474609375,0.020717620849609375,-0.006885528564453125,0.007597446441650391
1780001863372480000,14.41147998046875,0.010999023914337158,-0.006622314453125,0.021350383758544922
1780001863388811800,14.427811767578126,0.0057198405265808105,-0.0014619827270507812,0.0252227783203125
1780001863405144300,14.444144287109374,0.014732718467712402,0.0037355422973632812,0.009853363037109375
1780001863421476900,14.460476806640624,0.034175872802734375,-0.0005941390991210938,-0.004835605621337891
1780001863437809000,14.476808837890625,0.05040627717971802,-0.0049991607666015625,-0.024538040161132812
1780001863454141700,14.4931416015625,0.038504600524902344,0.014475822448730469,-0.019971370697021484
1780001863470505000,14.5095048828125,0.017291247844696045,0.005274772644042969,-0.011243820190429688
1780001863486819800,14.52581982421875,-0.00435483455657959,-0.008859634399414062,0.0030961036682128906
1780001863503149800,14.54214990234375,0.010900795459747314,-0.008620262145996094,0.026810646057128906
1780001863519481300,14.5584814453125,0.021722793579101562,-0.0035085678100585938,0.02635669708251953
1780001863535820300,14.5748203125,0.03761756420135498,-0.0030469894409179688,0.021481990814208984
1780001863552149200,14.591149169921875,0.04908567667007446,0.0070667266845703125,-0.00324249267578125
1780001863568481300,14.607481201171876,0.050871431827545166,0.01719951629638672,-0.018460750579833984
1780001863584814300,14.623814453125,0.04311800003051758,0.022562026977539062,-0.00977468490600586
1780001863601142800,14.640142822265625,0.025740742683410645,0.018184661865234375,-0.010906219482421875
1780001863617475600,14.6564755859375,0.008199095726013184,0.023255348205566406,0.012725353240966797
1780001863633814500,14.672814453125,0.004557788372039795,0.03310203552246094,0.007575035095214844
1780001863650143700,14.689143798828125,0.01407933235168457,0.03326606750488281,-0.007153511047363281
1780001863666501400,14.70550146484375,0.04223012924194336,0.03331756591796875,-0.01634979248046875
1780001863682807600,14.7218076171875,0.0420108437538147,0.02845001220703125,-0.016217708587646484
1780001863699122700,14.738122802734376,0.03797954320907593,0.013884544372558594,-0.021113872528076172
1780001863715473000,14.754472900390626,0.024555206298828125,-0.005484580993652344,-0.01564645767211914
1780001863731807700,14.770807861328125,0.020804524421691895,-0.005679130554199219,-0.010231494903564453
1780001863748129800,14.7871298828125,0.016371488571166992,0.00379180908203125,-0.0051555633544921875
1780001863764471300,14.80347119140625,0.00046503543853759766,-0.0058956146240234375,-0.01478433609008789
1780001863780801300,14.81980126953125,-0.017021894454956055,-0.010764122009277344,-0.02002429962158203
1780001863797103400,14.836103271484374,-0.0494002103805542,-0.010664939880371094,-0.026367664337158203
1780001863813452500,14.85245263671875,-0.06646263599395752,-0.010507583618164062,-0.027259349822998047
1780001863829784800,14.868784912109374,-0.06224656105041504,-0.0055408477783203125,-0.027770042419433594
1780001863846116600,14.88511669921875,-0.0351719856262207,-0.00045871734619140625,-0.017603397369384766
1780001863862449400,14.901449462890625,0.000213623046875,0.0046176910400390625,-0.0073184967041015625
1780001863878781400,14.917781494140625,0.02792757749557495,0.009611129760742188,-0.0011453628540039062
1780001863895104000,14.93410400390625,0.05668061971664429,0.009143829345703125,0.024402618408203125
1780001863911460900,14.9504609375,0.055565059185028076,-0.0002765655517578125,0.04487180709838867
1780001863927778800,14.96677880859375,0.04663717746734619,-0.009611129760742188,0.05498075485229492
1780001863944107500,14.983107421875,0.03349006175994873,-0.0039386749267578125,0.04979991912841797
1780001863960446200,14.9994462890625,0.020840764045715332,0.001163482666015625,0.019802093505859375
1780001863976792600,15.01579248046875,0.010841846466064453,0.0063381195068359375,-0.006103515625
1780001863993116200,15.0321162109375,-0.015403330326080322,0.0066127777099609375,-0.041597843170166016
1780001864009454000,15.0484541015625,-0.030993759632110596,0.011469841003417969,-0.057898521423339844
1780001864025784600,15.06478466796875,-0.042808592319488525,0.001880645751953125,-0.0584254264831543
1780001864042101500,15.0811015625,-0.037023723125457764,0.001758575439453125,-0.02912425994873047
1780001864058434300,15.097434326171875,-0.0021609067916870117,-0.007848739624023438,0.0014834403991699219
1780001864074756600,15.113756591796875,0.021358609199523926,-0.0029211044311523438,0.012546539306640625
1780001864091095600,15.130095458984375,0.04542309045791626,-0.0026178359985351562,0.028242111206054688
1780001864107432400,15.146432373046874,0.04990875720977783,-0.007015228271484375,0.03874015808105469
1780001864123784000,15.162783935546875,0.03725308179855347,-0.0064792633056640625,0.04837512969970703
1780001864140095200,15.17909521484375,0.01616138219833374,-0.03456592559814453,0.06130361557006836
1780001864156428300,15.19542822265625,-0.01767909526824951,-0.03397178649902344,0.0647287368774414
1780001864172777500,15.211777587890625,-0.034491777420043945,-0.038161277770996094,0.03892660140991211
1780001864189101800,15.228101806640625,-0.04348331689834595,-0.03270435333251953,-0.0016188621520996094
1780001864205448400,15.244448486328125,-0.01273435354232788,-0.0080108642578125,-0.018175125122070312
1780001864221749800,15.260749755859376,0.0023359060287475586,-0.00711822509765625,-0.03434467315673828
1780001864238105900,15.27710595703125,0.026581943035125732,0.008210182189941406,-0.03489398956298828
1780001864254439000,15.29343896484375,0.0066149234771728516,-0.0001983642578125,-0.026810169219970703
1780001864270769000,15.309768798828125,0.012370705604553223,-0.0037994384765625,-0.008296012878417969
1780001864287083500,15.32608349609375,0.042614758014678955,0.011809349060058594,0.0011758804321289062
1780001864303425000,15.342425048828124,0.0573657751083374,0.05611896514892578,0.009949207305908203
1780001864319754000,15.35875390625,0.08998292684555054,0.06189918518066406,-0.005033016204833984
1780001864336092400,15.375092529296875,0.13451296091079712,0.0863037109375,-0.013938426971435547
1780001864352419000,15.391419189453124,0.14789658784866333,0.08165264129638672,-0.023139476776123047
1780001864368748000,15.407748046875,0.11020201444625854,0.057419776916503906,-0.008611202239990234
1780001864385086200,15.424086181640625,0.07971704006195068,0.037774085998535156,-0.012711048126220703
1780001864401414100,15.4404140625,0.02694249153137207,0.013258934020996094,-0.0033206939697265625
1780001864417748200,15.456748291015625,-0.0038643479347229004,0.012570381164550781,0.0017514228820800781
1780001864434079200,15.473079345703125,0.0035285353660583496,0.011890411376953125,-0.017153263092041016
1780001864450417000,15.4894169921875,-0.0015573501586914062,0.006520271301269531,-0.026366710662841797
1780001864466757400,15.50575732421875,-0.003584563732147217,0.02039051055908203,-0.04481315612792969
1780001864483090700,15.522090576171875,-0.0017970800399780273,0.03009319305419922,-0.07228899002075195
1780001864499423500,15.538423583984375,-0.026655852794647217,0.03902149200439453,-0.07976102828979492
1780001864515734800,15.55473486328125,-0.01157999038696289,0.028693199157714844,-0.07712030410766602
1780001864532071400,15.571071533203124,0.017636418342590332,0.03671073913574219,-0.050058841705322266
1780001864548403200,15.5874033203125,0.013731658458709717,0.01646900177001953,-0.013164997100830078
1780001864564723500,15.603723388671876,-0.0013049840927124023,0.02002429962158203,0.018945693969726562
1780001864581074000,15.620073974609374,-0.019738376140594482,0.02354907989501953,0.0649881362915039
1780001864597403600,15.636403564453126,0.0030730366706848145,0.01755046844482422,0.06743049621582031
1780001864613735400,15.6527353515625,-0.0036093592643737793,-0.01703929901123047,0.04543256759643555
1780001864630068200,15.669068115234374,-0.015813708305358887,-0.01808452606201172,0.023311138153076172
1780001864646400500,15.685400390625,-0.0331912636756897,-0.01906299591064453,0.024305343627929688
1780001864662731500,15.7017314453125,-0.04518157243728638,-0.033629417419433594,0.03041696548461914
1780001864679070200,15.7180703125,-0.06101787090301514,-0.04875755310058594,0.03182268142700195
1780001864695411500,15.734411376953124,-0.07140660285949707,-0.06376266479492188,0.0330815315246582
1780001864711726300,15.750726318359375,-0.08138251304626465,-0.04994964599609375,0.053331851959228516
1780001864728074500,15.767074462890625,-0.07160305976867676,-0.05496025085449219,0.06342697143554688
1780001864744407800,15.78340771484375,-0.060995638370513916,-0.0601806640625,0.05368471145629883
1780001864760740600,15.79974072265625,-0.0403175950050354,-0.04535102844238281,0.03857851028442383
1780001864777045500,15.81604541015625,-0.023948073387145996,-0.01598644256591797,0.013596057891845703
1780001864793391600,15.8323916015625,-0.04978382587432861,-0.01053619384765625,0.002986431121826172
1780001864809711400,15.84871142578125,-0.08609914779663086,-0.009537696838378906,-0.007109642028808594
1780001864826055700,15.8650556640625,-0.04218047857284546,0.023458480834960938,0.01686716079711914
1780001864842388200,15.88138818359375,0.017300188541412354,0.03302764892578125,0.03218221664428711
1780001864858720300,15.89772021484375,0.039872169494628906,0.013879776000976562,0.02321767807006836
1780001864875052500,15.914052490234376,0.05283021926879883,0.0233306884765625,0.014493465423583984
1780001864891371800,15.930371826171875,0.050085246562957764,0.03754234313964844,0.0103759765625
1780001864907711200,15.946711181640625,0.006783485412597656,0.013963699340820312,0.010875225067138672
1780001864924052500,15.963052490234375,-0.023868203163146973,0.00409698486328125,0.005793571472167969
1780001864940382000,15.9793818359375,-0.05089658498764038,-0.001056671142578125,0.010844707489013672
1780001864956731000,15.99573095703125,-0.03979778289794922,-0.001556396484375,0.006572246551513672
1780001864973054200,16.01205419921875,-0.03634995222091675,-0.0069122314453125,-0.006887912750244141
1780001864989412400,16.028412353515623,-0.04127764701843262,0.006930351257324219,-0.00101470947265625
1780001865005720800,16.044720947265624,-0.026061177253723145,0.00118255615234375,0.019169330596923828
1780001865022061000,16.06106103515625,-0.028464078903198242,-0.013469696044921875,0.03458356857299805
1780001865038363600,16.07736376953125,-0.016312479972839355,-0.013772964477539062,0.0452570915222168
1780001865054705700,16.09370556640625,-0.028572559356689453,-0.02367115020751953,0.031963348388671875
1780001865071047000,16.110046875,-0.008627176284790039,-0.014475822448730469,0.023345947265625
1780001865087382800,16.1263828125,-0.009013652801513672,-0.014880180358886719,0.03372335433959961
1780001865103716000,16.142716064453126,-0.010018229484558105,-0.024865150451660156,0.03444337844848633
1780001865120056000,16.15905615234375,-0.011278867721557617,-0.025196075439453125,0.04929637908935547
1780001865136371000,16.175370849609376,-0.021934211254119873,-0.030160903930664062,0.04471158981323242
1780001865152716300,16.19171630859375,-0.00814509391784668,-0.01579761505126953,0.026055335998535156
1780001865169044000,16.2080439453125,-0.007975518703460693,-0.015679359436035156,0.01565837860107422
1780001865185379000,16.224379150390625,0.016774237155914307,0.0036373138427734375,-0.00312042236328125
1780001865201694500,16.240694580078124,0.02804654836654663,0.008561134338378906,-0.007909774780273438
1780001865218049800,16.2570498046875,0.034809112548828125,0.027716636657714844,-0.01716756820678711
1780001865234375700,16.273375732421876,0.046478986740112305,0.013192176818847656,-0.021336078643798828
1780001865250692000,16.289692138671874,0.023712575435638428,0.012933731079101562,-0.011009693145751953
1780001865267025200,16.306025146484377,0.02801114320755005,0.00778961181640625,0.004142284393310547
1780001865283358500,16.3223583984375,0.03214836120605469,0.021810531616210938,0.004760265350341797
1780001865299693600,16.338693603515626,0.04532235860824585,0.011977195739746094,0.005118370056152344
1780001865316024800,16.35502490234375,0.044160544872283936,0.01655864715576172,0.005358695983886719
1780001865332357400,16.371357421875,0.03825688362121582,0.02605152130126953,0.005338191986083984
1780001865348690000,16.38768994140625,0.022849202156066895,0.03558635711669922,-0.0043354034423828125
1780001865365022000,16.40402197265625,0.016554415225982666,0.025819778442382812,-0.00417327880859375
1780001865381354500,16.4203544921875,-0.009005188941955566,0.02593708038330078,-0.01309347152709961
1780001865397686800,16.436686767578124,-0.01656121015548706,0.029962539672851562,-0.016719818115234375
1780001865414018800,16.453018798828126,-0.019295930862426758,0.00031185150146484375,-0.0008211135864257812
1780001865430348500,16.4693486328125,-0.03161662817001343,-0.015164375305175781,0.0005121231079101562
1780001865446703000,16.485703125,-0.02499234676361084,-0.011379241943359375,0.02678060531616211
1780001865463030500,16.502030517578124,-0.02694535255432129,-0.03188514709472656,0.046624183654785156
1780001865479362000,16.518362060546874,-0.01887732744216919,-0.04676246643066406,0.05226850509643555
1780001865495692800,16.53469287109375,-0.005729615688323975,-0.042143821716308594,0.04822731018066406
1780001865512027000,16.55102685546875,-0.02580249309539795,-0.013340950012207031,0.033513545989990234
1780001865528359400,16.567359375,-0.045699894428253174,-0.017340660095214844,-0.001224517822265625
1780001865544691000,16.58369091796875,-0.03299945592880249,0.006683349609375,-0.02505350112915039
1780001865561006800,16.6000068359375,-0.005438685417175293,0.016341209411621094,-0.044591426849365234
1780001865577356000,16.61635595703125,0.023234248161315918,0.011594772338867188,-0.04946422576904297
1780001865593688800,16.632688720703126,0.023807883262634277,0.0067768096923828125,-0.03972482681274414
1780001865610020900,16.649020751953124,0.019198179244995117,0.01624011993408203,-0.020213603973388672
1780001865626336300,16.665336181640626,0.019526779651641846,0.01073455810546875,0.008818626403808594
1780001865642685000,16.681684814453124,0.03400301933288574,0.005923271179199219,0.00411224365234375
1780001865659017200,16.698017333984374,0.019079506397247314,-0.0036258697509765625,0.008745670318603516
1780001865675349500,16.714349609375,0.022827863693237305,0.015463829040527344,0.008679389953613281
1780001865691657200,16.7306572265625,0.0361708402633667,0.010626792907714844,0.008610725402832031
1780001865708014300,16.747014404296873,0.03536802530288696,0.010489463806152344,0.013545513153076172
1780001865724346400,16.763346435546875,0.015615582466125488,-0.004075050354003906,0.009100914001464844
1780001865740676900,16.7796767578125,0.014574170112609863,-0.023433685302734375,0.01895284652709961
1780001865756994600,16.79599462890625,0.013308882713317871,-0.009168624877929688,0.028493881225585938
1780001865773330000,16.812329833984375,0.031459152698516846,-0.013813972473144531,0.008869647979736328
1780001865789661700,16.82866162109375,0.030651092529296875,0.005606651306152344,-0.0014462471008300781
1780001865805993700,16.84499365234375,0.03558468818664551,0.010675430297851562,-0.026061534881591797
1780001865822313700,16.861313720703127,0.025233983993530273,0.020364761352539062,-0.05038166046142578
1780001865838659000,16.8776591796875,-0.009302258491516113,0.02570629119873047,-0.04569530487060547
1780001865854990800,16.893990966796874,-0.019786834716796875,0.025608062744140625,-0.036077022552490234
1780001865871310800,16.910310791015625,-0.0105476975440979,0.0014715194702148438,-0.016543865203857422
1780001865887655400,16.926655517578126,0.022761762142181396,0.0060634613037109375,-0.006480693817138672
1780001865903988000,16.942988037109377,0.04796642065048218,0.01980304718017578,0.003958225250244141
1780001865920320300,16.9593203125,0.06383311748504639,0.015089035034179688,-0.010279178619384766
1780001865936656000,16.97565576171875,0.05054503679275513,0.010413169860839844,-0.0007548332214355469
1780001865952982500,16.991982421875,0.03616994619369507,0.0057201385498046875,-0.0015540122985839844
1780001865969330700,17.00833056640625,0.0015063285827636719,0.015383720397949219,0.0028228759765625
1780001865985663500,17.02466357421875,0.008220016956329346,0.015291213989257812,0.007294654846191406
1780001866001993700,17.04099365234375,0.018773972988128662,0.01982879638671875,-0.01200103759765625
1780001866018328300,17.057328369140624,0.010489344596862793,0.0100555419921875,-0.007416248321533203
1780001866034643700,17.073643798828126,0.003484070301055908,0.005672454833984375,-0.01218414306640625
1780001866050976300,17.089976318359376,-0.0063631534576416016,0.000743865966796875,-0.016821861267089844
1780001866067303700,17.1063037109375,-0.02143758535385132,0.0048007965087890625,-0.002208709716796875
1780001866083656200,17.12265625,-0.026279985904693604,-0.009687423706054688,0.007636547088623047
1780001866099989000,17.138989013671875,-0.007411658763885498,-0.009888648986816406,0.01759052276611328
1780001866116322000,17.155322021484373,0.001839280128479004,-0.019661903381347656,0.03232097625732422
1780001866132651800,17.17165185546875,-0.0032796859741210938,-0.01973438262939453,0.022846698760986328
1780001866148973600,17.1879736328125,0.0006428956985473633,0.0043506622314453125,0.031925201416015625
1780001866165318700,17.204318603515624,-0.0005540251731872559,-0.01937580108642578,0.0025548934936523438
1780001866181647400,17.2206474609375,-0.0019093751907348633,-0.013785362243652344,-0.007707118988037109
1780001866197980400,17.23698046875,-0.007901906967163086,-0.013599395751953125,-0.008333683013916016
1780001866214316000,17.25331591796875,0.001507401466369629,-0.009105682373046875,0.0053348541259765625
1780001866230631700,17.269631591796873,0.012438178062438965,0.0008831024169921875,-0.0048847198486328125
1780001866246955000,17.285955078125,0.05307567119598389,0.010937690734863281,-0.014467716217041016
1780001866263300600,17.302300537109375,0.06988668441772461,0.02570819854736328,-0.03404855728149414
1780001866279633200,17.318633056640625,0.0809069275856018,0.021292686462402344,-0.04415607452392578
1780001866295961600,17.334961669921874,0.062084197998046875,0.016794204711914062,-0.03035593032836914
1780001866312295700,17.351295654296877,0.04732555150985718,-0.0020160675048828125,-0.012006759643554688
1780001866328629800,17.367629638671875,0.027481913566589355,0.0031375885009765625,-0.008141040802001953
1780001866344957400,17.38395751953125,0.03140801191329956,-0.006131172180175781,-0.013737201690673828
1780001866361295400,17.40029541015625,0.03528326749801636,-0.00034999847412109375,-0.02433300018310547
1780001866377624800,17.416624755859374,0.05369842052459717,0.00907135009765625,-0.030215740203857422
1780001866393957600,17.43295751953125,0.06350821256637573,0.02871417999267578,-0.03603553771972656
1780001866410289400,17.449289306640626,0.050416648387908936,0.02447986602783203,-0.027423381805419922
1780001866426617600,17.46561767578125,0.013912618160247803,0.025008201599121094,-0.014481067657470703
1780001866442978800,17.481978759765624,0.030171632766723633,0.03031635284423828,-0.014663219451904297
1780001866459301600,17.498301513671876,0.02223867177963257,0.035559654235839844,-0.02492380142211914
1780001866475633000,17.5146328125,0.028175055980682373,0.03589153289794922,-0.03978776931762695
1780001866491948500,17.530948486328125,0.04774564504623413,0.03124713897705078,-0.0352320671081543
1780001866508297200,17.547297119140627,0.02849024534225464,-0.0070133209228515625,-0.016759872436523438
1780001866524629000,17.56362890625,-0.01979011297225952,-0.002216339111328125,0.021425724029541016
1780001866540962000,17.579962158203124,-0.0496097207069397,-0.021274566650390625,0.03479576110839844
1780001866557294300,17.59629443359375,-0.0706777572631836,-0.0015401840209960938,0.024889469146728516
1780001866573616400,17.612616455078125,-0.053682923316955566,0.0025768280029296875,0.039605140686035156
1780001866589959200,17.628959228515626,-0.01152890920639038,0.011910438537597656,0.03516340255737305
1780001866606292500,17.64529248046875,-0.015176653861999512,-0.012339591979980469,0.03607034683227539
1780001866622608600,17.661608642578123,-0.05632615089416504,-0.031887054443359375,0.0462651252746582
1780001866638953500,17.677953369140624,-0.07002639770507812,-0.027486801147460938,0.08550500869750977
1780001866655287800,17.694287841796875,-0.08095192909240723,-0.05162525177001953,0.11932182312011719
1780001866671633400,17.71063330078125,-0.08286106586456299,-0.05655193328857422,0.13363432884216309
1780001866687952100,17.7269521484375,-0.08087390661239624,-0.046966552734375,0.11873340606689453
1780001866704281900,17.74328173828125,-0.06890839338302612,-0.051586151123046875,0.09389686584472656
1780001866720600800,17.759600830078124,-0.05145454406738281,-0.041710853576660156,0.07916879653930664
1780001866736932000,17.77593212890625,-0.05162060260772705,-0.021986007690429688,0.039594173431396484
1780001866753264600,17.7922646484375,-0.0414242148399353,-0.016534805297851562,0.03348588943481445
1780001866769602000,17.80860205078125,-0.04063540697097778,-0.011118888854980469,0.008339881896972656
1780001866785932000,17.82493212890625,-0.020877718925476074,-0.00025844573974609375,-0.02175426483154297
1780001866802264300,17.841264404296876,0.032154977321624756,0.014186859130859375,-0.04649925231933594
1780001866818576000,17.857575927734374,0.03754645586013794,0.019720077514648438,-0.0672602653503418
1780001866834929700,17.8739296875,0.041443824768066406,0.035408973693847656,-0.0784749984741211
1780001866851252200,17.890252197265625,0.04107022285461426,0.04568004608154297,-0.08973932266235352
1780001866867593700,17.90659375,0.06874150037765503,0.046296119689941406,-0.11041545867919922
1780001866883923000,17.9229228515625,0.0636565089225769,0.056285858154296875,-0.12094926834106445
1780001866900257500,17.939257568359373,0.06894093751907349,0.06131267547607422,-0.12137603759765625
1780001866916590600,17.955590576171875,0.07963430881500244,0.04218769073486328,-0.11163902282714844
1780001866932940500,17.9719404296875,0.07157623767852783,0.03185272216796875,-0.09185457229614258
1780001866949252600,17.988252685546875,0.05809581279754639,0.007663726806640625,-0.052735328674316406
1780001866965599200,18.00459912109375,0.06398069858551025,0.012280464172363281,-0.00909566879272461
1780001866981920800,18.020920654296877,0.07877498865127563,0.0075206756591796875,0.038898468017578125
1780001866998266400,18.037266357421874,0.06577050685882568,-0.0018672943115234375,0.038748741149902344
1780001867014594600,18.053594482421875,0.04737579822540283,0.0033006668090820312,0.018912315368652344
1780001867030934300,18.069934326171875,0.057088613510131836,0.0036039352416992188,-0.005756855010986328
1780001867047250200,18.086250244140626,0.06521034240722656,0.018123626708984375,-0.020734786987304688
1780001867063598800,18.102598876953124,0.05417907238006592,0.01809978485107422,-0.020949363708496094
1780001867079907000,18.118906982421876,0.010179758071899414,0.017922401428222656,0.0025959014892578125
1780001867096258300,18.13525830078125,-0.00513911247253418,0.008076667785644531,0.0030145645141601562
1780001867112598000,18.151597900390627,-0.006477534770965576,0.0076885223388671875,0.008392333984375
1780001867128921300,18.16792138671875,0.0065299272537231445,-0.011850357055664062,0.004217624664306641
1780001867145245000,18.184244873046875,0.010908544063568115,-0.007320404052734375,0.0046977996826171875
1780001867161589800,18.20058984375,0.011527180671691895,0.006877899169921875,0.005154609680175781
1780001867177917400,18.21691748046875,0.002839982509613037,0.021081924438476562,0.015217781066894531
1780001867194258200,18.233258056640626,0.012945115566253662,0.01616954803466797,0.006621360778808594
1780001867210586000,18.249586181640623,0.007301747798919678,0.015920639038085938,0.0064029693603515625
1780001867226887200,18.26588720703125,-0.008893609046936035,-0.00353240966796875,0.006740093231201172
1780001867243237000,18.282237060546876,-0.030345261096954346,0.0009288787841796875,0.007011890411376953
1780001867259569200,18.298569091796875,-0.03734230995178223,-0.008953094482421875,0.01684093475341797
1780001867275901000,18.31490087890625,-0.039021074771881104,-0.02362060546875,0.012418746948242188
1780001867292234000,18.33123388671875,-0.025847554206848145,-0.023909568786621094,0.012819290161132812
1780001867308566500,18.34756640625,-0.011329829692840576,-0.00019741058349609375,0.018105030059814453
1780001867324902400,18.36390234375,-0.009839951992034912,-0.00029087066650390625,0.02337169647216797
1780001867341225700,18.380225830078125,0.011065542697906494,-0.0050811767578125,0.02370929718017578
1780001867357566700,18.396566650390625,-0.0069602131843566895,-0.014528274536132812,0.018863677978515625
1780001867373895400,18.4128955078125,-0.03096562623977661,-0.00484466552734375,0.023396015167236328
1780001867390227200,18.429227294921876,-0.022806406021118164,-0.008991241455078125,0.013468742370605469
1780001867406559500,18.4455595703125,-0.005346119403839111,-0.00002288818359375,0.0035958290100097656
1780001867422909700,18.46190966796875,0.012257516384124756,9.5367431640625e-7,0.013428211212158203
1780001867439233500,18.478233642578125,-0.002825617790222168,0.004786491394042969,0.0031194686889648438
1780001867455574500,18.494574462890625,-0.003279387950897217,0.004826545715332031,-0.0018391609191894531
1780001867471900200,18.510900146484374,-0.00836557149887085,-0.008823394775390625,-0.026059627532958984
1780001867488235800,18.52723583984375,0.006212949752807617,-0.018262863159179688,-0.05512666702270508
1780001867504566300,18.543566162109375,0.015729248523712158,-0.00846099853515625,-0.04595470428466797
1780001867520899300,18.5598994140625,0.02715933322906494,0.005579948425292969,-0.012120246887207031
1780001867537232000,18.57623193359375,0.04450953006744385,0.015479087829589844,-0.017055034637451172
1780001867553565000,18.59256494140625,0.061480700969696045,0.034989356994628906,-0.012471675872802734
1780001867569896200,18.608896240234376,0.0692782998085022,0.03540611267089844,-0.022498130798339844
1780001867586229000,18.62522900390625,0.06511008739471436,0.04039764404296875,-0.03240013122558594
1780001867602558500,18.641558349609376,0.04527932405471802,0.02138996124267578,-0.028036117553710938
1780001867618876700,18.657876708984375,0.03910785913467407,0.016709327697753906,-0.01416158676147461
1780001867635225300,18.674225341796873,0.0232236385345459,-0.0022497177124023438,-0.0052738189697265625
1780001867651542000,18.6905419921875,0.016827702522277832,0.021921157836914062,-0.006100177764892578
1780001867667888400,18.706888427734373,0.03865790367126465,0.026897430419921875,-0.03562211990356445
1780001867684221700,18.7232216796875,0.027153491973876953,-0.02025604248046875,-0.055348873138427734
1780001867700550100,18.739550048828125,0.002741694450378418,0.03707122802734375,-0.03608083724975586
1780001867716859400,18.755859375,-0.029834508895874023,0.008451461791992188,-0.041495323181152344
1780001867733191000,18.77219091796875,-0.000025391578674316406,0.0029420852661132812,-0.017092227935791016
1780001867749541000,18.788541015625,0.006115555763244629,0.002777099609375,0.021916866302490234
1780001867765870300,18.804870361328124,0.008803486824035645,-0.0020694732666015625,0.056649208068847656
1780001867782202400,18.821202392578126,0.04045093059539795,0.002613067626953125,0.05741262435913086
1780001867798534700,18.83753466796875,0.06208503246307373,0.0026998519897460938,0.04811716079711914
1780001867814856200,18.853856201171876,0.05350017547607422,0.012365341186523438,0.014595508575439453
1780001867831210800,18.870210693359375,0.029028773307800293,-0.0017547607421875,0.018656253814697266
1780001867847531800,18.88653173828125,-0.007387340068817139,-0.020697593688964844,0.017084598541259766
1780001867863863800,18.90286376953125,-0.0392569899559021,-0.03962421417236328,0.025603771209716797
1780001867880196000,18.919196044921875,-0.055541157722473145,-0.01019287109375,0.015411376953125
1780001867896528600,18.935528564453126,-0.022289514541625977,0.009122848510742188,-0.00894021987915039
1780001867912867000,18.9518671875,0.017395436763763428,0.018837928771972656,-0.027532100677490234
1780001867929204700,18.968204833984377,0.03921079635620117,0.03264427185058594,-0.031925201416015625
1780001867945522200,18.984522216796876,0.05176067352294922,0.03740692138671875,-0.031325340270996094
1780001867961871000,19.00087109375,0.044774413108825684,0.013285636901855469,-0.025645732879638672
1780001867978186200,19.017186279296876,0.022877514362335205,-0.010805130004882812,-0.015943050384521484
1780001867994536400,19.033536376953126,0.0002549290657043457,-0.010962486267089844,0.027710437774658203
1780001868010876000,19.0498759765625,-0.005005538463592529,0.00809478759765625,0.04227018356323242
1780001868027186200,19.066186279296875,0.012754738330841064,0.022472381591796875,0.037786006927490234
1780001868043523600,19.082523681640627,0.009967386722564697,0.017576217651367188,0.03751564025878906
1780001868059865300,19.098865234375,0.01670515537261963,0.012540817260742188,0.018389225006103516
1780001868076199200,19.11519921875,0.0008741617202758789,-0.006786346435546875,0.027493000030517578
1780001868092514600,19.1315146484375,-0.017577826976776123,-0.01643848419189453,0.02768230438232422
1780001868108857600,19.147857666015625,-0.02163904905319214,-0.006291389465332031,0.003936290740966797
1780001868125194200,19.1641943359375,-0.02165597677230835,-0.006339073181152344,-0.019889354705810547
1780001868141525800,19.18052587890625,-0.02270030975341797,-0.006457328796386719,-0.019825458526611328
1780001868157858800,19.19685888671875,-0.04834115505218506,-0.0018625259399414062,-0.01973438262939453
1780001868174187000,19.21318701171875,-0.0503309965133667,-0.002017974853515625,-0.010195255279541016
1780001868190528000,19.229528076171874,-0.042143166065216064,-0.007561683654785156,0.0042552947998046875
1780001868206839000,19.245839111328124,-0.022452056407928467,-0.011844635009765625,0.0045642852783203125
1780001868223174700,19.262174560546875,0.004133105278015137,-0.0124359130859375,0.014613628387451172
1780001868239505200,19.278505126953124,0.02286607027053833,-0.007534027099609375,0.006199836730957031
1780001868255839500,19.294839599609375,0.04710745811462402,0.0022144317626953125,-0.007603645324707031
1780001868272161800,19.311161865234375,0.055002033710479736,0.016715049743652344,0.011903762817382812
1780001868288505000,19.327505126953124,0.037272751331329346,-0.0022754669189453125,0.026190757751464844
1780001868304822000,19.343822021484375,0.02640390396118164,-0.006913185119628906,0.034607887268066406
1780001868321168400,19.36016845703125,0.01462012529373169,-0.016160964965820312,0.02860403060913086
1780001868337497600,19.37649755859375,0.021546661853790283,-0.0014028549194335938,0.0033206939697265625
1780001868353836000,19.3928359375,0.019603610038757324,0.022848129272460938,-0.01628255844116211
1780001868370164000,19.4091640625,0.018958687782287598,0.023550033569335938,-0.05012369155883789
1780001868386497500,19.42549755859375,0.00040143728256225586,0.0138702392578125,-0.04080963134765625
1780001868402834000,19.441833984375,-0.012722909450531006,-0.010823249816894531,-0.011502265930175781
1780001868419174400,19.45817431640625,0.0033993124961853027,-0.025279998779296875,0.008175373077392578
1780001868435506700,19.474506591796874,0.010655999183654785,-0.015634536743164062,0.03239727020263672
1780001868451840500,19.490840576171873,0.032094717025756836,-0.0009613037109375,0.04241228103637695
1780001868468173000,19.507173095703124,0.03952157497406006,0.023281097412109375,0.018283367156982422
1780001868484505000,19.523505126953125,0.05070781707763672,0.03782463073730469,0.003815174102783203
1780001868500834600,19.53983447265625,0.03747361898422241,0.033064842224121094,-0.010504722595214844
1780001868517176600,19.556176513671875,0.0320780873298645,0.02327251434326172,-0.010138988494873047
1780001868533502000,19.572501953125,0.03546273708343506,0.0038499832153320312,-0.000209808349609375
1780001868549845800,19.588845703125,0.024083495140075684,-0.0012683868408203125,0.004369258880615234
1780001868566164700,19.605164794921876,0.007555484771728516,0.0032644271850585938,0.0045223236083984375
1780001868582498300,19.621498291015627,0.01509082317352295,-0.0018033981323242188,0.004762172698974609
1780001868598814700,19.637814697265625,-0.010635435581207275,0.0027484893798828125,-0.009415149688720703
1780001868615129000,19.654129150390624,-0.016578257083892822,-0.00704193115234375,-0.018726348876953125
1780001868631479000,19.67047900390625,-0.01628589630126953,-0.001800537109375,-0.04718780517578125
1780001868647828200,19.686828125,-0.006293654441833496,0.011887550354003906,-0.03249168395996094
1780001868664160000,19.703159912109374,0.0053008198738098145,0.007548332214355469,-0.027008533477783203
1780001868680485000,19.719485107421875,0.02198314666748047,0.006717681884765625,-0.026076793670654297
1780001868696813800,19.735813720703124,0.009725391864776611,-0.0030975341796875,-0.006021976470947266
1780001868713143000,19.75214306640625,0.016204416751861572,-0.012862205505371094,0.023420333862304688
1780001868729475800,19.768475830078124,-0.006350874900817871,-0.01762676239013672,0.042763710021972656
