time,seconds_elapsed,z,y,x
1780001849065331700,0.104331787109375,-2.546391725540161,-2.4616341590881348,3.023019313812256
1780001849081664000,0.1206640625,-2.107637882232666,-3.271641492843628,2.3179280757904053
1780001849098004200,0.137004150390625,-1.2693779468536377,-2.875495433807373,1.5135713815689087
1780001849114337500,0.153337646484375,-0.5532912015914917,-2.5830435752868652,0.7386888265609741
1780001849130669600,0.169669677734375,-0.14996741712093353,-2.5476136207580566,0.056810468435287476
1780001849147015000,0.186014892578125,-0.2952006161212921,-2.0787744522094727,-0.3878994286060333
1780001849163352000,0.20235205078125,-0.9485210180282593,-1.0586295127868652,-0.8240572214126587
1780001849179680800,0.2186806640625,0.5754350423812866,-0.15790866315364838,-1.3445143699645996
1780001849196012500,0.235012451171875,1.8898643255233765,0.07238753139972687,-1.4760031700134277
1780001849212339200,0.251339111328125,1.7623462677001953,-1.2179125547409058,-1.4019356966018677
1780001849228677600,0.267677734375,1.6213890314102173,-2.384207010269165,-0.7538077235221863
1780001849245009400,0.284009521484375,1.4966198205947876,-3.88617205619812,0.15561792254447937
1780001849261329200,0.3003291015625,1.5155566930770874,-4.847063064575195,0.8119926452636719
1780001849277676800,0.3166767578125,1.9880609512329102,-5.0930891036987305,1.1131491661071777
1780001849294003000,0.3330029296875,2.7591257095336914,-5.052924633026123,1.3984233140945435
1780001849310339600,0.349339599609375,3.494760036468506,-4.758792877197266,1.7692184448242188
1780001849326669800,0.365669921875,3.9964332580566406,-4.008192539215088,1.7568484544754028
1780001849343004000,0.38200390625,4.285830497741699,-2.9318478107452393,1.2311989068984985
1780001849359321600,0.398321533203125,4.689001560211182,-2.189035654067993,0.6453791260719299
1780001849375668700,0.414668701171875,5.193270683288574,-2.2044599056243896,0.437226802110672
1780001849392001500,0.43100146484375,5.744576930999756,-2.634661912918091,0.7096726894378662
1780001849408333800,0.447333740234375,6.3410868644714355,-3.031724214553833,1.2483031749725342
1780001849424664000,0.4636640625,6.747159481048584,-3.154508113861084,1.722181797027588
1780001849440998100,0.479998046875,6.682407855987549,-2.7125470638275146,1.8813122510910034
1780001849457331200,0.496331298828125,6.36491060256958,-2.383749008178711,1.7562376260757446
1780001849473632000,0.512632080078125,5.886144638061523,-1.976149082183838,1.510364294052124
1780001849489993200,0.5289931640625,5.4195966720581055,-1.1662944555282593,1.0163270235061646
1780001849506327800,0.545327880859375,5.211291313171387,-0.4254676401615143,0.35353827476501465
1780001849522656300,0.56165625,5.2470269203186035,-0.12828169763088226,-0.11743884533643723
1780001849538979300,0.577979248046875,5.273752212524414,0.2971859276294708,-0.2018909603357315
1780001849555309000,0.59430908203125,5.1043901443481445,1.1943942308425903,-0.01878410577774048
1780001849571632600,0.610632568359375,4.4541239738464355,1.704161286354065,0.24434609711170197
1780001849587975400,0.626975341796875,3.2817208766937256,1.4172073602676392,0.5849034786224365
1780001849604308200,0.64330810546875,2.1343631744384766,0.8759807348251343,1.070694088935852
1780001849620639000,0.659638916015625,1.4605787992477417,0.5988006591796875,1.4129313230514526
1780001849636961000,0.6759609375,1.5683965682983398,0.24388794600963593,1.494939923286438
1780001849653305000,0.69230517578125,1.9312504529953003,-0.21991148591041565,1.5546520948410034
1780001849669638000,0.708637939453125,1.8437440395355225,-0.5236642360687256,1.5219707489013672
1780001849685982500,0.724982421875,1.2379183769226074,-0.6779077053070068,0.9647089242935181
1780001849702316000,0.74131591796875,0.7715228199958801,-0.6644686460494995,-1.9283488988876343
1780001849718647800,0.757647705078125,0.9677632451057434,-0.5482515692710876,-3.6590828895568848
1780001849734977300,0.773977294921875,0.902247965335846,-1.165378212928772,-4.455803871154785
1780001849751300000,0.790300048828125,0.3286454975605011,-1.3976596593856812,-4.519944667816162
1780001849767645700,0.806645751953125,-0.32009339332580566,-0.64217209815979,-3.645338296890259
1780001849783961300,0.82296142578125,-0.4943426847457886,-0.5968153476715088,-2.0555615425109863
1780001849800310300,0.839310302734375,-0.5510004758834839,-0.9520334601402283,-1.0836749076843262
1780001849816648000,0.85564794921875,-0.6742424964904785,-0.5059491395950317,-0.5528330206871033
1780001849832974000,0.87197412109375,-0.3623957931995392,-0.8385652899742126,-0.3715587854385376
1780001849849280500,0.888280517578125,0.09865473955869675,-0.969443142414093,-0.14477506279945374
1780001849865613600,0.904613525390625,0.4729624092578888,-0.8051204085350037,-0.2617557644844055
1780001849881977600,0.9209775390625,-0.21624629199504852,1.1459832191467285,-0.6183483600616455
1780001849898300400,0.937300537109375,-0.7153232097625732,0.098502017557621,-1.2819007635116577
1780001849914625800,0.953625732421875,-1.0059423446655273,-0.5094616413116455,-1.1823296546936035
1780001849930971400,0.969971435546875,-1.169501543045044,-1.3026701211929321,-0.38469240069389343
1780001849947274500,0.9862744140625,-0.8538368940353394,-1.6427693367004395,0.585667073726654
1780001849963636000,1.002635986328125,-0.08903361111879349,-1.1925616264343262,1.1566733121871948
1780001849979949600,1.018949462890625,0.6033821702003479,-0.3859141170978546,0.9161451458930969
1780001849996282000,1.0352822265625,0.6056728959083557,0.14126259088516235,0.5777258276939392
1780001850012632600,1.051632568359375,0.10949759185314178,0.0685696229338646,0.6197227835655212
1780001850028933000,1.06793310546875,-0.4625777006149292,-0.23289237916469574,0.88361656665802
1780001850045282000,1.084281982421875,-0.7348709106445312,-0.2561052441596985,0.9631817936897278
1780001850061613000,1.100613037109375,-0.40454551577568054,0.005955935921519995,0.7742717266082764
1780001850077946600,1.116946533203125,0.3257438838481903,-0.06948592513799667,0.5711590051651001
1780001850094266000,1.13326611328125,0.31673362851142883,-0.13347405195236206,0.5957463383674622
1780001850110611700,1.14961181640625,-0.50335294008255,-0.36850446462631226,0.6966918110847473
1780001850126942200,1.165942138671875,-1.3477214574813843,-0.4027129113674164,0.570853590965271
1780001850143277600,1.182277587890625,-1.7176003456115723,-0.22846360504627228,0.22128593921661377
1780001850159625700,1.198625732421875,-1.4989105463027954,0.12889257073402405,-0.18967366218566895
1780001850175948500,1.214948486328125,-0.8622363209724426,0.551305890083313,-0.6276640295982361
1780001850192279800,1.23127978515625,-0.5707008838653564,0.41233405470848083,0.02275473065674305
1780001850208614700,1.24761474609375,-0.6088799238204956,0.37980547547340393,1.2793045043945312
1780001850224930300,1.263930419921875,-0.45326200127601624,0.6010913848876953,2.33671236038208
1780001850241280300,1.2802802734375,0.04749477282166481,0.5364924073219299,2.1288654804229736
1780001850257603000,1.29660302734375,0.4940372705459595,-0.2015855312347412,0.4265366494655609
1780001850273949700,1.31294970703125,0.2041817009449005,-0.8107708692550659,-0.5587889552116394
1780001850290265300,1.329265380859375,-0.2695443034172058,-1.4448490142822266,-0.6053674817085266
1780001850306614000,1.345614013671875,-0.2330450862646103,-1.410029649734497,-0.23457226157188416
1780001850322967600,1.361967529296875,0.07635815441608429,-0.6572909951210022,0.22586742043495178
1780001850339278600,1.378278564453125,0.5871942043304443,0.005345070734620094,0.5641340613365173
1780001850355611100,1.394611083984375,1.1081095933914185,-0.1963931769132614,0.5994115471839905
1780001850371927000,1.410927001953125,1.9611828327178955,-1.3009902238845825,0.22311852872371674
1780001850388274000,1.42727392578125,1.5387696027755737,-2.2536346912384033,-0.0607810914516449
1780001850404590600,1.443590576171875,0.9630290865898132,-2.4950790405273438,-0.0682641938328743
1780001850420940800,1.45994091796875,1.17240309715271,-2.208430528640747,-0.05665775015950203
1780001850437281000,1.476281005859375,1.216843605041504,-1.468672752380371,-0.3150537610054016
1780001850453602800,1.492602783203125,1.4958562850952148,-1.4147639274597168,-0.39187005162239075
1780001850469956900,1.508956787109375,0.9205739498138428,-1.6549866199493408,-0.09728029370307922
1780001850486271700,1.525271728515625,0.07971791177988052,-1.562135100364685,0.08139779418706894
1780001850502582800,1.541582763671875,0.12079860270023346,-1.531133770942688,0.07681630551815033
1780001850518927000,1.557927001953125,0.7930558323860168,-1.2589932680130005,-0.060475658625364304
1780001850535257600,1.574257568359375,1.7290540933609009,-1.23394775390625,-0.5742133259773254
1780001850551582200,1.590582275390625,3.0909781455993652,-1.6711746454238892,-1.377501130104065
1780001850567917800,1.606917724609375,4.813618183135986,-1.3396275043487549,-1.6187928915023804
1780001850584253700,1.623253662109375,5.341405868530273,0.19135354459285736,-0.39095374941825867
1780001850600567800,1.63956787109375,5.287191390991211,-0.11682797968387604,0.8388707041740417
1780001850616915200,1.655915283203125,5.326439380645752,-0.7870998978614807,1.41690194606781
1780001850633247000,1.6722470703125,5.761070251464844,-1.0682506561279297,1.584126353263855
1780001850649596700,1.6885966796875,5.365534782409668,-1.2244794368743896,1.4676038026809692
1780001850665934300,1.704934326171875,4.893335819244385,-1.7427985668182373,1.060920238494873
1780001850682238500,1.721238525390625,4.54422664642334,-2.1815524101257324,0.7822129726409912
1780001850698567000,1.73756689453125,4.325842380523682,-2.459496259689331,0.6397286057472229
1780001850714900000,1.75389990234375,4.089437484741211,-2.6569583415985107,0.5991060733795166
1780001850731231500,1.7702314453125,3.7149770259857178,-2.4277312755584717,0.4329507350921631
1780001850747572000,1.786572021484375,3.294090747833252,0.4080579876899719,-0.5167919993400574
1780001850763910000,1.802909912109375,2.3038783073425293,-0.09285151958465576,-0.7144069075584412
1780001850780239600,1.819239501953125,-0.8148942589759827,-1.1815661191940308,-1.6471980810165405
1780001850796571600,1.835571533203125,-3.4985780715942383,-0.02535090781748295,-2.1649065017700195
1780001850812904700,1.85190478515625,-1.4619532823562622,2.1536054611206055,-0.8856018781661987
1780001850829231600,1.868231689453125,0.7434229850769043,-1.3183999061584473,1.2260065078735352
1780001850845572400,1.884572265625,1.041067123413086,-5.433341026306152,2.6087000370025635
1780001850861898000,1.90089794921875,0.5254968404769897,-6.714783668518066,2.7533223628997803
1780001850878224600,1.917224609375,-0.28955012559890747,-5.689445972442627,0.6165157556533813
1780001850894576400,1.933576416015625,-0.780380368232727,-1.6627751588821411,-1.608102798461914
1780001850910894600,1.94989453125,-0.5015203952789307,1.4118622541427612,-1.8290832042694092
1780001850927227400,1.966227294921875,0.06352998316287994,2.78646183013916,-1.120937705039978
1780001850943566000,1.982566162109375,0.4827362596988678,2.559525489807129,-0.20051652193069458
1780001850959894300,1.998894287109375,0.40072759985923767,2.0890064239501953,0.2782491147518158
1780001850976214500,2.015214599609375,0.021380282938480377,1.815796971321106,0.31322115659713745
1780001850992560400,2.031560302734375,-0.1359175145626068,1.6720908880233765,0.10125091671943665
1780001851008892700,2.047892578125,-0.06123924255371094,1.5015068054199219,-0.16859880089759827
1780001851025224400,2.064224365234375,0.0607810914516449,1.2350168228149414,-0.4109596014022827
1780001851041554700,2.0805546875,0.048258353024721146,0.9860892295837402,-0.6067419052124023
1780001851057892400,2.096892333984375,0.07681630551815033,0.5154175758361816,-0.588874101638794
1780001851074221800,2.113221923828125,0.1371392458677292,-0.08368854224681854,-0.3882048726081848
1780001851090553000,2.129552978515625,0.1310305893421173,-0.41431936621665955,-0.19868391752243042
1780001851106886700,2.14588671875,0.07590000331401825,-0.5277875661849976,-0.06230825558304787
1780001851123219200,2.16221923828125,0.02275473065674305,-0.5447390675544739,-0.08261952549219131
1780001851139552500,2.178552490234375,0.08048149943351746,-0.5635231733322144,-0.00931569468230009
1780001851155879700,2.194879638671875,-0.023976460099220276,-0.6565274000167847,0.22021691501140594
1780001851172218000,2.211218017578125,-0.03573561832308769,-0.7205155491828918,0.4317290186882019
1780001851188550700,2.227550537109375,-0.04535674303770065,-0.7189884185791016,0.5387831330299377
1780001851204878300,2.24387841796875,-0.09666942805051804,-0.6806566119194031,0.5494732856750488
1780001851221202700,2.26020263671875,-0.11652254313230515,-0.6334672570228577,0.5387831330299377
1780001851237562600,2.276562744140625,-0.0933096632361412,-0.6733261942863464,0.5393940210342407
1780001851253869300,2.292869384765625,-0.05421429127454758,-0.8243626356124878,0.5494732856750488
1780001851270213600,2.309213623046875,-0.04444044828414917,-0.8071057200431824,0.5490151643753052
1780001851286545400,2.32554541015625,-0.060475658625364304,-0.4648684561252594,0.44776421785354614
1780001851302875100,2.341875244140625,-0.06658431142568588,0.17058411240577698,0.19013181328773499
1780001851319207400,2.35820751953125,-0.058337632566690445,0.8014551997184753,-0.09789115190505981
1780001851335539500,2.37453955078125,-0.04444044828414917,1.076344609260559,-0.21807889640331268
1780001851351872800,2.390872802734375,-0.04214970022439957,1.049924612045288,-0.206777885556221
1780001851368204500,2.40720458984375,-0.01970040425658226,0.9156870245933533,-0.16111570596694946
1780001851384536600,2.42353662109375,0.038026362657547,0.7663304209709167,-0.12400564551353455
1780001851400869600,2.43986962890625,0.05955936014652252,0.6262896060943604,-0.11698069423437119
1780001851417188600,2.456188720703125,0.06200282275676727,0.5027421116828918,-0.1160643994808197
1780001851433534200,2.4725341796875,0.07177666574716568,0.3778201639652252,-0.09056077152490616
1780001851449866500,2.488866455078125,0.07406741380691528,0.2200642079114914,-0.032681290060281754
1780001851466198800,2.50519873046875,0.06612616032361984,0.02519819140434265,0.029016099870204926
1780001851482528000,2.521528076171875,0.052228979766368866,-0.15271630883216858,0.07498370856046677
1780001851498867000,2.537866943359375,0.03985895588994026,-0.29504790902137756,0.11148291081190109
1780001851515193300,2.554193359375,0.015271631069481373,-0.43020185828208923,0.1495092660188675
1780001851531518200,2.570518310546875,-0.013439035043120384,-0.5644394755363464,0.18936823308467865
1780001851547861000,2.586861083984375,-0.025961773470044136,-0.6717990636825562,0.2171625941991806
1780001851564185000,2.60318505859375,-0.031154127791523933,-0.7226535677909851,0.21212296187877655
1780001851580525600,2.619525634765625,-0.03573561832308769,-0.68325275182724,0.164170041680336
1780001851596860700,2.635860595703125,-0.03680463135242462,-0.5025894045829773,0.07024950534105301
1780001851613190400,2.6521904296875,-0.032681290060281754,-0.17318029701709747,-0.048716504126787186
1780001851629528600,2.668528564453125,-0.039248090237379074,0.20265454053878784,-0.13377949595451355
1780001851645866000,2.684865966796875,-0.05146539583802223,0.47021353244781494,-0.1540907621383667
1780001851662188000,2.70118798828125,-0.05390885844826698,0.6038402915000916,-0.13958270847797394
1780001851678519800,2.717519775390625,-0.05696318298578262,0.6290385127067566,-0.12828169763088226
1780001851694836200,2.733836181640625,-0.05742133408784866,0.5809328556060791,-0.1212567538022995
1780001851711180300,2.75018017578125,-0.04749477282166481,0.5021312236785889,-0.11041389405727386
1780001851727516200,2.76651611328125,-0.04092797264456749,0.3985895812511444,-0.08918632566928864
1780001851743849200,2.78284912109375,-0.03940080851316452,0.2834414839744568,-0.053297992795705795
1780001851760178700,2.7991787109375,-0.03390302136540413,0.17058411240577698,-0.01114829070866108
1780001851776516600,2.8155166015625,-0.02382374368607998,0.08139779418706894,0.02076941914856434
1780001851792847000,2.83184716796875,-0.012217304669320583,0.012828170321881771,0.03191770985722542
1780001851809173200,2.84817333984375,-0.0010690141934901476,-0.06704246252775192,0.03039054572582245
1780001851825510700,2.8645107421875,0.013744467869400978,-0.15836681425571442,0.02932153269648552
1780001851841847000,2.880846923828125,0.027183502912521362,-0.2382374405860901,0.03756821155548096
1780001851858175200,2.89717529296875,0.02825251780450344,-0.2739730477333069,0.04795292019844055
1780001851874495000,2.913494873046875,0.025503624230623245,-0.26633724570274353,0.056810468435287476
1780001851890840600,2.929840576171875,0.017409659922122955,-0.2295326143503189,0.06276640295982361
1780001851907162400,2.946162353515625,0.00809396430850029,-0.17470745742321014,0.061391957104206085
1780001851923517700,2.962517578125,0.0029016099870204926,-0.11530081182718277,0.054367005825042725
1780001851939851500,2.9788515625,0.001832595793530345,-0.07406741380691528,0.03695734590291977
1780001851956183600,2.99518359375,-0.001679879380390048,-0.04245513305068016,0.013286318629980087
1780001851972516400,3.011516357421875,-0.005345070734620094,0.004886921960860491,-0.0022907445672899485
1780001851988845000,3.027844970703125,-0.01664607785642147,0.08414668589830399,0.00015271631127689034
1780001852005167400,3.04416748046875,-0.034666601568460464,0.1699732542037964,0.013897184282541275
1780001852021499100,3.0604990234375,-0.04657847434282303,0.23686300218105316,0.03436116874217987
1780001852037831700,3.076831787109375,-0.05345070734620094,0.2635883390903473,0.05650503560900688
1780001852054161000,3.093160888671875,-0.0507018156349659,0.24297164380550385,0.08017606288194656
1780001852070499800,3.109499755859375,-0.037110064178705215,0.17409659922122955,0.10155634582042694
1780001852086828500,3.12582861328125,-0.018325956538319588,0.09254608303308487,0.10720685124397278
1780001852103157800,3.14215771484375,0.0012217304902151227,0.036193765699863434,0.08628471940755844
1780001852119497200,3.158497314453125,0.014966198243200779,0.00931569468230009,0.05009094998240471
1780001852135822300,3.174822265625,0.023365596309304237,0.0074830991216003895,0.018020525574684143
1780001852152161800,3.191161865234375,0.024892758578062057,0.013591751456260681,0.004581489134579897
1780001852168487400,3.2074873046875,0.02672535367310047,0.022602014243602753,0.008399397134780884
1780001852184813000,3.22381298828125,0.021380282938480377,0.038179077208042145,0.017562376335263252
1780001852201155300,3.2401552734375,0.015882495790719986,0.06643159687519073,0.01924225501716137
1780001852217486800,3.25648681640625,0.017867809161543846,0.078343465924263,0.013897184282541275
1780001852233819400,3.2728193359375,0.01618792861700058,0.07360926270484924,0.0007635815418325365
1780001852250153700,3.28915380859375,0.01542434748262167,0.04382958263158798,-0.005650503560900688
1780001852266484200,3.305484130859375,0.007635815534740686,-0.0013744467869400978,-0.0009162978967651725
1780001852282831600,3.32183154296875,0.006108652334660292,-0.04001167416572571,0.004886921960860491
1780001852299159800,3.338159912109375,-0.001527163083665073,-0.05406157299876213,-0.009773843921720982
1780001852315495700,3.35449560546875,-0.010690141469240189,-0.02535090781748295,-0.024892758578062057
1780001852331827700,3.37082763671875,-0.010537425056099892,0.01710422709584236,-0.026114489883184433
1780001852348159200,3.3871591796875,-0.008246680721640587,0.05910121276974678,-0.020616702735424042
1780001852364493000,3.4034931640625,-0.001679879380390048,0.09162978827953339,-0.01771509274840355
1780001852380823000,3.419822998046875,0.005039638374000788,0.08475755155086517,-0.026572637259960175
1780001852397139500,3.436139404296875,-0.0003054326225537807,0.07513642311096191,-0.03420845419168472
1780001852413489400,3.452489501953125,0.0003054326225537807,0.057879481464624405,-0.024434609338641167
1780001852429819600,3.468819580078125,-0.0010690141934901476,-0.00045814894838258624,-0.004886921960860491
1780001852446154000,3.485154052734375,0.00733038317412138,-0.07422012835741043,0.014813481830060482
1780001852462486500,3.501486572265625,0.019547687843441963,-0.13484850525856018,0.02015855349600315
1780001852478818000,3.517818115234375,0.02871066704392433,-0.18325957655906677,0.01191187184303999
1780001852495146800,3.534146728515625,0.033139441162347794,-0.21609358489513397,0.001832595793530345
1780001852511469800,3.5504697265625,0.030237829312682152,-0.21762074530124664,-0.005039638374000788
1780001852527786800,3.566786865234375,0.016493361443281174,-0.18799377977848053,-0.001832595793530345
1780001852544131800,3.5831318359375,0.0009162978967651725,-0.1339322030544281,0.006872233934700489
1780001852560467700,3.5994677734375,-0.01542434748262167,-0.05955936014652252,0.004734205547720194
1780001852576798700,3.615798828125,-0.024587325751781464,0.03237585723400116,-0.010231993161141872
1780001852593131000,3.632131103515625,-0.023976460099220276,0.11988230794668198,-0.027641652151942253
1780001852609463800,3.6484638671875,-0.020463986322283745,0.1794416606426239,-0.043218716979026794
1780001852625799400,3.66479931640625,-0.011759156361222267,0.20204368233680725,-0.05451972410082817
1780001852642142500,3.681142578125,-0.007024950347840786,0.19975294172763824,-0.06230825558304787
1780001852658469400,3.697469482421875,-0.00855211354792118,0.17592918872833252,-0.05971207842230797
1780001852674806300,3.71380615234375,-0.009468411095440388,0.1368338167667389,-0.04856378585100174
1780001852691121700,3.73012158203125,-0.010537425056099892,0.09468411654233932,-0.02626720629632473
1780001852707467800,3.7464677734375,-0.015271631069481373,0.06383541971445084,-0.006719517521560192
1780001852723804400,3.762804443359375,-0.01466076634824276,0.036193765699863434,0.004123340360820293
1780001852740139800,3.779139892578125,-0.013439035043120384,0.010842857882380486,0.005650503560900688
1780001852756451800,3.795451904296875,-0.009162978269159794,-0.016798794269561768,0.011301007121801376
1780001852772801300,3.81180126953125,-0.010690141469240189,-0.057879481464624405,0.022143865004181862
1780001852789130000,3.8281298828125,-0.009773843921720982,-0.09896016865968704,0.030695978552103043
1780001852805465600,3.844465576171875,-0.009621127508580685,-0.12079860270023346,0.03145955875515938
1780001852821802800,3.860802734375,-0.01863138936460018,-0.1134682223200798,0.02275473065674305
1780001852838128000,3.877128173828125,-0.02367102913558483,-0.08307767659425735,0.01771509274840355
1780001852854450000,3.893449951171875,-0.029474247246980667,-0.051312681287527084,0.021991148591041565
1780001852870795300,3.909795166015625,-0.03298672288656235,-0.019853120669722557,0.03237585723400116
1780001852887141400,3.926141357421875,-0.03940080851316452,0.018478672951459885,0.03894266113638878
1780001852903455200,3.942455322265625,-0.04459316283464432,0.0630718395113945,0.033139441162347794
1780001852919790300,3.958790283203125,-0.04398229718208313,0.11026117950677872,0.01817324012517929
1780001852936126200,3.975126220703125,-0.04260785132646561,0.1547016203403473,0.0032070425804704428
1780001852952457000,3.99145703125,-0.03436116874217987,0.18845193088054657,-0.0029016099870204926
1780001852968789800,4.007789794921875,-0.029626963660120964,0.20005837082862854,-0.014049900695681572
1780001852985121800,4.024121826171875,-0.028557950630784035,0.21670444309711456,-0.02977968007326126
1780001853001437000,4.04043701171875,-0.016340645030140877,0.23319780826568604,-0.044745877385139465
1780001853017772800,4.056772705078125,-0.013286318629980087,0.21807889640331268,-0.049785517156124115
1780001853034105300,4.073105224609375,-0.007788531947880983,0.1647808998823166,-0.04657847434282303
1780001853050436600,4.0894365234375,-0.002138028386980295,0.10323622822761536,-0.037110064178705215
1780001853066770400,4.1057705078125,-0.001527163083665073,0.06658431142568588,-0.015271631069481373
1780001853083099400,4.122099365234375,-0.007635815534740686,0.04199698567390442,0.016035212203860283
1780001853099426800,4.1384267578125,-0.0065668015740811825,-0.01771509274840355,0.041233405470848083
1780001853115783400,4.154783447265625,-0.005497787147760391,-0.09789115190505981,0.043676864355802536
1780001853132113700,4.17111376953125,0.00045814894838258624,-0.16600263118743896,0.03130684420466423
1780001853148445700,4.18744580078125,0.005039638374000788,-0.21365012228488922,0.013744467869400978
1780001853164777200,4.203777099609375,0.009773843921720982,-0.23289237916469574,0.00015271631127689034
1780001853181110800,4.22011083984375,0.014202617108821869,-0.21349740028381348,-0.007635815534740686
1780001853197441000,4.23644091796875,0.01572977937757969,-0.15241087973117828,-0.013744467869400978
1780001853213776100,4.252776123046875,0.014202617108821869,-0.06933320313692093,-0.01878410577774048
1780001853230107000,4.26910693359375,0.005192354787141085,0.0022907445672899485,-0.02519819140434265
1780001853246446000,4.285446044921875,-0.0074830991216003895,0.04963280260562897,-0.03176499158143997
1780001853262739500,4.301739501953125,-0.021838432177901268,0.07987063378095627,-0.034666601568460464
1780001853279101200,4.31810107421875,-0.033597588539123535,0.10094548016786575,-0.04337143152952194
1780001853295440400,4.3344404296875,-0.04046982154250145,0.11255192011594772,-0.05451972410082817
1780001853311769300,4.350769287109375,-0.039095375686883926,0.11499538272619247,-0.05665775015950203
1780001853328100900,4.367100830078125,-0.03176499158143997,0.10262536257505417,-0.052381694316864014
1780001853344433400,4.383433349609375,-0.027488935738801956,0.08155050873756409,-0.04444044828414917
1780001853360749800,4.399749755859375,-0.022449297830462456,0.055283304303884506,-0.036651913076639175
1780001853377098800,4.4160986328125,-0.015118914656341076,0.035124752670526505,-0.029932396486401558
1780001853393429200,4.43242919921875,-0.006108652334660292,0.026419922709465027,-0.027030786499381065
1780001853409748500,4.44874853515625,0.0006108652451075613,0.024434609338641167,-0.025503624230623245
1780001853426089700,4.46508984375,0.004581489134579897,0.033139441162347794,-0.021074850112199783
1780001853442427400,4.481427490234375,0.00809396430850029,0.04749477282166481,-0.01114829070866108
1780001853458752000,4.497751953125,0.0064140851609408855,0.05864306539297104,0.004123340360820293
1780001853475095000,4.514094970703125,0.004123340360820293,0.054367005825042725,0.023060163483023643
1780001853491395600,4.5303955078125,0.00045814894838258624,0.01863138936460018,0.04077525436878204
1780001853507744000,4.546743896484375,-0.001527163083665073,-0.04703662544488907,0.05192354694008827
1780001853524076000,4.563075927734375,-0.004123340360820293,-0.13026700913906097,0.05910121276974678
1780001853540408300,4.579408203125,-0.0065668015740811825,-0.19914206862449646,0.054367005825042725
1780001853556740600,4.59574072265625,-0.004886921960860491,-0.23625212907791138,0.046731192618608475
1780001853573073000,4.612072998046875,0.0013744467869400978,-0.22770002484321594,0.02687807008624077
1780001853589405200,4.6284052734375,0.006872233934700489,-0.1817324161529541,-0.003054326167330146
1780001853605755000,4.6447548828125,0.009162978269159794,-0.09682214260101318,-0.03634648025035858
1780001853622066000,4.66106591796875,0.005039638374000788,0.010537425056099892,-0.06108652427792549
1780001853638416000,4.677415771484375,0.00045814894838258624,0.11270463466644287,-0.07269296050071716
1780001853654748200,4.693748046875,-0.00366519158706069,0.18997909128665924,-0.0659734457731247
1780001853671063300,4.710063232421875,-0.01160643994808197,0.24083362519741058,-0.04657847434282303
1780001853687410200,4.72641015625,-0.018325956538319588,0.27061331272125244,-0.021991148591041565
1780001853703748900,4.742748779296875,-0.022143865004181862,0.27091872692108154,-0.004734205547720194
1780001853720062200,4.759062255859375,-0.014966198243200779,0.2226603776216507,0.003054326167330146
1780001853736410600,4.77541064453125,-0.0007635815418325365,0.13301590085029602,0.004581489134579897
1780001853752743700,4.79174365234375,0.014049900695681572,0.020311269909143448,0.00015271631127689034
1780001853769071900,4.80807177734375,0.029168816283345222,-0.08414668589830399,-0.0024434609804302454
1780001853785409300,4.8244091796875,0.04092797264456749,-0.1609629988670349,0.0024434609804302454
1780001853801739500,4.840739501953125,0.04092797264456749,-0.1950187236070633,0.015577063895761967
1780001853818072600,4.857072509765625,0.029016099870204926,-0.18875735998153687,0.02825251780450344
1780001853834378000,4.8733779296875,0.016340645030140877,-0.16172657907009125,0.03527746722102165
1780001853850737000,4.88973681640625,0.0024434609804302454,-0.12858712673187256,0.035124752670526505
1780001853867064600,4.906064697265625,-0.007177666760981083,-0.08368854224681854,0.025656340643763542
1780001853883407400,4.922407470703125,-0.014202617108821869,-0.029932396486401558,0.009621127508580685
1780001853899732200,4.938732177734375,-0.012675453908741474,0.029626963660120964,-0.014355333521962166
1780001853916093400,4.955093505859375,-0.00809396430850029,0.08903361111879349,-0.03237585723400116
1780001853932395800,4.971395751953125,-0.006719517521560192,0.1394299864768982,-0.043218716979026794
1780001853948734500,4.987734375,-0.00733038317412138,0.1774563491344452,-0.04001167416572571
1780001853965063400,5.0040634765625,-0.008857546374201775,0.18539759516716003,-0.03344487398862839
1780001853981379600,5.020379638671875,-0.014508049935102463,0.16264286637306213,-0.024129176512360573
1780001853997715000,5.03671484375,-0.016798794269561768,0.11667526513338089,-0.01114829070866108
1780001854014047000,5.053046875,-0.013591751456260681,0.057879481464624405,0.00733038317412138
1780001854030376200,5.069376220703125,-0.006108652334660292,-0.008704829961061478,0.025961773470044136
1780001854046700300,5.0857001953125,0.0009162978967651725,-0.06688974797725677,0.032528575509786606
1780001854063036700,5.10203662109375,0.00427605677396059,-0.10522153973579407,0.02825251780450344
1780001854079376400,5.11837646484375,0.006719517521560192,-0.11545353382825851,0.020616702735424042
1780001854095725300,5.134725341796875,0.00427605677396059,-0.08949175477027893,0.014966198243200779
1780001854112039000,5.151038818359375,-0.0003054326225537807,-0.03497203439474106,0.013744467869400978
1780001854128386800,5.16738671875,-0.004581489134579897,0.03894266113638878,0.013133603148162365
1780001854144720100,5.18372021484375,-0.005955935921519995,0.10903944820165634,0.012064588256180286
1780001854161049600,5.200049560546875,-0.00366519158706069,0.1492038369178772,0.010995574295520782
1780001854177384400,5.216384521484375,0.00015271631127689034,0.16233743727207184,0.007024950347840786
1780001854193716700,5.232716796875,0.002138028386980295,0.14996741712093353,0.001679879380390048
1780001854210034000,5.249033935546875,0.004581489134579897,0.11071932315826416,0.00015271631127689034
1780001854226380300,5.26538037109375,0.004734205547720194,0.05100724846124649,0.009621127508580685
1780001854242716400,5.28171630859375,0.0025961773935705423,-0.007788531947880983,0.02519819140434265
1780001854259043300,5.298043212890625,-0.0009162978967651725,-0.04886921867728233,0.03955352306365967
1780001854275378200,5.314378173828125,-0.004734205547720194,-0.07376197725534439,0.043676864355802536
1780001854291709200,5.330709228515625,-0.007177666760981083,-0.08765916526317596,0.040622539818286896
1780001854308028200,5.347028076171875,-0.0065668015740811825,-0.09514226019382477,0.033597588539123535
1780001854324375600,5.36337548828125,-0.00733038317412138,-0.08781187981367111,0.02015855349600315
1780001854340708400,5.379708251953125,-0.006108652334660292,-0.05803219974040985,0.0029016099870204926
1780001854357038300,5.396038330078125,-0.005955935921519995,-0.003512475173920393,-0.01863138936460018
1780001854373357000,5.412357177734375,-0.005803219974040985,0.05910121276974678,-0.035582900047302246
1780001854389705000,5.428705078125,-0.00366519158706069,0.10201449692249298,-0.04077525436878204
1780001854406057000,5.445056884765625,-0.005803219974040985,0.12186761945486069,-0.039248090237379074
1780001854422352400,5.461352294921875,-0.009773843921720982,0.12186761945486069,-0.03451388701796532
1780001854438688800,5.477688720703125,-0.014966198243200779,0.10384709388017654,-0.03084869496524334
1780001854455033900,5.494033935546875,-0.019853120669722557,0.07773260027170181,-0.022602014243602753
1780001854471333400,5.51033349609375,-0.018478672951459885,0.03878994286060333,-0.006719517521560192
1780001854487685400,5.526685302734375,-0.016493361443281174,-0.00931569468230009,0.008704829961061478
1780001854504018000,5.543017822265625,-0.012675453908741474,-0.05253441259264946,0.016340645030140877
1780001854520350200,5.55935009765625,-0.009162978269159794,-0.08307767659425735,0.014355333521962166
1780001854536682000,5.575681884765625,-0.003817907767370343,-0.09773843735456467,0.00733038317412138
1780001854553014800,5.592014892578125,0.0003054326225537807,-0.09483683109283447,-0.0032070425804704428
1780001854569334300,5.608334228515625,0.004581489134579897,-0.06200282275676727,-0.014355333521962166
1780001854585696300,5.6246962890625,0.005345070734620094,-0.00015271631127689034,-0.027183502912521362
1780001854602026000,5.64102587890625,0.003817907767370343,0.07406741380691528,-0.03420845419168472
1780001854618356000,5.65735595703125,0.0003054326225537807,0.12140946835279465,-0.031154127791523933
1780001854634664400,5.67366455078125,-0.005803219974040985,0.13866640627384186,-0.021074850112199783
1780001854651005000,5.6900048828125,-0.010995574295520782,0.12461651116609573,-0.014355333521962166
1780001854667346700,5.7063466796875,-0.01542434748262167,0.08292495459318161,-0.009162978269159794
1780001854683696600,5.722696533203125,-0.016798794269561768,0.02733621932566166,-0.0019853119738399982
1780001854700014800,5.739014892578125,-0.012064588256180286,-0.025961773470044136,0.005650503560900688
1780001854716351000,5.75535107421875,-0.004886921960860491,-0.06185010448098183,0.012828170321881771
1780001854732662500,5.77166259765625,0.00427605677396059,-0.07651086896657944,0.014202617108821869
1780001854749016800,5.788016845703125,0.01542434748262167,-0.07437284290790558,0.012828170321881771
1780001854765345500,5.804345458984375,0.023060163483023643,-0.05665775015950203,0.005192354787141085
1780001854781685500,5.820685546875,0.02535090781748295,-0.022449297830462456,-0.00427605677396059
1780001854798015000,5.837014892578125,0.024892758578062057,0.01817324012517929,-0.011453723534941673
1780001854814346000,5.853345947265625,0.023365596309304237,0.05115996301174164,-0.00733038317412138
1780001854830667500,5.86966748046875,0.02275473065674305,0.06811147183179855,0.005955935921519995
1780001854847006700,5.8860068359375,0.02428189292550087,0.06948592513799667,0.020616702735424042
1780001854863345700,5.902345703125,0.026572637259960175,0.05268712714314461,0.028557950630784035
1780001854879677000,5.918677001953125,0.027488935738801956,0.021532999351620674,0.025045474991202354
1780001854895992600,5.93499267578125,0.027183502912521362,-0.009010262787342072,0.015271631069481373
1780001854912324600,5.95132470703125,0.023976460099220276,-0.032070424407720566,0.0019853119738399982
1780001854928657400,5.967657470703125,0.018478672951459885,-0.04398229718208313,-0.001832595793530345
1780001854944989700,5.98398974609375,0.010842857882380486,-0.038026362657547,0.003054326167330146
1780001854961311700,6.000311767578125,0.0039706239476799965,-0.014202617108821869,0.019853120669722557
1780001854977656600,6.016656494140625,-0.0006108652451075613,0.009621127508580685,0.032528575509786606
1780001854993988900,6.03298876953125,0.0006108652451075613,0.022907447069883347,0.034666601568460464
1780001855010320600,6.049320556640625,0.0006108652451075613,0.032070424407720566,0.024892758578062057
1780001855026653000,6.06565283203125,-0.0009162978967651725,0.047800205647945404,0.010079276748001575
1780001855042986200,6.081986328125,-0.0010690141934901476,0.06612616032361984,0.003512475173920393
1780001855059316500,6.09831640625,0.0010690141934901476,0.0757472887635231,0.005803219974040985
1780001855075667500,6.11466748046875,0.001527163083665073,0.08200865983963013,0.016035212203860283
1780001855091996700,6.13099658203125,0.0012217304902151227,0.0832303911447525,0.029016099870204926
1780001855108324600,6.14732470703125,0.0064140851609408855,0.07590000331401825,0.03649919852614403
1780001855124663600,6.16366357421875,0.00931569468230009,0.05513058975338936,0.03588833287358284
1780001855140994300,6.179994384765625,0.014813481830060482,0.030695978552103043,0.027030786499381065
1780001855157325600,6.19632568359375,0.013897184282541275,0.014049900695681572,0.02076941914856434
1780001855173658600,6.21265869140625,0.006261368747800589,0.010231993161141872,0.01924225501716137
1780001855189991400,6.228991455078125,0.001832595793530345,0.009773843921720982,0.022449297830462456
1780001855206320600,6.245320556640625,-0.0013744467869400978,0.012828170321881771,0.02321287989616394
1780001855222655700,6.26165576171875,-0.0019853119738399982,0.018020525574684143,0.022449297830462456
1780001855238987800,6.27798779296875,-0.003512475173920393,0.02015855349600315,0.02275473065674305
1780001855255318500,6.294318603515625,-0.0029016099870204926,0.012980886735022068,0.018020525574684143
1780001855271632000,6.3106318359375,0.0006108652451075613,0.0009162978967651725,0.00366519158706069
1780001855287988500,6.326988525390625,0.0013744467869400978,0.0006108652451075613,-0.018020525574684143
1780001855304296400,6.34329638671875,-0.0007635815418325365,0.0025961773935705423,-0.03329215571284294
1780001855320653800,6.35965380859375,-0.004734205547720194,-0.0003054326225537807,-0.03436116874217987
1780001855336981800,6.375981689453125,-0.007788531947880983,-0.011759156361222267,-0.020616702735424042
1780001855353314600,6.392314453125,-0.012522737495601177,-0.018020525574684143,-0.005497787147760391
1780001855369629700,6.408629638671875,-0.01572977937757969,-0.013591751456260681,0.0024434609804302454
1780001855385977000,6.42497705078125,-0.013133603148162365,-0.01160643994808197,-0.00045814894838258624
1780001855402290200,6.441290283203125,-0.007177666760981083,-0.021532999351620674,-0.006108652334660292
1780001855418648800,6.45764892578125,-0.0003054326225537807,-0.05451972410082817,-0.009468411095440388
1780001855434963000,6.473962890625,0.004123340360820293,-0.0887281745672226,-0.01237002108246088
1780001855451292200,6.490292236328125,0.004886921960860491,-0.10781771689653397,-0.01572977937757969
1780001855467623400,6.50662353515625,0.006719517521560192,-0.10797043144702911,-0.020922135561704636
1780001855483959600,6.52295947265625,0.013286318629980087,-0.0907134860754013,-0.02275473065674305
1780001855500290600,6.53929052734375,0.004886921960860491,-0.04489859566092491,-0.008857546374201775
1780001855516624100,6.5556240234375,0.0012217304902151227,0.015577063895761967,0.013439035043120384
1780001855532956200,6.5719560546875,0.009468411095440388,0.059406645596027374,0.029626963660120964
1780001855549288700,6.588288818359375,0.015118914656341076,0.06933320313692093,0.025656340643763542
1780001855565615900,6.604615966796875,0.024129176512360573,0.044287730008363724,0.007635815534740686
1780001855581968100,6.620968017578125,0.02871066704392433,-0.017867809161543846,-0.009926560334861279
1780001855598300200,6.637300048828125,0.027488935738801956,-0.07910704612731934,-0.01924225501716137
1780001855614614800,6.65361474609375,0.019089538604021072,-0.10201449692249298,-0.01817324012517929
1780001855630958300,6.669958251953125,0.009010262787342072,-0.08933904021978378,-0.005803219974040985
1780001855647296300,6.686296142578125,0.001832595793530345,-0.06887505948543549,0.014355333521962166
1780001855663627300,6.702627197265625,-0.001679879380390048,-0.058795779943466187,0.028557950630784035
1780001855679967700,6.7189677734375,-0.0022907445672899485,-0.056810468435287476,0.02535090781748295
1780001855696291300,6.735291259765625,0.00045814894838258624,-0.04566217586398125,0.008246680721640587
1780001855712626200,6.751626220703125,0.003512475173920393,-0.024434609338641167,-0.010079276748001575
1780001855728960300,6.767960205078125,0.007941247895359993,-0.001832595793530345,-0.01572977937757969
1780001855745291300,6.784291259765625,0.01160643994808197,0.017409659922122955,-0.00855211354792118
1780001855761615400,6.800615478515625,0.013439035043120384,0.020463986322283745,-0.005192354787141085
1780001855777962000,6.8169619140625,0.01237002108246088,0.008399397134780884,-0.006872233934700489
1780001855794288400,6.833288330078125,0.010537425056099892,-0.015577063895761967,-0.0074830991216003895
1780001855810620400,6.849620361328125,0.006108652334660292,-0.03985895588994026,-0.0064140851609408855
1780001855826954200,6.865954345703125,0.0012217304902151227,-0.045204028487205505,-0.006719517521560192
1780001855843282400,6.882282470703125,-0.001832595793530345,-0.03481931984424591,-0.00809396430850029
1780001855859617800,6.89861767578125,-0.005650503560900688,-0.024892758578062057,-0.005803219974040985
1780001855875934200,6.914934326171875,-0.008399397134780884,-0.02382374368607998,-0.005192354787141085
1780001855892280300,6.9312802734375,-0.008704829961061478,-0.02580905705690384,-0.01038470957428217
1780001855908613600,6.947613525390625,-0.011759156361222267,-0.029016099870204926,-0.018325956538319588
1780001855924940800,6.96394091796875,-0.013439035043120384,-0.02779436856508255,-0.02535090781748295
1780001855941286700,6.98028662109375,-0.01466076634824276,-0.02672535367310047,-0.02977968007326126
1780001855957595000,6.996594970703125,-0.015271631069481373,-0.020463986322283745,-0.03145955875515938
1780001855973930000,7.012929931640625,-0.016798794269561768,-0.009773843921720982,-0.031154127791523933
1780001855990262800,7.0292626953125,-0.016340645030140877,0.0007635815418325365,-0.030085112899541855
1780001856006595000,7.045594970703125,-0.015882495790719986,0.009162978269159794,-0.023365596309304237
1780001856022925800,7.06192578125,-0.013897184282541275,0.008857546374201775,-0.019547687843441963
1780001856039259400,7.07825927734375,-0.009010262787342072,-0.001832595793530345,-0.01878410577774048
1780001856055595500,7.094595458984375,-0.004886921960860491,-0.010842857882380486,-0.026419922709465027
1780001856071938300,7.110938232421875,-0.0024434609804302454,-0.016035212203860283,-0.029016099870204926
1780001856088268500,7.1272685546875,0.00015271631127689034,-0.017562376335263252,-0.02886338345706463
1780001856104608500,7.1436083984375,0.0022907445672899485,-0.012675453908741474,-0.01863138936460018
1780001856120935700,7.159935791015625,0.0025961773935705423,-0.009773843921720982,-0.006872233934700489
1780001856137267500,7.176267333984375,0.004734205547720194,-0.01710422709584236,0.002138028386980295
1780001856153600000,7.19260009765625,0.00809396430850029,-0.040164388716220856,0.003512475173920393
1780001856169932300,7.208932373046875,0.01038470957428217,-0.0705549344420433,0
1780001856186264000,7.22526416015625,0.010995574295520782,-0.09834930300712585,-0.007177666760981083
1780001856202580500,7.24158056640625,0.012522737495601177,-0.11743884533643723,-0.009162978269159794
1780001856218929700,7.2579296875,0.015118914656341076,-0.11911872029304504,-0.00931569468230009
1780001856235261400,7.274261474609375,0.021074850112199783,-0.10170906037092209,-0.010995574295520782
1780001856251600400,7.290600341796875,0.022449297830462456,-0.0705549344420433,-0.022907447069883347
1780001856267909000,7.3069091796875,0.02168571576476097,-0.02367102913558483,-0.035582900047302246
1780001856284258300,7.32325830078125,0.022907447069883347,0.0024434609804302454,-0.04505131021142006
1780001856300574200,7.33957421875,0.020463986322283745,0.005650503560900688,-0.039706241339445114
1780001856316920000,7.355920166015625,0.021380282938480377,-0.009621127508580685,-0.023518312722444534
1780001856333260000,7.372260009765625,0.024892758578062057,-0.04841107130050659,-0.0019853119738399982
1780001856349588200,7.388588134765625,0.025503624230623245,-0.10461067408323288,0.005497787147760391
1780001856365901800,7.40490185546875,0.024892758578062057,-0.1511891484260559,0.00045814894838258624
1780001856382233000,7.421233154296875,0.02580905705690384,-0.19043724238872528,-0.0025961773935705423
1780001856398601700,7.437601806640625,0.024587325751781464,-0.20845776796340942,-0.0074830991216003895
1780001856414917600,7.453917724609375,0.027030786499381065,-0.19303341209888458,-0.010690141469240189
1780001856431249400,7.47024951171875,0.02229658141732216,-0.1437060534954071,-0.01114829070866108
1780001856447552800,7.486552734375,0.02871066704392433,-0.07651086896657944,-0.013133603148162365
1780001856463887400,7.502887451171875,0.026572637259960175,-0.03833179548382759,-0.017562376335263252
1780001856480233200,7.519233154296875,0.029168816283345222,-0.02825251780450344,-0.012675453908741474
1780001856496565000,7.53556494140625,0.038026362657547,-0.03329215571284294,-0.0007635815418325365
1780001856512898600,7.551898681640625,0.04337143152952194,-0.04688390716910362,0.005039638374000788
1780001856529228300,7.568228271484375,0.04993823543190956,-0.05910121276974678,-0.0013744467869400978
1780001856545553400,7.584553466796875,0.05543602257966995,-0.08185594528913498,-0.01710422709584236
1780001856561905400,7.600905517578125,0.07116580009460449,-0.09743300825357437,-0.034666601568460464
1780001856578245000,7.6172451171875,0.07422012835741043,-0.10583240538835526,-0.0403171069920063
1780001856594565000,7.633565185546875,0.0659734457731247,-0.08949175477027893,-0.03145955875515938
1780001856610912500,7.64991259765625,0.06475171446800232,-0.06459899991750717,-0.022449297830462456
1780001856627216600,7.666216552734375,0.046273041516542435,-0.0455094613134861,-0.020311269909143448
1780001856643575800,7.682575927734375,0.03741549700498581,-0.031612277030944824,-0.01924225501716137
1780001856659901000,7.69890087890625,0.013591751456260681,-0.030237829312682152,-0.006719517521560192
1780001856676234200,7.715234130859375,-0.006108652334660292,-0.025961773470044136,0.013439035043120384
1780001856692567800,7.73156787109375,-0.02519819140434265,-0.028557950630784035,0.028557950630784035
1780001856708900600,7.747900634765625,-0.04260785132646561,-0.03145955875515938,0.031154127791523933
1780001856725230600,7.764230712890625,-0.04337143152952194,-0.021380282938480377,0.03298672288656235
1780001856741564200,7.780564208984375,-0.04306599870324135,0.005497787147760391,0.03741549700498581
1780001856757897200,7.796897216796875,-0.04153883829712868,0.05375614017248154,0.04688390716910362
1780001856774225700,7.8132255859375,-0.029626963660120964,0.12034045159816742,0.04948008432984352
1780001856790565000,7.829565185546875,-0.014202617108821869,0.1927279829978943,0.039248090237379074
1780001856806895000,7.84589501953125,0.003817907767370343,0.24373523890972137,0.028405234217643738
1780001856823226400,7.862226318359375,0.02015855349600315,0.26481008529663086,0.02733621932566166
1780001856839559200,7.87855908203125,0.03451388701796532,0.25442537665367126,0.03130684420466423
1780001856855886800,7.894886962890625,0.04077525436878204,0.2116648107767105,0.04260785132646561
1780001856872226300,7.911226318359375,0.04153883829712868,0.1443169116973877,0.058795779943466187
1780001856888556800,7.927556884765625,0.03527746722102165,0.06505715101957321,0.06352998316287994
1780001856904887600,7.943887451171875,0.019394971430301666,-0.02519819140434265,0.05543602257966995
1780001856921221400,7.960221435546875,0.003054326167330146,-0.12370020896196365,0.04489859566092491
1780001856937532700,7.97653271484375,-0.01970040425658226,-0.20891591906547546,0.03940080851316452
1780001856953874400,7.99287451171875,-0.03848451003432274,-0.24663683772087097,0.04489859566092491
1780001856970204000,8.009203857421875,-0.047800205647945404,-0.23686300218105316,0.052839845418930054
1780001856986536400,8.025536376953125,-0.039706241339445114,-0.19349156320095062,0.04306599870324135
1780001857002868500,8.041868408203126,-0.021838432177901268,-0.14049901068210602,0.006719517521560192
1780001857019201000,8.058200927734376,-0.004123340360820293,-0.08246681094169617,-0.04352414980530739
1780001857035532500,8.074532470703126,0.013286318629980087,-0.024129176512360573,-0.08811730891466141
1780001857051883500,8.090883544921875,0.020005837082862854,0.014508049935102463,-0.1137736514210701
1780001857068212000,8.1072119140625,0.016951510682702065,0.037110064178705215,-0.11713340878486633
1780001857084543200,8.123543212890626,0.011759156361222267,0.054367005825042725,-0.10186178237199783
1780001857100875000,8.139875,0.0025961773935705423,0.06062837690114975,-0.08170322328805923
1780001857117208800,8.156208740234375,-0.009773843921720982,0.054825156927108765,-0.05742133408784866
1780001857133544200,8.172544189453125,-0.019089538604021072,0.03237585723400116,-0.030085112899541855
1780001857149873700,8.188873779296875,-0.023518312722444534,-0.01542434748262167,-0.005803219974040985
1780001857166205200,8.205205078125,-0.025656340643763542,-0.08536841720342636,0.009162978269159794
1780001857182538800,8.221538818359376,-0.022602014243602753,-0.15592335164546967,0.012828170321881771
1780001857198870500,8.23787060546875,-0.024587325751781464,-0.19517144560813904,0.020311269909143448
1780001857215202300,8.254202392578126,-0.023060163483023643,-0.19914206862449646,0.03436116874217987
1780001857231518200,8.270518310546874,-0.014508049935102463,-0.182648703455925,0.0429132841527462
1780001857247868200,8.2868681640625,-0.0025961773935705423,-0.14966198801994324,0.033597588539123535
1780001857264199400,8.303199462890625,0.00733038317412138,-0.09468411654233932,0.010231993161141872
1780001857280531700,8.31953173828125,0.009773843921720982,-0.02367102913558483,-0.017562376335263252
1780001857296862500,8.335862548828125,0.006108652334660292,0.054825156927108765,-0.039095375686883926
1780001857313191400,8.35219140625,-0.00045814894838258624,0.11316278576850891,-0.04657847434282303
1780001857329512400,8.368512451171876,-0.009010262787342072,0.1362229436635971,-0.04138612002134323
1780001857345862000,8.38486181640625,-0.01970040425658226,0.126143679022789,-0.032070424407720566
1780001857362192100,8.401192138671876,-0.027488935738801956,0.09911288321018219,-0.021991148591041565
1780001857378526500,8.4175263671875,-0.031001411378383636,0.060933809727430344,-0.015271631069481373
1780001857394860300,8.4338603515625,-0.025656340643763542,0.011759156361222267,-0.011301007121801376
1780001857411190800,8.450190673828125,-0.018325956538319588,-0.03649919852614403,-0.018478672951459885
1780001857427493000,8.4664931640625,-0.008246680721640587,-0.08231408894062042,-0.028557950630784035
1780001857443838700,8.482838623046876,-0.0019853119738399982,-0.11698069423437119,-0.03329215571284294
1780001857460175000,8.499175048828125,0.001832595793530345,-0.12629638612270355,-0.02275473065674305
1780001857476508700,8.5155087890625,0.0010690141934901476,-0.11820242553949356,-0.007024950347840786
1780001857492837600,8.531837646484375,0.0003054326225537807,-0.10186178237199783,0.0029016099870204926
1780001857509171500,8.54817138671875,-0.0029016099870204926,-0.07864890247583389,0.0027488935738801956
1780001857525503500,8.56450341796875,-0.004886921960860491,-0.0555887371301651,-0.0007635815418325365
1780001857541846800,8.5808466796875,-0.0039706239476799965,-0.03634648025035858,-0.004734205547720194
1780001857558175500,8.597175537109376,-0.00366519158706069,-0.027183502912521362,-0.010231993161141872
1780001857574517500,8.613517578125,-0.003512475173920393,-0.025656340643763542,-0.015577063895761967
1780001857590826000,8.629825927734375,-0.004123340360820293,-0.025961773470044136,-0.020922135561704636
1780001857607178200,8.64617822265625,-0.007788531947880983,-0.01970040425658226,-0.01924225501716137
1780001857623511300,8.66251123046875,-0.01038470957428217,-0.01114829070866108,-0.014202617108821869
1780001857639844600,8.6788447265625,-0.012064588256180286,-0.003054326167330146,-0.004123340360820293
1780001857656176600,8.6951767578125,-0.012217304669320583,0.00015271631127689034,0.0065668015740811825
1780001857672509000,8.711509033203125,-0.007177666760981083,-0.0027488935738801956,0.01664607785642147
1780001857688835600,8.727835693359374,-0.0024434609804302454,-0.018020525574684143,0.01924225501716137
1780001857705174000,8.744174072265626,0.003359758760780096,-0.026419922709465027,0.014966198243200779
1780001857721508900,8.7605087890625,0.007788531947880983,-0.021838432177901268,0.00427605677396059
1780001857737838300,8.77683837890625,0.009621127508580685,-0.007177666760981083,0.001527163083665073
1780001857754174000,8.793174072265625,0.007788531947880983,0.02229658141732216,0.0065668015740811825
1780001857770500400,8.809500244140626,0.003817907767370343,0.05253441259264946,0.005039638374000788
1780001857786830800,8.825830810546876,0.00045814894838258624,0.06734789162874222,0.005192354787141085
1780001857803171600,8.842171630859376,-0.00366519158706069,0.05711590126156807,0.004886921960860491
1780001857819483000,8.85848291015625,-0.005650503560900688,0.02687807008624077,0.004886921960860491
1780001857835827700,8.87482763671875,-0.005039638374000788,-0.016340645030140877,0.004734205547720194
1780001857852169000,8.8911689453125,-0.004886921960860491,-0.052381694316864014,0.005650503560900688
1780001857868496100,8.90749609375,-0.004886921960860491,-0.06933320313692093,0.005039638374000788
1780001857884826000,8.923826171875,-0.005497787147760391,-0.06291911751031876,0.0032070425804704428
1780001857901170000,8.940169921875,-0.004581489134579897,-0.04596760869026184,-0.001832595793530345
1780001857917472800,8.95647265625,-0.003512475173920393,-0.01924225501716137,-0.008704829961061478
1780001857933812700,8.972812744140626,-0.0025961773935705423,0.014049900695681572,-0.018020525574684143
1780001857950145000,8.98914501953125,-0.00366519158706069,0.044135015457868576,-0.02580905705690384
1780001857966464000,9.005464111328125,-0.004428773187100887,0.0656680166721344,-0.03084869496524334
1780001857982809600,9.0218095703125,-0.0064140851609408855,0.06719517707824707,-0.031612277030944824
1780001857999140400,9.038140380859375,-0.009162978269159794,0.05925392732024193,-0.025961773470044136
1780001858015474400,9.054474365234375,-0.008399397134780884,0.038026362657547,-0.014355333521962166
1780001858031810000,9.07081005859375,-0.005497787147760391,0.005497787147760391,-0.007024950347840786
1780001858048152300,9.08715234375,-0.0010690141934901476,-0.030695978552103043,-0.00733038317412138
1780001858064483600,9.103483642578125,0.0010690141934901476,-0.06001751124858856,-0.013286318629980087
1780001858080817700,9.119817626953125,-0.001527163083665073,-0.07422012835741043,-0.019547687843441963
1780001858097149400,9.1361494140625,-0.005345070734620094,-0.07208210229873657,-0.019394971430301666
1780001858113451800,9.15245166015625,-0.01114829070866108,-0.06062837690114975,-0.014966198243200779
1780001858129784800,9.168784912109375,-0.017562376335263252,-0.040164388716220856,-0.007788531947880983
1780001858146135600,9.185135498046876,-0.01924225501716137,-0.015577063895761967,-0.0019853119738399982
1780001858162448400,9.201448486328125,-0.01863138936460018,0.0039706239476799965,-0.0013744467869400978
1780001858178797800,9.2177978515625,-0.011301007121801376,0.021838432177901268,-0.004886921960860491
1780001858195129900,9.2341298828125,0.0007635815418325365,0.0328340083360672,-0.011453723534941673
1780001858211466000,9.250466064453125,0.01191187184303999,0.04306599870324135,-0.013439035043120384
1780001858227823900,9.266823974609375,0.022907447069883347,0.0455094613134861,-0.009621127508580685
1780001858244121600,9.28312158203125,0.031001411378383636,0.03741549700498581,-0.0022907445672899485
1780001858260445400,9.299445556640626,0.03176499158143997,0.02428189292550087,0.001679879380390048
1780001858276806400,9.315806396484374,0.029016099870204926,0.005497787147760391,0.011759156361222267
1780001858293137000,9.332136962890624,0.02474004216492176,-0.014508049935102463,0.02015855349600315
1780001858309470200,9.34847021484375,0.02015855349600315,-0.038179077208042145,0.029168816283345222
1780001858325786000,9.3647861328125,0.014355333521962166,-0.055283304303884506,0.030085112899541855
1780001858342135300,9.38113525390625,0.00931569468230009,-0.06414084881544113,0.021991148591041565
1780001858358463700,9.397463623046875,0.0012217304902151227,-0.055283304303884506,0.010842857882380486
1780001858374802200,9.41380224609375,-0.005192354787141085,-0.03634648025035858,0.0007635815418325365
1780001858391115500,9.430115478515624,-0.011301007121801376,-0.007941247895359993,-0.0006108652451075613
1780001858407447000,9.446447021484374,-0.017409659922122955,0.030543262138962746,-0.0029016099870204926
1780001858423769900,9.462769775390624,-0.02321287989616394,0.06505715101957321,-0.005497787147760391
1780001858440115500,9.479115478515626,-0.031612277030944824,0.09560041129589081,-0.012522737495601177
1780001858456444000,9.49544384765625,-0.03497203439474106,0.11285735666751862,-0.015118914656341076
1780001858472783000,9.511783203125,-0.03451388701796532,0.10949759185314178,-0.01924225501716137
1780001858489113900,9.52811376953125,-0.03375030308961868,0.08384125679731369,-0.027183502912521362
1780001858505444400,9.5444443359375,-0.032528575509786606,0.05406157299876213,-0.0377209298312664
1780001858521777200,9.560777099609375,-0.02733621932566166,0.02626720629632473,-0.039095375686883926
1780001858538126800,9.577126953125,-0.019547687843441963,0.0029016099870204926,-0.024434609338641167
1780001858554456000,9.5934560546875,-0.012064588256180286,-0.013744467869400978,0.0009162978967651725
1780001858570787600,9.60978759765625,-0.005803219974040985,-0.024129176512360573,0.016798794269561768
1780001858587118600,9.62611865234375,-0.0029016099870204926,-0.03588833287358284,0.02382374368607998
1780001858603463000,9.642462890625,-0.0025961773935705423,-0.04444044828414917,0.02229658141732216
1780001858619785000,9.658784912109375,-0.0013744467869400978,-0.034666601568460464,0.024587325751781464
1780001858636122600,9.67512255859375,0.008857546374201775,-0.012064588256180286,0.011453723534941673
1780001858652444700,9.691444580078125,0.016493361443281174,0.01114829070866108,-0.018325956538319588
1780001858668782600,9.707782470703124,0.017562376335263252,0.05513058975338936,-0.02733621932566166
1780001858685102600,9.7241025390625,0.02321287989616394,0.10949759185314178,-0.010690141469240189
1780001858701427500,9.740427490234374,0.026572637259960175,0.1463022232055664,0.00045814894838258624
1780001858717769500,9.75676953125,0.025656340643763542,0.156686931848526,-0.001527163083665073
1780001858734097700,9.77309765625,0.025961773470044136,0.14385876059532166,-0.0064140851609408855
1780001858750430000,9.789429931640624,0.025961773470044136,0.11698069423437119,0.0003054326225537807
1780001858766761700,9.80576171875,0.026419922709465027,0.08124507963657379,0.014355333521962166
1780001858783111400,9.822111328125,0.027947084978222847,0.04001167416572571,0.02580905705690384
1780001858799436800,9.838436767578125,0.02580905705690384,-0.0025961773935705423,0.032528575509786606
1780001858815777000,9.854777099609375,0.023518312722444534,-0.03787364438176155,0.03390302136540413
1780001858832102700,9.8711025390625,0.021074850112199783,-0.058795779943466187,0.03756821155548096
1780001858848438500,9.8874384765625,0.01771509274840355,-0.055741455405950546,0.04337143152952194
1780001858864770300,9.903770263671875,0.014966198243200779,-0.027488935738801956,0.046273041516542435
1780001858881101800,9.920101806640625,0.011301007121801376,0.015118914656341076,0.04444044828414917
1780001858897417200,9.936417236328126,0.009621127508580685,0.06108652427792549,0.036041051149368286
1780001858913753900,9.95275390625,0.011759156361222267,0.10018189996480942,0.024434609338641167
1780001858930075100,9.9690751953125,0.01160643994808197,0.12095131725072861,0.009010262787342072
1780001858946418000,9.98541796875,0.009468411095440388,0.12476922571659088,-0.001527163083665073
1780001858962749200,10.001749267578125,0.007024950347840786,0.11591167747974396,-0.00427605677396059
1780001858979069200,10.018069091796875,0.0039706239476799965,0.096211276948452,-0.0012217304902151227
1780001858995415000,10.0344150390625,0.001832595793530345,0.06627888232469559,0.01160643994808197
1780001859011747600,10.05074755859375,-0.0003054326225537807,0.03649919852614403,0.028099801391363144
1780001859028096800,10.0670966796875,-0.00045814894838258624,0.011301007121801376,0.04108068719506264
1780001859044425200,10.08342529296875,0.0027488935738801956,-0.00855211354792118,0.042760565876960754
1780001859060758000,10.099758056640624,0.009926560334861279,-0.02229658141732216,0.03741549700498581
1780001859077074000,10.116073974609375,0.015118914656341076,-0.023976460099220276,0.03130684420466423
1780001859093421000,10.132421142578124,0.021380282938480377,-0.01237002108246088,0.024892758578062057
1780001859109755400,10.14875537109375,0.02382374368607998,0.0025961773935705423,0.016340645030140877
1780001859126087700,10.165087646484375,0.02474004216492176,0.014049900695681572,0.004428773187100887
1780001859142397200,10.181397216796874,0.02474004216492176,0.027641652151942253,-0.0029016099870204926
1780001859158750700,10.197750732421875,0.01924225501716137,0.044745877385139465,-0.00855211354792118
1780001859175063600,10.2140634765625,0.014355333521962166,0.05207626149058342,-0.0065668015740811825
1780001859191400200,10.230400146484374,0.008246680721640587,0.0507018156349659,-0.00045814894838258624
1780001859207738000,10.246738037109376,0.006261368747800589,0.0403171069920063,0.010995574295520782
1780001859224078800,10.263078857421876,0.005955935921519995,0.011759156361222267,0.01924225501716137
1780001859240433700,10.27943359375,0.006261368747800589,-0.029932396486401558,0.020922135561704636
1780001859256746500,10.29574658203125,0.007177666760981083,-0.06841690838336945,0.012980886735022068
1780001859273078300,10.312078369140625,0.003054326167330146,-0.08475755155086517,-0.0006108652451075613
1780001859289411600,10.32841162109375,-0.0039706239476799965,-0.07131851464509964,-0.00733038317412138
1780001859305726500,10.3447265625,-0.007788531947880983,-0.03634648025035858,-0.006872233934700489
1780001859322075400,10.361075439453124,-0.007788531947880983,0.0032070425804704428,-0.0024434609804302454
1780001859338392300,10.377392333984375,-0.0065668015740811825,0.023060163483023643,-0.0025961773935705423
1780001859354737000,10.39373681640625,-0.003054326167330146,0.016035212203860283,-0.011759156361222267
1780001859371055900,10.410055908203125,-0.0019853119738399982,-0.007177666760981083,-0.016951510682702065
1780001859387392300,10.426392333984374,0.0010690141934901476,-0.039095375686883926,-0.016951510682702065
1780001859403723300,10.44272314453125,0.003359758760780096,-0.0708603709936142,-0.01817324012517929
1780001859420055600,10.4590556640625,0.0019853119738399982,-0.09208793938159943,-0.016035212203860283
1780001859436388400,10.475388427734375,0.0012217304902151227,-0.08781187981367111,-0.014813481830060482
1780001859452717300,10.49171728515625,0.0013744467869400978,-0.06643159687519073,-0.016951510682702065
1780001859469044200,10.508044189453125,0.001832595793530345,-0.04199698567390442,-0.017867809161543846
1780001859485388000,10.524387939453124,0.0022907445672899485,-0.020311269909143448,-0.020005837082862854
1780001859501700600,10.54070068359375,0.001679879380390048,-0.0065668015740811825,-0.02015855349600315
1780001859518067500,10.5570673828125,0.0019853119738399982,-0.0007635815418325365,-0.024587325751781464
1780001859534392600,10.573392578125,0.0025961773935705423,-0.001679879380390048,-0.023060163483023643
1780001859550732800,10.58973291015625,0.0007635815418325365,-0.01114829070866108,-0.02168571576476097
1780001859567057700,10.6060576171875,-0.0010690141934901476,-0.027947084978222847,-0.013744467869400978
1780001859583396600,10.622396728515625,-0.0019853119738399982,-0.0529925599694252,-0.006108652334660292
1780001859599720200,10.63872021484375,-0.00366519158706069,-0.07330382615327835,-0.0009162978967651725
1780001859616057000,10.65505712890625,-0.004734205547720194,-0.07513642311096191,0.0010690141934901476
1780001859632390100,10.67139013671875,-0.003054326167330146,-0.05910121276974678,-0.007024950347840786
1780001859648728800,10.687728759765625,-0.00015271631127689034,-0.032070424407720566,-0.023365596309304237
1780001859665053200,10.70405322265625,-0.0022907445672899485,0.007635815534740686,-0.031001411378383636
1780001859681387000,10.720386962890625,-0.00366519158706069,0.052839845418930054,-0.029168816283345222
1780001859697712000,10.736712158203124,-0.0074830991216003895,0.08231408894062042,-0.023518312722444534
1780001859714059300,10.753059326171876,-0.01237002108246088,0.08002334833145142,-0.014813481830060482
1780001859730382300,10.76938232421875,-0.015577063895761967,0.054825156927108765,0.0013744467869400978
1780001859746717000,10.785717041015625,-0.01710422709584236,0.021074850112199783,0.019394971430301666
1780001859763055000,10.80205517578125,-0.017409659922122955,-0.010690141469240189,0.028405234217643738
1780001859779371300,10.818371337890625,-0.01618792861700058,-0.03527746722102165,0.02076941914856434
1780001859795718700,10.83471875,-0.014049900695681572,-0.03497203439474106,0.013897184282541275
1780001859812043500,10.85104345703125,-0.008246680721640587,-0.0007635815418325365,0.006261368747800589
1780001859828378400,10.86737841796875,-0.004886921960860491,0.05650503560900688,0.002138028386980295
1780001859844711000,10.8837109375,-0.003054326167330146,0.11407908797264099,0.004581489134579897
1780001859861041000,10.900041015625,-0.002138028386980295,0.14126259088516235,0.008704829961061478
1780001859877339400,10.91633935546875,-0.00045814894838258624,0.12599095702171326,0.007635815534740686
1780001859893694000,10.93269384765625,0.0013744467869400978,0.078343465924263,0.00366519158706069
1780001859910026500,10.949026611328126,0.0006108652451075613,0.014049900695681572,0.008246680721640587
1780001859926358300,10.965358154296876,-0.003359758760780096,-0.042760565876960754,0.017409659922122955
1780001859942690800,10.98169091796875,-0.012064588256180286,-0.07498370856046677,0.026572637259960175
1780001859959023000,10.998023193359375,-0.015271631069481373,-0.08445212244987488,0.032070424407720566
1780001859975355000,11.01435498046875,-0.015118914656341076,-0.0659734457731247,0.03955352306365967
1780001859991665700,11.030665771484376,-0.014202617108821869,-0.020463986322283745,0.043218716979026794
1780001860008023800,11.04702392578125,-0.01237002108246088,0.03756821155548096,0.035124752670526505
1780001860024365800,11.06336572265625,-0.012064588256180286,0.08643743395805359,0.016493361443281174
1780001860040699000,11.079698974609375,-0.013439035043120384,0.12064588814973831,-0.0019853119738399982
1780001860057029000,11.096029052734375,-0.011453723534941673,0.14065171778202057,-0.01771509274840355
1780001860073361200,11.112361083984375,-0.007941247895359993,0.13668109476566315,-0.03848451003432274
1780001860089695500,11.128695556640626,-0.003817907767370343,0.10919216275215149,-0.05314527451992035
1780001860106006500,11.145006591796875,0.005192354787141085,0.039248090237379074,-0.05543602257966995
1780001860122361000,11.161361083984374,0.009773843921720982,-0.06200282275676727,-0.035124752670526505
1780001860138706000,11.177705810546875,0.014966198243200779,-0.1411098688840866,-0.007177666760981083
1780001860155024400,11.1940244140625,0.016951510682702065,-0.17959438264369965,0.010079276748001575
1780001860171342800,11.2103427734375,0.02428189292550087,-0.18188512325286865,0.01970040425658226
1780001860187683300,11.226683349609376,0.010995574295520782,-0.14065171778202057,0.031612277030944824
1780001860204022800,11.243022705078126,0.003817907767370343,-0.08368854224681854,0.023976460099220276
1780001860220357000,11.259357177734374,-0.0006108652451075613,-0.048716504126787186,-0.005650503560900688
1780001860236669200,11.275669189453126,-0.005345070734620094,-0.02367102913558483,-0.02519819140434265
1780001860253019000,11.292018798828124,-0.00733038317412138,0.01191187184303999,-0.014355333521962166
1780001860269334500,11.30833447265625,-0.007788531947880983,0.04566217586398125,0.0039706239476799965
1780001860285683700,11.32468359375,-0.004581489134579897,0.048258353024721146,-0.0074830991216003895
1780001860302010000,11.341010009765625,-0.005192354787141085,0.02382374368607998,-0.033597588539123535
1780001860318351600,11.3573515625,-0.009773843921720982,0.007941247895359993,-0.04108068719506264
1780001860334654700,11.37365478515625,-0.01710422709584236,0.02428189292550087,-0.02519819140434265
1780001860351004700,11.390004638671876,-0.02015855349600315,0.0503963828086853,-0.004428773187100887
1780001860367325200,11.4063251953125,-0.02076941914856434,0.07009678333997726,0.003512475173920393
1780001860383667000,11.4226669921875,-0.016035212203860283,0.07651086896657944,0.0024434609804302454
1780001860399996400,11.438996337890625,-0.01237002108246088,0.07651086896657944,-0.00015271631127689034
1780001860416328200,11.455328125,-0.01191187184303999,0.07467827945947647,0.00015271631127689034
1780001860432648000,11.47164794921875,-0.014049900695681572,0.06612616032361984,0.0009162978967651725
1780001860448990200,11.487990234375,-0.014508049935102463,0.04657847434282303,0.004123340360820293
1780001860465326300,11.504326416015624,-0.014966198243200779,0.015271631069481373,0.004581489134579897
1780001860481660700,11.52066064453125,-0.012522737495601177,-0.01878410577774048,0.0007635815418325365
1780001860497997600,11.53699755859375,-0.008857546374201775,-0.04138612002134323,-0.0013744467869400978
1780001860514354200,11.553354248046874,-0.005192354787141085,-0.04382958263158798,-0.0006108652451075613
1780001860530669000,11.5696689453125,-0.0027488935738801956,-0.025961773470044136,0.0009162978967651725
1780001860546997000,11.5859970703125,0.0010690141934901476,0.004123340360820293,-0.00015271631127689034
1780001860563341300,11.60234130859375,0.00366519158706069,0.03940080851316452,-0.00427605677396059
1780001860579660500,11.61866064453125,0.001527163083665073,0.06872233748435974,-0.008704829961061478
1780001860595998200,11.634998291015625,0.0003054326225537807,0.07895433157682419,-0.006872233934700489
1780001860612324000,11.651323974609374,-0.001679879380390048,0.06948592513799667,-0.002138028386980295
1780001860628672500,11.667672607421874,-0.005803219974040985,0.04596760869026184,0.005650503560900688
1780001860644990000,11.683989990234375,-0.005039638374000788,0.022143865004181862,0.00809396430850029
1780001860661327400,11.700327392578124,-0.0019853119738399982,0.007941247895359993,0.009468411095440388
1780001860677659600,11.71665966796875,0.002138028386980295,0.0065668015740811825,0.010231993161141872
1780001860693990100,11.732990234375,0.005345070734620094,0.009926560334861279,0.009621127508580685
1780001860710324700,11.74932470703125,0.00809396430850029,0.013286318629980087,0.00809396430850029
1780001860726658000,11.765657958984375,0.005803219974040985,0.01618792861700058,0.008399397134780884
1780001860742989600,11.781989501953126,0.004734205547720194,0.018020525574684143,0.00931569468230009
1780001860759321600,11.798321533203126,0.00366519158706069,0.014813481830060482,0.014202617108821869
1780001860775649800,11.81464990234375,0.005955935921519995,0.011759156361222267,0.016951510682702065
1780001860791990300,11.830990234375,0.010231993161141872,0.003817907767370343,0.018478672951459885
1780001860808318000,11.84731787109375,0.014813481830060482,-0.0013744467869400978,0.015882495790719986
1780001860824649000,11.86364892578125,0.01618792861700058,-0.004581489134579897,0.004734205547720194
1780001860840983000,11.879983154296875,0.012217304669320583,0.002138028386980295,-0.00733038317412138
1780001860857298400,11.89629833984375,0.0064140851609408855,0.01664607785642147,-0.009162978269159794
1780001860873634000,11.912634033203124,-0.0009162978967651725,0.03298672288656235,-0.002138028386980295
1780001860889966300,11.92896630859375,-0.0064140851609408855,0.04612032696604729,0.008246680721640587
1780001860906287600,11.94528759765625,-0.005039638374000788,0.052381694316864014,0.01878410577774048
1780001860922631000,11.961630859375,0.00015271631127689034,0.043676864355802536,0.027947084978222847
1780001860938961700,11.977961669921875,0.0065668015740811825,0.01878410577774048,0.02474004216492176
1780001860955295500,11.99429541015625,0.01160643994808197,-0.019089538604021072,0.00931569468230009
1780001860971628000,12.0106279296875,0.012217304669320583,-0.048105638474226,-0.003512475173920393
1780001860987960000,12.0269599609375,0.009926560334861279,-0.05619960278272629,-0.007788531947880983
1780001861004294400,12.04329443359375,0.007635815534740686,-0.04352414980530739,-0.003512475173920393
1780001861020639200,12.05963916015625,0.00427605677396059,-0.027183502912521362,0.0010690141934901476
1780001861036965600,12.075965576171875,0.0024434609804302454,-0.013286318629980087,0.004123340360820293
1780001861053286700,12.09228662109375,0.0024434609804302454,-0.010842857882380486,0.004734205547720194
1780001861069623800,12.108623779296876,0.0032070425804704428,-0.01191187184303999,-0.0009162978967651725
1780001861085968000,12.1249677734375,0.005192354787141085,-0.01817324012517929,-0.009621127508580685
1780001861102291700,12.141291748046875,0.004734205547720194,-0.023518312722444534,-0.01237002108246088
1780001861118616000,12.157615966796875,0.004581489134579897,-0.023060163483023643,-0.005345070734620094
1780001861134956800,12.173956787109375,0.004123340360820293,-0.028099801391363144,0.004734205547720194
1780001861151292400,12.19029248046875,0.004428773187100887,-0.04337143152952194,0.008246680721640587
1780001861167613200,12.20661328125,0.001679879380390048,-0.05757404863834381,0.01038470957428217
1780001861183961000,12.222961181640626,0.001527163083665073,-0.06291911751031876,0.00809396430850029
1780001861200277500,12.239277587890625,0.0010690141934901476,-0.05803219974040985,0.00015271631127689034
1780001861216626700,12.255626708984375,0.0024434609804302454,-0.0354301854968071,-0.009773843921720982
1780001861232955400,12.271955322265624,0.0012217304902151227,-0.0012217304902151227,-0.01725694350898266
1780001861249294800,12.288294921875,0.0007635815418325365,0.031001411378383636,-0.016951510682702065
1780001861265622800,12.304622802734375,-0.0027488935738801956,0.04764748737215996,-0.010690141469240189
1780001861281944800,12.32094482421875,-0.004428773187100887,0.044287730008363724,-0.00366519158706069
1780001861298291500,12.33729150390625,-0.003054326167330146,0.025503624230623245,0.0025961773935705423
1780001861314600200,12.35360009765625,-0.0007635815418325365,-0.00015271631127689034,0.005345070734620094
1780001861330939600,12.369939697265625,0.001832595793530345,-0.01863138936460018,0.006872233934700489
1780001861347255800,12.386255859375,0.0025961773935705423,-0.02474004216492176,0.006719517521560192
1780001861363606800,12.402606689453124,0.0013744467869400978,-0.018936822190880775,0.009621127508580685
1780001861379935700,12.418935791015626,0.0027488935738801956,-0.004428773187100887,0.009621127508580685
1780001861396268500,12.4352685546875,0.0027488935738801956,0.007941247895359993,0.005497787147760391
1780001861412600800,12.451600830078124,-0.00045814894838258624,0.015118914656341076,-0.0019853119738399982
1780001861428933000,12.46793310546875,-0.0012217304902151227,0.021991148591041565,-0.005039638374000788
1780001861445265200,12.48426513671875,-0.003512475173920393,0.03237585723400116,-0.003817907767370343
1780001861461588700,12.500588623046875,-0.00427605677396059,0.03955352306365967,0.005803219974040985
1780001861477930200,12.51693017578125,-0.003512475173920393,0.0354301854968071,0.012217304669320583
1780001861494275000,12.533275146484375,0.0007635815418325365,0.015271631069481373,0.016340645030140877
1780001861510613000,12.549613037109374,0.005345070734620094,-0.015577063895761967,0.013897184282541275
1780001861526934300,12.565934326171876,0.006872233934700489,-0.0354301854968071,0.006872233934700489
1780001861543278300,12.5822783203125,0.005345070734620094,-0.03680463135242462,0.0013744467869400978
1780001861559606800,12.598606689453124,0.004886921960860491,-0.020311269909143448,-0.0007635815418325365
1780001861575936500,12.6149365234375,0.001527163083665073,-0.0009162978967651725,0.004886921960860491
1780001861592271000,12.63127099609375,-0.0007635815418325365,0.009773843921720982,0.010231993161141872
1780001861608603000,12.647602783203125,-0.001527163083665073,0.007024950347840786,0.010231993161141872
1780001861624934100,12.66393408203125,-0.0025961773935705423,-0.007024950347840786,0.004734205547720194
1780001861641267000,12.680266845703125,-0.0022907445672899485,-0.019394971430301666,-0.005803219974040985
1780001861657593300,12.69659326171875,-0.0025961773935705423,-0.024129176512360573,-0.013744467869400978
1780001861673940200,12.712940185546875,-0.003054326167330146,-0.012522737495601177,-0.016493361443281174
1780001861690258400,12.729258544921874,-0.0032070425804704428,0.005345070734620094,-0.01114829070866108
1780001861706598000,12.745597900390624,-0.0012217304902151227,0.02168571576476097,-0.00809396430850029
1780001861722929400,12.761929443359374,-0.00045814894838258624,0.02580905705690384,-0.005955935921519995
1780001861739261700,12.77826171875,-0.0006108652451075613,0.018936822190880775,-0.007635815534740686
1780001861755593000,12.794593017578125,-0.0009162978967651725,0.001679879380390048,-0.007177666760981083
1780001861771926000,12.810926025390625,-0.002138028386980295,-0.01618792861700058,-0.005955935921519995
1780001861788256800,12.8272568359375,-0.003512475173920393,-0.02580905705690384,-0.003054326167330146
1780001861804589600,12.843589599609375,-0.005192354787141085,-0.03039054572582245,0.00045814894838258624
1780001861820923400,12.85992333984375,-0.005650503560900688,-0.029626963660120964,0.0029016099870204926
1780001861837238000,12.876238037109376,-0.0032070425804704428,-0.028099801391363144,0.003359758760780096
1780001861853574100,12.89257421875,-0.0013744467869400978,-0.02076941914856434,-0.0019853119738399982
1780001861869905700,12.90890576171875,0.0007635815418325365,-0.009926560334861279,-0.01191187184303999
1780001861886238200,12.92523828125,0.001679879380390048,0.004428773187100887,-0.019394971430301666
1780001861902569200,12.9415693359375,0.0012217304902151227,0.017409659922122955,-0.020005837082862854
1780001861918903300,12.9579033203125,-0.00015271631127689034,0.02687807008624077,-0.015577063895761967
1780001861935235600,12.974235595703124,-0.002138028386980295,0.030543262138962746,-0.010231993161141872
1780001861951568000,12.99056787109375,-0.0022907445672899485,0.025045474991202354,-0.0074830991216003895
1780001861967899400,13.0068994140625,-0.0012217304902151227,0.020922135561704636,-0.003054326167330146
1780001861984236000,13.023236083984376,0,0.014508049935102463,-0.0032070425804704428
1780001862000578800,13.039578857421875,0.0027488935738801956,0.010537425056099892,0.00015271631127689034
1780001862016894200,13.055894287109375,0.005803219974040985,0.00366519158706069,0.00366519158706069
1780001862033227000,13.07222705078125,0.009010262787342072,-0.004581489134579897,0.008857546374201775
1780001862049575400,13.088575439453125,0.00733038317412138,-0.01237002108246088,0.013286318629980087
1780001862065879000,13.104879150390625,0.004428773187100887,-0.018020525574684143,0.013439035043120384
1780001862082240300,13.121240234375,0.0025961773935705423,-0.020005837082862854,0.011453723534941673
1780001862098538800,13.137538818359374,-0.0010690141934901476,-0.018020525574684143,0.007941247895359993
1780001862114904800,13.15390478515625,-0.0013744467869400978,-0.010995574295520782,0.0024434609804302454
1780001862131220200,13.17022021484375,-0.0012217304902151227,0.004734205547720194,-0.0027488935738801956
1780001862147569700,13.186569580078125,-0.0022907445672899485,0.02733621932566166,-0.007024950347840786
1780001862163895800,13.202895751953125,-0.0024434609804302454,0.052381694316864014,-0.006108652334660292
1780001862180238000,13.219238037109376,-0.004734205547720194,0.06475171446800232,-0.003512475173920393
1780001862196550100,13.235550048828125,-0.005497787147760391,0.06902777403593063,0.0022907445672899485
1780001862212898000,13.25189794921875,-0.005039638374000788,0.057879481464624405,0.009468411095440388
1780001862229226500,13.2682265625,-0.004123340360820293,0.024587325751781464,0.01817324012517929
1780001862245567200,13.284567138671875,-0.0027488935738801956,-0.02733621932566166,0.024587325751781464
1780001862261874700,13.300874755859375,-0.0022907445672899485,-0.07192938029766083,0.024587325751781464
1780001862278232000,13.317232177734375,-0.001527163083665073,-0.09315694868564606,0.01725694350898266
1780001862294559000,13.33355908203125,-0.0013744467869400978,-0.07452555745840073,0.00809396430850029
1780001862310891800,13.349891845703125,-0.005345070734620094,-0.02122756652534008,0.00045814894838258624
1780001862327193300,13.366193359375,-0.007941247895359993,0.047189339995384216,-0.001679879380390048
1780001862343544600,13.382544677734375,-0.0065668015740811825,0.09544769674539566,0.003817907767370343
1780001862359875800,13.398875732421875,-0.0025961773935705423,0.1062905490398407,0.0074830991216003895
1780001862376208400,13.41520849609375,0.0024434609804302454,0.08384125679731369,0.009010262787342072
1780001862392531000,13.431531005859375,0.007788531947880983,0.043676864355802536,0.0022907445672899485
1780001862408872400,13.44787255859375,0.010842857882380486,0.001679879380390048,-0.004886921960860491
1780001862425205000,13.464205078125,0.00733038317412138,-0.02687807008624077,-0.00855211354792118
1780001862441537300,13.480537353515626,0.0029016099870204926,-0.03084869496524334,-0.0019853119738399982
1780001862457871400,13.496871337890624,-0.0029016099870204926,-0.015271631069481373,0.01160643994808197
1780001862474204200,13.5132041015625,-0.009926560334861279,0.01160643994808197,0.023976460099220276
1780001862490548700,13.529548828125,-0.012980886735022068,0.03084869496524334,0.027947084978222847
1780001862506880000,13.5458798828125,-0.010537425056099892,0.0377209298312664,0.022602014243602753
1780001862523198000,13.562197998046875,-0.005345070734620094,0.03527746722102165,0.013286318629980087
1780001862539542500,13.57854248046875,-0.0007635815418325365,0.02428189292550087,0.004581489134579897
1780001862555878000,13.5948779296875,0.004123340360820293,0.008399397134780884,0.0019853119738399982
1780001862572210200,13.611210205078125,0.007177666760981083,-0.005955935921519995,0.003359758760780096
1780001862588542700,13.627542724609375,0.005955935921519995,-0.009773843921720982,0.004581489134579897
1780001862604874000,13.6438740234375,0.0039706239476799965,-0.007941247895359993,0.010231993161141872
1780001862621202200,13.6602021484375,0.001679879380390048,0.0010690141934901476,0.013286318629980087
1780001862637543700,13.676543701171875,0,0.007024950347840786,0.013439035043120384
1780001862653871900,13.692871826171874,-0.001527163083665073,0.012675453908741474,0.00809396430850029
1780001862670201900,13.709201904296876,-0.004123340360820293,0.012522737495601177,0.001679879380390048
1780001862686536400,13.725536376953125,-0.004734205547720194,0.01160643994808197,-0.001832595793530345
1780001862702867700,13.74186767578125,-0.006261368747800589,0.01160643994808197,-0.003054326167330146
1780001862719201000,13.758200927734375,-0.008399397134780884,0.01160643994808197,0
1780001862735533000,13.774532958984375,-0.006261368747800589,0.005497787147760391,0.0022907445672899485
1780001862751866000,13.7908662109375,-0.004886921960860491,-0.0064140851609408855,0.0019853119738399982
1780001862768198000,13.807197998046876,-0.004734205547720194,-0.01572977937757969,-0.0024434609804302454
1780001862784529400,13.823529296875,-0.004734205547720194,-0.016035212203860283,-0.00809396430850029
1780001862800845300,13.83984521484375,-0.005803219974040985,-0.00427605677396059,-0.011759156361222267
1780001862817178000,13.85617822265625,-0.007941247895359993,0.005650503560900688,-0.009468411095440388
1780001862833513000,13.872512939453125,-0.008399397134780884,0.009773843921720982,-0.006261368747800589
1780001862849845800,13.888845703125,-0.0064140851609408855,0.008246680721640587,-0.004886921960860491
1780001862866170000,13.905170166015624,-0.00366519158706069,0.006719517521560192,-0.003817907767370343
1780001862882509800,13.921509765625,-0.001527163083665073,0.004886921960860491,-0.005345070734620094
1780001862898842000,13.937842041015625,-0.0010690141934901476,0.00427605677396059,-0.006108652334660292
1780001862915174700,13.954174560546875,-0.002138028386980295,-0.001679879380390048,-0.005345070734620094
1780001862931505700,13.970505615234375,-0.0025961773935705423,-0.00733038317412138,-0.0007635815418325365
1780001862947839700,13.98683984375,-0.001832595793530345,-0.01878410577774048,0.005803219974040985
1780001862964171500,14.003171630859375,-0.0006108652451075613,-0.03237585723400116,0.011301007121801376
1780001862980520400,14.0195205078125,0.0013744467869400978,-0.04734205827116966,0.01191187184303999
1780001862996842500,14.035842529296875,0.0019853119738399982,-0.057879481464624405,0.006872233934700489
1780001863013182200,14.05218212890625,0.0012217304902151227,-0.05345070734620094,-0.00045814894838258624
1780001863029498000,14.068498046875,-0.0003054326225537807,-0.03588833287358284,-0.005497787147760391
1780001863045846800,14.0848466796875,-0.0010690141934901476,-0.009926560334861279,-0.008857546374201775
1780001863062162000,14.101161865234374,-0.0024434609804302454,0.01863138936460018,-0.010995574295520782
1780001863078512000,14.11751220703125,-0.0024434609804302454,0.03955352306365967,-0.013286318629980087
1780001863094844000,14.133843994140625,-0.0022907445672899485,0.0455094613134861,-0.009468411095440388
1780001863111179800,14.1501796875,-0.00015271631127689034,0.03130684420466423,-0.0064140851609408855
1780001863127502600,14.166502685546876,0.00045814894838258624,0.01038470957428217,-0.0032070425804704428
1780001863143844900,14.182844970703124,0.0007635815418325365,-0.012522737495601177,-0.0027488935738801956
1780001863160140800,14.199140869140624,0,-0.028099801391363144,0.0006108652451075613
1780001863176505600,14.215505615234376,-0.00015271631127689034,-0.03298672288656235,0.0027488935738801956
1780001863192837600,14.231837646484376,-0.002138028386980295,-0.02580905705690384,0.0065668015740811825
1780001863209170400,14.24817041015625,-0.0029016099870204926,-0.01710422709584236,0.006719517521560192
1780001863225478100,14.26447802734375,-0.002138028386980295,-0.007177666760981083,0.004581489134579897
1780001863241835000,14.2808349609375,-0.00045814894838258624,-0.001679879380390048,-0.003512475173920393
1780001863258161200,14.2971611328125,0.00045814894838258624,0.0064140851609408855,-0.01038470957428217
1780001863274499800,14.313499755859375,0.00015271631127689034,0.013744467869400978,-0.01191187184303999
1780001863290836200,14.329836181640625,-0.001679879380390048,0.019089538604021072,-0.009162978269159794
1780001863307142400,14.346142333984375,-0.0024434609804302454,0.02015855349600315,-0.004581489134579897
1780001863323492400,14.362492431640625,-0.003817907767370343,0.016951510682702065,-0.0027488935738801956
1780001863339802600,14.378802734375,-0.00427605677396059,0.01191187184303999,-0.00015271631127689034
1780001863356147500,14.3951474609375,-0.0029016099870204926,0.0019853119738399982,-0.0006108652451075613
1780001863372480000,14.41147998046875,-0.0032070425804704428,-0.007177666760981083,-0.0024434609804302454
1780001863388811800,14.427811767578126,-0.004734205547720194,-0.014508049935102463,-0.003512475173920393
1780001863405144300,14.444144287109374,-0.005497787147760391,-0.016340645030140877,-0.004123340360820293
1780001863421476900,14.460476806640624,-0.005192354787141085,-0.005650503560900688,-0.0065668015740811825
1780001863437809000,14.476808837890625,-0.004734205547720194,0.009773843921720982,-0.00733038317412138
1780001863454141700,14.4931416015625,-0.00366519158706069,0.02122756652534008,-0.009162978269159794
1780001863470505000,14.5095048828125,-0.00366519158706069,0.021991148591041565,-0.008857546374201775
1780001863486819800,14.52581982421875,-0.0013744467869400978,0.01114829070866108,-0.009926560334861279
1780001863503149800,14.54214990234375,-0.0003054326225537807,-0.00427605677396059,-0.01160643994808197
1780001863519481300,14.5584814453125,-0.0013744467869400978,-0.012522737495601177,-0.014508049935102463
1780001863535820300,14.5748203125,-0.004123340360820293,-0.00809396430850029,-0.01542434748262167
1780001863552149200,14.591149169921875,-0.0064140851609408855,0.001832595793530345,-0.013591751456260681
1780001863568481300,14.607481201171876,-0.008246680721640587,0.014966198243200779,-0.006719517521560192
1780001863584814300,14.623814453125,-0.007788531947880983,0.021838432177901268,-0.00366519158706069
1780001863601142800,14.640142822265625,-0.005345070734620094,0.01878410577774048,-0.0039706239476799965
1780001863617475600,14.6564755859375,-0.0027488935738801956,0.005955935921519995,-0.008399397134780884
1780001863633814500,14.672814453125,-0.0022907445672899485,-0.006719517521560192,-0.010842857882380486
1780001863650143700,14.689143798828125,-0.0013744467869400978,-0.013897184282541275,-0.00427605677396059
1780001863666501400,14.70550146484375,-0.00045814894838258624,-0.01114829070866108,-0.0025961773935705423
1780001863682807600,14.7218076171875,0.0007635815418325365,-0.0012217304902151227,-0.00045814894838258624
1780001863699122700,14.738122802734376,0.0027488935738801956,0.0064140851609408855,-0.0006108652451075613
1780001863715473000,14.754472900390626,0.004428773187100887,0.008704829961061478,-0.003359758760780096
1780001863731807700,14.770807861328125,0.003817907767370343,0.0009162978967651725,-0.006872233934700489
1780001863748129800,14.7871298828125,0.0025961773935705423,-0.010231993161141872,-0.005497787147760391
1780001863764471300,14.80347119140625,0.0012217304902151227,-0.020005837082862854,0.0039706239476799965
1780001863780801300,14.81980126953125,-0.001679879380390048,-0.02474004216492176,0.012064588256180286
1780001863797103400,14.836103271484374,-0.004886921960860491,-0.023976460099220276,0.01542434748262167
1780001863813452500,14.85245263671875,-0.004886921960860491,-0.016035212203860283,0.010690141469240189
1780001863829784800,14.868784912109374,-0.00366519158706069,0.0003054326225537807,0.001527163083665073
1780001863846116600,14.88511669921875,-0.0022907445672899485,0.029626963660120964,-0.012828170321881771
1780001863862449400,14.901449462890625,0,0.060322944074869156,-0.022143865004181862
1780001863878781400,14.917781494140625,0.0022907445672899485,0.08368854224681854,-0.02687807008624077
1780001863895104000,14.93410400390625,0.00366519158706069,0.09117163717746735,-0.02474004216492176
1780001863911460900,14.9504609375,0.0019853119738399982,0.07941248267889023,-0.01970040425658226
1780001863927778800,14.96677880859375,-0.0007635815418325365,0.047189339995384216,-0.011301007121801376
1780001863944107500,14.983107421875,-0.003817907767370343,0.005345070734620094,0.0003054326225537807
1780001863960446200,14.9994462890625,-0.006719517521560192,-0.034666601568460464,0.01038470957428217
1780001863976792600,15.01579248046875,-0.00931569468230009,-0.05849034711718559,0.01572977937757969
1780001863993116200,15.0321162109375,-0.007788531947880983,-0.0679587572813034,0.01817324012517929
1780001864009454000,15.0484541015625,-0.004428773187100887,-0.057879481464624405,0.012217304669320583
1780001864025784600,15.06478466796875,-0.0006108652451075613,-0.029932396486401558,0.0007635815418325365
1780001864042101500,15.0811015625,0.00366519158706069,0.009621127508580685,-0.012828170321881771
1780001864058434300,15.097434326171875,0.004886921960860491,0.051770828664302826,-0.024587325751781464
1780001864074756600,15.113756591796875,0.003054326167330146,0.08491026610136032,-0.028099801391363144
1780001864091095600,15.130095458984375,0.0006108652451075613,0.10064005106687546,-0.025656340643763542
1780001864107432400,15.146432373046874,-0.0019853119738399982,0.09666942805051804,-0.017867809161543846
1780001864123784000,15.162783935546875,-0.0064140851609408855,0.07116580009460449,-0.007177666760981083
1780001864140095200,15.17909521484375,-0.007635815534740686,0.03145955875515938,-0.0003054326225537807
1780001864156428300,15.19542822265625,-0.00733038317412138,-0.014508049935102463,0.0006108652451075613
1780001864172777500,15.211777587890625,-0.0074830991216003895,-0.05742133408784866,-0.0007635815418325365
1780001864189101800,15.228101806640625,-0.00855211354792118,-0.07559457421302795,-0.00427605677396059
1780001864205448400,15.244448486328125,-0.009621127508580685,-0.06062837690114975,-0.012675453908741474
1780001864221749800,15.260749755859376,-0.009773843921720982,-0.023060163483023643,-0.021991148591041565
1780001864238105900,15.27710595703125,-0.009773843921720982,0.026572637259960175,-0.030085112899541855
1780001864254439000,15.29343896484375,-0.012522737495601177,0.0685696229338646,-0.0328340083360672
1780001864270769000,15.309768798828125,-0.01160643994808197,0.08628471940755844,-0.03451388701796532
1780001864287083500,15.32608349609375,-0.01191187184303999,0.08338310569524765,-0.039095375686883926
1780001864303425000,15.342425048828124,-0.011759156361222267,0.06979135423898697,-0.04108068719506264
1780001864319754000,15.35875390625,-0.00733038317412138,0.05146539583802223,-0.03588833287358284
1780001864336092400,15.375092529296875,-0.002138028386980295,0.03649919852614403,-0.025656340643763542
1780001864352419000,15.391419189453124,-0.00015271631127689034,0.021838432177901268,-0.014966198243200779
1780001864368748000,15.407748046875,0.005039638374000788,0.00045814894838258624,-0.0022907445672899485
1780001864385086200,15.424086181640625,0.006719517521560192,-0.03145955875515938,0.004123340360820293
1780001864401414100,15.4404140625,0.00733038317412138,-0.06276640295982361,0.00855211354792118
1780001864417748200,15.456748291015625,0.008399397134780884,-0.08307767659425735,0.010842857882380486
1780001864434079200,15.473079345703125,0.007635815534740686,-0.08170322328805923,0.009162978269159794
1780001864450417000,15.4894169921875,0.00733038317412138,-0.05650503560900688,0.005192354787141085
1780001864466757400,15.50575732421875,0.005803219974040985,-0.015271631069481373,0.0029016099870204926
1780001864483090700,15.522090576171875,0.005803219974040985,0.029016099870204926,0.001527163083665073
1780001864499423500,15.538423583984375,0.008246680721640587,0.0633772686123848,-0.00015271631127689034
1780001864515734800,15.55473486328125,0.010537425056099892,0.08078692853450775,-0.001832595793530345
1780001864532071400,15.571071533203124,0.014813481830060482,0.0835358202457428,-0.0022907445672899485
1780001864548403200,15.5874033203125,0.017409659922122955,0.076052725315094,-0.0029016099870204926
1780001864564723500,15.603723388671876,0.01924225501716137,0.05345070734620094,-0.0006108652451075613
1780001864581074000,15.620073974609374,0.01924225501716137,0.02428189292550087,0.0065668015740811825
1780001864597403600,15.636403564453126,0.016493361443281174,0.009621127508580685,0.014049900695681572
1780001864613735400,15.6527353515625,0.013439035043120384,0.00809396430850029,0.021991148591041565
1780001864630068200,15.669068115234374,0.011301007121801376,0.01664607785642147,0.026572637259960175
1780001864646400500,15.685400390625,0.009010262787342072,0.02168571576476097,0.03145955875515938
1780001864662731500,15.7017314453125,0.00855211354792118,0.022907447069883347,0.027641652151942253
1780001864679070200,15.7180703125,0.008857546374201775,0.019394971430301666,0.01924225501716137
1780001864695411500,15.734411376953124,0.00855211354792118,0.013744467869400978,0.012828170321881771
1780001864711726300,15.750726318359375,0.007941247895359993,0.005650503560900688,0.006108652334660292
1780001864728074500,15.767074462890625,0.004123340360820293,0.001527163083665073,-0.0006108652451075613
1780001864744407800,15.78340771484375,-0.00045814894838258624,0.0064140851609408855,-0.00427605677396059
1780001864760740600,15.79974072265625,-0.005650503560900688,0.01863138936460018,-0.0024434609804302454
1780001864777045500,15.81604541015625,-0.010079276748001575,0.03298672288656235,0.0012217304902151227
1780001864793391600,15.8323916015625,-0.009773843921720982,0.041691552847623825,0.00427605677396059
1780001864809711400,15.84871142578125,-0.005497787147760391,0.030543262138962746,0.003817907767370343
1780001864826055700,15.8650556640625,0.00015271631127689034,0.01237002108246088,-0.003359758760780096
1780001864842388200,15.88138818359375,0.0024434609804302454,0.005803219974040985,-0.013591751456260681
1780001864858720300,15.89772021484375,0.003817907767370343,0.014813481830060482,-0.01924225501716137
1780001864875052500,15.914052490234376,0.0032070425804704428,0.03084869496524334,-0.008857546374201775
1780001864891371800,15.930371826171875,0.0006108652451075613,0.041233405470848083,0.007024950347840786
1780001864907711200,15.946711181640625,0,0.03787364438176155,0.022907447069883347
1780001864924052500,15.963052490234375,0.0006108652451075613,0.01970040425658226,0.02535090781748295
1780001864940382000,15.9793818359375,0.002138028386980295,-0.0039706239476799965,0.021380282938480377
1780001864956731000,15.99573095703125,0.005345070734620094,-0.013133603148162365,0.01710422709584236
1780001864973054200,16.01205419921875,0.007177666760981083,-0.0025961773935705423,0.010995574295520782
1780001864989412400,16.028412353515623,0.005803219974040985,0.01664607785642147,0.00733038317412138
1780001865005720800,16.044720947265624,0.00427605677396059,0.03573561832308769,0.004734205547720194
1780001865022061000,16.06106103515625,0.004886921960860491,0.046273041516542435,0.004581489134579897
1780001865038363600,16.07736376953125,0.005039638374000788,0.044745877385139465,0.0032070425804704428
1780001865054705700,16.09370556640625,0.005192354787141085,0.032528575509786606,0.0032070425804704428
1780001865071047000,16.110046875,0.005955935921519995,0.01466076634824276,0.003817907767370343
1780001865087382800,16.1263828125,0.006719517521560192,-0.00015271631127689034,0.004886921960860491
1780001865103716000,16.142716064453126,0.006872233934700489,-0.01160643994808197,0.0024434609804302454
1780001865120056000,16.15905615234375,0.006108652334660292,-0.020311269909143448,-0.0007635815418325365
1780001865136371000,16.175370849609376,0.003817907767370343,-0.02015855349600315,-0.0024434609804302454
1780001865152716300,16.19171630859375,0.0006108652451075613,-0.012675453908741474,-0.0029016099870204926
1780001865169044000,16.2080439453125,-0.0003054326225537807,-0.00366519158706069,-0.00366519158706069
1780001865185379000,16.224379150390625,-0.0019853119738399982,0.008704829961061478,-0.003817907767370343
1780001865201694500,16.240694580078124,-0.00045814894838258624,0.01542434748262167,-0.0064140851609408855
1780001865218049800,16.2570498046875,0.0009162978967651725,0.013591751456260681,-0.008704829961061478
1780001865234375700,16.273375732421876,0.00427605677396059,0.003054326167330146,-0.009010262787342072
1780001865250692000,16.289692138671874,0.005345070734620094,-0.010690141469240189,-0.012217304669320583
1780001865267025200,16.306025146484377,0.00733038317412138,-0.02382374368607998,-0.011301007121801376
1780001865283358500,16.3223583984375,0.006261368747800589,-0.02825251780450344,-0.008399397134780884
1780001865299693600,16.338693603515626,0.004123340360820293,-0.02367102913558483,-0.003512475173920393
1780001865316024800,16.35502490234375,0.0019853119738399982,-0.01572977937757969,0
1780001865332357400,16.371357421875,-0.0006108652451075613,-0.004581489134579897,0.005039638374000788
1780001865348690000,16.38768994140625,-0.0012217304902151227,0.005650503560900688,0.008857546374201775
1780001865365022000,16.40402197265625,0.0009162978967651725,0.005192354787141085,0.012980886735022068
1780001865381354500,16.4203544921875,0.005345070734620094,-0.0022907445672899485,0.015271631069481373
1780001865397686800,16.436686767578124,0.009926560334861279,-0.015882495790719986,0.013439035043120384
1780001865414018800,16.453018798828126,0.013744467869400978,-0.027947084978222847,0.005192354787141085
1780001865430348500,16.4693486328125,0.016035212203860283,-0.03497203439474106,0.0022907445672899485
1780001865446703000,16.485703125,0.014202617108821869,-0.03130684420466423,0.0013744467869400978
1780001865463030500,16.502030517578124,0.011301007121801376,-0.020463986322283745,0.004428773187100887
1780001865479362000,16.518362060546874,0.007941247895359993,-0.010537425056099892,0.005192354787141085
1780001865495692800,16.53469287109375,0.0019853119738399982,-0.003359758760780096,0.006719517521560192
1780001865512027000,16.55102685546875,-0.001832595793530345,-0.003359758760780096,0.005803219974040985
1780001865528359400,16.567359375,-0.0029016099870204926,-0.010537425056099892,0.006872233934700489
1780001865544691000,16.58369091796875,-0.0024434609804302454,-0.02275473065674305,0.001527163083665073
1780001865561006800,16.6000068359375,-0.0013744467869400978,-0.02122756652534008,-0.0027488935738801956
1780001865577356000,16.61635595703125,-0.0007635815418325365,-0.013439035043120384,-0.00855211354792118
1780001865593688800,16.632688720703126,0.00045814894838258624,-0.0007635815418325365,-0.005650503560900688
1780001865610020900,16.649020751953124,0.001679879380390048,0.003512475173920393,-0.004428773187100887
1780001865626336300,16.665336181640626,0.0022907445672899485,0.003359758760780096,-0.0007635815418325365
1780001865642685000,16.681684814453124,0.00045814894838258624,-0.002138028386980295,-0.0010690141934901476
1780001865659017200,16.698017333984374,0,-0.007788531947880983,0.0007635815418325365
1780001865675349500,16.714349609375,0.0010690141934901476,-0.012675453908741474,0.0009162978967651725
1780001865691657200,16.7306572265625,0.0007635815418325365,-0.012522737495601177,-0.0010690141934901476
1780001865708014300,16.747014404296873,0.0029016099870204926,-0.011301007121801376,-0.0012217304902151227
1780001865724346400,16.763346435546875,0.00366519158706069,-0.013133603148162365,-0.0025961773935705423
1780001865740676900,16.7796767578125,0.003817907767370343,-0.020311269909143448,-0.002138028386980295
1780001865756994600,16.79599462890625,0.0024434609804302454,-0.024587325751781464,-0.0039706239476799965
1780001865773330000,16.812329833984375,-0.0009162978967651725,-0.02932153269648552,-0.007941247895359993
1780001865789661700,16.82866162109375,-0.0032070425804704428,-0.02428189292550087,-0.006872233934700489
1780001865805993700,16.84499365234375,-0.00366519158706069,-0.014813481830060482,-0.00427605677396059
1780001865822313700,16.861313720703127,-0.0029016099870204926,-0.00809396430850029,0.001679879380390048
1780001865838659000,16.8776591796875,-0.0006108652451075613,-0.008246680721640587,0.00427605677396059
1780001865854990800,16.893990966796874,0.0010690141934901476,-0.01725694350898266,-0.0022907445672899485
1780001865871310800,16.910310791015625,0.004734205547720194,-0.021532999351620674,-0.008704829961061478
1780001865887655400,16.926655517578126,0.00427605677396059,-0.016951510682702065,-0.013286318629980087
1780001865903988000,16.942988037109377,0.001832595793530345,-0.0022907445672899485,-0.010842857882380486
1780001865920320300,16.9593203125,-0.0012217304902151227,0.011453723534941673,-0.006872233934700489
1780001865936656000,16.97565576171875,-0.001832595793530345,0.015882495790719986,-0.0007635815418325365
1780001865952982500,16.991982421875,-0.0024434609804302454,0.004734205547720194,0.0032070425804704428
1780001865969330700,17.00833056640625,-0.0013744467869400978,-0.016798794269561768,0.0029016099870204926
1780001865985663500,17.02466357421875,0.0009162978967651725,-0.03573561832308769,0.004886921960860491
1780001866001993700,17.04099365234375,0.0019853119738399982,-0.0377209298312664,0.008246680721640587
1780001866018328300,17.057328369140624,0.0010690141934901476,-0.026419922709465027,0.00931569468230009
1780001866034643700,17.073643798828126,0.0009162978967651725,-0.007635815534740686,0.008857546374201775
1780001866050976300,17.089976318359376,0,0.00733038317412138,0.008399397134780884
1780001866067303700,17.1063037109375,0.00015271631127689034,0.012980886735022068,0.006872233934700489
1780001866083656200,17.12265625,0.0012217304902151227,0.008399397134780884,0.004886921960860491
1780001866099989000,17.138989013671875,0.003359758760780096,0.0027488935738801956,0.003359758760780096
1780001866116322000,17.155322021484373,0.0029016099870204926,-0.0003054326225537807,0.0029016099870204926
1780001866132651800,17.17165185546875,0.0006108652451075613,-0.0027488935738801956,0.001832595793530345
1780001866148973600,17.1879736328125,-0.0032070425804704428,-0.0024434609804302454,0.006261368747800589
1780001866165318700,17.204318603515624,-0.00366519158706069,-0.002138028386980295,0.007024950347840786
1780001866181647400,17.2206474609375,-0.004123340360820293,-0.0029016099870204926,0.008246680721640587
1780001866197980400,17.23698046875,-0.003817907767370343,-0.005650503560900688,0.005039638374000788
1780001866214316000,17.25331591796875,-0.004428773187100887,-0.00427605677396059,-0.0039706239476799965
1780001866230631700,17.269631591796873,-0.004734205547720194,-0.0003054326225537807,-0.01191187184303999
1780001866246955000,17.285955078125,-0.004886921960860491,0.00855211354792118,-0.014049900695681572
1780001866263300600,17.302300537109375,-0.005803219974040985,0.021380282938480377,-0.007177666760981083
1780001866279633200,17.318633056640625,-0.00733038317412138,0.031001411378383636,0.004123340360820293
1780001866295961600,17.334961669921874,-0.006872233934700489,0.02886338345706463,0.01191187184303999
1780001866312295700,17.351295654296877,-0.00733038317412138,0.014813481830060482,0.008857546374201775
1780001866328629800,17.367629638671875,-0.005497787147760391,-0.0064140851609408855,0.0012217304902151227
1780001866344957400,17.38395751953125,-0.003817907767370343,-0.025045474991202354,-0.006108652334660292
1780001866361295400,17.40029541015625,-0.004734205547720194,-0.03176499158143997,-0.008857546374201775
1780001866377624800,17.416624755859374,-0.0065668015740811825,-0.02229658141732216,-0.00809396430850029
1780001866393957600,17.43295751953125,-0.0074830991216003895,-0.0039706239476799965,-0.007177666760981083
1780001866410289400,17.449289306640626,-0.008399397134780884,0.015118914656341076,-0.003817907767370343
1780001866426617600,17.46561767578125,-0.00809396430850029,0.023060163483023643,-0.001832595793530345
1780001866442978800,17.481978759765624,-0.008246680721640587,0.021380282938480377,-0.003359758760780096
1780001866459301600,17.498301513671876,-0.0064140851609408855,0.01618792861700058,-0.005039638374000788
1780001866475633000,17.5146328125,-0.005039638374000788,0.01114829070866108,-0.0022907445672899485
1780001866491948500,17.530948486328125,-0.00366519158706069,0.00855211354792118,0.0006108652451075613
1780001866508297200,17.547297119140627,-0.0007635815418325365,0.006261368747800589,0.00366519158706069
1780001866524629000,17.56362890625,-0.00015271631127689034,-0.004734205547720194,0.00366519158706069
1780001866540962000,17.579962158203124,-0.0003054326225537807,-0.01863138936460018,0.0013744467869400978
1780001866557294300,17.59629443359375,0.00045814894838258624,-0.03130684420466423,0.001527163083665073
1780001866573616400,17.612616455078125,0.0019853119738399982,-0.025961773470044136,0.0039706239476799965
1780001866589959200,17.628959228515626,0.004581489134579897,-0.005803219974040985,0.0012217304902151227
1780001866606292500,17.64529248046875,0.006108652334660292,0.01618792861700058,-0.003054326167330146
1780001866622608600,17.661608642578123,0.008399397134780884,0.01924225501716137,-0.0029016099870204926
1780001866638953500,17.677953369140624,0.0074830991216003895,-0.0007635815418325365,-0.00015271631127689034
1780001866655287800,17.694287841796875,0.006872233934700489,-0.029016099870204926,-0.0032070425804704428
1780001866671633400,17.71063330078125,0.007024950347840786,-0.052381694316864014,-0.007635815534740686
1780001866687952100,17.7269521484375,0.0039706239476799965,-0.06520986557006836,-0.00855211354792118
1780001866704281900,17.74328173828125,0.0013744467869400978,-0.06429356336593628,-0.00855211354792118
1780001866720600800,17.759600830078124,-0.0006108652451075613,-0.0503963828086853,-0.013133603148162365
1780001866736932000,17.77593212890625,-0.005497787147760391,-0.03344487398862839,-0.015271631069481373
1780001866753264600,17.7922646484375,-0.006719517521560192,-0.020311269909143448,-0.013133603148162365
1780001866769602000,17.80860205078125,-0.006872233934700489,-0.01771509274840355,-0.01237002108246088
1780001866785932000,17.82493212890625,-0.008246680721640587,-0.025503624230623245,-0.014813481830060482
1780001866802264300,17.841264404296876,-0.008399397134780884,-0.03039054572582245,-0.017867809161543846
1780001866818576000,17.857575927734374,-0.01038470957428217,-0.030543262138962746,-0.014355333521962166
1780001866834929700,17.8739296875,-0.010690141469240189,-0.029474247246980667,-0.011759156361222267
1780001866851252200,17.890252197265625,-0.011301007121801376,-0.02580905705690384,-0.005345070734620094
1780001866867593700,17.90659375,-0.011453723534941673,-0.01542434748262167,-0.0013744467869400978
1780001866883923000,17.9229228515625,-0.008399397134780884,0.002138028386980295,0.0003054326225537807
1780001866900257500,17.939257568359373,-0.006261368747800589,0.01237002108246088,0.0003054326225537807
1780001866916590600,17.955590576171875,-0.0025961773935705423,0.020311269909143448,-0.0009162978967651725
1780001866932940500,17.9719404296875,0.0007635815418325365,0.02428189292550087,-0.0007635815418325365
1780001866949252600,17.988252685546875,0.0029016099870204926,0.02474004216492176,0.0003054326225537807
1780001866965599200,18.00459912109375,0.0013744467869400978,0.02367102913558483,0.002138028386980295
1780001866981920800,18.020920654296877,-0.0009162978967651725,0.025045474991202354,0.0013744467869400978
1780001866998266400,18.037266357421874,-0.003054326167330146,0.02535090781748295,0.001527163083665073
1780001867014594600,18.053594482421875,-0.005955935921519995,0.01542434748262167,0.0025961773935705423
1780001867030934300,18.069934326171875,-0.005039638374000788,0.004428773187100887,0.005192354787141085
1780001867047250200,18.086250244140626,-0.004581489134579897,-0.001527163083665073,0.008246680721640587
1780001867063598800,18.102598876953124,-0.0007635815418325365,-0.0009162978967651725,0.007177666760981083
1780001867079907000,18.118906982421876,0.001832595793530345,-0.003512475173920393,0.0039706239476799965
1780001867096258300,18.13525830078125,0.003817907767370343,-0.010231993161141872,0.001832595793530345
1780001867112598000,18.151597900390627,0.005803219974040985,-0.015271631069481373,0.0029016099870204926
1780001867128921300,18.16792138671875,0.005650503560900688,-0.011453723534941673,0.0024434609804302454
1780001867145245000,18.184244873046875,0.00366519158706069,-0.001832595793530345,-0.0012217304902151227
1780001867161589800,18.20058984375,0.0025961773935705423,0.007177666760981083,-0.0025961773935705423
1780001867177917400,18.21691748046875,0.0024434609804302454,0.013133603148162365,0.0003054326225537807
1780001867194258200,18.233258056640626,0.0012217304902151227,0.015882495790719986,0.004581489134579897
1780001867210586000,18.249586181640623,0.0019853119738399982,0.012522737495601177,0.013439035043120384
1780001867226887200,18.26588720703125,0.001679879380390048,0.004734205547720194,0.016340645030140877
1780001867243237000,18.282237060546876,0.0022907445672899485,-0.004886921960860491,0.014813481830060482
1780001867259569200,18.298569091796875,0.003512475173920393,-0.015882495790719986,0.009162978269159794
1780001867275901000,18.31490087890625,0.004734205547720194,-0.01878410577774048,0.0029016099870204926
1780001867292234000,18.33123388671875,0.004581489134579897,-0.013133603148162365,0.001832595793530345
1780001867308566500,18.34756640625,0.00366519158706069,0.001679879380390048,-0.003054326167330146
1780001867324902400,18.36390234375,0.001832595793530345,0.017409659922122955,-0.003054326167330146
1780001867341225700,18.380225830078125,0.0006108652451075613,0.021838432177901268,-0.001527163083665073
1780001867357566700,18.396566650390625,-0.001527163083665073,0.01618792861700058,0.0024434609804302454
1780001867373895400,18.4128955078125,-0.0013744467869400978,-0.0013744467869400978,0.0024434609804302454
1780001867390227200,18.429227294921876,-0.0003054326225537807,-0.02428189292550087,0.0003054326225537807
1780001867406559500,18.4455595703125,0.0009162978967651725,-0.0354301854968071,-0.004428773187100887
1780001867422909700,18.46190966796875,0.0012217304902151227,-0.03329215571284294,-0.0065668015740811825
1780001867439233500,18.478233642578125,0.0012217304902151227,-0.022907447069883347,-0.005192354787141085
1780001867455574500,18.494574462890625,-0.0009162978967651725,-0.011453723534941673,-0.001527163083665073
1780001867471900200,18.510900146484374,-0.0022907445672899485,-0.005497787147760391,-0.0003054326225537807
1780001867488235800,18.52723583984375,-0.003359758760780096,-0.004886921960860491,0.0006108652451075613
1780001867504566300,18.543566162109375,-0.003512475173920393,-0.003359758760780096,-0.007024950347840786
1780001867520899300,18.5598994140625,-0.0022907445672899485,0.001679879380390048,-0.014966198243200779
1780001867537232000,18.57623193359375,-0.002138028386980295,0.00733038317412138,-0.01970040425658226
1780001867553565000,18.59256494140625,-0.003359758760780096,0.011453723534941673,-0.018478672951459885
1780001867569896200,18.608896240234376,-0.005039638374000788,0.014966198243200779,-0.008857546374201775
1780001867586229000,18.62522900390625,-0.004123340360820293,0.01542434748262167,0.003512475173920393
1780001867602558500,18.641558349609376,-0.005497787147760391,0.00855211354792118,0.00809396430850029
1780001867618876700,18.657876708984375,-0.00366519158706069,-0.00427605677396059,0.006872233934700489
1780001867635225300,18.674225341796873,-0.004581489134579897,-0.01664607785642147,0.003512475173920393
1780001867651542000,18.6905419921875,-0.0039706239476799965,-0.021991148591041565,0.0012217304902151227
1780001867667888400,18.706888427734373,-0.004886921960860491,-0.018020525574684143,0.006108652334660292
1780001867684221700,18.7232216796875,-0.0032070425804704428,-0.004886921960860491,0.00855211354792118
1780001867700550100,18.739550048828125,-0.0003054326225537807,0.006872233934700489,0.003054326167330146
1780001867716859400,18.755859375,-0.0022907445672899485,0.007635815534740686,-0.0032070425804704428
1780001867733191000,18.77219091796875,0.0039706239476799965,0.007024950347840786,-0.005345070734620094
1780001867749541000,18.788541015625,0.00427605677396059,0.004581489134579897,-0.012217304669320583
1780001867765870300,18.804870361328124,0.005803219974040985,0.00427605677396059,-0.01710422709584236
1780001867782202400,18.821202392578126,0.005497787147760391,0.00366519158706069,-0.01970040425658226
1780001867798534700,18.83753466796875,0.001679879380390048,0.009773843921720982,-0.012980886735022068
1780001867814856200,18.853856201171876,-0.001679879380390048,0.013897184282541275,0.0003054326225537807
1780001867831210800,18.870210693359375,-0.005650503560900688,0.005650503560900688,0.012675453908741474
1780001867847531800,18.88653173828125,-0.005345070734620094,-0.01038470957428217,0.01664607785642147
1780001867863863800,18.90286376953125,-0.003817907767370343,-0.029016099870204926,0.007941247895359993
1780001867880196000,18.919196044921875,-0.00015271631127689034,-0.043218716979026794,-0.0074830991216003895
1780001867896528600,18.935528564453126,0.001832595793530345,-0.04230241850018501,-0.020311269909143448
1780001867912867000,18.9518671875,0.0013744467869400978,-0.021838432177901268,-0.022143865004181862
1780001867929204700,18.968204833984377,0.001527163083665073,0.008857546374201775,-0.01710422709584236
1780001867945522200,18.984522216796876,0.0003054326225537807,0.032070424407720566,-0.007024950347840786
1780001867961871000,19.00087109375,0.0022907445672899485,0.04184427112340927,0.0025961773935705423
1780001867978186200,19.017186279296876,0.002138028386980295,0.03237585723400116,0.0007635815418325365
1780001867994536400,19.033536376953126,0.00366519158706069,0.006872233934700489,-0.003512475173920393
1780001868010876000,19.0498759765625,0.003054326167330146,-0.02168571576476097,-0.008704829961061478
1780001868027186200,19.066186279296875,0.0012217304902151227,-0.03222314268350601,-0.0019853119738399982
1780001868043523600,19.082523681640627,0.0010690141934901476,-0.023365596309304237,0.00931569468230009
1780001868059865300,19.098865234375,0.0013744467869400978,-0.004581489134579897,0.016798794269561768
1780001868076199200,19.11519921875,0.0010690141934901476,0.013897184282541275,0.014355333521962166
1780001868092514600,19.1315146484375,-0.0006108652451075613,0.020311269909143448,0.007941247895359993
1780001868108857600,19.147857666015625,0.0009162978967651725,0.013897184282541275,0.0027488935738801956
1780001868125194200,19.1641943359375,-0.0003054326225537807,0.00427605677396059,0.00366519158706069
1780001868141525800,19.18052587890625,0.0010690141934901476,-0.00733038317412138,0.005497787147760391
1780001868157858800,19.19685888671875,0.0013744467869400978,-0.016951510682702065,0.006108652334660292
1780001868174187000,19.21318701171875,0.0009162978967651725,-0.01572977937757969,0.006872233934700489
1780001868190528000,19.229528076171874,0.0012217304902151227,-0.001832595793530345,0.007177666760981083
1780001868206839000,19.245839111328124,0.0012217304902151227,0.016951510682702065,0.0010690141934901476
1780001868223174700,19.262174560546875,0.0006108652451075613,0.03329215571284294,-0.005650503560900688
1780001868239505200,19.278505126953124,0.0003054326225537807,0.04505131021142006,-0.011301007121801376
1780001868255839500,19.294839599609375,-0.0007635815418325365,0.047189339995384216,-0.013897184282541275
1780001868272161800,19.311161865234375,-0.001832595793530345,0.041691552847623825,-0.005192354787141085
1780001868288505000,19.327505126953124,-0.0024434609804302454,0.024892758578062057,0.004581489134579897
1780001868304822000,19.343822021484375,-0.004428773187100887,0.0024434609804302454,0.01237002108246088
1780001868321168400,19.36016845703125,-0.006872233934700489,-0.016340645030140877,0.012522737495601177
1780001868337497600,19.37649755859375,-0.0065668015740811825,-0.023518312722444534,0.006261368747800589
1780001868353836000,19.3928359375,-0.005497787147760391,-0.016493361443281174,0.004581489134579897
1780001868370164000,19.4091640625,-0.0022907445672899485,-0.0013744467869400978,0.0012217304902151227
1780001868386497500,19.42549755859375,0.0010690141934901476,0.007788531947880983,-0.0012217304902151227
1780001868402834000,19.441833984375,0.0029016099870204926,0.00931569468230009,-0.00427605677396059
1780001868419174400,19.45817431640625,0.0027488935738801956,0.00809396430850029,-0.009010262787342072
1780001868435506700,19.474506591796874,0.001832595793530345,0.005803219974040985,-0.01572977937757969
1780001868451840500,19.490840576171873,-0.001679879380390048,0.008857546374201775,-0.01710422709584236
1780001868468173000,19.507173095703124,-0.002138028386980295,0.011759156361222267,-0.012675453908741474
1780001868484505000,19.523505126953125,-0.001527163083665073,0.012828170321881771,-0.005192354787141085
