time,seconds_elapsed,z,y,x
1779958741247695000,0.164695068359375,-4.0963287353515625,-3.356398344039917,0.46421027183532715
1779958741264031000,0.181031005859375,-3.9115242958068848,-3.7369847297668457,0.6986112594604492
1779958741280376600,0.19737646484375,-5.592281341552734,-2.7024917602539062,-3.672285556793213
1779958741296695600,0.213695556640625,-6.714656352996826,-0.34656810760498047,-9.949949264526367
1779958741313038800,0.230038818359375,-8.77702522277832,-5.68814754486084,-4.900242328643799
1779958741329372400,0.246372314453125,-8.867266654968262,-9.342170715332031,-2.3202431201934814
1779958741345704700,0.26270458984375,-4.525799751281738,-7.827572822570801,-3.867223024368286
1779958741362038000,0.2790380859375,-6.077457427978516,-8.147849082946777,-2.835050582885742
1779958741378369000,0.295369140625,-5.639012336730957,-8.61892318725586,-2.6166529655456543
1779958741394702800,0.311702880859375,-4.44533634185791,-9.516754150390625,-1.501939296722412
1779958741411036700,0.32803662109375,-2.8854944705963135,-9.125692367553711,1.0142974853515625
1779958741427368000,0.344367919921875,0.9494905471801758,-7.0419511795043945,4.23942756652832
1779958741443701800,0.36070166015625,5.432430267333984,-4.87874698638916,8.120399475097656
1779958741460032500,0.377032470703125,7.294011116027832,-2.3383350372314453,11.409689903259277
1779958741476370400,0.393370361328125,5.600790977478027,1.2862240076065063,14.350430488586426
1779958741492717000,0.409717041015625,2.993726968765259,3.0311412811279297,16.064483642578125
1779958741509029000,0.426029052734375,0.48077499866485596,3.479820728302002,17.92708969116211
1779958741525366000,0.442365966796875,-0.2583049535751343,7.919391632080078,17.274978637695312
1779958741541699300,0.45869921875,-0.32685232162475586,7.513906478881836,14.740975379943848
1779958741558030600,0.475030517578125,2.0510966777801514,5.219690799713135,14.802027702331543
1779958741574364400,0.491364501953125,1.8287532329559326,5.72098445892334,13.256600379943848
1779958741590698000,0.507697998046875,-0.7770943641662598,8.314108848571777,10.1192626953125
1779958741607028200,0.5240283203125,-2.306558609008789,6.298908710479736,8.76436710357666
1779958741623381800,0.5403818359375,-3.1350228786468506,4.00152587890625,7.615508079528809
1779958741639708700,0.556708740234375,-3.446209669113159,1.207718849182129,5.95719051361084
1779958741656024600,0.573024658203125,-3.1457369327545166,2.807079792022705,1.3991813659667969
1779958741672380400,0.58938037109375,-2.722447156906128,2.486900806427002,0.02770233154296875
1779958741688691500,0.60569140625,-2.6436333656311035,-3.195009708404541,5.1522674560546875
1779958741705021200,0.622021240234375,-0.038075029850006104,4.299520492553711,-0.03911781311035156
1779958741721361000,0.63836083984375,-1.0888291597366333,6.7134623527526855,-4.805953502655029
1779958741737692000,0.65469189453125,-6.72974157333374,6.1576080322265625,-6.296119689941406
1779958741754023200,0.671023193359375,2.6675899028778076,2.7513210773468018,-1.2659120559692383
1779958741770361600,0.687361572265625,-3.3642327785491943,7.53489875793457,-4.453094482421875
1779958741786694700,0.703694580078125,-2.8887271881103516,7.0169572830200195,-5.038030624389648
1779958741803025400,0.720025390625,-2.2731873989105225,6.648958683013916,-5.028398036956787
1779958741819355100,0.736355224609375,-3.596757411956787,5.985217094421387,-4.877647399902344
1779958741835681800,0.752681884765625,-0.48182547092437744,4.502461910247803,-3.6363158226013184
1779958741852035800,0.769035888671875,0.3948945999145508,2.839630365371704,-1.9063615798950195
1779958741868353300,0.785353271484375,1.9774208068847656,1.927255392074585,0.15477895736694336
1779958741884702000,0.801701904296875,3.029913902282715,-0.4468855857849121,0.02134418487548828
1779958741901017000,0.81801708984375,1.0932106971740723,-0.772160530090332,2.9443464279174805
1779958741917364000,0.834364013671875,4.078537940979004,1.815852165222168,5.404916763305664
1779958741933688000,0.85068798828125,3.49436616897583,2.1186089515686035,7.000234127044678
1779958741950037000,0.867037109375,-0.48738396167755127,0.6898818016052246,7.582638263702393
1779958741966349300,0.883349365234375,-4.618670463562012,-0.6740574836730957,6.987743854522705
1779958741982676500,0.899676513671875,-4.947297096252441,-0.8823542594909668,6.155500411987305
1779958741999019000,0.91601904296875,-2.4151997566223145,0.3686857223510742,6.900784492492676
1779958742015348700,0.9323486328125,-0.9344319105148315,0.9398226737976074,7.0445427894592285
1779958742031687400,0.9486875,-0.25391948223114014,0.5991239547729492,5.970195293426514
1779958742048015600,0.965015625,0.4509069323539734,-0.8681759834289551,5.268511772155762
1779958742064349400,0.981349365234375,8.941153526306152,-4.720155715942383,10.298219680786133
1779958742080683000,0.99768310546875,2.850534439086914,-1.8863582611083984,4.688676834106445
1779958742097014000,1.014013916015625,-2.4353067874908447,2.7262678146362305,-2.238955497741699
1779958742113344000,1.030343994140625,-3.4732255935668945,-1.3820652961730957,4.396948337554932
1779958742129701400,1.046701416015625,1.2517685890197754,2.098128318786621,0.18764925003051758
1779958742146026500,1.063026611328125,-0.03087472915649414,3.4383301734924316,-2.0906834602355957
1779958742162361300,1.079361328125,-1.3316032886505127,-1.1747069358825684,0.14934349060058594
1779958742178691800,1.09569189453125,-1.9365384578704834,-2.0208816528320312,-1.1730241775512695
1779958742195026200,1.112026123046875,-0.17596054077148438,-0.7685556411743164,-1.4057929515838623
1779958742211325400,1.128325439453125,0.8655967712402344,3.589996337890625,-0.8949391841888428
1779958742227668200,1.144668212890625,2.0828661918640137,4.363506317138672,-1.3550491333007812
1779958742243999700,1.160999755859375,-0.2925577163696289,6.679376125335693,1.1841273307800293
1779958742260344600,1.177344482421875,-0.32881879806518555,9.080323219299316,4.827380657196045
1779958742276676900,1.1936767578125,1.6705293655395508,7.444477081298828,6.545398235321045
1779958742293009700,1.210009765625,0.8302512168884277,3.574077606201172,6.050188064575195
1779958742309343500,1.226343505859375,-1.8907356262207031,3.3108301162719727,3.623685121536255
1779958742325675800,1.24267578125,-1.4732749462127686,4.369439125061035,-0.0844869613647461
1779958742341992200,1.2589921875,-1.2445299625396729,3.977290630340576,-1.0577688217163086
1779958742358329900,1.275329833984375,-1.4608657360076904,3.058866024017334,0.42717814445495605
1779958742374660400,1.291660400390625,1.5828685760498047,-1.0376291275024414,0.8563361167907715
1779958742390994700,1.30799462890625,2.3442952632904053,-2.6298294067382812,2.7809882164001465
1779958742407326500,1.324326416015625,2.5891196727752686,0.6001529693603516,1.6092865467071533
1779958742423659800,1.34065966796875,-4.077542304992676,0.26751041412353516,-0.5253756046295166
1779958742439992800,1.356992919921875,-0.6650623083114624,0.30545711517333984,-1.9422951936721802
1779958742456325000,1.3733251953125,0.9456632137298584,-1.7377262115478516,-1.9757429361343384
1779958742472661500,1.38966162109375,1.5629830360412598,-1.4377756118774414,-4.5095343589782715
1779958742489002800,1.406002685546875,0.6189976930618286,-2.4788084030151367,-3.2430005073547363
1779958742505334300,1.422334228515625,1.7421290874481201,-4.476994514465332,-1.6091327667236328
1779958742521655800,1.43865576171875,0.6195893287658691,2.9288344383239746,0.9444842338562012
1779958742538001400,1.45500146484375,-1.5805881023406982,5.835206985473633,6.314215660095215
1779958742554334700,1.471334716796875,-1.1079068183898926,3.022658348083496,11.606443405151367
1779958742570668300,1.487668212890625,-1.6375404596328735,1.690274715423584,13.794347763061523
1779958742587012000,1.50401220703125,-0.9346027374267578,0.9430656433105469,11.837610244750977
1779958742603346400,1.520346435546875,-1.9220117330551147,1.9105415344238281,7.982748031616211
1779958742619679200,1.53667919921875,-0.3854329586029053,3.995906352996826,3.397068738937378
1779958742636012000,1.553011962890625,0.8096127510070801,7.961686134338379,3.0153472423553467
1779958742652325400,1.569325439453125,-2.029003381729126,6.19527530670166,-1.0117006301879883
1779958742668678100,1.58567822265625,2.2949047088623047,1.3129010200500488,1.0822176933288574
1779958742685009200,1.602009033203125,0.10489797592163086,-0.7889480590820312,4.719877243041992
1779958742701331700,1.618331787109375,2.4424006938934326,3.6943001747131348,10.25840950012207
1779958742717659000,1.634658935546875,8.891335487365723,7.670371055603027,8.503788948059082
1779958742734000000,1.651000244140625,0.6751595735549927,1.2687606811523438,5.746850490570068
1779958742750329900,1.667329833984375,7.108538627624512,-1.4937667846679688,-6.651939392089844
1779958742766662100,1.683662109375,5.038410186767578,1.2783260345458984,-10.254716873168945
1779958742782997800,1.699997802734375,-3.7615175247192383,2.6370162963867188,-11.251883506774902
1779958742799323000,1.716322998046875,-7.740984916687012,2.0526552200317383,-7.704113960266113
1779958742815669000,1.7326689453125,1.2109549045562744,4.181225776672363,-0.12111413478851318
1779958742832010800,1.7490107421875,0.6790248155593872,4.504575729370117,2.23468017578125
1779958742848323300,1.7653232421875,-0.796872615814209,4.875542163848877,3.0056896209716797
1779958742864639200,1.78163916015625,-2.7449939250946045,4.650759220123291,3.5817365646362305
1779958742881004800,1.7980048828125,-2.8190338611602783,4.403240203857422,3.936800241470337
1779958742897311200,1.814311279296875,-3.39018177986145,-11.473292350769043,6.883701801300049
1779958742913658600,1.83065869140625,-1.6030926704406738,-18.288034439086914,5.007567882537842
1779958742929999400,1.846999267578125,-2.1971435546875,-11.08768081665039,2.971247673034668
1779958742946340400,1.86334033203125,-3.9271979331970215,1.2084112167358398,2.965754985809326
1779958742962670300,1.87967041015625,-3.382280111312866,1.4586329460144043,4.481688499450684
1779958742978998300,1.895998291015625,-2.9022216796875,2.996854305267334,4.310459613800049
1779958742995335000,1.9123349609375,-0.7970981597900391,4.166829586029053,2.3927807807922363
1779958743011655400,1.928655517578125,0.9372460842132568,0.2653188705444336,1.1275277137756348
1779958743027994400,1.944994384765625,1.5588958263397217,-5.063101768493652,-0.7469135522842407
1779958743044310800,1.961310791015625,1.2780429124832153,-9.821942329406738,-3.348723888397217
1779958743060650800,1.977650634765625,1.1552470922470093,-6.076418876647949,-4.938266754150391
1779958743076998400,1.993998291015625,0.6139540672302246,-1.2500028610229492,-3.363034248352051
1779958743093327000,2.0103271484375,3.0427961349487305,0.9189205169677734,0.16168105602264404
1779958743109664300,2.026664306640625,1.4176433086395264,1.2705678939819336,2.3367116451263428
1779958743125993700,2.04299365234375,0.9422716498374939,2.3806514739990234,1.9076178073883057
1779958743142324200,2.05932421875,2.3833134174346924,2.116039752960205,1.4815642833709717
1779958743158687700,2.075687744140625,2.0981714725494385,2.4551501274108887,1.1731457710266113
1779958743174980400,2.09198046875,3.242443084716797,2.4447317123413086,1.1160281896591187
1779958743191312600,2.108312744140625,2.8843798637390137,0.5376863479614258,1.5526223182678223
1779958743207647000,2.12464697265625,2.5676517486572266,-1.9437627792358398,1.3680475950241089
1779958743223982600,2.140982666015625,1.5085928440093994,-3.377483367919922,0.7785050868988037
1779958743240315000,2.15731494140625,-0.7347135543823242,-0.3453073501586914,-1.750950574874878
1779958743256647000,2.17364697265625,-0.35169145464897156,1.7823810577392578,-1.7167150974273682
1779958743272981800,2.189981689453125,0.6900734305381775,1.795241355895996,0.33445000648498535
1779958743289315300,2.2063154296875,0.544569730758667,1.0558662414550781,1.47288179397583
1779958743305659000,2.222658935546875,0.5607584714889526,-0.23236656188964844,1.6148778200149536
1779958743322012700,2.2390126953125,-0.24760422110557556,-1.013589859008789,1.3097329139709473
1779958743338308600,2.25530859375,-0.9130801558494568,-1.2804765701293945,1.2623475790023804
1779958743354670300,2.27167041015625,-0.5198047757148743,-0.4492835998535156,1.2072491645812988
1779958743370990600,2.287990478515625,-0.2568104863166809,0.24470043182373047,1.6613103151321411
1779958743387320600,2.304320556640625,-0.3971102237701416,0.5019025802612305,2.3005459308624268
1779958743403657000,2.320656982421875,-0.65415358543396,0.4606361389160156,2.676774740219116
1779958743419988000,2.336988037109375,-1.1059253215789795,0.36192798614501953,2.93630313873291
1779958743436319700,2.35331982421875,-0.8080052137374878,0.3547372817993164,3.1048192977905273
1779958743452657700,2.36965771484375,-0.646594762802124,0.5390157699584961,2.840838670730591
1779958743468973300,2.385973388671875,-0.9952126741409302,0.4558439254760742,3.0624871253967285
1779958743485303000,2.402302978515625,-1.1100096702575684,0.3584775924682617,3.0914878845214844
1779958743501645300,2.418645263671875,-1.0682200193405151,-0.3710041046142578,3.5630075931549072
1779958743517985300,2.4349853515625,-0.7317341566085815,-0.9927711486816406,3.470043897628784
1779958743534317800,2.45131787109375,-0.8613971471786499,-1.8440313339233398,2.9643969535827637
1779958743550651000,2.46765087890625,-1.3582618236541748,-1.9305047988891602,2.843790054321289
1779958743566977000,2.48397705078125,-1.5606160163879395,-1.543105125427246,3.3094942569732666
1779958743583316700,2.500316650390625,-1.0915597677230835,-1.4790706634521484,4.0918169021606445
1779958743599650300,2.516650390625,-1.558008074760437,-1.915750503540039,5.080378532409668
1779958743615979000,2.53297900390625,-1.2793917655944824,-2.127779960632324,5.389952182769775
1779958743632317700,2.549317626953125,-1.3151540756225586,-3.048921585083008,5.3710527420043945
1779958743648614100,2.5656142578125,-1.279421329498291,-3.6449594497680664,4.677143573760986
1779958743664964600,2.581964599609375,-0.5999499559402466,-4.017114639282227,4.499646186828613
1779958743681297400,2.59829736328125,-0.9428814649581909,-4.23640251159668,3.7360637187957764
1779958743697628700,2.614628662109375,-0.06470835208892822,-4.071968078613281,3.5508131980895996
1779958743713971200,2.63097119140625,0.306032657623291,-2.3002872467041016,3.524353504180908
1779958743730299600,2.647299560546875,-0.035656750202178955,-0.24100875854492188,3.1770670413970947
1779958743746642700,2.663642578125,-0.5353149175643921,1.0702667236328125,1.7543096542358398
1779958743762968000,2.679968017578125,-0.8448435068130493,0.8375444412231445,0.20488762855529785
1779958743779289300,2.696289306640625,-0.5769028663635254,-1.5546503067016602,-1.022749662399292
1779958743795630300,2.71263037109375,-0.3346651792526245,-3.4684486389160156,-1.4730989933013916
1779958743811976000,2.728975830078125,0.6437342166900635,-4.185400009155273,-1.403369426727295
1779958743828308200,2.74530810546875,2.342041492462158,-2.78017520904541,-1.2416057586669922
1779958743844642600,2.761642578125,1.4297488927841187,-2.587477684020996,-0.9008498191833496
1779958743860974000,2.77797412109375,0.23025226593017578,-2.095224380493164,0.7884386777877808
1779958743877298000,2.7942978515625,0.11666381359100342,-2.063967704772949,1.61000657081604
1779958743893644800,2.810644775390625,0.1938943862915039,-1.1577224731445312,1.715880274772644
1779958743909952000,2.826951904296875,0.23235797882080078,0.0786447525024414,1.5544612407684326
1779958743926305500,2.843305419921875,0.7247817516326904,0.8181676864624023,1.4953577518463135
1779958743942637600,2.859637451171875,0.9722480773925781,0.995152473449707,1.5053455829620361
1779958743958974700,2.875974609375,0.851055383682251,1.159646987915039,1.379291296005249
1779958743975288300,2.892288330078125,0.9880263805389404,1.456406593322754,1.2031129598617554
1779958743991639300,2.908639404296875,1.1341056823730469,2.0131163597106934,1.2013500928878784
1779958744007972600,2.92497265625,1.426048755645752,2.9476776123046875,1.079730749130249
1779958744024303600,2.9413037109375,1.8008410930633545,4.111424922943115,0.8745909929275513
1779958744040637200,2.95763720703125,2.0527758598327637,4.651995658874512,0.8778108358383179
1779958744056961500,2.97396142578125,2.5352375507354736,4.691910743713379,0.8820939064025879
1779958744073289200,2.990289306640625,2.6563217639923096,4.675537109375,0.9351231455802917
1779958744089623000,3.006623046875,2.210476875305176,4.659415245056152,0.8974087238311768
1779958744105950700,3.02295068359375,1.2291088104248047,5.105283737182617,0.8703035116195679
1779958744122301400,3.039301513671875,0.25855231285095215,4.5251007080078125,0.714504063129425
1779958744138631700,3.055631591796875,-1.431321382522583,3.366765022277832,0.9720055460929871
1779958744154963700,3.071963623046875,-3.3663017749786377,1.7922348976135254,1.4178763628005981
1779958744171282700,3.08828271484375,-3.709923505783081,-2.0202713012695312,2.109218120574951
1779958744187616800,3.10461669921875,-2.9468836784362793,-8.505898475646973,2.384345293045044
1779958744203950300,3.120950439453125,-4.284330368041992,-11.061775207519531,0.9984594583511353
1779958744220284700,3.13728466796875,-7.509005546569824,-4.902922630310059,0.7828749418258667
1779958744236616700,3.15361669921875,-6.468134880065918,-0.12053680419921875,1.5639046430587769
1779958744252947700,3.16994775390625,-4.1952056884765625,0.8164224624633789,0.8465709686279297
1779958744269281300,3.18628125,-2.5685317516326904,-1.4097719192504883,0.15866243839263916
1779958744285618200,3.2026181640625,-1.2426488399505615,-6.018864631652832,0.8384413123130798
1779958744301945600,3.218945556640625,2.6097640991210938,-9.034205436706543,0.9801245927810669
1779958744318293500,3.23529345703125,3.2491862773895264,-6.722661972045898,-0.12285614013671875
1779958744334626600,3.25162646484375,-0.16147232055664062,3.7565226554870605,-1.4348682165145874
1779958744350958300,3.267958251953125,-0.01875019073486328,8.439661979675293,-2.114332914352417
1779958744367291000,3.284290771484375,0.0919041633605957,7.489504814147949,-1.8662992715835571
1779958744383626000,3.3006259765625,1.925278902053833,5.4739532470703125,0.16786932945251465
1779958744399958000,3.3169580078125,4.691958904266357,3.2771806716918945,1.578925609588623
1779958744416274700,3.333274658203125,4.132142066955566,-0.40697383880615234,1.7005678415298462
1779958744432606000,3.34960595703125,3.3264517784118652,-4.050712585449219,1.7063068151474
1779958744448939300,3.365939208984375,3.1574673652648926,-6.303107261657715,1.7669247388839722
1779958744465273600,3.382273681640625,-0.872528076171875,-5.740292549133301,1.1844813823699951
1779958744481619700,3.39861962890625,-3.5368175506591797,-2.2758750915527344,1.8528709411621094
1779958744497951000,3.414950927734375,1.2247638702392578,0.627288818359375,1.3462203741073608
1779958744514292000,3.4312919921875,2.176795482635498,1.774733066558838,0.5180214643478394
1779958744530619600,3.44761962890625,1.5372447967529297,2.0175094604492188,0.27648282051086426
1779958744546950000,3.463949951171875,1.6439558267593384,1.7293734550476074,0.059200286865234375
1779958744563287000,3.480287109375,1.957533597946167,1.1326618194580078,0.05780649185180664
1779958744579600400,3.496600341796875,0.9787294864654541,0.7613716125488281,0.7110881805419922
1779958744595938800,3.512938720703125,-0.2849990427494049,0.9957742691040039,0.967850923538208
1779958744612283600,3.52928369140625,-0.22452901303768158,1.2592792510986328,1.1109143495559692
1779958744628619300,3.545619384765625,-0.15698282420635223,0.9562835693359375,1.2411302328109741
1779958744644951000,3.561950927734375,-0.7395060062408447,0.6414470672607422,1.4323533773422241
1779958744661267000,3.578266845703125,-0.9934194684028625,0.6263961791992188,1.5230975151062012
1779958744677598700,3.5945986328125,-1.376359462738037,0.6006202697753906,1.7875137329101562
1779958744693937400,3.6109375,-1.9890100955963135,0.49327564239501953,2.1377158164978027
1779958744710269000,3.62726904296875,-1.9879411458969116,0.4838428497314453,2.5344114303588867
1779958744726585000,3.643585205078125,-1.1204196214675903,0.6516103744506836,2.979938507080078
1779958744742921500,3.65992138671875,-0.49197810888290405,0.2256917953491211,3.02700138092041
1779958744759254000,3.67625390625,-0.7072243094444275,-0.6116724014282227,2.9860379695892334
1779958744775590100,3.692590087890625,-2.165595293045044,-2.1861095428466797,2.519439220428467
1779958744791918000,3.70891796875,-2.4731860160827637,-2.494823455810547,1.3591997623443604
1779958744808253200,3.725253173828125,-1.674608588218689,-1.8268918991088867,1.7721267938613892
1779958744824586800,3.741586669921875,-1.7511000633239746,-1.6668729782104492,3.419454574584961
1779958744840932600,3.7579326171875,-2.338043689727783,-2.3150272369384766,4.882055759429932
1779958744857261000,3.774260986328125,-3.288698196411133,-2.517012596130371,5.3314900398254395
1779958744873598000,3.790597900390625,-2.1973154544830322,-2.6013431549072266,4.843047618865967
1779958744889928400,3.806928466796875,-1.7662954330444336,-4.006213188171387,5.041792869567871
1779958744906262300,3.82326220703125,-0.9260499477386475,-3.6571741104125977,4.886690139770508
1779958744922595800,3.839595947265625,-0.14703869819641113,-2.677326202392578,4.010867595672607
1779958744938943500,3.855943603515625,-1.0676851272583008,-2.5096702575683594,3.3759663105010986
1779958744955268000,3.87226806640625,-0.14399749040603638,-1.8839178085327148,2.9268264770507812
1779958744971607800,3.88860791015625,-0.2723797559738159,-1.632197380065918,1.9049451351165771
1779958744987932200,3.90493212890625,-1.1885883808135986,-1.8388824462890625,0.22086143493652344
1779958745004266000,3.921265869140625,-1.3573148250579834,-2.9582395553588867,-1.1067259311676025
1779958745020593700,3.93759375,1.210909366607666,-3.8372058868408203,-1.6933565139770508
1779958745036921300,3.95392138671875,3.043025493621826,-2.7770042419433594,-1.859933614730835
1779958745053272000,3.97027197265625,1.5624843835830688,-2.1697301864624023,-2.0354702472686768
1779958745069602800,3.986602783203125,-0.05016052722930908,-1.478994369506836,-1.1667594909667969
1779958745085920000,4.002919921875,-0.4220750331878662,-1.4525022506713867,0.7992491722106934
1779958745102271500,4.019271484375,-0.577552080154419,-1.107335090637207,2.187863826751709
1779958745118601200,4.035601318359375,-0.259702205657959,0.19689178466796875,2.9739575386047363
1779958745134933200,4.051933349609375,0.31616926193237305,0.6295795440673828,3.1218762397766113
1779958745151252200,4.068252197265625,0.35366296768188477,0.6597480773925781,2.584165573120117
1779958745167596300,4.08459619140625,0.10559868812561035,0.5084962844848633,1.9123934507369995
1779958745183918800,4.1009189453125,0.7304346561431885,1.16546630859375,1.6283639669418335
1779958745200253700,4.117253662109375,1.3538954257965088,1.9858436584472656,1.3535773754119873
1779958745216586000,4.1335859375,1.8537095785140991,3.0404248237609863,0.9406937956809998
1779958745232917200,4.149917236328125,2.2464354038238525,3.602994918823242,0.7674587368965149
1779958745249250800,4.166250732421875,2.492616891860962,3.937234401702881,0.6304740905761719
1779958745265580000,4.182580078125,2.6639435291290283,4.115676403045654,0.23195254802703857
1779958745281963000,4.198962890625,2.2925174236297607,4.330112934112549,-0.214119553565979
1779958745298257700,4.215257568359375,1.920535922050476,4.263338565826416,0.08822059631347656
1779958745314596600,4.2315966796875,1.9160228967666626,4.274878978729248,0.45786774158477783
1779958745330924800,4.2479248046875,2.0098156929016113,4.210861682891846,0.6277122497558594
1779958745347244800,4.264244873046875,2.0364084243774414,4.428035736083984,0.818792462348938
1779958745363592200,4.28059228515625,0.9676079750061035,4.537769317626953,0.6926021575927734
1779958745379929900,4.296929931640625,-1.1308763027191162,3.4180192947387695,0.9046441316604614
1779958745396260600,4.313260498046875,-0.7563974857330322,1.8891191482543945,1.6446095705032349
1779958745412596500,4.329596435546875,-1.4539551734924316,0.7354145050048828,2.1758902072906494
1779958745428924000,4.345923828125,-3.4902966022491455,-0.4431743621826172,2.043153762817383
1779958745445259800,4.362259765625,-4.445589542388916,-1.33551025390625,1.6117554903030396
1779958745461571600,4.378571533203125,-4.5416765213012695,-2.1606550216674805,1.9141992330551147
1779958745477920000,4.394919921875,-2.873941421508789,-0.8379373550415039,2.575227737426758
1779958745494261500,4.411261474609375,-2.908344268798828,0.9787187576293945,2.614375114440918
1779958745510573300,4.4275732421875,-1.914386510848999,3.1786932945251465,2.2875261306762695
1779958745526891800,4.443891845703125,-0.12728190422058105,2.714089870452881,1.04518723487854
1779958745543253500,4.46025341796875,3.1333603858947754,-1.2147150039672852,-0.4461551904678345
1779958745559577600,4.47657763671875,-2.2560853958129883,-5.131253242492676,-2.468545436859131
1779958745575921000,4.4929208984375,0.10248303413391113,-11.517355918884277,-6.101154804229736
1779958745592241700,4.50924169921875,7.012172222137451,-11.530779838562012,-8.918787002563477
1779958745608582700,4.525582763671875,6.947043418884277,-1.6839971542358398,-7.228248119354248
1779958745624924400,4.54192431640625,3.7646896839141846,2.309276580810547,-0.38263773918151855
1779958745641231600,4.558231689453125,2.2077901363372803,4.160355091094971,1.4679540395736694
1779958745657580300,4.574580322265625,-0.4947352409362793,-1.4470539093017578,3.7507431507110596
1779958745673896200,4.590896240234375,-3.900081157684326,-11.229185104370117,7.241723537445068
1779958745690237700,4.60723779296875,-1.3309365510940552,-11.26990795135498,7.87250280380249
1779958745706570800,4.62357080078125,-1.148036241531372,-7.102322578430176,4.890958309173584
1779958745722888000,4.639887939453125,-1.5679470300674438,-3.601628303527832,-0.6714359521865845
1779958745739224600,4.656224609375,1.413334846496582,-0.8734130859375,-2.251002311706543
1779958745755568600,4.672568603515625,3.32025146484375,1.1258487701416016,-3.249248504638672
1779958745771920600,4.688920654296875,0.8616595268249512,1.2278566360473633,-3.4262986183166504
1779958745788232400,4.705232421875,-2.075366973876953,0.9296360015869141,-3.0940098762512207
1779958745804581400,4.721581298828125,-1.9921456575393677,1.1278963088989258,-0.9767838716506958
1779958745820897300,4.737897216796875,-1.209480881690979,0.8804454803466797,0.6258577108383179
1779958745837219800,4.7542197265625,-0.7901960015296936,1.5374259948730469,0.9614279270172119
1779958745853547500,4.770547607421875,-1.3111211061477661,2.7830610275268555,1.0586332082748413
1779958745869887000,4.786886962890625,-0.8715648055076599,3.5586204528808594,1.744889259338379
1779958745886219300,4.80321923828125,-1.320776104927063,3.8827309608459473,3.200985908508301
1779958745902552300,4.81955224609375,-2.307584762573242,3.420070171356201,4.413957595825195
1779958745918884600,4.835884521484375,-3.311307907104492,2.2423839569091797,4.892996788024902
1779958745935218700,4.85221875,-2.6525120735168457,1.656202793121338,4.659891128540039
1779958745951549200,4.868549072265625,-0.5748056173324585,1.4350476264953613,3.932443857192993
1779958745967882500,4.884882568359375,-0.49869322776794434,1.0495452880859375,3.721493721008301
1779958745984216000,4.901216064453125,-1.4804621934890747,-0.4552001953125,3.591130495071411
1779958746000549400,4.91754931640625,-1.587871789932251,-1.6514291763305664,3.760611057281494
1779958746016882400,4.93388232421875,-2.009150743484497,-1.8911991119384766,4.488131046295166
1779958746033229800,4.950229736328125,-2.7943851947784424,-2.463165283203125,3.8016908168792725
1779958746049568300,4.966568359375,-3.671957492828369,-2.987685203552246,3.0761449337005615
1779958746065890600,4.982890625,-2.1282994747161865,-3.2738962173461914,3.7614059448242188
1779958746082225700,4.9992255859375,-1.6942124366760254,-4.500845909118652,4.835239887237549
1779958746098557000,5.015556884765625,-0.879035234451294,-4.513038635253906,4.100492477416992
1779958746114891300,5.031891357421875,-0.9124490022659302,-3.7778615951538086,3.3570635318756104
1779958746131223300,5.048223388671875,-0.8136320114135742,-3.056412696838379,1.8651467561721802
1779958746147555300,5.064555419921875,-0.4728102684020996,-1.9652099609375,0.8002169132232666
1779958746163889200,5.08088916015625,-0.8788468241691589,-1.839390754699707,0.6102002859115601
1779958746180222500,5.097222412109375,-1.7876369953155518,-2.259927749633789,-0.6812701225280762
1779958746196555500,5.113555419921875,-1.6582555770874023,-2.927520751953125,-2.0565414428710938
1779958746212887000,5.129886962890625,-0.8822827339172363,-3.8266725540161133,-2.2578368186950684
1779958746229216500,5.146216552734375,0.5046666860580444,-4.404594421386719,-2.1704092025756836
1779958746245557500,5.1625576171875,1.344009280204773,-4.0078935623168945,-2.3703932762145996
1779958746261888800,5.178888671875,0.6955278515815735,-2.9331016540527344,-2.722576141357422
1779958746278217200,5.19521728515625,-1.1158907413482666,-2.4487714767456055,-2.477336883544922
1779958746294565600,5.211565673828125,-1.2751299142837524,-2.3397789001464844,0.5745182633399963
1779958746310897400,5.2278974609375,-0.15916454792022705,-0.7366161346435547,2.094921588897705
1779958746327229700,5.244229736328125,1.3317409753799438,0.5841474533081055,1.0243875980377197
1779958746343565000,5.26056494140625,1.8742499351501465,1.288482666015625,0.01825428009033203
1779958746359892000,5.27689208984375,0.9782482385635376,1.329507827758789,-0.30301493406295776
1779958746376234200,5.293234130859375,1.0770472288131714,1.5480198860168457,-1.1080302000045776
1779958746392563200,5.309563232421875,0.902235746383667,2.6386656761169434,-1.2659022808074951
1779958746408878800,5.32587890625,1.3316727876663208,3.3311610221862793,-0.8663992881774902
1779958746425229000,5.34222900390625,1.9773716926574707,4.118736743927002,-0.8675746917724609
1779958746441546800,5.358546630859375,2.3521928787231445,4.965061664581299,-0.9419652223587036
1779958746457890800,5.374890869140625,2.422971725463867,5.21378231048584,-0.7190955877304077
1779958746474229500,5.3912294921875,2.5506033897399902,5.17642879486084,-0.4722645580768585
1779958746490558700,5.407558837890625,2.072763442993164,5.45308780670166,-0.15148577094078064
1779958746506890800,5.423890869140625,1.2787096500396729,5.538207054138184,-0.11777949333190918
1779958746523222500,5.440222412109375,0.4149749279022217,5.267457962036133,-0.6460654735565186
1779958746539559700,5.4565595703125,-1.0521819591522217,4.603538990020752,-0.42966604232788086
1779958746555890000,5.472889892578125,-2.7725677490234375,3.174673557281494,-0.10937076807022095
1779958746572222500,5.489222412109375,-4.299915790557861,-0.6299571990966797,0.04899013042449951
1779958746588535000,5.50553515625,-2.9374938011169434,-8.734883308410645,-0.19984716176986694
1779958746604875300,5.521875244140625,-2.072634220123291,-14.717394828796387,-0.7185364961624146
1779958746621205800,5.538205810546875,-6.601495265960693,-6.632219314575195,1.1663951873779297
1779958746637539600,5.55453955078125,-8.194623947143555,0.7238407135009766,2.026092767715454
1779958746653875500,5.57087548828125,-6.964539051055908,3.694361686706543,2.0497701168060303
1779958746670207200,5.587207275390625,-2.6938207149505615,0.26119136810302734,1.364200234413147
1779958746686540000,5.6035400390625,1.7305759191513062,-3.1226253509521484,0.8428871631622314
1779958746702872800,5.619872802734375,4.340515613555908,-4.389713287353516,-0.0886320173740387
1779958746719195000,5.63619482421875,2.514369249343872,-6.213090896606445,-4.065540790557861
1779958746735546600,5.652546630859375,-0.21474313735961914,0.6207656860351562,-4.097116947174072
1779958746751867000,5.668866943359375,-2.9792511463165283,3.493136405944824,-3.58463716506958
1779958746768196900,5.68519677734375,-2.949439287185669,3.6550540924072266,-1.7643108367919922
1779958746784550400,5.70155029296875,0.9446916580200195,3.419151782989502,-0.35938841104507446
1779958746800884500,5.717884521484375,4.32063102722168,2.4745235443115234,-0.5425983667373657
1779958746817214200,5.734214111328125,5.4896240234375,0.6704082489013672,-1.002190351486206
1779958746833545500,5.75054541015625,5.701091766357422,-1.3157920837402344,-0.8191198706626892
1779958746849883100,5.766883056640625,2.6943106651306152,-3.3996076583862305,-0.14392441511154175
1779958746866218800,5.78321875,-2.511227607727051,-3.5814990997314453,0.20215022563934326
1779958746882547500,5.79954736328125,-1.774625301361084,-1.3162975311279297,0.8761583566665649
1779958746898863900,5.81586376953125,0.34106960892677307,0.02630615234375,0.002034306526184082
1779958746915213600,5.832213623046875,1.8377938270568848,1.4286880493164062,-0.7285165786743164
1779958746931551000,5.848551025390625,2.825568914413452,2.847095012664795,-1.2725616693496704
1779958746947881700,5.8648818359375,1.7690143585205078,2.995100975036621,-1.661962866783142
1779958746964212200,5.881212158203125,-0.6202901601791382,2.235621452331543,-1.5431112051010132
1779958746980538400,5.897538330078125,-0.619389533996582,1.7946877479553223,-1.34426748752594
1779958746996879400,5.91387939453125,-0.995125412940979,1.7737226486206055,-0.6455659866333008
1779958747013209600,5.930209716796875,-1.521636962890625,1.061448097229004,0.1576542854309082
1779958747029540600,5.94654052734375,-1.2552845478057861,0.41628360748291016,1.0439519882202148
1779958747045880000,5.962880126953125,-1.3966225385665894,0.14817523956298828,1.8059656620025635
1779958747062208800,5.979208740234375,-2.1736488342285156,-0.011530876159667969,2.243298292160034
1779958747078525700,5.995525634765625,-2.961379051208496,-0.0028362274169921875,2.603785514831543
1779958747094877700,6.011877685546875,-1.3746416568756104,0.5514211654663086,2.5531060695648193
1779958747111189800,6.028189697265625,-0.6087249517440796,0.6585102081298828,2.4345083236694336
1779958747127524400,6.0445244140625,-0.6181379556655884,-0.8546915054321289,2.5190110206604004
1779958747143863300,6.06086328125,-2.2314772605895996,-2.4001874923706055,2.138975143432617
1779958747160189000,6.07718896484375,-3.0224609375,-1.5382518768310547,2.088387966156006
1779958747176528000,6.09352783203125,-2.0956239700317383,-1.438248634338379,3.783923864364624
1779958747192861700,6.10986181640625,-2.6824729442596436,-2.259288787841797,4.930056571960449
1779958747209188600,6.126188720703125,-1.8444660902023315,-2.4493894577026367,4.425543308258057
1779958747225523000,6.14252294921875,-2.0577454566955566,-2.522982597351074,4.131801605224609
1779958747241862100,6.158862060546875,-2.0159780979156494,-2.7773704528808594,3.778761863708496
1779958747258200800,6.175200927734375,-0.8336998224258423,-3.339604377746582,2.9279754161834717
1779958747274534700,6.19153466796875,-1.5649446249008179,-4.065998077392578,1.7118866443634033
1779958747290866400,6.207866455078125,-0.7555763721466064,-4.2118730545043945,1.698319911956787
1779958747307200800,6.22420068359375,-0.8492320775985718,-1.6445674896240234,0.9812843799591064
1779958747323536600,6.24053662109375,-0.9967466592788696,-0.23820877075195312,0.07377779483795166
1779958747339863600,6.256863525390625,-1.8989884853363037,-0.13973426818847656,-1.8835124969482422
1779958747356203500,6.27320361328125,-3.442373752593994,-2.3254690170288086,-3.690613269805908
1779958747372517000,6.28951708984375,-2.3399674892425537,-3.6371536254882812,-3.9279236793518066
1779958747388864300,6.3058642578125,1.1457395553588867,-3.192474365234375,-3.1050913333892822
1779958747405197600,6.322197509765625,2.6054816246032715,-2.5757694244384766,-2.826791763305664
1779958747421572600,6.338572509765625,0.6569342613220215,-2.1291770935058594,-3.1375393867492676
1779958747437857500,6.354857421875,-2.4657654762268066,-1.6655397415161133,-2.7902259826660156
1779958747454199800,6.37119970703125,-1.951621413230896,-1.487600326538086,0.353690505027771
1779958747470527700,6.38752783203125,-0.06139826774597168,-0.49746131896972656,1.5725934505462646
1779958747486856000,6.40385595703125,0.45647764205932617,0.8144216537475586,0.8486257195472717
1779958747503197700,6.42019775390625,0.38082170486450195,1.268625259399414,0.6303319334983826
1779958747519506700,6.436506591796875,0.2543494701385498,1.9520282745361328,0.5001426935195923
1779958747535863600,6.452863525390625,0.8539552688598633,2.3678574562072754,0.2616856098175049
1779958747552193800,6.46919384765625,1.6764256954193115,3.020256996154785,-0.5094573497772217
1779958747568524000,6.48552392578125,1.496387004852295,3.718088150024414,-1.143725872039795
1779958747584852500,6.5018525390625,1.0491430759429932,4.549083709716797,-1.4041789770126343
1779958747601177600,6.518177490234375,1.049638032913208,4.9364333152771,-1.311995267868042
1779958747617497600,6.53449755859375,1.7193655967712402,4.726630687713623,-1.2202332019805908
1779958747633830100,6.550830078125,1.846007227897644,4.854060649871826,-0.8237605690956116
1779958747650166300,6.567166259765625,2.72340726852417,4.513191223144531,-0.5244553089141846
1779958747666508000,6.583508056640625,1.6362597942352295,4.885926723480225,-0.22420963644981384
1779958747682823200,6.5998232421875,0.22359514236450195,5.002763271331787,-0.6068423986434937
1779958747699173400,6.61617333984375,-1.5123217105865479,4.627119541168213,-0.5535130500793457
1779958747715507500,6.632507568359375,-2.724820137023926,3.5617752075195312,-0.27916955947875977
1779958747731840300,6.64884033203125,-2.991602897644043,0.6957969665527344,0.33211466670036316
1779958747748184300,6.665184326171875,-3.4543042182922363,-5.167557716369629,1.7369840145111084
1779958747764523000,6.68152294921875,-2.1677372455596924,-11.540328979492188,0.670350193977356
1779958747780851500,6.6978515625,-8.383794784545898,-9.811906814575195,-1.46700119972229
1779958747797183500,6.71418359375,-10.774069786071777,-2.837055206298828,0.21085694432258606
1779958747813501200,6.730501220703125,-6.496533393859863,1.6376686096191406,0.30066952109336853
1779958747829845800,6.746845703125,-3.4015681743621826,1.5035638809204102,-1.644239068031311
1779958747846187500,6.7631875,-1.2884819507598877,-1.626845359802246,-1.9539482593536377
1779958747862517500,6.779517578125,0.8761904239654541,-4.806276321411133,-0.9039879441261292
1779958747878844700,6.7958447265625,6.598329544067383,-6.065669059753418,0.09698879718780518
1779958747895190000,6.81218994140625,4.337466239929199,-7.0901594161987305,-2.2903542518615723
1779958747911516700,6.8285166015625,0.5389306545257568,3.6293649673461914,-3.455862045288086
1779958747927845400,6.844845458984375,-0.05253410339355469,6.183471202850342,-3.7634990215301514
1779958747944185000,6.86118505859375,1.358573079109192,5.573934555053711,-3.2565805912017822
1779958747960512500,6.877512451171875,2.9750218391418457,4.474457740783691,-1.1524162292480469
1779958747976844000,6.893843994140625,5.383232593536377,3.443507671356201,-0.07844412326812744
1779958747993178400,6.910178466796875,4.941226959228516,-0.3467540740966797,0.23706775903701782
1779958748009511400,6.926511474609375,3.1957929134368896,-3.3012561798095703,0.36912089586257935
1779958748025845000,6.942844970703125,-0.4479290246963501,-5.677519798278809,0.2225760817527771
1779958748042178000,6.959177978515625,-5.544234752655029,-4.861123085021973,-0.23771750926971436
1779958748058508500,6.975508544921875,-1.039459228515625,-2.0010433197021484,1.272728681564331
1779958748074826000,6.991825927734375,1.5163185596466064,0.8280000686645508,0.8992714881896973
1779958748091159300,7.0081591796875,3.0580978393554688,2.455638885498047,0.020685315132141113
1779958748107493400,7.024493408203125,2.5852463245391846,3.78409481048584,0.06408584117889404
1779958748123821300,7.0408212890625,1.348786473274231,3.763998508453369,-0.0640401840209961
1779958748140159200,7.0571591796875,0.1974019706249237,2.8681178092956543,0.18435418605804443
1779958748156495000,7.0734951171875,-1.080505132675171,2.170712471008301,0.027718305587768555
1779958748172825600,7.08982568359375,-0.4763977527618408,2.0667295455932617,-0.308529257774353
1779958748189157600,7.10615771484375,-1.0348308086395264,1.3345155715942383,-0.676520586013794
1779958748205492000,7.122491943359375,-2.215897560119629,1.113677978515625,-0.656825065612793
1779958748221824500,7.138824462890625,-2.6036314964294434,0.5450220108032227,-0.3218919038772583
1779958748238140400,7.155140380859375,-1.8735408782958984,0.6578283309936523,0.8264812231063843
1779958748254492400,7.171492431640625,-1.1289702653884888,-0.06744098663330078,2.0687944889068604
1779958748270819300,7.1878193359375,-1.425799012184143,-1.1565065383911133,3.0960450172424316
1779958748287152600,7.204152587890625,-1.4281834363937378,-2.0903615951538086,3.4544482231140137
1779958748303474200,7.22047412109375,-1.9812912940979004,-1.055893898010254,2.4047040939331055
1779958748319808500,7.23680859375,-2.405998706817627,-0.5432920455932617,1.806511402130127
1779958748336143400,7.253143310546875,-1.7539446353912354,-1.6489334106445312,2.155367374420166
1779958748352474400,7.269474365234375,-2.1129510402679443,-1.3592243194580078,3.8194127082824707
1779958748368808400,7.285808349609375,-2.0400030612945557,-1.2457818984985352,5.508296012878418
1779958748385155000,7.302155029296875,-3.5448923110961914,-2.065302848815918,5.023122787475586
1779958748401485800,7.31848583984375,-1.9627853631973267,-2.634906768798828,4.158483505249023
1779958748417816800,7.33481689453125,-2.228684902191162,-3.603243827819824,4.424915790557861
1779958748434133800,7.3511337890625,-0.09634971618652344,-3.797822952270508,3.2543563842773438
1779958748450484200,7.367484130859375,-0.08064019680023193,-3.6184024810791016,2.017333507537842
1779958748466816500,7.38381640625,-0.827534556388855,-3.093050003051758,1.0139232873916626
1779958748483166200,7.400166259765625,-0.6652964353561401,-1.4214420318603516,0.06545805931091309
1779958748499489800,7.41648974609375,-0.4995957016944885,-0.5743875503540039,-0.6609513759613037
1779958748515832300,7.432832275390625,-1.9082696437835693,-1.238912582397461,-2.2063746452331543
1779958748532164000,7.4491640625,-2.7726786136627197,-3.2199888229370117,-3.648430585861206
1779958748548493300,7.465493408203125,0.005242038983851671,-4.162806510925293,-4.103740692138672
1779958748564826400,7.481826416015625,2.153611183166504,-3.071316719055176,-4.23097038269043
1779958748581143300,7.498143310546875,1.9876224994659424,-1.9185409545898438,-4.9346771240234375
1779958748597479000,7.51447900390625,-0.6652344465255737,-1.122065544128418,-5.683786392211914
1779958748613811000,7.53081103515625,-2.2128000259399414,-1.4233150482177734,-2.915144205093384
1779958748630145000,7.54714501953125,-0.690367579460144,-0.981165885925293,0.5848037600517273
1779958748646477300,7.563477294921875,0.30020058155059814,-0.04931926727294922,0.933350682258606
1779958748662810000,7.57981005859375,0.010184764862060547,0.1794261932373047,0.06325662136077881
1779958748679142400,7.596142333984375,0.0204012393951416,0.9558687210083008,0.3431529104709625
1779958748695478300,7.612478271484375,-0.014192342758178711,1.136336326599121,0.5366373062133789
1779958748711806200,7.62880615234375,0.23024487495422363,1.7538228034973145,0.17923228442668915
1779958748728140300,7.645140380859375,0.8319394588470459,2.97357177734375,-0.24607081711292267
1779958748744492000,7.661491943359375,0.8094723224639893,4.044463634490967,-0.33601829409599304
1779958748760819200,7.677819091796875,0.6574220657348633,4.703551292419434,-0.31876659393310547
1779958748777153800,7.69415380859375,1.224327564239502,5.028823375701904,-0.1351691037416458
1779958748793488000,7.71048779296875,2.2505440711975098,5.250668048858643,0.10085737705230713
1779958748809812200,7.726812255859375,2.8196096420288086,5.283038139343262,0.2883470952510834
1779958748826152400,7.74315234375,2.6577072143554688,5.30488395690918,0.39853939414024353
1779958748842485500,7.759485595703125,1.535937786102295,5.456406593322754,-0.21272525191307068
1779958748858815200,7.775815185546875,0.28354477882385254,5.2711663246154785,-0.615059494972229
1779958748875150800,7.79215087890625,-1.6398227214813232,4.5329484939575195,-0.9058370590209961
1779958748891482600,7.808482666015625,-3.318331480026245,2.4049038887023926,-0.3522811532020569
1779958748907827500,7.824827392578125,-4.588074207305908,-4.605185508728027,0.49979716539382935
1779958748924149500,7.8411494140625,-1.216017246246338,-13.136186599731445,0.5989382863044739
1779958748940484600,7.857484619140625,-2.0269057750701904,-11.704094886779785,-0.6218938827514648
1779958748956809000,7.87380908203125,-11.578435897827148,-3.516819953918457,-0.6810696721076965
1779958748973148000,7.89014794921875,-10.384907722473145,0.39475440979003906,-0.9068316221237183
1779958748989475300,7.906475341796875,-5.796441078186035,-1.2738256454467773,-1.4327973127365112
1779958749005817300,7.9228173828125,3.168546199798584,-6.834953308105469,-0.5780590772628784
1779958749022146600,7.939146484375,10.496281623840332,-7.720193862915039,-0.50929856300354
1779958749038473200,7.95547314453125,1.7888071537017822,-2.2402048110961914,-5.9499077796936035
1779958749054809300,7.971809326171875,-2.221198320388794,7.639288902282715,-6.295884609222412
1779958749071134500,7.988134521484375,2.6651394367218018,8.49880313873291,-3.575932264328003
1779958749087464700,8.004464599609374,4.648941993713379,6.265525817871094,-1.621860146522522
1779958749103795700,8.020795654296874,2.1542906761169434,4.057097434997559,-0.12656867504119873
1779958749120129300,8.03712939453125,3.9098620414733887,0.22809600830078125,-0.03229130804538727
1779958749136461600,8.053461669921875,4.911129951477051,-3.8926782608032227,-0.8360797166824341
1779958749152794400,8.06979443359375,4.8065032958984375,-6.5230560302734375,-1.3033579587936401
1779958749169123600,8.08612353515625,-1.362606406211853,-6.4764299392700195,-1.294806957244873
1779958749185463300,8.10246337890625,-4.830048561096191,-2.3349809646606445,0.3473108410835266
1779958749201780200,8.1187802734375,1.4530673027038574,-0.2470693588256836,-0.19691503047943115
1779958749218124800,8.135124755859374,2.8885481357574463,1.1054506301879883,-0.38826239109039307
1779958749234475300,8.151475341796875,2.220221757888794,2.688142776489258,-0.6296463012695312
1779958749250785300,8.167785400390626,1.280234694480896,3.9223132133483887,-0.42600375413894653
1779958749267135500,8.184135498046874,-0.06141609698534012,3.1342239379882812,-0.1258140206336975
1779958749283455200,8.200455322265626,-0.24416831135749817,2.582385540008545,-0.030367612838745117
1779958749299785000,8.216784912109375,-0.7668509483337402,2.732008934020996,0.6375919580459595
1779958749316126000,8.2331259765625,-0.9450884461402893,1.9323277473449707,0.7973145246505737
1779958749332455700,8.24945556640625,-1.086127519607544,1.531820297241211,0.5818156003952026
1779958749348787500,8.265787353515625,-2.002903699874878,1.1614532470703125,0.7824286818504333
1779958749365112000,8.282112060546876,-2.2624030113220215,0.4506349563598633,1.3564225435256958
1779958749381441000,8.29844091796875,-2.5013675689697266,0.20406246185302734,2.055290460586548
1779958749397773800,8.31477392578125,-1.8963289260864258,-0.08321952819824219,2.5166337490081787
1779958749414120000,8.331119873046875,-1.1136984825134277,0.11428356170654297,2.770122766494751
1779958749430437600,8.347437744140626,-0.2637600898742676,0.3406362533569336,2.8867454528808594
1779958749446773000,8.36377294921875,-1.1421194076538086,-0.8357095718383789,2.889820098876953
1779958749463105300,8.380105224609375,-2.231065273284912,-1.8495397567749023,2.415815830230713
1779958749479439600,8.396439697265626,-2.0433735847473145,-1.6232976913452148,3.4841556549072266
1779958749495771000,8.41277099609375,-2.6532504558563232,-2.1214332580566406,5.074463844299316
1779958749512103200,8.429103271484376,-2.5191287994384766,-3.1101207733154297,4.957885265350342
1779958749528452000,8.4454521484375,-2.1254355907440186,-3.218123435974121,4.608728885650635
1779958749544782800,8.461782958984376,-1.4910829067230225,-3.5823535919189453,4.4512529373168945
1779958749561114600,8.478114501953126,-0.365368127822876,-3.797581672668457,3.2612407207489014
1779958749577442600,8.494442626953125,-0.8146978616714478,-3.55303955078125,0.458953857421875
1779958749593785300,8.510785400390626,-0.9102919697761536,-5.183717727661133,0.13658857345581055
1779958749610113300,8.52711328125,-1.0887815952301025,-3.7881908416748047,0.28230905532836914
1779958749626446800,8.54344677734375,-0.20522797107696533,-1.4530963897705078,0.585582971572876
1779958749642768100,8.55976806640625,-1.0420905351638794,0.1453857421875,-0.48960745334625244
1779958749659111000,8.57611083984375,-3.58776593208313,-0.6754779815673828,-2.988739490509033
1779958749675440400,8.5924404296875,-3.1419198513031006,-3.4753732681274414,-4.300138473510742
1779958749691782700,8.60878271484375,1.108322262763977,-4.38288688659668,-4.10546350479126
1779958749708108000,8.62510791015625,2.57772159576416,-3.121035575866699,-3.673985004425049
1779958749724457200,8.641457275390625,1.9833567142486572,-2.072037696838379,-3.753610610961914
1779958749740789500,8.65778955078125,-1.0315816402435303,-1.385624885559082,-3.2666664123535156
1779958749757119200,8.674119140625,-2.074052333831787,-0.3401145935058594,-1.0515358448028564
1779958749773448700,8.69044873046875,-0.5510509014129639,-0.06915473937988281,1.7165148258209229
1779958749789795000,8.706795166015626,0.6754482984542847,0.5472240447998047,0.8867453336715698
1779958749806119700,8.72311962890625,0.5814902782440186,0.586735725402832,0.42208579182624817
1779958749822453500,8.73945361328125,0.5195722579956055,1.034205436706543,0.19267290830612183
1779958749838785800,8.755785888671875,0.8481848239898682,1.972501277923584,0.06927049160003662
1779958749855119400,8.772119384765626,1.3274767398834229,2.905473232269287,-0.07045257091522217
1779958749871435800,8.788435791015624,1.4786977767944336,3.669767379760742,-0.2831835150718689
1779958749887786800,8.804786865234375,1.7920713424682617,4.29887580871582,-0.5131356120109558
1779958749904117000,8.821116943359375,1.5273075103759766,5.030582427978516,-0.584152340888977
1779958749920449500,8.837449462890625,2.393482208251953,5.280115604400635,-0.6605488657951355
1779958749936781600,8.853781494140625,2.965672254562378,5.226271629333496,-0.2779543995857239
1779958749953118700,8.87011865234375,3.4030051231384277,5.196860313415527,0.00483173131942749
1779958749969448000,8.886447998046876,2.450345039367676,5.535039901733398,0.299426406621933
1779958749985779000,8.902779052734376,1.1914994716644287,5.815889835357666,-0.1414567232131958
1779958750002124000,8.9191240234375,-0.21609926223754883,5.359013557434082,-0.646346390247345
1779958750018446000,8.935446044921875,-1.830824851989746,4.11791467666626,-0.29820024967193604
1779958750034791200,8.951791259765624,-3.149826765060425,1.1840753555297852,0.4269164800643921
1779958750051096000,8.968095947265626,-5.003215312957764,-7.618992805480957,0.8593580722808838
1779958750067431000,8.984430908203125,-1.7213950157165527,-16.276918411254883,-0.589044988155365
1779958750083764200,9.00076416015625,-4.885811805725098,-11.85531997680664,-1.6381540298461914
1779958750100093400,9.017093505859375,-13.722021102905273,-0.2197742462158203,-0.19821697473526
1779958750116421400,9.03342138671875,-9.074606895446777,2.3012866973876953,-0.3373720049858093
1779958750132763600,9.049763671875,-2.4662015438079834,0.6826896667480469,-0.7404478788375854
1779958750149094100,9.06609423828125,2.2352206707000732,-4.188177108764648,-0.7238661646842957
1779958750165430500,9.082430419921875,7.186367034912109,-5.3690900802612305,-0.639865517616272
1779958750181748000,9.098748046875,5.394929885864258,-6.682662010192871,-4.29877233505249
1779958750198092800,9.1150927734375,-0.5126452445983887,2.441967487335205,-5.237476348876953
1779958750214427400,9.131427490234374,-0.7219817638397217,5.717959403991699,-3.1977813243865967
1779958750230775000,9.147775146484374,1.4336696863174438,5.892164707183838,-1.8107655048370361
1779958750247106800,9.16410693359375,0.8657054901123047,4.010868072509766,0.1086370050907135
1779958750263440000,9.18043994140625,3.273284912109375,2.7195606231689453,0.3624424636363983
1779958750279747000,9.1967470703125,5.151103973388672,-0.2160511016845703,0.06041663885116577
1779958750296118000,9.213117919921874,4.952215194702148,-3.142820358276367,-0.2166990041732788
1779958750312439000,9.22943896484375,4.689066410064697,-5.144709587097168,0.11425399780273438
1779958750328769300,9.245769287109376,-2.5535731315612793,-4.127871513366699,-0.46392273902893066
1779958750345118500,9.262118408203126,-3.405967950820923,-0.9188156127929688,0.2743501663208008
1779958750361417700,9.278417724609374,1.9864612817764282,1.1144075393676758,-0.7450132369995117
1779958750377763000,9.29476318359375,4.212724685668945,2.383345127105713,-1.0391218662261963
1779958750394108000,9.31110791015625,3.0905439853668213,3.22489070892334,-0.7830928564071655
1779958750410435600,9.327435546875,1.0281068086624146,2.462177276611328,-0.459354043006897
1779958750426765000,9.34376513671875,0.06088331714272499,1.403416633605957,-0.041602492332458496
1779958750443081500,9.36008154296875,-0.44472557306289673,1.1322784423828125,0.1713639497756958
1779958750459431700,9.376431640625,-0.13416260480880737,1.5030364990234375,0.6566705703735352
1779958750475766000,9.39276611328125,-0.6210707426071167,1.0479345321655273,1.0767059326171875
1779958750492082000,9.40908203125,-1.417936086654663,0.40256500244140625,0.9815371036529541
1779958750508429300,9.42542919921875,-1.7540967464447021,0.4583921432495117,0.9295583367347717
1779958750524761000,9.441760986328125,-2.4120278358459473,0.9605846405029297,1.4014967679977417
1779958750541083600,9.458083740234375,-1.9196546077728271,0.8434333801269531,2.021827459335327
1779958750557414700,9.47441455078125,-0.9802824854850769,0.05841636657714844,2.5176892280578613
1779958750573748500,9.49074853515625,-0.9798808693885803,-0.6142177581787109,2.5777053833007812
1779958750590082300,9.507082275390625,-1.4180926084518433,-0.35544490814208984,1.8984262943267822
1779958750606414800,9.523414794921875,-1.9565610885620117,-0.9689731597900391,1.564018964767456
1779958750622747100,9.5397470703125,-1.7796074151992798,-1.7178993225097656,1.7841084003448486
1779958750639079400,9.556079345703125,-1.033179521560669,-1.3961210250854492,3.321577548980713
1779958750655399400,9.5723994140625,-1.9773956537246704,-1.1779050827026367,5.06630802154541
1779958750671746300,9.588746337890624,-2.8944003582000732,-1.5771923065185547,4.7262420654296875
1779958750688077000,9.6050771484375,-2.1705985069274902,-2.142306327819824,4.242021083831787
1779958750704411100,9.6214111328125,-2.2261264324188232,-2.794797897338867,4.291337966918945
1779958750720760600,9.637760498046875,-0.7852613925933838,-3.0257444381713867,3.5458669662475586
1779958750737091600,9.654091552734375,-1.1034910678863525,-3.028453826904297,2.2183525562286377
1779958750753424100,9.670424072265625,-1.151223063468933,-3.5501222610473633,1.6630282402038574
1779958750769755600,9.686755615234375,-0.1377682089805603,-1.9623851776123047,0.837588906288147
1779958750786104300,9.703104248046875,-0.12521684169769287,-0.9863443374633789,-0.3894779682159424
1779958750802423000,9.719423095703124,-2.414405345916748,-2.0017433166503906,-2.717909812927246
1779958750818753500,9.73575341796875,-3.182835102081299,-4.78068733215332,-4.654879570007324
1779958750835067600,9.752067626953124,0.15843090415000916,-5.584341049194336,-4.89562463760376
1779958750851403800,9.76840380859375,3.259969472885132,-4.151125907897949,-4.314666748046875
1779958750867736600,9.784736572265626,3.105064630508423,-3.165781021118164,-4.36163854598999
1779958750884070700,9.801070556640624,-1.1296426057815552,-1.9452447891235352,-3.966001510620117
1779958750900405800,9.81740576171875,-3.0027294158935547,-0.5982484817504883,-1.8121130466461182
1779958750916737300,9.8337373046875,-1.0114527940750122,0.3343057632446289,1.4471431970596313
1779958750933067500,9.850067626953125,1.4337763786315918,1.215794563293457,1.2947545051574707
1779958750949405400,9.866405517578125,1.3152379989624023,1.5500741004943848,0.927963137626648
1779958750965736400,9.882736328125,0.6749110221862793,1.336721420288086,1.0692052841186523
1779958750982069200,9.8990693359375,0.7447781562805176,1.9526114463806152,0.4523780643939972
1779958750998417400,9.91541748046875,1.4188616275787354,3.169581890106201,-0.16731911897659302
1779958751014748200,9.931748046875,1.1910512447357178,3.8191375732421875,-0.2853933572769165
1779958751031064800,9.94806494140625,1.6363160610198975,4.25902795791626,-0.5975732207298279
1779958751047399400,9.9643994140625,1.5804448127746582,4.521353721618652,-0.7313678860664368
1779958751063719400,9.980719482421875,2.0904126167297363,4.519153594970703,-0.49691081047058105
1779958751080066300,9.99706640625,3.273843765258789,4.564373016357422,-0.4568732976913452
1779958751096399000,10.013399169921875,3.1681344509124756,4.7155890464782715,-0.7681075930595398
1779958751112731100,10.029731201171876,2.576587677001953,5.318986892700195,-0.7052816152572632
1779958751129063200,10.046063232421876,1.1937065124511719,5.336150169372559,-0.8679981231689453
1779958751145394400,10.06239453125,-0.5560719966888428,4.702427864074707,-0.9325183033943176
1779958751161719300,10.07871923828125,-1.5132007598876953,3.8193631172180176,-0.4981648921966553
1779958751178061300,10.095061279296875,-0.46849584579467773,2.1669511795043945,0.0375293493270874
1779958751194395100,10.11139501953125,-3.292632579803467,-3.395549774169922,0.41745084524154663
1779958751210743800,10.127743896484375,-5.074232578277588,-11.985047340393066,-0.50091552734375
1779958751227059000,10.144058837890626,-7.170891761779785,-14.568785667419434,-0.019843220710754395
1779958751243408400,10.160408447265626,-10.110069274902344,-4.835566520690918,-0.48267942667007446
1779958751259739000,10.17673876953125,-7.310087203979492,2.0509896278381348,-0.36753278970718384
1779958751276074200,10.19307421875,-3.093059778213501,0.2498617172241211,-2.0309081077575684
1779958751292407300,10.2094072265625,1.0273075103759766,-3.64727783203125,-2.1467769145965576
1779958751308732700,10.225732666015626,1.7639306783676147,-5.634235382080078,-2.4439854621887207
1779958751325076500,10.242076416015625,2.960726261138916,-5.702126502990723,-3.101486921310425
1779958751341416200,10.258416259765625,1.9122837781906128,3.0237059593200684,-2.1652004718780518
1779958751357736000,10.27473583984375,3.804792881011963,6.499923229217529,-2.8876841068267822
1779958751374073300,10.2910732421875,2.354145050048828,4.930556774139404,-2.609079122543335
1779958751390401500,10.307401611328125,1.9009227752685547,2.6337480545043945,-0.8831083178520203
1779958751406733000,10.323733154296875,2.780198812484741,0.3585662841796875,0.09612581133842468
1779958751423068200,10.340068115234375,3.394752025604248,-1.996713638305664,-0.21233075857162476
1779958751439400400,10.356400390625,4.10659122467041,-3.463191032409668,-0.5964120030403137
1779958751455750100,10.372750244140626,4.922375202178955,-3.674928665161133,-0.0530778169631958
1779958751472068000,10.389068115234375,-0.07510197162628174,-2.6267642974853516,1.7835958003997803
1779958751488396500,10.405396484375,-1.6779217720031738,-0.23591899871826172,1.8317339420318604
1779958751504733400,10.4217333984375,1.4987643957138062,0.7693758010864258,0.024263739585876465
1779958751521048600,10.438048583984376,2.645569324493408,1.5469913482666016,-0.6476771831512451
1779958751537382700,10.454382568359375,2.3228211402893066,2.183056354522705,-0.3937976360321045
1779958751553717000,10.470717041015625,1.3580812215805054,3.1928043365478516,-0.5097876787185669
1779958751570050300,10.48705029296875,0.639845073223114,2.3231735229492188,-0.5676567554473877
1779958751586369500,10.50336962890625,0.4269958436489105,1.8899917602539062,-0.5857610702514648
1779958751602715600,10.519715576171874,0.35335952043533325,1.866440773010254,-0.2833935022354126
1779958751619046700,10.536046630859374,0.1233704686164856,1.7475662231445312,0.23701882362365723
1779958751635388200,10.55238818359375,-0.9559208154678345,0.8202905654907227,0.836016058921814
1779958751651707000,10.568706787109376,-2.0695760250091553,-0.05994987487792969,1.1190006732940674
1779958751668045000,10.585045166015625,-2.532205104827881,0.0518035888671875,1.1042312383651733
1779958751684379000,10.60137890625,-1.8507428169250488,0.2969093322753906,1.3291425704956055
1779958751700711700,10.617711669921874,-0.6700004935264587,0.15222549438476562,2.021916389465332
1779958751717060900,10.634060791015624,-0.8744100332260132,-0.6189298629760742,2.9702000617980957
1779958751733392100,10.65039208984375,-1.6114697456359863,-1.243133544921875,3.4804811477661133
1779958751749705000,10.666705078125,-2.5019309520721436,-0.5271902084350586,2.6788384914398193
1779958751766042600,10.683042724609376,-2.2100577354431152,-0.7641048431396484,2.3438618183135986
1779958751782373000,10.699373046875,-2.0747084617614746,-1.9260215759277344,2.94292950630188
1779958751798706000,10.715705810546876,-0.8566118478775024,-2.123373031616211,4.067648410797119
1779958751815026700,10.732026611328125,-2.283133029937744,-1.8227424621582031,5.968121528625488
1779958751831363000,10.748363037109375,-2.7862775325775146,-1.7891817092895508,5.279775619506836
1779958751847695000,10.764695068359375,-2.2660133838653564,-2.5446205139160156,4.5070905685424805
1779958751864028200,10.781028076171875,-1.4536300897598267,-3.3205509185791016,3.8548665046691895
1779958751880361500,10.797361572265626,-0.5189530253410339,-3.1497716903686523,2.566744565963745
1779958751896711400,10.81371142578125,-1.0142408609390259,-2.881101608276367,0.5048403739929199
1779958751913025300,10.830025390625,-0.6528964638710022,-3.993070602416992,1.273820161819458
1779958751929370600,10.84637060546875,0.288873553276062,-2.017791748046875,0.9911658763885498
1779958751945704400,10.862704345703126,0.44669580459594727,-0.5286350250244141,0.001730203628540039
1779958751962037000,10.879037109375,-1.4850211143493652,-0.7241535186767578,-1.808019995689392
1779958751978368800,10.89536865234375,-3.737649917602539,-2.8064699172973633,-3.656639575958252
1779958751994719700,10.9117197265625,-0.584584653377533,-4.150731086730957,-4.007108688354492
1779958752011032800,10.92803271484375,3.4998397827148438,-3.274033546447754,-3.8641390800476074
1779958752027367000,10.944366943359375,3.2807412147521973,-1.9360017776489258,-3.896805763244629
1779958752043700700,10.96070068359375,-0.44278383255004883,-0.9898319244384766,-3.5352251529693604
1779958752060034300,10.977034423828124,-2.2416329383850098,-1.3879880905151367,-0.46832966804504395
1779958752076373800,10.993373779296874,-0.7354249954223633,-1.1724720001220703,2.580089569091797
1779958752092699100,11.00969921875,1.1622586250305176,0.08591747283935547,2.4274189472198486
1779958752109031400,11.026031494140625,1.5342484712600708,0.32457542419433594,1.6066577434539795
1779958752125364700,11.04236474609375,0.664886474609375,0.5564556121826172,0.7703572511672974
1779958752141685000,11.05868505859375,0.5256822109222412,1.026289939880371,0.26342862844467163
1779958752158029300,11.075029296875,1.2999622821807861,2.0887694358825684,-0.12787026166915894
1779958752174363000,11.09136279296875,1.5869920253753662,3.0172510147094727,-0.5787956118583679
1779958752190686700,11.107686767578125,1.64133882522583,4.117228031158447,-0.8487234711647034
1779958752207041500,11.12404150390625,1.8822047710418701,4.771813869476318,-0.9613662958145142
1779958752223380700,11.140380615234376,2.3115153312683105,4.922088623046875,-0.9641308784484863
1779958752239692300,11.1566923828125,2.817629814147949,4.930707931518555,-0.8876240253448486
1779958752256039400,11.173039306640625,3.0120115280151367,4.802183151245117,-0.5335890054702759
1779958752272375300,11.189375244140624,2.668264865875244,4.853344917297363,-0.1839492917060852
1779958752288700400,11.205700439453125,1.172156810760498,5.371166229248047,-0.44291841983795166
1779958752305041400,11.22204150390625,-0.19120311737060547,5.094071865081787,-0.7520107626914978
1779958752321353700,11.238353759765625,-0.8547329902648926,4.37998104095459,-0.44986093044281006
1779958752337707800,11.254707763671876,-1.588369607925415,1.5128355026245117,0.3295601010322571
1779958752354024400,11.2710244140625,-3.2067911624908447,-5.396344184875488,0.36389797925949097
1779958752370357200,11.287357177734375,-1.2613818645477295,-14.707446098327637,-1.362874150276184
1779958752386692900,11.30369287109375,-4.792949676513672,-12.568010330200195,-0.8325228691101074
1779958752403022000,11.32002197265625,-14.839468002319336,-2.7205562591552734,-0.049191832542419434
1779958752419375600,11.336375732421875,-9.39857292175293,3.090982437133789,1.6123371124267578
1779958752435688400,11.3526884765625,-1.1907014846801758,4.696239471435547,1.6094882488250732
1779958752452035800,11.369035888671876,1.3660351037979126,0.5497255325317383,0.6918901205062866
1779958752468366600,11.38536669921875,2.9447317123413086,-3.4384918212890625,0.04708975553512573
1779958752484694800,11.40169482421875,6.568914413452148,-8.951695442199707,-3.4662203788757324
1779958752501022000,11.41802197265625,3.9971210956573486,-7.545943260192871,-7.379740238189697
1779958752517353500,11.434353515625,-1.0853290557861328,1.84694242477417,-3.1144142150878906
1779958752533681000,11.450680908203125,0.2579383850097656,3.960012912750244,-0.6302427053451538
1779958752550017800,11.467017822265625,0.9053983688354492,4.926689147949219,0.40920090675354004
1779958752566350800,11.483350830078125,2.461458921432495,4.329905986785889,0.7058911323547363
1779958752582683100,11.49968310546875,4.684506416320801,2.8801217079162598,0.4229000210762024
1779958752599015000,11.516014892578125,4.749783039093018,0.04974555969238281,0.1459285020828247
1779958752615348700,11.5323486328125,3.717162609100342,-1.7304620742797852,-0.09133362770080566
1779958752631682300,11.548682373046875,3.519355297088623,-2.8553733825683594,-0.21380436420440674
1779958752648013300,11.565013427734375,0.7763029932975769,-3.128053665161133,-1.2768633365631104
1779958752664346600,11.5813466796875,-0.7053444385528564,-0.9975738525390625,-0.16779553890228271
1779958752680680200,11.59768017578125,2.4513871669769287,1.0916557312011719,-0.7216362953186035
1779958752697028600,11.614028564453125,3.2923099994659424,2.554722309112549,-1.7040828466415405
1779958752713358800,11.63035888671875,1.4781432151794434,3.1313605308532715,-1.0348049402236938
1779958752729691000,11.64669091796875,0.4386766254901886,1.78706693649292,-0.6878969669342041
1779958752746025000,11.66302490234375,-0.3042009472846985,1.2194786071777344,-0.4202641248703003
1779958752762339800,11.67933984375,0.01740950345993042,1.3638648986816406,-0.14660751819610596
1779958752778689000,11.69568896484375,-0.17237234115600586,1.0564403533935547,0.31405138969421387
1779958752795023600,11.712023681640625,-1.0707134008407593,0.6534271240234375,0.8893765211105347
1779958752811334100,11.728334228515624,-1.9666301012039185,-0.018047332763671875,1.198392629623413
1779958752827675600,11.744675537109375,-2.139411687850952,0.4424114227294922,1.542966604232788
1779958752844005000,11.761005126953124,-1.8953624963760376,0.23906326293945312,1.9239985942840576
1779958752860335400,11.77733544921875,-1.5452933311462402,-0.35066699981689453,2.6280763149261475
1779958752876661500,11.79366162109375,-1.3577014207839966,-0.45131683349609375,3.0131406784057617
1779958752892994600,11.80999462890625,-1.6445410251617432,0.3457927703857422,2.786123752593994
1779958752909327000,11.8263271484375,-2.2189173698425293,-0.7146186828613281,2.518021583557129
1779958752925659400,11.842659423828126,-2.0856146812438965,-2.2606630325317383,2.183745861053467
1779958752941992700,11.85899267578125,-1.204803466796875,-1.7609243392944336,3.425487995147705
1779958752958325200,11.8753251953125,-1.9017349481582642,-1.086836814880371,5.748821258544922
1779958752974658300,11.891658203125,-2.9517455101013184,-1.3129911422729492,5.713881015777588
1779958752990992000,11.907991943359375,-2.153792381286621,-2.2506332397460938,4.639890193939209
1779958753007323100,11.9243232421875,-1.1104612350463867,-3.160726547241211,3.88075852394104
1779958753023657500,11.940657470703124,0.045514702796936035,-3.0620594024658203,2.143876552581787
1779958753039989200,11.9569892578125,-0.9043459892272949,-4.857115745544434,1.3907840251922607
1779958753056322300,11.973322265625,0.2734546661376953,-4.897843360900879,0.7486710548400879
1779958753072654000,11.989654052734375,0.18294024467468262,-2.6278133392333984,0.6691348552703857
1779958753088987000,12.00598681640625,-0.3386937975883484,-0.8641395568847656,-0.33901047706604004
1779958753105320700,12.02232080078125,-2.4144704341888428,-0.7145614624023438,-2.6962366104125977
1779958753121655000,12.038655029296875,-3.3875372409820557,-3.0683517456054688,-4.484538555145264
1779958753137996500,12.05499658203125,-0.009297341108322144,-4.1190643310546875,-4.293584823608398
1779958753154334000,12.071333984375,3.7476844787597656,-3.071840286254883,-3.7021007537841797
1779958753170664700,12.087664794921874,3.505932331085205,-2.0545101165771484,-3.5089778900146484
1779958753186995200,12.1039951171875,0.3229944705963135,-1.302769660949707,-3.0555777549743652
1779958753203329800,12.120329833984375,-1.2668694257736206,-0.8757476806640625,-1.079673409461975
1779958753219662000,12.136662109375,-1.1961729526519775,-1.1221790313720703,2.4763875007629395
1779958753236006400,12.15300634765625,1.1268187761306763,-0.17857837677001953,2.0301871299743652
1779958753252345600,12.169345703125,1.3888347148895264,0.42406463623046875,0.6684420108795166
1779958753268673000,12.185673095703125,0.3544905185699463,0.860835075378418,0.08502966165542603
1779958753284986600,12.201986572265625,0.5961134433746338,1.5312724113464355,-0.16164779663085938
1779958753301342200,12.21834228515625,1.3868956565856934,2.2346410751342773,-0.19719338417053223
1779958753317671700,12.234671630859374,2.041459083557129,3.1920857429504395,-0.6811837553977966
1779958753334005000,12.2510048828125,2.0525295734405518,4.144465446472168,-0.9064653515815735
1779958753350336800,12.267336669921875,2.142962694168091,4.68904447555542,-0.828138530254364
1779958753366670800,12.2836708984375,2.1014134883880615,4.59045934677124,-0.4190627336502075
1779958753382999800,12.299999755859375,2.817234992980957,4.350032329559326,-0.21744292974472046
1779958753399338200,12.316338134765624,2.9802751541137695,4.715652942657471,0.12723171710968018
1779958753415668700,12.332668701171874,2.697502613067627,5.485175132751465,0.44498205184936523
1779958753432002000,12.349001953125,1.8057770729064941,6.0958356857299805,-0.16251778602600098
1779958753448315600,12.365315673828125,-0.12837433815002441,5.281747817993164,-0.4997366666793823
1779958753464670000,12.381669921875,-1.847456693649292,4.146999359130859,-0.48005211353302
1779958753480981500,12.3979814453125,-3.473381519317627,0.492156982421875,0.0822983980178833
1779958753497324000,12.414323974609376,-4.0679168701171875,-8.238370895385742,0.5963824391365051
1779958753513652000,12.43065185546875,-0.38241004943847656,-15.891139030456543,0.28744208812713623
1779958753529987000,12.446987060546874,-5.068930625915527,-10.790304183959961,-1.1372982263565063
1779958753546318600,12.463318603515624,-12.608542442321777,1.1419334411621094,-2.151423454284668
1779958753562647800,12.479647705078126,-7.847080230712891,3.955929756164551,-0.29530274868011475
1779958753578988800,12.49598876953125,-2.2496771812438965,3.3434653282165527,0.6987403631210327
1779958753595316700,12.512316650390625,0.4151012897491455,-1.3390388488769531,0.8519685864448547
1779958753611649500,12.5286494140625,3.8130300045013428,-5.303653717041016,0.40805500745773315
1779958753627984100,12.544984130859374,6.447207450866699,-10.143571853637695,-1.6943824291229248
1779958753644314400,12.561314453125,1.6592527627944946,-5.0081377029418945,-5.360547065734863
1779958753660648000,12.57764794921875,-0.7695596218109131,3.671809196472168,-3.397345542907715
1779958753676983000,12.593983154296875,1.742145299911499,4.60424280166626,-1.9991626739501953
1779958753693305900,12.610305908203125,1.740841269493103,4.654433727264404,-0.7664515376091003
1779958753709662700,12.626662841796875,2.620481252670288,4.0448899269104,0.08918285369873047
1779958753725991200,12.6429912109375,4.578605651855469,2.211057186126709,-0.05791759490966797
1779958753742325200,12.6593251953125,5.184037208557129,-0.18477821350097656,-0.209861159324646
1779958753758652700,12.675652587890625,4.928945541381836,-1.9897699356079102,-0.4914212226867676
1779958753774979000,12.69197900390625,3.4702696800231934,-3.47261905670166,-0.17515122890472412
1779958753791310300,12.708310302734375,0.519629955291748,-3.167257308959961,-0.21582794189453125
1779958753807641600,12.7246416015625,-0.1246335506439209,-0.7011709213256836,0.30492353439331055
1779958753823987200,12.7409873046875,1.7806687355041504,1.1456098556518555,-0.8524898290634155
1779958753840309200,12.757309326171875,2.4716625213623047,2.3102660179138184,-1.6655879020690918
1779958753856641500,12.7736416015625,2.2975142002105713,2.5074000358581543,-1.299674391746521
1779958753872975600,12.7899755859375,1.593269944190979,2.018472194671631,-0.5425626039505005
1779958753889310500,12.806310546875,0.43989163637161255,0.9981594085693359,-0.10358500480651855
1779958753905663000,12.8226630859375,-0.11342841386795044,1.3936262130737305,0.6602201461791992
1779958753921978400,12.838978271484375,0.34914931654930115,1.178243637084961,1.226198434829712
1779958753938316000,12.85531591796875,-0.33940839767456055,0.29418087005615234,1.9498487710952759
1779958753954653200,12.871653076171874,-1.5901196002960205,-0.6736335754394531,2.1939926147460938
1779958753970969600,12.887969482421875,-2.2016148567199707,-0.3267183303833008,1.5670723915100098
1779958753987304000,12.904303955078126,-2.214097261428833,0.2920083999633789,1.3919916152954102
1779958754003636200,12.92063623046875,-1.3673224449157715,0.5174942016601562,1.9349398612976074
1779958754019971000,12.93697119140625,-1.1657185554504395,0.10975074768066406,2.5765793323516846
1779958754036289300,12.953289306640626,-1.4822806119918823,-0.7011356353759766,3.0521042346954346
1779958754052619800,12.969619873046875,-2.0459585189819336,-0.39830875396728516,2.911302089691162
1779958754068973600,12.9859736328125,-2.330179214477539,-0.21736907958984375,2.407930374145508
1779958754085299700,13.0022998046875,-1.7365189790725708,-1.2319097518920898,2.293529987335205
1779958754101633500,13.018633544921874,-0.959073543548584,-1.5647163391113281,3.6185109615325928
1779958754117966600,13.034966552734375,-0.9381440281867981,-1.8706283569335938,5.61061954498291
1779958754134298400,13.05129833984375,-2.9032750129699707,-2.1569766998291016,6.029732704162598
1779958754150631700,13.067631591796875,-2.3500449657440186,-2.514317512512207,4.703524589538574
1779958754166963000,13.083962890625,-1.4400025606155396,-3.0304832458496094,3.9830398559570312
1779958754183314400,13.100314453125,-0.16480088233947754,-3.221585273742676,3.010014772415161
1779958754199642400,13.116642333984375,-0.8504422903060913,-3.88323974609375,1.8070348501205444
1779958754215959600,13.13295947265625,0.9214590787887573,-5.206455230712891,1.9493038654327393
1779958754232309800,13.149309814453124,0.859856367111206,-3.300265312194824,0.6454415321350098
1779958754248633900,13.1656337890625,0.6334563493728638,-0.8873004913330078,-0.5971841812133789
1779958754264979500,13.1819794921875,-0.6662118434906006,-0.2497396469116211,-1.8904025554656982
1779958754281306400,13.198306396484375,-2.1888513565063477,-1.7370586395263672,-3.77264404296875
1779958754297618200,13.2146181640625,-1.508676290512085,-3.5784425735473633,-4.690959453582764
1779958754313955300,13.230955322265626,2.229038715362549,-3.6830825805664062,-4.628626823425293
1779958754330293000,13.24729296875,3.843235492706299,-2.481241226196289,-4.3829731941223145
1779958754346624800,13.263624755859375,1.7430241107940674,-1.2997150421142578,-4.193909168243408
1779958754362956800,13.279956787109375,-1.427650809288025,-0.34027099609375,-2.525212287902832
1779958754379291000,13.296290771484376,-1.0617668628692627,-1.003230094909668,1.7369840145111084
1779958754395623400,13.31262353515625,0.8311735391616821,-0.03691673278808594,2.6481597423553467
1779958754411971000,13.32897119140625,2.138078212738037,0.8664760589599609,1.5971229076385498
1779958754428297500,13.34529736328125,0.6479165554046631,0.7326116561889648,0.9347673654556274
1779958754444638200,13.36163818359375,0.028967857360839844,0.4329051971435547,0.8252397775650024
1779958754460951000,13.377950927734375,1.055835247039795,1.1174907684326172,0.5754331946372986
1779958754477286700,13.39428662109375,1.6647803783416748,2.6056065559387207,0.21987608075141907
1779958754493619700,13.41061962890625,1.4596107006072998,3.7352333068847656,0.06518304347991943
1779958754509952800,13.426952880859375,1.8657958507537842,4.5832905769348145,-0.3269353210926056
1779958754526282500,13.443282470703124,2.796567440032959,4.957406997680664,-0.7197818756103516
1779958754542621700,13.45962158203125,3.150479555130005,4.657851219177246,-0.802466630935669
1779958754558966800,13.475966796875,3.4381628036499023,4.562557697296143,-0.8574432134628296
1779958754575280600,13.49228076171875,3.1580801010131836,4.98508358001709,-0.9583058953285217
1779958754591617300,13.5086171875,1.4071581363677979,5.525897979736328,-0.6188687086105347
1779958754607948300,13.5249482421875,0.6838462352752686,5.44744873046875,-0.659619152545929
1779958754624282000,13.5412822265625,-1.244896411895752,4.6738481521606445,0.034297287464141846
1779958754640617000,13.557616943359376,-2.7003729343414307,3.1684045791625977,0.8906449675559998
1779958754656946700,13.57394677734375,-4.357678413391113,-1.6712970733642578,1.4600389003753662
1779958754673297200,13.590297119140626,-3.2943966388702393,-11.613838195800781,1.0174999237060547
1779958754689626000,13.606626220703125,-2.028512954711914,-16.769378662109375,-0.32703447341918945
1779958754705943800,13.62294384765625,-5.9596781730651855,-6.999824523925781,-0.8360445499420166
1779958754722272000,13.63927197265625,-12.80459213256836,0.6110086441040039,0.0225827693939209
1779958754738624000,13.6556240234375,-5.708343505859375,1.390700340270996,2.230699062347412
1779958754754961000,13.6719609375,2.6366875171661377,-1.046565055847168,3.5269083976745605
1779958754771290600,13.68829052734375,5.010337829589844,-5.00568962097168,1.6716055870056152
1779958754787624400,13.70462451171875,9.116040229797363,-7.10366153717041,-3.322185754776001
1779958754803938800,13.720938720703124,-0.53944993019104,-2.610325813293457,-9.419792175292969
1779958754820276500,13.7372763671875,-2.988264560699463,4.886348247528076,-4.56639289855957
1779958754836608500,13.7536083984375,1.517284870147705,5.939143657684326,-2.068972110748291
1779958754852939800,13.769939697265626,0.840340256690979,4.955865383148193,-0.6409683227539062
1779958754869273300,13.7862734375,1.1141948699951172,3.39176082611084,-0.12698429822921753
1779958754885608400,13.8026083984375,4.120321273803711,1.24798583984375,-0.41990333795547485
1779958754901940200,13.818940185546875,5.753935813903809,-1.7195444107055664,-0.7868990302085876
1779958754918279700,13.83527978515625,5.2780256271362305,-3.1565752029418945,-0.6556501388549805
1779958754934625000,13.851625,5.866780757904053,-4.725008964538574,0.34492194652557373
1779958754950934000,13.86793408203125,-4.40580415725708,-2.0345449447631836,0.5736707448959351
1779958754967270400,13.8842705078125,-1.8578649759292603,0.8418369293212891,0.9838975667953491
1779958754983603500,13.900603515625,4.313944339752197,2.0543150901794434,-0.04590499401092529
1779958754999935500,13.916935546875,5.150630474090576,2.6540236473083496,-0.40002691745758057
1779958755016269600,13.93326953125,3.0059654712677,2.714292049407959,-0.3302880525588989
1779958755032602400,13.949602294921876,-0.7603265047073364,1.5716657638549805,-0.39944660663604736
1779958755048951300,13.965951416015624,-0.6956011056900024,1.1867046356201172,-0.7487877607345581
1779958755065264600,13.9822646484375,0.5597173571586609,1.599313735961914,-0.8376971483230591
1779958755081596700,13.9985966796875,-0.239671528339386,1.3769359588623047,-0.2026768922805786
1779958755097926100,14.014926025390626,-1.08815598487854,0.30645275115966797,0.30513548851013184
1779958755114265600,14.031265625,-1.5605180263519287,-0.1808147430419922,0.8329271078109741
1779958755130599200,14.04759912109375,-2.572653293609619,0.3376274108886719,1.4156432151794434
1779958755146930700,14.0639306640625,-1.9344189167022705,0.09022331237792969,1.8849005699157715
1779958755163265000,14.08026513671875,-0.9040311574935913,-0.1858367919921875,2.523601770401001
1779958755179597000,14.09659716796875,-0.4875915050506592,-0.5421991348266602,2.8366832733154297
1779958755195946000,14.112946044921875,-1.1623718738555908,0.11905765533447266,2.516829252243042
1779958755212262100,14.12926220703125,-2.234471321105957,-0.5639276504516602,2.500784397125244
1779958755228594400,14.145594482421876,-1.4820576906204224,-1.6515588760375977,2.3367180824279785
1779958755244924000,14.161923828125,-0.5392054915428162,-1.4385347366333008,3.469963550567627
1779958755261264400,14.178264404296876,-1.5875754356384277,-1.2707548141479492,5.084778308868408
1779958755277579800,14.194579833984376,-2.7295663356781006,-1.7707109451293945,4.86497688293457
1779958755293913900,14.210913818359375,-2.0712337493896484,-2.271982192993164,4.313730716705322
1779958755310246700,14.22724658203125,-1.2697622776031494,-2.775716781616211,4.11858606338501
1779958755326579700,14.243579833984375,-0.24076879024505615,-2.3676767349243164,2.9101150035858154
1779958755342912300,14.259912353515626,-1.4045629501342773,-2.9193477630615234,1.3955416679382324
1779958755359245300,14.276245361328124,-1.283023715019226,-3.487795829772949,1.554144263267517
1779958755375594000,14.292593994140624,0.2411712408065796,-1.916463851928711,0.769951343536377
1779958755391922400,14.30892236328125,0.27839869260787964,-0.9593296051025391,-0.43332767486572266
1779958755408253400,14.32525341796875,-1.9430091381072998,-1.778228759765625,-2.887956380844116
1779958755424590300,14.34159033203125,-2.884500741958618,-4.286776542663574,-4.590647220611572
1779958755440921000,14.357921142578125,0.9400542974472046,-4.793074607849121,-4.577821254730225
1779958755457256700,14.374256591796875,3.8572421073913574,-3.7075204849243164,-4.162005424499512
1779958755473587200,14.390587158203125,3.39235258102417,-3.0409154891967773,-4.282313823699951
1779958755489919200,14.406919189453125,-1.155373215675354,-2.1015825271606445,-3.858224868774414
1779958755506253300,14.42325341796875,-2.7419686317443848,-1.3474302291870117,-0.6192712783813477
1779958755522588000,14.439587890625,-0.8613083362579346,0.2918825149536133,2.661210298538208
1779958755538932200,14.45593212890625,2.1356542110443115,1.0806617736816406,1.8472447395324707
1779958755555252000,14.472251953125,1.593001365661621,1.0490427017211914,1.1378744840621948
1779958755571581200,14.488581298828125,0.493818998336792,1.4131731986999512,0.6152257919311523
1779958755587915500,14.50491552734375,0.9123764038085938,2.357865333557129,0.15944921970367432
1779958755604249600,14.52124951171875,1.6738693714141846,3.091975688934326,-0.19792264699935913
1779958755620583000,14.5375830078125,2.0483434200286865,3.68045711517334,-0.5929045677185059
1779958755636914000,14.553913818359375,1.8427107334136963,4.5396318435668945,-0.9284226894378662
1779958755653250800,14.570250732421876,1.8376226425170898,4.986750602722168,-1.0157129764556885
1779958755669580000,14.586580078125,2.3753910064697266,4.858234405517578,-0.8728020787239075
1779958755685926400,14.602926513671875,3.3295748233795166,4.707411766052246,-0.6125047206878662
1779958755702245000,14.6192451171875,3.1772689819335938,4.949958801269531,-0.22591924667358398
1779958755718576000,14.635576171875,2.3456664085388184,5.461903095245361,-0.022138476371765137
1779958755734909200,14.6519091796875,1.0865390300750732,5.1809234619140625,-0.28890323638916016
1779958755751244800,14.668244873046875,-0.7297437191009521,4.538369178771973,-0.43140238523483276
1779958755767576600,14.68457666015625,-3.008023977279663,2.8658857345581055,-0.29281628131866455
1779958755783911000,14.700910888671874,-4.828635215759277,-2.5023975372314453,0.26143139600753784
1779958755800242200,14.7172421875,-2.4747209548950195,-10.88003158569336,0.8997130393981934
1779958755816575700,14.73357568359375,-0.804450511932373,-13.871617317199707,0.8523952960968018
1779958755832903700,14.749903564453126,-8.194795608520508,-5.21473503112793,-0.6976220011711121
1779958755849240800,14.76624072265625,-10.477901458740234,1.1111421585083008,-1.4643292427062988
1779958755865574400,14.782574462890626,-7.297852516174316,-0.15825653076171875,-1.123805284500122
1779958755881909500,14.798909423828125,-2.3549299240112305,-5.114363670349121,-1.671003818511963
1779958755898235000,14.81523486328125,4.2195634841918945,-10.068020820617676,-0.9364006519317627
1779958755914587100,14.831587158203124,8.367630004882812,-6.960016250610352,-1.1518051624298096
1779958755930887400,14.847887451171875,0.1200249195098877,1.4161162376403809,-4.028520107269287
1779958755947234800,14.86423486328125,1.3764305114746094,8.104729652404785,-3.213907480239868
1779958755963571000,14.880571044921876,3.1701772212982178,7.9083251953125,-3.1101810932159424
1779958755979905300,14.8969052734375,2.272993564605713,5.397475242614746,-2.5233957767486572
1779958755996233000,14.91323291015625,3.183779239654541,3.0907139778137207,-0.7143113613128662
1779958756012572700,14.92957275390625,4.182624816894531,0.0962991714477539,-0.31892693042755127
1779958756028913700,14.94591357421875,4.841527938842773,-2.89235782623291,-0.4970775246620178
1779958756045268500,14.9622685546875,5.2889723777771,-4.877610206604004,-0.873625636100769
1779958756061568500,14.978568603515624,2.7684097290039062,-5.705410957336426,-0.3458181619644165
1779958756077896000,14.99489599609375,-3.2394461631774902,-2.904499053955078,0.37231576442718506
1779958756094235000,15.01123486328125,1.1208972930908203,-0.20991039276123047,-0.15629911422729492
1779958756110569200,15.0275693359375,2.617844343185425,1.027216911315918,-1.1405590772628784
1779958756126898000,15.04389794921875,2.8670918941497803,2.0639452934265137,-1.1713377237319946
1779958756143231000,15.06023095703125,2.4268405437469482,2.7038774490356445,-0.8963707685470581
1779958756159580700,15.07658056640625,2.2148818969726562,2.28961181640625,-0.40618109703063965
1779958756175909400,15.092909423828125,0.9569958448410034,1.238194465637207,-0.03815126419067383
1779958756192227000,15.10922705078125,0.5076388120651245,0.7794370651245117,0.42125576734542847
1779958756208598500,15.1255986328125,0.5380843877792358,1.2072601318359375,0.9324071407318115
1779958756224888600,15.141888671875,0.16424445807933807,1.5383195877075195,1.598432183265686
1779958756241224200,15.15822412109375,-0.5109930634498596,0.9756841659545898,1.777722954750061
1779958756257564700,15.174564697265625,-1.516028881072998,0.31046390533447266,1.3714816570281982
1779958756273893000,15.19089306640625,-2.341567277908325,0.32950496673583984,0.8843746781349182
1779958756290227200,15.207227294921875,-1.8291270732879639,0.44034862518310547,1.3794630765914917
1779958756306559700,15.223559814453125,-1.3852628469467163,0.16539382934570312,2.2705061435699463
1779958756322891300,15.239891357421875,-0.9372557997703552,-0.5601730346679688,3.229961395263672
1779958756339224300,15.256224365234376,-1.3507702350616455,-0.3521451950073242,4.022927761077881
1779958756355558000,15.272557861328124,-1.6936858892440796,-0.35384464263916016,3.6238174438476562
1779958756371876400,15.28887646484375,-1.560361623764038,-1.4064979553222656,2.573294162750244
1779958756388214800,15.30521484375,-1.6853512525558472,-1.6134929656982422,2.7373359203338623
1779958756404543000,15.32154296875,-1.1871984004974365,-1.7768115997314453,4.061794281005859
1779958756420876500,15.33787646484375,-2.9583606719970703,-1.6424579620361328,4.529389381408691
1779958756437210000,15.354210205078125,-2.303035020828247,-1.679142951965332,4.088366508483887
1779958756453544700,15.370544677734374,-1.9146161079406738,-2.2066650390625,4.30656623840332
1779958756469873400,15.386873291015625,-1.9436837434768677,-2.5088300704956055,3.821492910385132
1779958756486207500,15.40320751953125,-0.41437119245529175,-2.540599822998047,2.825035572052002
1779958756502540000,15.4195400390625,-1.388685941696167,-3.0338621139526367,1.918813705444336
1779958756518874000,15.4358740234375,-0.41801121830940247,-3.568967819213867,2.2993319034576416
1779958756535197400,15.452197509765625,0.19175350666046143,-1.969386100769043,2.1117725372314453
1779958756551539000,15.4685390625,0.8302474021911621,0.07633113861083984,0.709108829498291
1779958756567871700,15.484871826171876,-1.038443684577942,0.2968311309814453,-1.3345956802368164
1779958756584204000,15.5012041015625,-2.8399641513824463,-2.76479434967041,-3.668123722076416
1779958756600553700,15.5175537109375,0.15626686811447144,-5.005697250366211,-4.579297065734863
1779958756616884000,15.533884033203124,5.025447845458984,-4.3443403244018555,-3.7650561332702637
1779958756633214700,15.550214599609374,3.9318206310272217,-3.0860280990600586,-3.014801025390625
1779958756649537500,15.56653759765625,0.45160889625549316,-1.7846670150756836,-2.6899325847625732
1779958756665880000,15.582880126953125,-2.5521554946899414,-1.3320846557617188,-0.5562847852706909
1779958756682214000,15.5992138671875,-0.9217879772186279,-1.1154756546020508,2.3719420433044434
1779958756698544600,15.615544677734375,1.2362630367279053,0.3775348663330078,2.868908405303955
1779958756714898200,15.631898193359374,1.2983362674713135,0.6866626739501953,2.3515830039978027
1779958756731211800,15.648211669921874,0.41454458236694336,0.7021818161010742,1.5235096216201782
1779958756747542800,15.664542724609374,0.4587883949279785,1.161135196685791,0.6910272836685181
1779958756763890700,15.680890625,1.2832825183868408,1.6133050918579102,0.0818433165550232
1779958756780223500,15.697223388671874,1.9164564609527588,2.250258445739746,-0.2512950897216797
1779958756796556800,15.713556884765625,2.6769914627075195,3.107100009918213,-0.48052555322647095
1779958756812873000,15.729873046875,3.310603380203247,3.8296122550964355,-0.3427697420120239
1779958756829208000,15.7462080078125,3.4791932106018066,3.946263313293457,-0.37995046377182007
1779958756845542100,15.762542236328125,4.083447456359863,3.8967418670654297,-0.6242109537124634
1779958756861875000,15.778875,3.8252570629119873,4.044888973236084,-0.7243828773498535
1779958756878203600,15.79520361328125,3.0556812286376953,4.29880952835083,-0.607888400554657
1779958756894542600,15.81154248046875,1.793184757232666,4.444644927978516,-0.6149343252182007
1779958756910873900,15.827873779296874,0.7203059196472168,4.378805637359619,-0.8519026041030884
1779958756927204900,15.844204833984374,-0.7156283855438232,3.3894076347351074,-0.8024622201919556
1779958756943538400,15.860538330078125,-0.37375307083129883,0.49488258361816406,-0.31919074058532715
1779958756959872800,15.876872802734376,-2.277204990386963,-5.449563980102539,-0.5768145322799683
1779958756976204500,15.89320458984375,-1.8656063079833984,-12.008352279663086,-1.9597234725952148
1779958756992536800,15.909536865234376,-3.8100831508636475,-10.86176586151123,-0.7880936861038208
1779958757008887800,15.9258876953125,-10.64565372467041,-4.491894721984863,-0.6022183895111084
1779958757025216300,15.94221630859375,-8.67796516418457,2.3261446952819824,0.3548696041107178
1779958757041532200,15.9585322265625,-2.7384347915649414,4.580615520477295,3.1576907634735107
1779958757057869800,15.974869873046876,2.2105236053466797,2.1986331939697266,4.263619899749756
1779958757074200600,15.99120068359375,2.7486355304718018,-1.423440933227539,2.4327054023742676
1779958757090534400,16.007534423828126,4.868854522705078,-4.854897499084473,0.7847124338150024
1779958757106865200,16.023865234375,4.505927085876465,-8.992667198181152,-3.1320579051971436
1779958757123182000,16.04018212890625,3.2653093338012695,-3.041942596435547,-4.201442718505859
1779958757139548700,16.056548583984377,-0.5489621162414551,1.4721894264221191,-2.487257480621338
1779958757155884800,16.072884765625,0.6254501342773438,2.148876190185547,-0.5806238651275635
1779958757172195000,16.089195068359373,2.1348257064819336,2.8789920806884766,-0.06990814208984375
1779958757188539000,16.105538818359374,4.587460994720459,2.506439685821533,-0.14986944198608398
1779958757204885000,16.121885009765624,5.802142143249512,0.818577766418457,0.33727920055389404
1779958757221208600,16.13820849609375,4.993897438049316,-0.6706628799438477,1.4403116703033447
1779958757237511400,16.154511474609375,3.758631467819214,-1.7244977951049805,0.979404628276825
1779958757253848600,16.1708486328125,0.015029191970825195,-1.6704654693603516,-1.0666942596435547
1779958757270197800,16.18719775390625,-2.46610426902771,-1.275212287902832,-0.7347924709320068
1779958757286527000,16.20352685546875,1.9132466316223145,0.37259769439697266,-0.280454158782959
1779958757302864600,16.21986474609375,2.675295114517212,1.545069694519043,0.3609600067138672
1779958757319191800,16.23619189453125,1.1201040744781494,1.9312443733215332,0.22836053371429443
1779958757335525400,16.252525390625,0.35673946142196655,1.5803451538085938,0.8407869338989258
1779958757351862800,16.26886279296875,0.4636136591434479,0.9987401962280273,1.5145442485809326
1779958757368191200,16.285191162109374,-0.10370081663131714,1.314901351928711,1.7313075065612793
1779958757384522500,16.3015224609375,-0.6634889841079712,1.008535385131836,1.5823630094528198
1779958757400860700,16.317860595703124,-0.8259899616241455,0.8099498748779297,1.2458324432373047
1779958757417176600,16.334176513671874,-0.9770961403846741,0.3543357849121094,0.8272528648376465
1779958757433522000,16.35052197265625,-0.8662518858909607,0.2940177917480469,0.8199734687805176
1779958757449858300,16.3668583984375,-0.7673314213752747,0.6329669952392578,1.288814902305603
1779958757466188500,16.3831884765625,-1.2782413959503174,0.8615951538085938,1.884635090827942
1779958757482507500,16.399507568359375,-1.5839036703109741,0.7035951614379883,2.3720664978027344
1779958757498871300,16.415871337890625,-1.1711301803588867,0.23499202728271484,2.3799808025360107
1779958757515199700,16.43219970703125,-0.28104811906814575,0.01865863800048828,2.434837818145752
1779958757531516400,16.448516357421877,-0.1871093511581421,-0.631403923034668,2.5005197525024414
1779958757547851500,16.4648515625,-0.5788379907608032,-2.116816520690918,1.9609019756317139
1779958757564174600,16.481174560546876,-0.36431342363357544,-3.0389795303344727,1.959814429283142
1779958757580517400,16.497517333984376,0.17482972145080566,-3.245532989501953,3.048741579055786
1779958757596850000,16.513849853515627,-0.36539626121520996,-4.141033172607422,4.101781845092773
1779958757613183000,16.530182861328125,-1.206254243850708,-5.1786298751831055,4.994137287139893
1779958757629526500,16.546526611328126,-0.7608041763305664,-5.395058631896973,4.3907790184021
1779958757645863200,16.56286328125,-1.3730781078338623,-5.102517127990723,2.5057296752929688
1779958757662179000,16.579178955078124,-0.565330982208252,-2.7685890197753906,1.164162516593933
1779958757678522400,16.5955224609375,-0.37778398394584656,0.0038576126098632812,1.3689459562301636
1779958757694847700,16.61184765625,-1.068557858467102,2.021554470062256,0.4194371700286865
1779958757711180300,16.62818017578125,-0.8122152090072632,1.7301025390625,-0.5382931232452393
1779958757727520800,16.644520751953124,-0.7842481732368469,-0.4144430160522461,-1.1803793907165527
1779958757743858700,16.660858642578123,-0.7635009288787842,-2.884963035583496,-1.434058666229248
1779958757760178700,16.6771787109375,0.006996631622314453,-3.4264373779296875,-0.6250957250595093
1779958757776511000,16.693510986328125,2.7333502769470215,-2.66131591796875,0.350691556930542
1779958757792860700,16.709860595703127,3.84415864944458,-1.8860082626342773,0.0607682466506958
1779958757809182700,16.7261826171875,2.7289392948150635,-1.5427360534667969,-1.0405532121658325
1779958757825512400,16.742512451171876,0.6160479784011841,-1.5478715896606445,-1.7511353492736816
1779958757841842400,16.758842529296874,-0.4818613529205322,-1.9094715118408203,-1.4071630239486694
1779958757858174000,16.775174072265624,0.18120408058166504,-1.3120241165161133,-1.078803300857544
1779958757874507000,16.791507080078127,1.1194782257080078,-0.11390209197998047,-0.5430057048797607
1779958757890840800,16.8078408203125,1.4663124084472656,0.29308128356933594,0.022234439849853516
1779958757907172000,16.824172119140623,1.2348148822784424,1.3102898597717285,0.3406994342803955
1779958757923505700,16.840505615234374,1.3967463970184326,2.0223679542541504,0.3066725730895996
1779958757939839200,16.856839111328124,1.7840344905853271,2.195469379425049,-0.2947220802307129
1779958757956171800,16.873171875,2.0087485313415527,3.2507824897766113,-0.6669688820838928
1779958757972500200,16.889500244140624,2.3343734741210938,4.216129779815674,-0.46837401390075684
1779958757988849700,16.905849609375,3.170876979827881,4.285085201263428,-0.11134415864944458
1779958758005187600,16.9221875,3.4756832122802734,4.009768009185791,0.3629874587059021
1779958758021515300,16.938515380859375,2.9154396057128906,3.9000558853149414,0.37422245740890503
1779958758037834200,16.954834228515626,1.8107047080993652,4.080040454864502,0.303733766078949
1779958758054168000,16.97116796875,0.910233736038208,4.465840816497803,0.09870368242263794
1779958758070501600,16.987501708984375,0.4748075008392334,4.579365253448486,-0.2939784526824951
1779958758086832000,17.00383203125,-0.6140365600585938,3.8002843856811523,0.12643754482269287
1779958758103166700,17.020166748046876,-1.2241911888122559,2.210495948791504,0.679774820804596
1779958758119531800,17.03653173828125,-3.040693521499634,-1.124368667602539,0.7852640748023987
1779958758135853000,17.05285302734375,-3.879432201385498,-6.397758483886719,0.9353920221328735
1779958758152179500,17.069179443359374,-4.670828819274902,-9.968269348144531,0.40978217124938965
1779958758168505300,17.08550537109375,-7.558213233947754,-5.886140823364258,1.011527180671692
1779958758184849200,17.10184912109375,-6.3893561363220215,-0.4472646713256836,1.5810798406600952
1779958758201175600,17.118175537109376,-3.845804452896118,2.9161605834960938,3.116692543029785
1779958758217507600,17.134507568359375,-0.5810146331787109,3.1754794120788574,2.5148468017578125
1779958758233844000,17.150843994140626,0.6985659599304199,0.12941646575927734,2.0939321517944336
1779958758250174000,17.167174072265624,2.8199610710144043,-3.5221900939941406,0.5815889239311218
1779958758266508000,17.183508056640626,6.010745048522949,-9.427626609802246,-3.070408582687378
1779958758282839000,17.199839111328124,3.3401808738708496,-10.981351852416992,-7.999675750732422
1779958758299176400,17.216176513671876,-2.2765369415283203,0.3702526092529297,-6.629081726074219
1779958758315489300,17.2324892578125,-1.2398712635040283,3.285426616668701,-2.578674554824829
1779958758331825400,17.248825439453125,2.610866069793701,4.793925762176514,-1.6344393491744995
1779958758348157400,17.265157470703127,4.948566436767578,4.292301177978516,-0.8876444101333618
1779958758364490800,17.28149072265625,6.771706581115723,2.776792526245117,-0.6424777507781982
1779958758380824600,17.297824462890624,6.915910720825195,0.7133255004882812,0.1327834129333496
1779958758397155000,17.314155029296874,5.157917022705078,-1.680781364440918,1.252002239227295
1779958758413473800,17.330473876953125,4.807042121887207,-5.023131370544434,2.1846323013305664
1779958758429822700,17.34682275390625,-1.910749912261963,-4.031183242797852,0.8736171722412109
1779958758446155300,17.3631552734375,-2.7613205909729004,-1.4099674224853516,0.7696610689163208
1779958758462475000,17.37947509765625,2.1913580894470215,1.2782726287841797,-0.14631319046020508
1779958758478835700,17.395835693359373,2.687481641769409,3.3405113220214844,-1.3680434226989746
1779958758495178800,17.4121787109375,2.713286876678467,3.649552345275879,-1.3214733600616455
1779958758511483600,17.428483642578126,1.8044917583465576,2.866049289703369,-0.8513346910476685
1779958758527817700,17.444817626953125,0.48359382152557373,2.3633155822753906,-0.1799330711364746
1779958758544151300,17.4611513671875,0.30794757604599,1.317570686340332,-0.1632981300354004
1779958758560484900,17.47748486328125,0.14317640662193298,0.8547334671020508,-0.08433377742767334
1779958758576804000,17.49380419921875,-0.6109527349472046,0.3023252487182617,-0.07176291942596436
1779958758593151000,17.51015087890625,-1.891905665397644,0.06211090087890625,0.329753041267395
1779958758609482800,17.526482666015625,-1.786693811416626,0.43874359130859375,0.8340616226196289
1779958758625832700,17.542832763671875,-1.6072015762329102,0.6938657760620117,1.5438756942749023
1779958758642180400,17.559180419921876,-1.497178554534912,0.3148918151855469,1.992133378982544
1779958758658489600,17.575489501953125,-0.6966615915298462,-0.12470149993896484,2.5855460166931152
1779958758674814700,17.591814697265626,-0.9255624413490295,-0.7160196304321289,3.103952169418335
1779958758691147000,17.60814697265625,-1.4752289056777954,-0.7573823928833008,2.83294939994812
1779958758707478500,17.624478515625,-2.075181007385254,-1.2159061431884766,2.0167670249938965
1779958758723812000,17.64081201171875,-1.361517310142517,-2.2285614013671875,1.706715703010559
1779958758740133000,17.657133056640625,-0.9328988194465637,-2.095919609069824,3.73209547996521
1779958758756478000,17.67347802734375,-1.5824131965637207,-1.8225288391113281,6.020504951477051
1779958758772827600,17.68982763671875,-2.5786430835723877,-2.0921316146850586,5.43339729309082
1779958758789125000,17.706125,-1.9159319400787354,-3.130568504333496,4.010023593902588
1779958758805464300,17.72246435546875,-0.914152979850769,-3.190211296081543,3.387868642807007
1779958758821798400,17.73879833984375,-0.4183696508407593,-3.5116357803344727,2.365896701812744
1779958758838127900,17.7551279296875,0.12859797477722168,-5.342617034912109,1.6606029272079468
1779958758854464800,17.77146484375,0.6794741153717041,-4.779838562011719,1.2922837734222412
1779958758870807600,17.7878076171875,0.7494732141494751,-1.964834213256836,0.6194931268692017
1779958758887139300,17.804139404296876,0.3413439989089966,-0.22509384155273438,-0.6438384056091309
1779958758903472600,17.82047265625,-2.0072171688079834,-0.19819068908691406,-2.828394889831543
1779958758919806500,17.836806396484373,-2.549532175064087,-1.8601112365722656,-4.2841644287109375
1779958758936139300,17.85313916015625,1.4188634157180786,-2.889995574951172,-4.3090314865112305
1779958758952458500,17.86945849609375,4.091609954833984,-2.3256912231445312,-3.8480048179626465
1779958758968820200,17.8858203125,2.633197784423828,-1.1866159439086914,-3.388798236846924
1779958758985147400,17.9021474609375,-0.2556188106536865,-0.6910457611083984,-2.2404532432556152
1779958759001486300,17.918486328125,-0.3848092555999756,-1.3320379257202148,0.7250418066978455
1779958759017798000,17.9347978515625,-0.0745232105255127,-1.4490842819213867,2.3631057739257812
1779958759034122800,17.951122802734375,1.2577152252197266,-0.34673595428466797,0.9827646613121033
1779958759050468900,17.96746875,0.4348289966583252,-0.19540119171142578,0.6667882204055786
1779958759066802200,17.98380224609375,0.6136877536773682,-0.6236305236816406,0.21705341339111328
1779958759083134200,18.00013427734375,1.1324536800384521,0.10416603088378906,0.21492165327072144
1779958759099467000,18.016467041015623,1.7603636980056763,1.063730239868164,-0.032230377197265625
1779958759115817000,18.03281689453125,1.9540870189666748,2.6796746253967285,-0.3456447720527649
1779958759132123100,18.049123046875,2.116285800933838,4.143560409545898,-0.8622917532920837
1779958759148473300,18.065473388671876,2.659281015396118,5.107155799865723,-1.156152367591858
1779958759164798200,18.081798095703125,3.3956987857818604,5.054136753082275,-1.2521792650222778
1779958759181131300,18.09813134765625,3.3595199584960938,4.7340216636657715,-0.9831680655479431
1779958759197456600,18.11445654296875,3.447995185852051,4.647830963134766,-0.8800922632217407
1779958759213801000,18.130801025390625,2.378800868988037,5.435982704162598,-0.6453539133071899
1779958759230129400,18.14712939453125,1.3908970355987549,5.994877815246582,-0.8135384917259216
1779958759246461700,18.163461669921876,0.5803670883178711,5.13566780090332,-1.0858433246612549
1779958759262797600,18.179797607421875,-0.32616448402404785,3.9438953399658203,-0.3138779401779175
1779958759279139800,18.196139892578124,-1.4845736026763916,1.2855653762817383,-0.1625807285308838
1779958759295473400,18.212473388671874,-5.048970699310303,-5.266986846923828,-0.6940966844558716
1779958759311808000,18.22880810546875,-2.9245431423187256,-14.075678825378418,-1.9232442378997803
1779958759328120800,18.245120849609375,-2.0597176551818848,-10.540539741516113,-1.5734033584594727
1779958759344458200,18.261458251953126,-9.826446533203125,-2.8292808532714844,0.18286848068237305
1779958759360789800,18.277789794921876,-8.988714218139648,2.306260585784912,1.6136393547058105
1779958759377122600,18.29412255859375,-2.1352782249450684,2.0462241172790527,3.7387804985046387
1779958759393453300,18.310453369140625,1.8214131593704224,-1.2551555633544922,2.108436346054077
1779958759409785600,18.32678564453125,2.9052505493164062,-5.79987907409668,1.2714197635650635
1779958759426122500,18.34312255859375,9.380249977111816,-10.291935920715332,-3.536844253540039
1779958759442442000,18.35944189453125,1.0468659400939941,-4.424811363220215,-9.141033172607422
1779958759458803700,18.3758037109375,-2.4869399070739746,4.034218788146973,-5.068169593811035
1779958759475134200,18.39213427734375,0.580251932144165,6.056179046630859,-2.8284387588500977
1779958759491450600,18.40845068359375,1.1436129808425903,5.620126724243164,-0.6929557919502258
1779958759507782100,18.4247822265625,3.1620330810546875,4.196366786956787,0.020566046237945557
1779958759524118500,18.441118408203124,6.218889236450195,1.342116355895996,-0.4228782057762146
1779958759540452400,18.457452392578126,5.898195743560791,-1.1969776153564453,-0.7094612717628479
1779958759556783400,18.473783447265625,5.284543037414551,-3.8433408737182617,-1.069879174232483
1779958759573117400,18.490117431640623,3.475649118423462,-5.869678497314453,-2.1586050987243652
1779958759589450000,18.506449951171874,-4.6005353927612305,-2.4083194732666016,-0.6672406196594238
1779958759605786600,18.52278662109375,1.5496795177459717,0.16568470001220703,-0.11941897869110107
1779958759622121000,18.539120849609375,3.8061041831970215,1.5299758911132812,-1.192932367324829
1779958759638456000,18.5554560546875,2.947601079940796,2.514313220977783,-1.58283531665802
1779958759654779100,18.571779052734374,2.3222012519836426,2.46488094329834,-1.1715527772903442
1779958759671114000,18.588114013671873,-0.04882234334945679,1.8971385955810547,-0.5997227430343628
1779958759687445500,18.604445556640623,-0.4726281464099884,1.4384660720825195,-0.058000802993774414
1779958759703780400,18.6207802734375,0.6926736831665039,2.140059471130371,0.6091824769973755
1779958759720120600,18.63712060546875,0.5646779537200928,1.6263809204101562,0.8101818561553955
1779958759736445400,18.653445556640627,-0.6743274927139282,1.238865852355957,0.5533491373062134
1779958759752795100,18.669795166015625,-1.2428697347640991,0.7121429443359375,-0.015685439109802246
1779958759769108200,18.686108154296875,-1.6916794776916504,1.2103424072265625,0.4377843141555786
1779958759785457700,18.702457763671877,-1.1401593685150146,1.282149314880371,1.3573846817016602
1779958759801805300,18.718805419921875,-0.9479477405548096,0.5508899688720703,2.358154773712158
1779958759818120000,18.735119873046877,-0.46727150678634644,-0.013070106506347656,2.6284799575805664
1779958759834442500,18.7514423828125,-0.5982890129089355,0.29442310333251953,1.9534804821014404
1779958759850776300,18.7677763671875,-1.42215895652771,-0.5149984359741211,1.1502903699874878
1779958759867104800,18.784104736328125,-1.297179937362671,-1.9832525253295898,0.8008254766464233
1779958759883440000,18.800440185546876,-0.9613314867019653,-2.0971879959106445,2.8882946968078613
1779958759899770600,18.8167705078125,-1.8386369943618774,-2.242399215698242,4.842615127563477
1779958759916093200,18.83309326171875,-2.140162467956543,-2.5845727920532227,4.532052993774414
1779958759932425500,18.849425537109376,-2.185407876968384,-3.1206235885620117,4.082574844360352
1779958759948758500,18.865758544921874,-0.9914343357086182,-3.1277971267700195,3.534031391143799
1779958759965092400,18.88209228515625,-0.4949941039085388,-3.309882164001465,3.4569761753082275
1779958759981424400,18.89842431640625,-1.5179595947265625,-3.5076236724853516,1.7131621837615967
1779958759997758500,18.914758544921874,-1.8166478872299194,-4.444161415100098,2.531402826309204
1779958760014090500,18.931090576171876,-0.03899335861206055,-2.5137100219726562,2.0136308670043945
1779958760030423600,18.947423583984374,0.5468809604644775,-0.2738313674926758,0.16995930671691895
1779958760046756000,18.963756103515625,-1.0176533460617065,0.4653053283691406,-2.042069911956787
1779958760063089700,18.980089599609375,-2.2998080253601074,-1.9360647201538086,-4.0838847160339355
1779958760079422700,18.996422607421874,-0.0976639986038208,-3.6576995849609375,-4.854969501495361
1779958760095754800,19.012754638671876,1.612700343132019,-3.8434715270996094,-4.0468597412109375
1779958760112078300,19.029078369140624,1.7259234189987183,-2.726618766784668,-2.627028703689575
1779958760128423200,19.045423095703125,0.6042448282241821,-1.682621955871582,-0.7130438089370728
1779958760144764400,19.061764404296873,-0.12100648880004883,-0.967677116394043,1.0247435569763184
1779958760161097700,19.07809765625,-0.37061452865600586,-0.30779457092285156,1.697980284690857
1779958760177429500,19.094429443359374,0.39452457427978516,0.34584522247314453,0.2635982632637024
1779958760193760300,19.11076025390625,1.1150736808776855,0.9350194931030273,-0.5003604888916016
1779958760210099200,19.12709912109375,1.2318000793457031,1.4955377578735352,-0.16411060094833374
1779958760226429200,19.14342919921875,1.487947940826416,1.7444186210632324,0.35399681329727173
1779958760242779000,19.15977880859375,1.8101763725280762,1.9598851203918457,0.28308334946632385
1779958760259116800,19.17611669921875,1.8425939083099365,2.1266608238220215,-0.10378539562225342
1779958760275428900,19.192428955078125,1.8794033527374268,2.458773612976074,-0.6403168439865112
1779958760291774700,19.208774658203126,1.8680729866027832,2.9502334594726562,-1.0473370552062988
1779958760308105000,19.22510498046875,1.7060585021972656,3.1860485076904297,-1.0678044557571411
1779958760324411400,19.241411376953124,2.553295373916626,3.242044448852539,-1.0012993812561035
1779958760340759000,19.257759033203126,3.6368045806884766,3.505918502807617,-1.323851227760315
1779958760357089300,19.27408935546875,3.617504596710205,4.062469959259033,-1.6076252460479736
1779958760373423600,19.290423583984374,2.701901435852051,4.1342291831970215,-1.4524083137512207
1779958760389757400,19.30675732421875,1.6743385791778564,4.306421756744385,-1.1204984188079834
1779958760406089200,19.323089111328127,0.5396161079406738,4.485733985900879,-0.9919878244400024
1779958760422409200,19.3394091796875,-0.6828196048736572,3.775684356689453,-0.6331310272216797
1779958760438739200,19.3557392578125,-2.5555403232574463,2.335629463195801,-0.4979863166809082
1779958760455091000,19.372091064453127,-4.609330654144287,-1.8600902557373047,-0.8513567447662354
1779958760471421000,19.3884208984375,-4.285122871398926,-10.487174034118652,-1.9522429704666138
1779958760487752000,19.404751953125,-2.1583893299102783,-12.7174711227417,-0.6425270438194275
1779958760504086000,19.4210859375,-6.272346496582031,-6.627524375915527,0.5865354537963867
1779958760520419600,19.437419677734376,-12.635541915893555,0.7002801895141602,1.3717842102050781
1779958760536750600,19.45375048828125,-8.02544116973877,1.2077641487121582,2.7280399799346924
1779958760553084200,19.470084228515624,-0.5318076610565186,-1.3718376159667969,3.1398842334747314
1779958760569418000,19.48641796875,4.580291271209717,-4.830002784729004,2.5343575477600098
1779958760585750000,19.50275,9.141881942749023,-9.366148948669434,-0.7209341526031494
1779958760602101800,19.519101806640624,6.982987403869629,-6.10324764251709,-6.660628318786621
1779958760618423000,19.535423095703123,-2.0213871002197266,4.842251300811768,-6.5385212898254395
1779958760634748700,19.551748779296876,-1.89973783493042,7.30265998840332,-3.824402332305908
1779958760651081700,19.568081787109374,-0.3015787601470947,5.446920394897461,-1.644838571548462
1779958760667413000,19.5844130859375,2.106943130493164,5.013340950012207,-0.6690764427185059
1779958760683746300,19.600746337890627,5.535127639770508,2.7860865592956543,-0.42968547344207764
1779958760700080000,19.617080078125,6.103020191192627,-0.7068195343017578,-0.7874742150306702
1779958760716412400,19.633412353515624,4.955654621124268,-2.3367767333984375,-0.6044047474861145
1779958760732754000,19.64975390625,6.736595630645752,-3.8620786666870117,-0.11667907238006592
1779958760749101600,19.6661015625,-4.235316276550293,-2.8099441528320312,-1.5897138118743896
1779958760765425000,19.6824248046875,-2.951061248779297,-0.9837102890014648,0.09985458850860596
1779958760781741000,19.698740966796876,3.9195384979248047,0.8439931869506836,-0.37527692317962646
1779958760798087000,19.7150869140625,4.8043293952941895,1.6360893249511719,-1.1647045612335205
1779958760814427400,19.731427490234374,2.354051351547241,2.3161540031433105,-0.8287878036499023
1779958760830739200,19.7477392578125,0.003200232982635498,1.081587791442871,-0.6950846910476685
1779958760847073300,19.7640732421875,-0.7132554054260254,1.2248258590698242,-0.5375603437423706
1779958760863406800,19.78040673828125,0.2649805247783661,1.3961334228515625,-0.5936363935470581
1779958760879741000,19.796740966796875,0.6839188933372498,1.809211254119873,-0.2712826728820801
1779958760896073000,19.813072998046874,-0.06412601470947266,1.4520673751831055,0.08818614482879639
1779958760912396300,19.829396240234374,-0.9608867168426514,0.8898153305053711,0.48934465646743774
1779958760928740900,19.845740966796875,-1.5162607431411743,1.0359907150268555,0.948327898979187
1779958760945085200,19.862085205078124,-1.6175395250320435,0.6247463226318359,1.6694505214691162
1779958760961422000,19.878422119140627,-1.541477084159851,-0.2204437255859375,2.34708309173584
1779958760977750000,19.89475,-1.4252171516418457,-0.9851322174072266,2.471944570541382
1779958760994066400,19.91106640625,-1.4327263832092285,-0.16881942749023438,2.4512405395507812
1779958761010402800,19.92740283203125,-1.3412940502166748,0.20307159423828125,2.450096607208252
1779958761026733800,19.94373388671875,-1.6411805152893066,-1.236053466796875,2.2140324115753174
1779958761043068000,19.96006787109375,-1.1872107982635498,-1.7500810623168945,2.119135856628418
1779958761059416300,19.976416259765625,-1.1971540451049805,-1.4199590682983398,4.082699298858643
1779958761075733500,19.9927333984375,-2.087419033050537,-1.829946517944336,4.713846206665039
1779958761092070100,20.009070068359375,-1.574507236480713,-2.0691394805908203,3.728323459625244
1779958761108407600,20.025407470703126,-1.4448612928390503,-2.4929847717285156,2.7338643074035645
1779958761124749800,20.041749755859374,0.13957500457763672,-2.611713409423828,1.7895666360855103
1779958761141080800,20.058080810546876,-0.3616560101509094,-3.155911445617676,0.7441327571868896
1779958761157392000,20.074391845703126,-0.25327813625335693,-5.2380523681640625,1.2984076738357544
1779958761173729300,20.090729248046873,-0.7325953245162964,-3.8635072708129883,1.4826819896697998
1779958761190063900,20.10706396484375,0.8942810893058777,-0.9418821334838867,0.8843424320220947
1779958761206396000,20.12339599609375,0.11900138854980469,1.4996013641357422,-0.6100770235061646
1779958761222725600,20.1397255859375,-2.7973098754882812,1.627049446105957,-2.925421714782715
1779958761239063800,20.156063720703123,-3.2300000190734863,-1.4521484375,-4.5566253662109375
1779958761255395000,20.17239501953125,1.0972516536712646,-3.961573600769043,-4.429800033569336
1779958761271783000,20.188782958984376,4.022818565368652,-4.037586212158203,-3.7215898036956787
1779958761288048600,20.205048583984375,2.782733201980591,-3.738767623901367,-3.1199536323547363
1779958761304414500,20.22141455078125,-0.2663133144378662,-2.5106029510498047,-1.9842028617858887
1779958761320722200,20.23772216796875,-2.2842094898223877,-2.013334274291992,1.122565746307373
1779958761337054200,20.25405419921875,-0.2713046073913574,-0.9332342147827148,2.0871756076812744
1779958761353391600,20.2703916015625,1.8556090593338013,0.17953014373779297,1.084890365600586
1779958761369726000,20.286725830078126,0.8741359710693359,0.43384265899658203,0.36278560757637024
1779958761386056400,20.303056396484376,0.832024097442627,1.0825796127319336,-0.14424654841423035
1779958761402371300,20.319371337890626,1.0920066833496094,1.9252161979675293,-0.4476097524166107
1779958761418720800,20.335720703125,1.7451822757720947,2.375019073486328,-0.9567822217941284
1779958761435054600,20.3520546875,1.928929090499878,3.2739009857177734,-1.4054195880889893
1779958761451403800,20.36840380859375,1.6690282821655273,4.186185836791992,-1.5372413396835327
1779958761467734800,20.38473486328125,1.9554996490478516,4.707071304321289,-1.165467619895935
1779958761484027400,20.40102734375,2.905956745147705,4.802055358886719,-0.8500093221664429
1779958761500386600,20.417386474609376,3.6484344005584717,4.810272216796875,-0.5507305264472961
1779958761516717300,20.43371728515625,3.468082904815674,4.878929138183594,-0.14080306887626648
1779958761533051100,20.450051025390625,2.284421443939209,5.184362411499023,-0.037001729011535645
1779958761549385200,20.46638525390625,1.3589544296264648,4.979194641113281,-0.6142547726631165
1779958761565714200,20.482714111328125,0.1600658893585205,3.883208751678467,-0.5678149461746216
1779958761582052900,20.499052978515625,-2.146432876586914,2.5048184394836426,-0.25670742988586426
1779958761598391300,20.515391357421876,-4.739234924316406,-1.286844253540039,-0.29011887311935425
1779958761614719700,20.5317197265625,-4.584179878234863,-9.7698974609375,-0.21515554189682007
1779958761631061000,20.54806103515625,-0.8837754726409912,-13.326459884643555,0.6182478666305542
1779958761647393000,20.56439306640625,-3.0731356143951416,-5.894261360168457,-0.37440717220306396
1779958761663728400,20.580728271484375,-8.96505355834961,0.5220270156860352,-0.9412100911140442
1779958761680060000,20.597059814453125,-6.839791297912598,2.48992919921875,0.33675599098205566
1779958761696393000,20.61339306640625,-3.2833123207092285,2.274628162384033,0.33086350560188293
1779958761712726300,20.629726318359374,-0.1682262420654297,-0.7377748489379883,-0.234480619430542
1779958761729058300,20.646058349609376,1.286564826965332,-3.9568777084350586,-0.905614972114563
1779958761745392000,20.66239208984375,5.687554359436035,-7.3322601318359375,-2.858588457107544
1779958761761725200,20.67872509765625,6.755923271179199,-7.745518684387207,-6.98076868057251
1779958761778033200,20.695033203125,-0.23616600036621094,1.1424932479858398,-5.743111610412598
1779958761794395000,20.711394775390627,-1.7281782627105713,3.4139270782470703,-2.807471990585327
1779958761810706000,20.727705810546876,0.18961763381958008,4.0932440757751465,-1.6463570594787598
