time,seconds_elapsed,z,y,x
1779037475579206100,0.1322060546875,-1.6819567680358887,-3.0928993225097656,2.16990327835083
1779037475595524600,0.148524658203125,-0.498321533203125,-1.4723906517028809,0.9305141568183899
1779037475611854300,0.164854248046875,0.36980724334716797,-0.5345108509063721,0.7766926288604736
1779037475628203800,0.181203857421875,0.2225933074951172,-0.16714763641357422,0.868095874786377
1779037475644531700,0.19753173828125,2.4856185913085938,-0.7742795944213867,1.8457269668579102
1779037475660865300,0.213865234375,2.2833213806152344,-1.6881229877471924,2.0181708335876465
1779037475677197800,0.23019775390625,1.046762466430664,-1.9651074409484863,1.8936837911605835
1779037475693530000,0.246530029296875,-0.7986068725585938,-1.9026246070861816,1.555182695388794
1779037475709861400,0.262861328125,-2.670300006866455,-1.24359130859375,0.742750883102417
1779037475726194700,0.279194580078125,-3.144347667694092,-0.011143207550048828,0.16407343745231628
1779037475742527000,0.29552685546875,-2.1996588706970215,1.137103796005249,-0.2274794727563858
1779037475758855700,0.311855712890625,-0.3365917205810547,2.129706621170044,-0.8072365522384644
1779037475775196000,0.32819580078125,-0.15931320190429688,1.553605556488037,-0.7512391209602356
1779037475791517200,0.34451708984375,-0.6615447998046875,0.5269088745117188,-0.48780253529548645
1779037475807852800,0.360852783203125,-1.7048559188842773,-0.008320808410644531,-0.9225393533706665
1779037475824183300,0.377183349609375,-2.764922618865967,0.47838330268859863,-1.9265351295471191
1779037475840523300,0.393523193359375,-2.9410905838012695,1.1875736713409424,-1.6148569583892822
1779037475856851000,0.409850830078125,-2.11488676071167,0.7687351703643799,-0.22842907905578613
1779037475873183700,0.426183837890625,-0.615239143371582,0.8343632221221924,-0.018678665161132812
1779037475889513700,0.442513671875,-0.9761142730712891,0.981468915939331,0.20935460925102234
1779037475905847300,0.458847412109375,-0.33698272705078125,1.191741943359375,-0.4927036464214325
1779037475922178600,0.475178466796875,-0.7286796569824219,1.1028432846069336,-1.1214501857757568
1779037475938506800,0.4915068359375,-0.006051063537597656,1.015519142150879,-1.427079677581787
1779037475954829600,0.50782958984375,1.2162275314331055,1.4333553314208984,-1.4914003610610962
1779037475971162400,0.524162353515625,2.3269529342651367,0.3654153347015381,-0.5061930418014526
1779037475987494400,0.540494384765625,3.3119630813598633,0.10028767585754395,0.10619726777076721
1779037476003826700,0.55682666015625,2.6785688400268555,0.7415692806243896,0.05801543593406677
1779037476020158000,0.573157958984375,0.7822160720825195,1.2915043830871582,-0.42975932359695435
1779037476036489200,0.5894892578125,0.06612873077392578,1.4050366878509521,-0.9661107063293457
1779037476052840000,0.60583984375,0.11812496185302734,0.20193028450012207,-1.3124815225601196
1779037476069166800,0.622166748046875,0.8046846389770508,-1.1536376476287842,-0.2524988651275635
1779037476085499400,0.63849951171875,2.569965362548828,-1.8029201030731201,-0.3040948510169983
1779037476101802500,0.654802490234375,1.1242475509643555,-3.299649238586426,1.3444732427597046
1779037476118150700,0.671150634765625,-0.6568946838378906,-3.563612699508667,2.1014702320098877
1779037476134483500,0.6874833984375,-4.433589458465576,-1.539641261100769,0.44224584102630615
1779037476150815200,0.703815185546875,-4.911544322967529,2.3280045986175537,-2.873784065246582
1779037476167147000,0.72014697265625,-0.5731086730957031,2.3106155395507812,-1.9885516166687012
1779037476183479300,0.736479248046875,3.838949203491211,-1.631246566772461,0.5787469744682312
1779037476199814000,0.75281396484375,5.655875205993652,-3.304380178451538,0.9938499331474304
1779037476216157200,0.7691572265625,4.59808349609375,-2.7720820903778076,0.9948770999908447
1779037476232490000,0.785489990234375,3.609548568725586,-1.4531351327896118,0.6006872653961182
1779037476248847400,0.801847412109375,1.9677772521972656,1.3359917402267456,-1.1989489793777466
1779037476265151500,0.8181513671875,-0.382354736328125,1.178289771080017,-0.11775428056716919
1779037476281486300,0.834486328125,0.7015361785888672,0.03825485706329346,-0.05517822504043579
1779037476297818600,0.850818603515625,0.9293889999389648,-0.25627636909484863,-0.16728734970092773
1779037476314149400,0.8671494140625,-0.09359455108642578,-0.3429248332977295,-0.3468557596206665
1779037476330481700,0.883481689453125,-1.5654897689819336,0.11346149444580078,-0.4523383378982544
1779037476346814500,0.899814453125,-3.117926597595215,0.586452841758728,-0.6567801237106323
1779037476363144700,0.916144775390625,-3.8375601768493652,0.5584453344345093,-0.619010329246521
1779037476379451600,0.93245166015625,-3.455359935760498,0.17038655281066895,-0.5006301403045654
1779037476395808800,0.948808837890625,-3.039252281188965,-0.6053414344787598,0.1339397430419922
1779037476412149000,0.96514892578125,-2.7537055015563965,-0.4394923448562622,0.32221996784210205
1779037476428475600,0.9814755859375,-2.9495162963867188,-0.405240535736084,-0.1947542428970337
1779037476444790300,0.997790283203125,-5.238497257232666,-0.7027072906494141,-0.27249956130981445
1779037476461126400,1.01412646484375,-5.236828327178955,-0.494732141494751,-1.1043463945388794
1779037476477457200,1.03045703125,-4.226992130279541,0.6279691457748413,-1.1543662548065186
1779037476493789700,1.046789794921875,-2.0106124877929688,1.0786925554275513,-1.4850554466247559
1779037476510122500,1.06312255859375,-1.7579588890075684,-0.9435299038887024,0.706550121307373
1779037476526453800,1.079453857421875,0.7192859649658203,-0.33441996574401855,0.8844015598297119
1779037476542803500,1.095803466796875,4.384599685668945,0.045751214027404785,1.7946970462799072
1779037476559126500,1.11212646484375,7.742201805114746,0.32060110569000244,2.384503126144409
1779037476575464200,1.128464111328125,7.170488357543945,0.071358323097229,2.2700395584106445
1779037476591783700,1.14478369140625,5.722099304199219,0.8456690311431885,2.468385934829712
1779037476608115700,1.16111572265625,5.236780166625977,2.177741527557373,3.139575958251953
1779037476624447200,1.177447265625,6.499452590942383,2.500373125076294,3.4054012298583984
1779037476640776000,1.19377587890625,8.34438705444336,0.7579077482223511,2.6430306434631348
1779037476657112600,1.210112548828125,7.622311592102051,-0.8853838443756104,1.0259054899215698
1779037476673441800,1.22644189453125,4.469977378845215,-1.7644217014312744,-0.29143375158309937
1779037476689792000,1.2427919921875,1.0211410522460938,-1.9509646892547607,-0.9886021614074707
1779037476706121000,1.259120849609375,-1.085158348083496,-1.6585854291915894,-1.0910710096359253
1779037476722451700,1.27545166015625,-1.0859079360961914,-1.5605473518371582,-0.6384145021438599
1779037476738784300,1.2917841796875,-0.7687158584594727,-1.409721851348877,0.33076462149620056
1779037476755117000,1.308116943359375,-0.9711122512817383,-0.9913798570632935,0.9694604873657227
1779037476771448000,1.324447998046875,-1.7570786476135254,-0.7402238249778748,1.3086801767349243
1779037476787754500,1.34075439453125,-2.2107410430908203,-0.35158342123031616,1.217667579650879
1779037476804113000,1.35711279296875,-2.5396595001220703,-0.43986624479293823,1.0796566009521484
1779037476820446000,1.373446044921875,-3.5381641387939453,-1.0165081024169922,0.8841559290885925
1779037476836778000,1.389778076171875,-4.27574348449707,-1.0581943988800049,0.29316675662994385
1779037476853111600,1.406111572265625,-5.077963829040527,-0.7921878695487976,-0.2655079960823059
1779037476869443600,1.422443603515625,-5.615985870361328,-0.9659977555274963,-0.4188425838947296
1779037476885775400,1.438775390625,-5.918481826782227,-0.9744365215301514,-0.6388431787490845
1779037476902104600,1.4551044921875,-6.118833541870117,-1.0310401916503906,-0.6633676290512085
1779037476918440000,1.47143994140625,-5.965404510498047,-0.967093288898468,-0.8455057740211487
1779037476934753500,1.48775341796875,-5.930373191833496,-1.1093673706054688,-0.6427062749862671
1779037476951090000,1.50408984375,-6.530107498168945,-1.1953102350234985,-0.739976704120636
1779037476967421400,1.52042138671875,-7.939453125,-0.9170820713043213,-0.8143010139465332
1779037476983754000,1.53675390625,-7.930608749389648,-0.3276158571243286,-0.8785967826843262
1779037477000085500,1.55308544921875,-6.709869861602783,-0.21740591526031494,-1.26785147190094
1779037477016417800,1.569417724609375,-5.424912452697754,-1.3646135330200195,-1.2915507555007935
1779037477032751600,1.585751708984375,-7.0736541748046875,-2.6339457035064697,-1.769407868385315
1779037477049066500,1.60206640625,-9.038054466247559,-3.386829137802124,-1.810299038887024
1779037477065414100,1.6184140625,-7.853801727294922,-3.788118362426758,-0.8126318454742432
1779037477081745400,1.634745361328125,-5.154428482055664,-2.2777881622314453,-0.04208660125732422
1779037477098078500,1.651078369140625,-2.3276939392089844,-5.272867202758789,2.3798351287841797
1779037477114412300,1.667412353515625,-0.2984185218811035,-5.6539306640625,4.602741718292236
1779037477130741200,1.6837412109375,3.0373592376708984,-3.0762760639190674,6.6497650146484375
1779037477147075000,1.700074951171875,6.176109790802002,-1.8387126922607422,9.4104585647583
1779037477163405600,1.716405517578125,7.447674751281738,0.2087479829788208,10.160263061523438
1779037477179751400,1.73275146484375,6.5092668533325195,-1.3842909336090088,12.67622184753418
1779037477196084000,1.749083984375,5.454880237579346,-0.06980155408382416,12.058874130249023
1779037477212417300,1.765417236328125,5.261775493621826,1.1849315166473389,12.182721138000488
1779037477228748000,1.781748046875,5.538010597229004,1.2482268810272217,11.01370620727539
1779037477245080300,1.798080322265625,5.990862846374512,2.1955981254577637,8.611050605773926
1779037477261413400,1.814413330078125,1.6691100597381592,2.093679428100586,8.436301231384277
1779037477277743000,1.8307431640625,-13.507034301757812,4.431874752044678,4.540595054626465
1779037477294078700,1.84707861328125,-13.766633987426758,2.33782958984375,3.3700380325317383
1779037477310411000,1.863410888671875,-1.8860197067260742,0.3667036294937134,5.092476844787598
1779037477326742000,1.879741943359375,-1.2423791885375977,2.2108232975006104,3.5329456329345703
1779037477343073800,1.89607373046875,-3.935211658477783,0.5421415567398071,1.6321468353271484
1779037477359406600,1.912406494140625,-0.9499167203903198,-1.3340370655059814,1.5355663299560547
1779037477375743500,1.928743408203125,0.9111716151237488,-3.596677303314209,4.833063125610352
1779037477392065800,1.945065673828125,3.6861393451690674,0.19039392471313477,2.1003665924072266
1779037477408403200,1.9614033203125,5.888358116149902,0.09672951698303223,2.6085290908813477
1779037477424732000,1.97773193359375,5.49268102645874,0.22715425491333008,0.03756904602050781
1779037477441053700,1.9940537109375,4.296626091003418,0.8285353183746338,-0.14939594268798828
1779037477457385500,2.010385498046875,-2.6552186012268066,-0.7474477291107178,-1.3990888595581055
1779037477473718500,2.026718505859375,-4.787849426269531,-0.07270121574401855,-3.7936534881591797
1779037477490046000,2.0430458984375,-2.047720432281494,0.17469143867492676,-2.6469039916992188
1779037477506384100,2.059384033203125,-7.4402618408203125,0.06877994537353516,-3.4947848320007324
1779037477522711600,2.075711669921875,-0.6492271423339844,-0.44553375244140625,-1.6929817199707031
1779037477539066600,2.092066650390625,-9.906508445739746,2.516328811645508,-3.2865395545959473
1779037477555382500,2.108382568359375,2.2956697940826416,1.9498755931854248,-2.0615334510803223
1779037477571714000,2.124714111328125,-1.3228813409805298,5.820368766784668,-3.029162883758545
1779037477588040700,2.141040771484375,1.796651840209961,0.47656869888305664,-3.398646831512451
1779037477604379000,2.15737890625,-2.4312479496002197,0.8864784240722656,-4.707725524902344
1779037477620699100,2.17369921875,2.0541117191314697,2.155076026916504,-3.956552743911743
1779037477637041400,2.19004150390625,5.357751846313477,-0.20986557006835938,-1.9098434448242188
1779037477653370400,2.206370361328125,1.974470615386963,2.807953119277954,-2.370741605758667
1779037477669692700,2.222692626953125,-1.5951149463653564,4.28080415725708,-0.8396849632263184
1779037477686047500,2.239047607421875,-0.6955270767211914,4.49901008605957,-0.008414745330810547
1779037477702403300,2.2554033203125,0.2743527889251709,2.6550064086914062,1.6765809059143066
1779037477718713900,2.2717138671875,-3.249469757080078,7.106351852416992,3.9359593391418457
1779037477735042600,2.28804248046875,-1.5572651624679565,11.675625801086426,10.403098106384277
1779037477751374800,2.304374755859375,-1.0164557695388794,1.8542823791503906,15.927234649658203
1779037477767714000,2.320714111328125,-3.405390739440918,0.2714118957519531,14.338190078735352
1779037477784041200,2.337041259765625,-4.862091064453125,-0.05973672866821289,8.767983436584473
1779037477800371700,2.353371826171875,-4.770610332489014,-0.3447279930114746,5.154119491577148
1779037477816705800,2.369705810546875,-4.053122520446777,-2.6916441917419434,2.3156514167785645
1779037477833038300,2.386038330078125,-3.6343002319335938,-3.86263370513916,3.094818592071533
1779037477849353700,2.402353759765625,-0.7913235425949097,-4.357865333557129,3.6516733169555664
1779037477865699800,2.418699951171875,5.509997367858887,-3.93477725982666,4.942338466644287
1779037477882036200,2.4350361328125,10.847773551940918,-3.0220518112182617,3.1930055618286133
1779037477898371300,2.451371337890625,4.041711330413818,1.7646913528442383,4.431276321411133
1779037477914678500,2.467678466796875,-4.423097610473633,-4.960387229919434,0.8396368026733398
1779037477931012900,2.484012939453125,-1.9751826524734497,-6.684782028198242,-1.725400447845459
1779037477947349000,2.500348876953125,0.7156127691268921,-0.9044342041015625,-0.4607114791870117
1779037477963681000,2.516680908203125,1.2286438941955566,0.6209330558776855,-5.309785842895508
1779037477980012500,2.533012451171875,2.5572869777679443,-3.433612823486328,-6.816566467285156
1779037477996337700,2.549337646484375,2.824274778366089,-2.620743751525879,-6.093889236450195
1779037478012677600,2.565677734375,2.0735979080200195,2.113893508911133,-6.414802551269531
1779037478029024800,2.582024658203125,2.180433511734009,2.8649044036865234,-4.199971675872803
1779037580090174000,104.64317407226562,1.831838607788086,1.5420289039611816,-0.8687022924423218
1779037580102418400,104.65541845703125,1.7196617126464844,1.9167842864990234,-0.7853666543960571
1779037580114658000,104.66765795898438,0.9435911178588867,2.499631881713867,-1.4627958536148071
1779037580126906000,104.67990600585938,0.9019222259521484,2.8483219146728516,-2.5653133392333984
1779037580171815700,104.72481567382812,3.6580820083618164,1.118046522140503,-1.3786468505859375
1779037580188154400,104.741154296875,3.775689125061035,0.017624616622924805,-1.4636740684509277
1779037580204484600,104.75748461914063,3.5139951705932617,-0.9149153232574463,-1.071628212928772
1779037580220804900,104.77380493164063,2.816831588745117,-1.1367759704589844,-0.29742100834846497
1779037580237146000,104.79014599609376,0.9682292938232422,-0.522132158279419,-0.5871235132217407
1779037580253476400,104.80647631835937,-0.4009437561035156,0.3376955986022949,-1.4193066358566284
1779037580269807000,104.82280712890625,-0.5084772109985352,0.4254770278930664,-1.5719305276870728
1779037580286123500,104.83912353515625,-0.17493820190429688,-0.1341094970703125,-1.0378966331481934
1779037580302486000,104.85548608398437,-0.19936275482177734,-0.7136492729187012,-0.45358890295028687
1779037580318837200,104.87183715820312,-0.51336669921875,-0.8710169792175293,-0.08350428938865662
1779037580335122700,104.88812280273437,-1.3460588455200195,-0.9130573272705078,-0.36665797233581543
1779037580351472600,104.90447265625,-1.5783758163452148,-0.7406759262084961,-0.34201645851135254
1779037580367807000,104.92080688476562,-0.9367084503173828,-0.47243165969848633,-0.09332039952278137
1779037580384128500,104.93712841796875,-1.1783342361450195,-0.486222505569458,0.23408299684524536
1779037580400442400,104.9534423828125,-1.644735336303711,-0.43199729919433594,0.5029295682907104
1779037580416793600,104.96979370117188,-2.058651924133301,-0.10605287551879883,0.4489281177520752
1779037580433125400,104.98612548828125,-2.445171356201172,0.06945586204528809,0.39277714490890503
1779037580449460000,105.0024599609375,-2.3399972915649414,0.22308945655822754,0.12965494394302368
1779037580465774300,105.0187744140625,-2.0069966316223145,0.3442838191986084,-0.009641468524932861
1779037580482098000,105.03509790039062,-1.7739858627319336,0.43505096435546875,0.062197983264923096
1779037580498449400,105.05144946289063,-1.4191694259643555,0.7094063758850098,0.1397119164466858
1779037580514775800,105.06777587890625,-0.8930530548095703,0.9998505115509033,0.24106532335281372
1779037580531102500,105.0841025390625,-0.5804872512817383,1.2139620780944824,0.18538612127304077
1779037580547424000,105.10042407226562,-0.19632625579833984,1.3205068111419678,0.1457335352897644
1779037580563768600,105.1167685546875,-0.0034208297729492188,1.364976406097412,0.13709229230880737
1779037580580096000,105.13309594726563,-0.11132621765136719,1.120337724685669,0.24820059537887573
1779037580596407300,105.1494072265625,-0.047629356384277344,1.1449875831604004,0.1639445424079895
1779037580612747300,105.16574731445313,0.4640789031982422,0.9280130863189697,0.07976073026657104
1779037580629075500,105.18207543945313,1.6959447860717773,0.7843942642211914,-0.1737719178199768
1779037580645405400,105.19840551757812,2.0778274536132812,0.6438374519348145,-0.21780741214752197
1779037580661736000,105.21473583984375,1.6477174758911133,0.6807899475097656,-0.07030224800109863
1779037580678066700,105.23106665039063,1.1554327011108398,1.128455400466919,0.29303109645843506
1779037580694398700,105.24739868164062,1.0062179565429688,1.4944288730621338,0.689330518245697
1779037580710724000,105.26372412109374,1.3410987854003906,1.1834547519683838,0.8966763019561768
1779037580727058000,105.28005786132813,2.050752639770508,0.4884765148162842,0.7639461755752563
1779037580743388000,105.29638793945313,3.195192337036133,-0.20937561988830566,0.5770696401596069
1779037580759717000,105.31271704101563,3.0008983612060547,-1.1388218402862549,0.8727704882621765
1779037580776049000,105.329048828125,2.110034942626953,-1.4335441589355469,1.072461485862732
1779037580792378600,105.34537866210937,0.964508056640625,-0.8461935520172119,1.0525989532470703
1779037580808729000,105.36172900390625,0.005112648010253906,-0.4277913570404053,0.948691189289093
1779037580825052000,105.37805200195312,-0.3553304672241211,-0.5003654956817627,1.094028353691101
1779037580841383700,105.3943837890625,-0.7247171401977539,-0.6942145824432373,1.3803472518920898
1779037580857717000,105.41071704101563,-0.984889030456543,-0.6723513603210449,1.3629393577575684
1779037580874044000,105.4270439453125,-1.1597299575805664,-0.6809792518615723,1.088399887084961
1779037580890359600,105.44335961914062,-1.6969966888427734,-0.8710753917694092,0.5952121019363403
1779037580906703400,105.45970336914063,-2.4746718406677246,-0.7522156238555908,0.19497229158878326
1779037580923035000,105.47603491210937,-3.30714750289917,0.38512754440307617,-0.18895842134952545
1779037580939366100,105.4923662109375,-2.410254955291748,0.07071995735168457,0.39528417587280273
1779037580955697200,105.508697265625,-2.2488455772399902,-0.19497179985046387,0.4671247601509094
1779037580972025600,105.52502563476563,-1.8370490074157715,0.02025318145751953,0.27719923853874207
1779037580988358700,105.54135864257813,-2.144561767578125,0.17304539680480957,0.12139414995908737
