time,seconds_elapsed,z,y,x
1780097592990059500,0.0900595703125,-0.706042821508646,0.09801292272359133,-0.20049729177281259
1780097593000052700,0.100052734375,-0.4340706314563751,0.2445097442395985,-0.3430208257436752
1780097593010046700,0.110046630859375,-0.18562486294209957,0.3008426029667258,-0.2602911046087742
1780097593020040700,0.120040771484375,-0.11386427958905697,0.14738938644155858,-0.11500555857867002
1780097593030034700,0.13003466796875,-0.030393969219923017,0.00138575526997447,-0.0769654585197568
1780097593040028700,0.140028564453125,0.08389408873915671,-0.025420710851997135,-0.08121244843974709
1780097593050022700,0.150022705078125,0.21166648217141626,0.005776683705300092,-0.08206745783388614
1780097593060016600,0.1600166015625,0.3592272796571255,0.02467442252933979,-0.07002323816642164
1780097593070010600,0.1700107421875,0.4910860656201839,-0.057113633841276164,-0.06938245604485273
1780097593080004600,0.180004638671875,0.5091688347995281,-0.19462533099949358,-0.08294628649502993
1780097593089998800,0.189998779296875,0.34791561204791066,-0.2892038953602314,-0.06568798544108867
1780097593099992800,0.199992919921875,0.11636661779880524,-0.2375422433145344,0.12183029003217816
1780097593109986800,0.20998681640625,-0.13759002309143542,-0.14000775175765157,0.2525663555756211
1780097593119980500,0.21998046875,-0.19923194801211355,-0.08597118727415799,0.08657821325659751
1780097593129974500,0.229974609375,-0.07291150695383548,0.014402765492349862,-0.11023542156741023
1780097593139967700,0.2399677734375,0.0745446611136198,0.07028203523308038,-0.1561911170564592
1780097593149961700,0.249961669921875,0.09025368689894675,0.0004899754740297794,-0.05926043661162257
1780097593159955700,0.259955810546875,0.14133680840432644,-0.10383943691998719,0.011954057165980338
1780097593169949700,0.26994970703125,0.30798049202263356,-0.12027794602364301,0.060308338229358195
1780097593179943700,0.279943603515625,0.3772498430818319,-0.08396233166977762,0.03190495830476284
1780097593189937700,0.289937744140625,0.42727965614199637,-0.2303895950809121,-0.12789528915956616
1780097593199931600,0.299931640625,0.4297176969438791,-0.23981764090061186,-0.09801716050729155
1780097593209925600,0.309925537109375,0.432845473575592,-0.26815102432891724,-0.061267100258916615
1780097593219919600,0.319919677734375,0.4159241493910551,-0.24590149085894225,0.033055297383666034
1780097593229913600,0.32991357421875,0.24951719713807105,-0.2235449898831546,0.2144717488504946
1780097593239907800,0.339907958984375,0.11651333279311656,-0.41159810288548465,0.18864874080792068
1780097593249901800,0.34990185546875,-0.02279518465399742,-0.433659566437453,-0.12969284010082482
1780097593259895800,0.359895751953125,-0.02497720486819744,-0.31222470546364783,-0.21042758802622555
1780097593269889500,0.3698896484375,0.1096229887574911,-0.31102986965589224,-0.2996263590447604
1780097593279883500,0.379883544921875,0.1343365742534399,-0.34960232302583755,-0.43119566054195163
1780097593289876700,0.389876708984375,0.30891105087101456,-0.2366125612489879,-0.5385070113562047
1780097593299870700,0.39987060546875,0.8802180696755647,0.6669459789384156,-1.2908029038652777
1780097593309864700,0.40986474609375,1.2086901455849408,1.2199786515142768,-0.9038578884601592
1780097593319858700,0.419858642578125,0.8072732449740171,-0.10894947341009974,-0.33821035672202704
1780097593329852700,0.429852783203125,0.6890045929461717,-0.8435549570582807,-0.30486572100296616
1780097593339846700,0.4398466796875,0.5113058468282222,-1.174810453141108,-0.23001579333245753
1780097593349840600,0.449840576171875,0.1734054328382015,-1.5512380931198595,-0.03327142435237765
1780097593359834600,0.459834716796875,0.08793313499689101,-1.5899208749964833,0.037960751212388275
1780097593369828600,0.46982861328125,0.056773442101478576,-1.397081550630927,-0.019296236622333526
1780097593379822800,0.47982275390625,0.12243687762320041,-1.0782935411289334,-0.24939956210777162
1780097593389816800,0.48981689453125,0.40759997316002844,-0.7261733169980347,-0.5471529668875038
1780097593399810800,0.499810791015625,0.7412164262205362,-0.5041039526253939,-0.6573153232187032
1780097593409804500,0.509804443359375,1.104796055868268,-0.37309973766505716,-0.7025649162650108
1780097593419798500,0.519798583984375,1.7445476653456686,0.022700546906795353,-0.6282076674822717
1780097593429791700,0.529791748046875,1.4808973134368657,-0.14269454315621405,-0.32172990817278624
1780097593439785700,0.53978564453125,1.367381408894062,-0.3156011961594224,-0.1162193182826042
1780097593449779700,0.54977978515625,0.4342068250566721,-0.6536066779591143,-0.08783537371084094
1780097593459773700,0.559773681640625,-0.41722061894237994,-0.7736839137788861,-0.3003927403073758
1780097593469767400,0.569767333984375,-1.1570751091599463,-0.6103714934751391,-0.8019751385658979
1780097593479761400,0.579761474609375,-2.080978006783128,-0.538477639131248,-1.5830056887805461
1780097593489755100,0.589755126953125,-2.3809371049135923,-0.5524971774596721,-2.1933353889405725
1780097593499749000,0.5997490234375,-2.529223878586292,-0.8074133110318332,-2.183200948417187
1780097593509743000,0.6097431640625,-1.8641075262278317,-0.9318751916766166,-2.269482809075713
1780097593519737300,0.6197373046875,-0.4885188454806804,-0.977177757019177,-2.281985001643747
1780097593529731300,0.6297314453125,1.0316524937242268,-0.909552300709486,-1.8202359435364603
1780097593539725300,0.639725341796875,2.3393846128195523,-0.35099366778638214,-0.8637696236997843
1780097593549719300,0.64971923828125,3.619361294505,-0.5947559181269257,0.4083060756027698
1780097593559713300,0.65971337890625,-0.46521220417320724,-1.3732785041086375,0.22364903477951883
1780097593569706200,0.669706298828125,-0.9862889189094305,-0.9337497533768415,-0.7700970682680607
1780097593579700200,0.6797001953125,0.2772042454868555,-0.7242351154770702,-1.3049956798687576
1780097593589694200,0.689694091796875,-1.2647136461019515,-0.9529103809207677,-1.0788485446631908
1780097593599688200,0.699688232421875,-0.4677689029186964,-1.3712535741522907,-1.1422104983095078
1780097593609682400,0.709682373046875,2.7037317197084425,-1.687330571129918,-1.4404495677143334
1780097593619676400,0.719676513671875,3.9765965235620735,-1.6363681533947585,-2.135146527083218
1780097593629670400,0.72967041015625,2.6319085925132035,-1.1023206056654453,-1.9166028526186942
1780097593639664000,0.7396640625,1.9493997913271188,-1.0039577735256404,-0.9136404468059539
1780097593649658000,0.749658203125,1.6182897681295871,-1.1120750338952987,0.18564782369257882
1780097593659652400,0.75965234375,0.6174672969549894,-1.4195894427761435,1.1361211684584618
1780097593669646300,0.769646240234375,-0.7007932304173707,-1.3108330077201127,1.0370370363067836
1780097593679640300,0.779640380859375,-0.8509452134400606,-0.6256551334552467,0.16968820241335777
1780097593689634300,0.78963427734375,-0.46038054623305796,-0.00953873965255916,-0.5500912122964858
1780097593699628300,0.799628173828125,-0.2944020485252142,0.15752740716151892,-0.9034650166850536
1780097593709621200,0.809621337890625,-0.5175602310478687,-0.42350313327796757,-0.5115376828227192
1780097593719615200,0.819615234375,0.19276772043406962,-1.3740388209566474,-0.02758061056593433
1780097593729609200,0.829609130859375,1.1470026279568672,-1.9905093619592487,0.12039013769384473
1780097593739603200,0.839603271484375,1.3024971410512924,-2.320033431139588,0.2563939510397613
1780097593749597200,0.84959716796875,1.5040788670599459,-2.279303945866227,0.3971075129792094
1780097593759591400,0.85959130859375,1.610579924404621,-2.0686407955184576,0.5974851969603449
1780097593769585400,0.86958544921875,1.0594435869693755,-1.8357506157934664,0.5123650004923344
1780097593779579100,0.8795791015625,-0.012821487650275229,-1.5071649965070186,0.13618877799138426
1780097593789573000,0.889572998046875,-0.624372254037857,-1.2526138968549667,-0.08212620228379965
1780097593799567000,0.899567138671875,-0.7117436634987593,-1.4048527691543102,-0.39619653561413287
1780097593809561300,0.909561279296875,-0.8383212941884994,-1.6937942141860722,-0.6815864256441593
1780097593819555300,0.919555419921875,-0.9898469036519527,-1.7329634644053875,-0.8013820680435746
1780097593829549300,0.92954931640625,-1.0575772085756063,-1.9016247714564203,-0.17597155699916184
1780097593839542300,0.939542236328125,-0.6606494360774755,-1.8834784355215728,0.07481887494511902
1780097593849536300,0.949536376953125,-0.15182254658341407,-1.6350550249695777,0.36719058668650684
1780097593859530200,0.9595302734375,0.4807096330344677,-1.6608813940130174,0.8071366129823029
1780097593869524200,0.969524169921875,0.8056699014306068,-1.8791902368083595,1.1409027767118065
1780097593879518200,0.979518310546875,0.6014408757835626,-1.8896316974543035,0.9046316493116319
1780097593889512200,0.98951220703125,0.3332008579969406,-1.91192054002136,0.49682380555458366
1780097593899506400,0.99950634765625,0.31502631888091565,-2.156394482295215,0.2637888835966587
1780097593909500400,1.00950048828125,0.28956746797561644,-2.3608600931771098,0.07391936882212757
1780097593919494100,1.019494140625,0.21612872227728366,-2.325766421833634,0.09816986685097218
1780097593929488100,1.029488037109375,-0.1260568216860294,-2.21119750110656,0.07198065584450959
1780097593939482000,1.039482177734375,-0.25861528035104275,-1.9175490474276244,0.32046485667303204
1780097593949476400,1.049476318359375,-0.4779214636206627,-1.7034855871170758,0.7855364833317696
1780097593959470300,1.05947021484375,-0.6364747797638177,-1.5976923857808112,1.0302237760953605
1780097593969464300,1.06946435546875,-0.42579438602030273,-1.7605762784741819,0.9251188492842018
1780097593979457300,1.079457275390625,-0.2618161222189665,-2.2476434638418255,0.4779758241564035
1780097593989451300,1.089451171875,-0.15253274067938327,-2.7044664637237785,0.1834865357391536
1780097593999445200,1.0994453125,0.19018296463787554,-2.9132126745343205,0.17622078251987694
1780097594009439200,1.109439208984375,0.5508674573659896,-2.917285330800712,0.41401071698516606
1780097594019433200,1.11943310546875,0.567359157961607,-2.6555735457390544,0.7205811960794031
1780097594029427200,1.12942724609375,0.23463585434854028,-2.3028831205047666,0.9349107599802314
1780097594039421400,1.13942138671875,-0.09962298826873302,-2.1377084865257143,1.1021575240582226
1780097594049415400,1.14941552734375,-0.37157121292352674,-1.9686194555819034,1.1928414190679788
1780097594059409400,1.159409423828125,-0.7968132257580757,-1.8988792721405625,1.0989924841560423
1780097594069403100,1.169403076171875,-1.126044011080265,-1.973029819370061,0.9138063048921525
1780097594079397000,1.179397216796875,-1.3002519924730063,-2.1713787009373307,0.7481541165292263
1780097594089391000,1.18939111328125,-1.158752102461457,-2.315427837040275,0.6555506516337394
1780097594099385300,1.19938525390625,-1.01409696328938,-2.3399755644500253,0.5860739414341748
1780097594109378300,1.20937841796875,-0.8694780644744634,-2.2563076856821773,0.6871895063482224
1780097594119372300,1.219372314453125,-0.4369716135948896,-2.2375626532018185,0.8762441976085305
1780097594129366300,1.2293662109375,0.0013771335721015929,-2.186699019666016,0.9689100602157413
1780097594139360300,1.2393603515625,0.12286883929967879,-2.176558441662788,1.3861708650380373
1780097594149354200,1.249354248046875,0.4947808284848928,-1.9453033157937227,1.4889404807694255
1780097594159348200,1.25934814453125,0.7384463769853115,-1.8307589449860155,1.611324313031137
1780097594169342200,1.26934228515625,0.8189934933841228,-1.8786963158115744,1.5706640936017036
1780097594179336200,1.279336181640625,0.6472504408001899,-1.8246337401039898,1.2821680542498826
1780097594189330400,1.289330322265625,0.11107611017525196,-2.142672246412933,0.7929677293110639
1780097594199324400,1.299324462890625,-0.2660714415758848,-2.2482088426396247,0.4251609834875911
1780097594209318100,1.309318115234375,-0.6376467461526394,-1.9535688937053084,0.3968661054387688
1780097594219312000,1.31931201171875,-0.8018225783526897,-1.5691113112017512,0.6271480023615061
1780097594229305300,1.329305419921875,-0.7974906866282224,-1.1141627268895506,0.8913197477959096
1780097594239299300,1.33929931640625,-0.8728460796028376,-0.7670032669711857,1.0995631236508487
1780097594249293300,1.349293212890625,-0.8984662585496902,-0.5506607558127492,1.2142874541353434
1780097594259287300,1.359287353515625,-0.8441805416107178,-0.5631432938322425,1.0771134644988924
1780097594269281000,1.369281005859375,-0.862606425139308,-0.6425639634843915,0.8176715971305966
1780097594279275300,1.379275146484375,-0.8200199138224125,-0.6732263013169169,0.5735244756583124
1780097594289269200,1.389269287109375,-0.37927345786392686,-0.6710583826933055,0.6659872169088572
1780097594299263200,1.39926318359375,-0.04392740453183651,-0.44125710889436304,0.947326151047647
1780097594309257200,1.40925732421875,-0.15136428142189978,-0.08983589987829327,1.2991916697651147
1780097594319251200,1.419251220703125,-0.07883096013069152,0.14235142880696802,1.6345895994149147
1780097594329245400,1.429245361328125,0.12866495835781097,0.32479324126616116,1.8210421453528105
1780097594339239400,1.439239501953125,-0.2536579502046108,0.2109772577982396,1.739713377057016
1780097594349233200,1.449233154296875,-1.0569126071870327,0.07535890010595321,1.4753721202746033
1780097594359226000,1.45922607421875,-2.2294325382381674,0.013635726642608642,0.8582732182405889
1780097594369220400,1.469220458984375,-3.097362788748741,-0.0591958469428122,0.3153280052412301
1780097594379214300,1.47921435546875,-3.5502614547938105,-0.4402113627010956,-0.22886823073253035
1780097594389208300,1.489208251953125,-3.8911043519765136,-0.9971933208920061,-0.7342987557865679
1780097594399202300,1.499202392578125,-3.4159529375910758,-0.8119805458821355,-0.275714153059572
1780097594409196300,1.5091962890625,-3.046788201287389,-0.5064020734999328,0.13693462792262434
1780097594419190300,1.519190185546875,-2.727791225209832,-0.16977788999080656,0.5645896201830357
1780097594429184300,1.529184326171875,-2.4110925892025232,-0.3314876974035054,0.4344135996751487
1780097594439178200,1.53917822265625,-2.7721441616773603,-0.8496064391169696,-0.3788879656776786
1780097594449172200,1.549172119140625,-3.24867212511301,-1.11801019609794,-1.0384509216926991
1780097594459166200,1.559166259765625,-3.180665341335535,-0.7786043459810316,-1.1565262431055308
1780097594469160700,1.56916064453125,-2.9547692582815883,-0.40411344621852036,-1.2065018417604267
1780097594479155000,1.579155029296875,-2.6846692918419834,-0.08853687304370104,-0.9450767646856606
1780097594489148000,1.58914794921875,-1.9729881721854208,0.13667824200876055,-0.9131872962109744
1780097594499142000,1.599141845703125,-0.9302396994292735,-0.238880213920027,-1.118311663262546
1780097594509136000,1.609135986328125,0.2308978368639946,-0.7943883366987109,-0.8278864094138145
1780097594519130000,1.619130126953125,1.6623329079955815,-0.5657807296637445,-1.0868237613260745
1780097594529123800,1.629123779296875,2.9469284816533325,0.3654229924920946,-1.5650209731481968
1780097594539117800,1.639117919921875,2.907788311398029,-0.3555550208851695,-0.6393076651021837
1780097594549111800,1.64911181640625,3.973188176423311,-0.17851269284933804,0.6841096605114638
1780097594559105800,1.659105712890625,5.544352036240697,0.3337726665355265,2.4545225656062364
1780097594569099800,1.669099853515625,5.1237844449579715,-1.2033110828951001,4.192554565447568
1780097594579094000,1.679093994140625,3.8615515097558495,-0.8384269465200602,2.6728900067210195
1780097594589088000,1.689087890625,1.995086606746912,-0.2488634094044566,0.3336686216391623
1780097594599082000,1.69908203125,1.0793173312187194,-0.5282179647929967,-1.379766550953686
1780097594609075000,1.709074951171875,1.515721958580613,-0.49991322293728585,-2.210002153842151
1780097594619069000,1.71906884765625,2.6990333327591416,-0.33312355497702956,-1.8184838391721247
1780097594629063000,1.72906298828125,4.750451483058929,-0.3602886252783239,-0.996998528972268
1780097594639057000,1.739056884765625,6.797687963759898,-0.04925137603357434,-0.5117369317218661
1780097594649051000,1.74905078125,7.411975461634993,0.4870166242241859,-0.6365630425691604
1780097594659044900,1.759044921875,7.063883323976397,0.34838878251761196,-1.0615452354237436
1780097594669038800,1.769038818359375,6.046525897586346,-0.455680697979033,-1.450170751261711
1780097594679032800,1.77903271484375,4.821522330582142,-1.2131446407757698,-1.6052280419826506
1780097594689026800,1.78902685546875,2.9539579418987034,-2.139865664559603,-1.0805421968385576
1780097594699020800,1.799020751953125,1.3221014207094908,-2.1928705479077992,-0.6117366443485022
1780097594709014800,1.809014892578125,0.04392214383482933,-1.980173699775338,0.12796616243869066
1780097594719008000,1.819008056640625,1.1615233207404614,-1.5486509992361068,1.3179708967760204
1780097594729002000,1.829001953125,3.4690666881412264,-0.7185108195461333,1.5164228003263474
1780097594738995700,1.83899560546875,5.873236200082302,-0.5547871150277555,0.4944701551005244
1780097594748989700,1.84898974609375,7.631789009904861,-1.5103312054529785,-0.8944649139538406
1780097594758984000,1.85898388671875,8.158592285594343,-2.2686494269914923,-2.7066853088170286
1780097594768978000,1.86897802734375,6.622650545805692,-1.7031046249754727,-4.068369967374205
1780097594778972000,1.878971923828125,4.581510628414153,0.7017306573979556,-4.343787329444289
1780097594788966000,1.8889658203125,-1.206643734449148,3.9637019706755874,-2.7573709554374215
1780097594798959900,1.8989599609375,-6.363934727689624,6.094642570501565,-1.9036141917079685
1780097594808954000,1.9089541015625,-5.749978069204092,9.327523836764692,-5.199374815732241
1780097594818947800,1.91894775390625,-5.930931433203816,10.337713855743408,-7.431777894213795
1780097594828941800,1.92894189453125,-5.207865580701828,8.683546134024859,-8.32758691625297
1780097594838935800,1.938935791015625,-3.4793472591370342,7.65663235926032,-5.855569025966525
1780097594848929000,1.948928955078125,0.2187286756426096,7.953269034969806,-1.6104273641914129
1780097594858923000,1.958923095703125,2.8067203850179907,9.708838445067405,2.7352146532088515
1780097594868917000,1.9689169921875,4.339970401504636,10.690346559441089,4.414101805642247
1780097594878910700,1.97891064453125,4.497326324556767,9.786823017501831,3.9964311048448082
1780097594888904700,1.98890478515625,2.7571254562437533,7.569885803699493,1.2077525724738836
1780097594898899000,1.99889892578125,-0.7779496814645827,5.064387668615579,-1.3652455659091471
1780097594908893000,2.008892822265625,-3.1614602901279922,3.987761183916032,-2.499040921768546
1780097594918887000,2.018886962890625,-3.7769548257052894,5.634049842822551,-2.942069351184368
1780097594928881000,2.028880859375,-3.426342229658365,6.929953576958179,-1.4559049109995363
1780097594938875000,2.038875,-2.4771838947474953,6.213362473428249,0.06492167724370956
1780097594948868900,2.048868896484375,-1.2497421408109366,6.060238781118392,-2.4183242940217253
1780097594958861800,2.05886181640625,-2.183593747127056,4.880791681152582,-5.4087908886283635
1780097594968855800,2.068855712890625,-1.8093457162097095,2.2302035226106645,-8.50950123423934
1780097594978849800,2.078849853515625,-1.0919140702024102,-0.08623159177601337,-11.400823564004897
1780097594988844000,2.088843994140625,-0.3076818013370037,-1.4681599969387054,-12.06043664277196
1780097594998838000,2.098838134765625,-0.8125918096482754,-2.819210448756814,-11.667363207614422
1780097595008832000,2.10883203125,-0.6499331040129065,-4.925979899400472,-11.22075107449293
1780097595018826000,2.118825927734375,-0.9233619226142764,-6.656853844180703,-10.409427677345276
1780097595028819700,2.12881982421875,-6.928688671588898,-8.87479818919897,-11.598188549101351
1780097595038814000,2.13881396484375,-6.557423163613676,-9.836846400821209,-12.653339407312869
1780097595048808000,2.148807861328125,1.1800573408186434,-8.753762410545349,-12.398583724999426
1780097595058802000,2.158802001953125,4.623973805612326,-11.917111875420808,-12.630806088465452
1780097595068796000,2.1687958984375,5.536916333281994,-15.541319440913199,-13.938375710475444
1780097595078789000,2.1787890625,7.597401587134599,-14.065418036067484,-12.418501892912387
1780097595088782800,2.188782958984375,6.000109014326334,-13.943182818496226,-8.895561575764416
1780097595098776800,2.19877685546875,4.485696969300508,-13.036825514435767,-4.504046864983439
1780097595108770800,2.208770751953125,4.637522438493371,-12.366098336458206,-2.380627892833948
1780097595118764800,2.218764892578125,5.09420822186172,-12.100892571800946,-1.304045539537072
1780097595128758800,2.2287587890625,9.66386357730925,-11.097556071978806,-0.39343934586048124
1780097595138753000,2.2387529296875,12.136342655366658,-13.660940578842162,-2.3746125780671834
1780097595148747000,2.2487470703125,11.47085045543313,-16.279571756631135,-2.810735465878248
1780097595158741000,2.258740966796875,8.544397775575518,-14.519458273363112,-1.0852549045741557
1780097595168734700,2.268734619140625,6.995607660129666,-8.496821200886368,-0.1442792915970087
1780097595178728700,2.278728759765625,2.273981289538741,-0.6783966896921396,0.3038216187775135
1780097595188722000,2.288721923828125,-4.525294235673546,0.9759925658226013,0.4769347906708717
1780097595198716000,2.2987158203125,-6.104678811347484,-0.12744096952080725,-3.3272681074440476
1780097595208710000,2.3087099609375,-5.268876806503534,-1.362782390666008,-8.148240987449883
1780097595218704000,2.318703857421875,-3.7408874870240685,1.88374921528697,-6.601220219764113
1780097595228697900,2.32869775390625,-2.6536978149950503,3.851300749376416,-7.947408033981919
1780097595238691800,2.33869189453125,-6.864235780900716,5.530848411545157,-6.237117443025112
1780097595248685800,2.348685791015625,-6.113464175349473,10.24826564000845,-2.8142466888695954
1780097595258679800,2.3586796875,0.0869872324489057,17.671150033670664,7.846294514894485
1780097595268673800,2.368673828125,-4.848818333786726,13.037197270357607,8.993889263525604
1780097595278668000,2.37866796875,-4.999250887316465,13.004925816828012,8.93511149586439
1780097595288662000,2.388662109375,-5.104083719187974,12.95979838885665,8.87078836903572
1780097595298654700,2.39865478515625,1.64991474044919,12.034257076376676,1.7428870386570692
1780097595308648700,2.408648681640625,-0.08098799203410745,8.675106222459673,-3.693398006096482
1780097595318643000,2.418642822265625,0.2214075394630432,8.419358606499433,-5.057926948168873
1780097595328637000,2.428636962890625,1.181559562075138,5.2510173246860505,-6.205055248332023
1780097595338631000,2.438630859375,1.6027495230399071,2.124916517230868,-7.753304681029915
1780097595348625000,2.448625,5.548100575119257,1.4008669143885373,-6.193784497255087
1780097595358619000,2.458618896484375,5.520863024103641,0.8278665356695651,-2.414543021917343
1780097595368613000,2.468613037109375,-0.14731358125898986,1.9435604176491499,-1.0594774892389773
1780097595378606800,2.47860693359375,-4.67816132287383,0.9371662838220596,-4.010638493895531
1780097595388600800,2.488600830078125,3.0092963827610015,0.8243962292104959,-3.399982630521059
1780097595398593800,2.49859375,3.4289690710306164,-1.3956728528767823,-1.6159733078807592
1780097595408588000,2.508588134765625,1.6026923860251903,-3.2064772434622046,-0.1391588798433542
1780097595418582000,2.51858203125,2.825030533212423,-3.6816999695181845,0.3325049846872687
1780097595428576000,2.528575927734375,2.281582996714115,-4.369703860989213,-1.9847379389509558
1780097595438569700,2.53856982421875,2.288276941394806,-5.865246954894065,-3.481690022870898
1780097595448563700,2.548563720703125,1.617062126030773,-7.713585834103823,-3.479328846697509
1780097595458558000,2.558557861328125,-0.07561024451851844,-8.404214813381433,-3.6760520267590877
1780097595468551200,2.56855126953125,-1.1062158595383167,-8.662796191462874,-3.78851725320518
1780097595478545200,2.578545166015625,-2.1653858902633187,-9.610938042807579,-4.462653655104339
1780097595488539100,2.5885390625,-2.577974173229933,-10.024788893055915,-4.690235499288142
1780097595498532000,2.598531982421875,-1.918240682953596,-8.501458797559142,-3.2821891947895288
1780097595508526000,2.608526123046875,-0.7160359538652002,-6.5293222737669945,-2.461082362513244
1780097595518520000,2.61852001953125,1.621926663327217,-6.184767662584782,-1.7544456667646764
1780097595528514000,2.62851416015625,3.393462873363495,-6.204495276361704,-1.1329933918267487
1780097595538508300,2.63850830078125,4.655841939038038,-6.381308471816777,-1.165704990339279
1780097595548502300,2.648502197265625,4.918044430226087,-6.449354418560862,-1.8180884101137518
1780097595558496300,2.658496337890625,3.8237797052443026,-6.304443843322992,-2.098157397381961
1780097595568490000,2.668489990234375,3.047909898793697,-6.6046122002899645,-1.8963848249763249
1780097595578484000,2.67848388671875,2.300457208532095,-6.087867377278209,-1.6301818659752607
1780097595588478200,2.688478271484375,2.004137343686819,-4.889724929192662,-1.5191314747631548
1780097595598471200,2.69847119140625,2.2951333831608296,-3.5798423540651796,-2.448411096988618
1780097595608465200,2.708465087890625,1.1243394721847026,-3.1810815209209915,-3.4183111911550164
1780097595618459100,2.718459228515625,-0.5370376694560051,-3.4650147824019193,-1.9269845459014177
1780097595628453400,2.728453369140625,-0.9597802666902542,-3.0333459513902663,0.05646130741238594
1780097595638447000,2.738447021484375,-1.8098073423720895,0.15596972939074039,0.4596452176958322
1780097595648441000,2.748441162109375,-3.209434339702129,6.238949919149279,-0.8337830662369727
1780097595658435000,2.75843505859375,-6.229088450348377,9.312621451187134,-2.2081430819720027
1780097595668429000,2.768428955078125,-8.481293376886844,9.87541081701517,-3.9731548586755987
1780097595678423000,2.778423095703125,-9.447609767347574,9.438415238022804,-4.6745799572557205
1780097595688417300,2.788417236328125,-8.642004163324833,8.096854499083756,-3.0672792006522416
1780097595698410000,2.798409912109375,-6.664959409224987,6.10681348528862,-1.266461951074004
1780097595708404000,2.808404052734375,-2.2553975850999355,3.6900212231397624,-0.7477227393746375
1780097595718398200,2.818398193359375,5.820915061214566,5.535511142659187,-4.046281469684839
1780097595728392200,2.82839208984375,40.349606835341454,19.473234526705742,-12.539302693766356
1780097595738386200,2.83838623046875,29.683382325243947,31.515496045839786,-17.902921146237848
1780097595748380200,2.848380126953125,5.351797081774473,23.23411149331331,-12.168209619748591
1780097595758374100,2.8583740234375,3.5391780429825186,17.842182307636737,-7.356178755611181
1780097595768368000,2.8683681640625,-1.5462456916600464,11.852595856368541,-1.569949223330617
1780097595778362000,2.878362060546875,-6.195078628718853,6.381822851079702,0.7681675615102053
1780097595788356000,2.888356201171875,-8.39484142035842,0.23900398643016812,0.6114186644405126
1780097595798349000,2.89834912109375,-8.199930842676759,-4.292028500634432,0.9275164119452237
1780097595808343300,2.90834326171875,-5.78409135120809,-5.105242241573333,3.2041783188700674
1780097595818337300,2.918337158203125,-3.6556045742750167,-5.18143466989398,5.772897757020592
1780097595828331300,2.928331298828125,-2.5102701717913147,-5.656532308265566,7.155525834885239
1780097595838325000,2.938324951171875,-2.5255416829422113,-8.13606948814094,6.85048490344584
1780097595848319000,2.948319091796875,-3.1703847703397274,-18.677875591409205,5.499017102998494
1780097595858313000,2.95831298828125,-5.240571918517351,-24.33191374477148,1.4661720379918812
1780097595868307200,2.96830712890625,-2.9055788186550138,-17.773250810229776,2.0264906297922134
1780097595878301200,2.97830126953125,-4.630034128564596,-8.971630085444449,5.9788423544138665
1780097595888294100,2.988294189453125,-6.693982090091705,-6.094385965391993,9.142950528702139
1780097595898288000,2.9982880859375,-5.063557647532225,-4.954757081073522,10.142105943447351
1780097595908282000,3.0082822265625,-2.0919792932689187,-5.689948840177059,9.752889768239855
1780097595918276000,3.018276123046875,2.9721733975470066,-7.721800704741478,10.039573789733648
1780097595928270000,3.02827001953125,8.512377081936597,-8.910770835334063,10.906844115030765
1780097595938264000,3.03826416015625,3.9442216096580025,-9.287515651503204,8.21512958085239
1780097595948258000,3.048258056640625,0.08925269316285848,-9.10689897211194,6.529847174423932
1780097595958252300,3.058252197265625,-4.0372587897956365,-7.011114441341161,7.588138668748736
1780097595968246300,3.068246337890625,-4.005668888789415,-4.885154552537203,7.916738754951953
1780097595978239000,3.078239013671875,-3.5004455767452716,-3.2916450053989887,6.8483928996026515
1780097595988233200,3.088233154296875,2.905013001465797,3.8767894108980894,8.72671541366577
1780097595998227200,3.098227294921875,29.58221795275211,19.451838687455652,11.126116980552673
1780097596008221200,3.10822119140625,2.715734292191267,12.548773117423057,1.7515025990501045
1780097596018215200,3.118215087890625,-20.393697513008117,7.537867448148131,3.2802064965397117
1780097596028209200,3.128209228515625,-12.50173196478486,14.286984565484524,2.7756805191099643
1780097596038203100,3.138203125,-7.360008543032407,12.610671647453307,0.34027328060120343
1780097596048197000,3.148197021484375,-0.5196703550696372,13.416446762824057,0.47233168078958987
1780097596058191000,3.158191162109375,-0.006532598372828215,11.050489200377463,-0.523555672070384
1780097596068184000,3.16818408203125,-3.4063223549365995,6.999772378593683,0.15626491294503211
1780097596078178000,3.178177978515625,-3.25728914681077,4.021977049511671,1.4254063123613596
1780097596088172300,3.18817236328125,-2.7797639890313146,2.961243422731757,1.453967805457115
1780097596098166300,3.198166259765625,-2.7350866429150105,4.841703533345461,1.7320044101148844
1780097596108160300,3.20816015625,-5.464350278764963,4.690494734746218,1.0450437440864742
1780097596118154000,3.218154052734375,-6.938444341927767,4.127152995732426,-0.07479293678626418
1780097596128148000,3.22814794921875,-6.874575973129272,5.694297098514437,-1.3220466217823326
1780097596138142200,3.23814208984375,-6.021117900085449,6.785197315499186,-2.5762366819128393
1780097596148136200,3.24813623046875,-4.558966788172722,8.45321411435008,-3.6127895148992537
1780097596158129200,3.258129150390625,-4.32302745001018,8.803732017850875,-5.048226222887635
1780097596168123100,3.268123046875,-2.257563823223114,8.581605516463517,-6.377938118600845
1780097596178117000,3.2781171875,8.410918694934248,10.27843865995407,-7.246030281674861
1780097596188111000,3.288111083984375,24.96646369395256,12.138174546968937,-8.435601885291934
1780097596198105000,3.29810498046875,13.883100982499121,9.264916866204143,-10.167729045003652
1780097596208099000,3.30809912109375,-0.7145610590070486,4.6868519943296905,-11.537249804013967
1780097596218093000,3.318093017578125,1.752753183633089,4.906546300134062,-8.887329169470071
1780097596228087300,3.32808740234375,7.565068174284696,4.719197682139277,-4.229985009175539
1780097596238080000,3.338080078125,9.938573083370924,3.020921354103088,-0.15302276181918567
1780097596248074000,3.348073974609375,7.122859244558215,-0.5328729509919882,-1.174794159593433
1780097596258068000,3.35806787109375,3.786816879028082,-3.8702094479858875,-4.100534161137044
1780097596268062200,3.368062255859375,2.4114064774572848,-6.466810580274462,-5.631764362233877
1780097596278056200,3.37805615234375,2.9952222647011277,-8.82867707401514,-6.78545041347742
1780097596288050200,3.38805029296875,4.124730152499676,-11.153442209851741,-7.744298367753625
1780097596298044200,3.398044189453125,4.434873375514149,-12.616236295843123,-8.555177528265117
1780097596308038100,3.4080380859375,4.005430988380312,-13.17108200919032,-8.646548821017145
1780097596318031000,3.418031005859375,4.82342787194252,-12.520651769310236,-7.373465990498661
1780097596328025000,3.428025146484375,4.903068394890427,-11.61768118507862,-4.798857494309544
1780097596338019000,3.43801904296875,3.9722903508007525,-12.28468145148754,-2.881019839198887
1780097596348013000,3.448012939453125,12.97536888295412,-23.133248734116552,-1.0161085953727365
1780097596358007300,3.45800732421875,-2.84775206810832,-23.347716829705238,-10.435974323487281
1780097596368001300,3.468001220703125,-14.502829794645308,-14.830361959356068,-16.56164682302475
1780097596377995300,3.477995361328125,1.1467302407562732,-7.469882876202464,-9.421373502328992
1780097596387989000,3.487989013671875,7.70107472757697,-1.0004875401318072,-3.0084283677548167
1780097596397983000,3.49798291015625,4.916744453543425,2.0964315965026614,-1.3208312546432017
1780097596407976200,3.50797607421875,-2.7988638262987133,6.630881198534369,-0.718756464870274
1780097596417970200,3.51797021484375,-3.717706517922878,9.175706550878285,0.15641308924406766
1780097596427964200,3.527964111328125,-2.07955104271993,10.567488241535425,-0.35428777742832895
1780097596437958100,3.537958251953125,-4.570365257282555,16.316575499379635,-1.229329905770719
1780097596447952100,3.5479521484375,-2.0974248453237117,24.692874716353415,-1.3265852881252764
1780097596457946000,3.557946044921875,6.0607566675126545,34.64769400112629,-2.5249749889701603
1780097596467940000,3.567940185546875,10.71388057976365,41.33548015918731,-5.513954559889435
1780097596477934600,3.5779345703125,1.4462005324564873,27.90638434267044,-9.340242448562384
1780097596487927600,3.587927490234375,-2.494149058073759,5.133462373885512,-4.636574343988299
1780097596497921800,3.597921875,-1.6235741382732987,-1.7400865942835806,-1.5942419530659913
1780097596507915800,3.607915771484375,-0.2621208042539656,0.9881038593769073,0.36717093213796614
1780097596517909800,3.61790966796875,2.518543494617939,6.8510366921097035,-0.05902852755188941
1780097596527903700,3.62790380859375,2.349934502276033,6.875479643970728,0.04044540763497352
1780097596537897500,3.6378974609375,1.5246075680866837,3.662016194882989,0.9193599934965372
1780097596547891700,3.6478916015625,-0.09583207155317068,1.7967010464310644,2.03378897010684
1780097596557885700,3.6578857421875,-1.622031000484526,0.5646656810939311,2.2402684050291777
1780097596567878700,3.667878662109375,-3.0084906193360683,-0.5602566324800252,2.5904081228673457
1780097596577872600,3.67787255859375,-3.6166122880578038,-2.181484207627177,3.616587738138437
1780097596587867000,3.687866943359375,-3.1217557639881965,-4.61725063483715,5.134354354289174
1780097596597860600,3.697860595703125,-4.197501081939041,-7.898828419730067,6.560695901674031
1780097596607854600,3.7078544921875,-5.27559763919115,-8.14116067380011,8.67897108119428
1780097596617848600,3.7178486328125,-6.278667597031593,-8.31630330569446,10.83516068856716
1780097596627842600,3.727842529296875,-8.331993626779317,-8.064220641982555,12.97324122327566
1780097596637836800,3.7378369140625,-10.739548104983568,-9.135056560581923,12.136626733005047
1780097596647829800,3.747829833984375,-9.348709832656382,-9.424198496621846,9.09608414810896
1780097596657823700,3.75782373046875,-4.541089770698547,-8.134269745242594,7.3709519618511194
1780097596667817500,3.7678173828125,4.295110100036859,-7.658894458973407,6.978085447442531
1780097596677811700,3.777811767578125,11.938232989382744,-7.646931633979082,2.8933763396859167
1780097596687805700,3.7878056640625,9.032008858561515,-7.300903443112969,-2.950821981960535
1780097596697799700,3.797799560546875,1.973765586298704,-6.959816215780377,-6.241780174139142
1780097596707793700,3.807793701171875,-4.1274107698857785,-5.998301672643422,-8.639839094245433
1780097596717787600,3.81778759765625,-7.992104669320583,-3.3295641094267365,-7.554051690229773
1780097596727780600,3.827780517578125,-9.055113839817047,-1.93742410685122,-2.8274656514048573
1780097596737774600,3.837774658203125,-5.281597171866894,0.960852864357829,3.4468221231073137
1780097596747768600,3.8477685546875,10.288866530466079,-0.60728317207098,11.853144137901067
1780097596757762600,3.857762451171875,21.82294004253149,7.735143001395463,21.18186682906151
1780097596767756800,3.8677568359375,5.780546810469031,15.24106925088167,12.135306882578133
1780097596777750800,3.877750732421875,-5.327620087373257,18.392925846362115,-0.7400374455690384
1780097596787744800,3.887744873046875,-3.6829818260222673,21.244349880981446,-4.028106930568814
1780097596797738800,3.89773876953125,-1.3859393943697214,1.308687812384963,-6.438235058653354
1780097596807731700,3.907731689453125,-6.405708753579854,-6.73705433909893,-3.737705349856615
1780097596817725700,3.9177255859375,-4.257926324546337,-0.8531430157452822,6.860412423220277
1780097596827719700,3.9277197265625,-3.8499195241510864,5.962278173103928,13.285789753866196
1780097596837713700,3.937713623046875,3.6522359746247526,13.342862471175193,12.016316930538416
1780097596847707600,3.947707763671875,2.4865111105412243,12.353028427004814,7.250012044787407
1780097596857702000,3.957701904296875,0.32752456592619417,10.102768789315222,0.49413843892812725
1780097596867695600,3.967695556640625,-0.24058394909799097,9.968857162475585,-4.510333397907019
1780097596877689600,3.977689697265625,-2.2293811003118753,10.89986024749279,-7.041493212991952
1780097596887682600,3.9876826171875,-3.7483044852823015,11.841190665256976,-7.116078206115961
1780097596897676800,3.9976767578125,-4.998630125069618,11.29179152687788,-6.796947374525666
1780097596907670800,4.0076708984375,-4.4527913095206015,9.173521023532748,-10.416079536449908
1780097596917664800,4.017664794921875,-4.601379111966491,7.486379252973198,-12.720318601608275
1780097596927658800,4.02765869140625,-4.015898021858931,5.521657973873615,-11.974468670368195
1780097596937652500,4.037652587890625,-2.1743431037008762,3.2415713531970978,-10.41161729634404
1780097596947646700,4.047646728515625,1.6827829908281564,1.1293138265311717,-8.476833474868535
1780097596957639700,4.0576396484375,7.6724857619524,-0.9397077849984169,-7.403366038721799
1780097596967633700,4.067633544921875,11.971049217313528,-3.004977350518107,-6.76954323477149
1780097596977627600,4.077627685546875,14.218780213308333,-5.288237925055623,-7.68977358136177
1780097596987622000,4.087621826171875,12.813030787575244,-7.07864951595366,-8.927997864466905
1780097596997615600,4.09761572265625,6.311994112572074,-8.405956688612699,-8.54710002027154
1780097597007609600,4.107609619140625,-0.04992752172946929,-9.398374904057382,-7.333140994372964
1780097597017603600,4.117603515625,-1.4731687650114298,-10.398747293376921,-5.222077061405778
1780097597027597600,4.12759765625,-1.0697936430048196,-10.905355922299623,-2.7682945005118844
1780097597037590800,4.1375908203125,0.567176202610135,-11.224767908918857,-1.693924416437
1780097597047584800,4.147584716796875,4.491235314205289,-11.454599577856063,-1.557632470332086
1780097597057578500,4.15757861328125,5.7660606044769285,-13.083086914873123,-3.3591026308611034
1780097597067572500,4.167572509765625,6.277544730481505,-12.78907240436077,-5.344387682300805
1780097597077566700,4.177566650390625,7.320794138497114,-13.443098622906207,-6.9576540693104265
1780097597087560700,4.187560791015625,8.270361054208875,-12.613935617685318,-8.708470147401094
1780097597097554700,4.1975546875,8.023948837348819,-9.724918057730793,-8.53663474035859
1780097597107547600,4.207547607421875,3.8320401685893533,-6.891469240263104,-5.594960525971651
1780097597117542000,4.2175419921875,-1.1843296113103627,-4.066150537759065,-1.4879282349869607
1780097597127535600,4.22753564453125,-4.482687266090512,-1.4548878429114818,1.235295828437805
1780097597137529600,4.237529541015625,-4.265826722407341,1.7487088766783474,3.245828426119685
1780097597147523600,4.247523681640625,-0.4515676731696352,3.287100932228565,3.344047392809391
1780097597157517600,4.257517578125,4.250532122641801,5.766120225709677,4.356441351573169
1780097597167511800,4.26751171875,8.664750248140097,10.519168155002593,2.8385420489534736
1780097597177505800,4.277505859375,6.96872608294487,17.937272328650952,-6.710242320019006
1780097597187498500,4.28749853515625,0.5958521158657968,19.413978035616875,-13.307634505927561
1780097597197492500,4.297492431640625,-3.5420857471227642,14.494637135839461,-13.449466404372453
1780097597207486700,4.30748681640625,0.8393843933753669,17.505549137103557,-8.116890155896543
1780097597217480700,4.317480712890625,4.509972163379192,17.74788489830494,-1.833746874755621
1780097597227474700,4.327474609375,3.9896868912816044,16.98304385086894,2.5992086844384668
1780097597237468700,4.33746875,3.177052996057272,15.100192461204529,4.957718853488564
1780097597247462700,4.347462646484375,2.048349702639878,12.005944005084038,4.541118996793031
1780097597257455600,4.35745556640625,1.405895263944566,8.174756069409847,2.3824510166078805
1780097597267449600,4.36744970703125,1.0226225073114037,6.110594757393002,0.18175123637914656
1780097597277443600,4.377443603515625,-0.19921558139920234,4.276147040891647,-1.3654390426546335
1780097597287437600,4.3874375,-1.5210393542110918,1.7801976553976535,-2.1836182970464226
1780097597297431800,4.397431884765625,-1.9948358468562364,-0.3141384301304817,-2.0728817940890787
1780097597307425800,4.40742578125,-2.027110515256226,-2.119958018040657,-1.3550626100689172
1780097597317419800,4.417419677734375,-2.8548247829735276,-3.4433804582208394,0.2641629776060581
1780097597327412500,4.42741259765625,-5.330004936683178,-4.526760216572881,1.6685849541276692
1780097597337406700,4.43740673828125,-6.9943059298813335,-4.736960133323073,4.3883992091089485
1780097597347400700,4.447400634765625,-7.402055540645122,-5.449405223089456,6.8248091949194665
1780097597357394700,4.457394775390625,-7.790706483185291,-6.486591385543346,7.523945890301466
1780097597367388700,4.467388671875,-7.686534161049127,-6.935663186776638,7.779605827978253
1780097597377382700,4.477382568359375,-7.042866839432716,-7.830288551989197,7.746458760657906
1780097597387377000,4.487376953125,-5.468122783041,-8.575609490919113,8.307094163322448
1780097597397370600,4.49737060546875,-4.43226962275654,-8.230524718382954,9.441321480858326
1780097597407363600,4.507363525390625,-4.321604723730683,-7.1902809219241135,10.645523082852362
1780097597417357600,4.517357666015625,-3.2053213514253494,-6.604529782703518,11.619400848478078
1780097597427351800,4.527351806640625,1.3166077917292713,-6.6597261847466225,12.91757369658947
1780097597437345800,4.537345703125,7.6709835406959055,-7.2669029738336794,11.72596269609928
1780097597447339800,4.54733984375,9.14904767653346,-7.974136466431617,6.5990054663240905
1780097597457333500,4.55733349609375,2.366900980776548,-7.261302669608592,-0.6006663842797278
1780097597467326700,4.56732666015625,-6.923209947916865,-5.695049962708354,-6.538331509652734
1780097597477320200,4.5773203125,-13.124938682174681,-3.145830759319663,-8.343800968950987
1780097597487314200,4.587314208984375,-11.639805338603258,-1.9934943691194056,-6.036677872788906
1780097597497308200,4.59730810546875,7.401489723455906,0.2173684932053089,-1.0560007530391216
1780097597507302400,4.607302490234375,22.03898400913477,6.763374775269627,6.450934381228685
1780097597517296400,4.61729638671875,9.20999577397108,5.879895073449611,4.280893943157792
1780097597527290400,4.627290283203125,-1.6078806023180483,6.531984770974517,3.749782741141319
1780097597537284400,4.637284423828125,-10.134179826623201,8.92315685417652,7.927810184064507
1780097597547277300,4.64727734375,-11.072243936067819,11.566180130422115,2.4737819773495198
1780097597557271300,4.657271240234375,-12.6853595164299,11.302580631917714,-0.21913959453105925
1780097597567265300,4.667265380859375,-10.736115792447327,11.127723246705532,1.2332745517432688
1780097597577259300,4.67725927734375,-0.4544435573995113,11.698467955452204,2.8711224223017693
1780097597587253200,4.687253173828125,11.197741954827308,9.469364503037928,3.9896296081364153
1780097597597247500,4.69724755859375,7.042564057093858,7.205167525410651,2.4541782822132108
1780097597607241500,4.707241455078125,0.9052512425146997,6.744148681274056,-1.1624147166222334
1780097597617234200,4.717234130859375,-2.7162802356362343,8.159379052057862,-3.8947278031706807
1780097597627228200,4.727228271484375,-5.758441946166753,7.9369854241669175,-4.9083407823354
1780097597637222400,4.737222412109375,-5.376581978940964,7.357998956775665,-4.807922259774804
1780097597647216400,4.74721630859375,-3.3417093052506446,7.4465627908915275,-3.713577455294132
1780097597657210400,4.75721044921875,-0.6193873782973737,6.277681508603692,-3.335104207897186
1780097597667204400,4.767204345703125,2.555802088910341,4.214858751714229,-5.016696527636051
1780097597677197300,4.777197265625,3.3591596217453477,2.6566233470529315,-6.810617003437876
1780097597687191300,4.78719140625,2.960132246619463,1.8513082504093645,-8.347205224436522
1780097597697185300,4.797185302734375,2.5713632306575773,0.6800584854245185,-10.06303065316677
1780097597707179300,4.80717919921875,3.4116286446511745,-0.0762000271052122,-12.315175958472489
1780097597717173200,4.81717333984375,4.997603120109439,-1.7934417523741721,-12.927413538080453
1780097597727167500,4.82716748046875,5.804515715077519,-4.285446199634671,-12.159156544721126
1780097597737161500,4.837161376953125,7.065647411039471,-6.118403969839215,-9.868312383186817
1780097597747154200,4.847154296875,6.254608091530203,-7.698958758336305,-7.595358098608255
1780097597757148200,4.857148193359375,3.335900911232829,-8.858979857820271,-6.008468846392631
1780097597767142400,4.867142333984375,1.6591788278788326,-9.323978126981855,-3.9550817341074347
1780097597777136400,4.877136474609375,1.9154642039775847,-10.466275938248634,-2.940914628191292
1780097597787130400,4.88713037109375,1.8602233782708644,-12.430650595867633,-2.601170924422145
1780097597797124400,4.897124267578125,2.193905882304907,-13.461733180749416,-2.9883094165727493
1780097597807118300,4.907118408203125,2.8302485601216554,-13.309829970145225,-3.480813240036368
1780097597817111300,4.917111328125,4.10939288263619,-12.737744368183613,-3.216669259391725
1780097597827105300,4.927105224609375,6.377305665916204,-11.77009059163928,-2.7045541420072317
1780097597837099300,4.937099365234375,7.174604629364609,-10.358871210062503,-3.1403368380784986
1780097597847093200,4.94709326171875,5.007605458685755,-8.349133562150596,-2.907348750936985
1780097597857087500,4.95708740234375,1.8634575378865001,-6.4862792508542535,-1.1725500339284538
1780097597867081500,4.96708154296875,-0.059247120472323146,-4.541660848584771,0.11322685846835374
1780097597877074200,4.97707421875,-2.2109224835574626,-2.0920342383265496,-0.030680384945869443
1780097597887068200,4.987068115234375,-4.344019384634494,0.9161626587599515,-0.2951619269818067
1780097597897062400,4.9970625,-4.531440483343601,5.459630849027634,1.0753487198486924
1780097597907056400,5.007056396484375,-1.653041786428541,11.427323448395729,3.3348744907945393
1780097597917050400,5.01705029296875,1.077520510929823,14.367040683495997,2.4058564421147106
1780097597927044400,5.02704443359375,2.9555016642093657,17.900740879589318,-3.007432342454791
1780097597937038300,5.037038330078125,0.8720917541041969,15.091118343389033,-10.489750337338448
1780097597947031300,5.04703125,1.823200784691423,16.358658737349508,-12.836299434959887
1780097597957025300,5.057025390625,4.413533065843582,17.52207006379366,-10.99036995497942
1780097597967019300,5.067019287109375,2.8858386376574634,16.336998694205285,-7.128467147567868
1780097597977013200,5.07701318359375,0.6556023818209767,15.925340970087051,-3.5893022563278674
1780097597987007500,5.087007568359375,1.1104019130513072,15.889071386831997,0.27008184626102444
1780097597997001500,5.09700146484375,1.5248843392014502,13.184178806650637,3.034771600279212
1780097598006994200,5.106994140625,2.178283950281143,8.610355225607753,2.8087615354567763
1780097598016988200,5.11698828125,2.521454121367633,6.815152308779955,2.8195559011936187
1780097598026982400,5.126982421875,1.3526581792756913,5.5136845107764,2.953654575037956
1780097598036976400,5.136976318359375,-0.6430278546690941,3.512469776538014,2.2731600362837314
1780097598046970400,5.146970458984375,-2.525393798904121,1.089150742968917,0.654314972358942
1780097598056964400,5.15696435546875,-3.3494474982872604,-0.9419698847115039,-0.6744914989471436
1780097598066957300,5.166957275390625,-3.394113446226716,-3.306080942508578,-1.4256827912151813
1780097598076951300,5.176951416015625,-3.5854070024549958,-4.952403211423754,-0.2541191379755735
1780097598086945300,5.1869453125,-4.329166975678503,-6.050062839540839,1.7168886740475893
1780097598096939300,5.196939208984375,-4.996255797153711,-6.968287691527605,3.793232006767392
1780097598106933200,5.206933349609375,-5.551640439683198,-7.832879737526178,6.273583425635099
1780097598116927500,5.216927490234375,-6.356384458440542,-8.491087625670433,8.02569831136465
1780097598126921500,5.22692138671875,-7.247041504544019,-8.337978546407818,10.109406619894504
1780097598136914200,5.2369140625,-6.650215429079532,-8.396676819092034,12.25268004707098
1780097598146908200,5.246908203125,-4.307928665077686,-8.689134747812151,13.230751172733306
1780097598156902400,5.25690234375,-1.434426361902058,-7.997715494939684,13.289506144040823
1780097598166896400,5.266896484375,0.7655573790118098,-8.151836966115235,11.623243495380878
1780097598176890400,5.276890380859375,2.189185283523798,-7.720163458928465,9.182927734303474
1780097598186884400,5.28688427734375,1.7241183330401777,-8.164847838857769,5.714005423069
1780097598196877300,5.296877197265625,0.6348734820470213,-7.819327597513794,1.7234066776394843
1780097598206871300,5.306871337890625,-1.1638286750733853,-6.624604017961025,-1.441864110687375
1780097598216865300,5.316865234375,-4.478639159743487,-5.900054064381123,-4.447428321182728
1780097598226859300,5.326859375,-7.654558475595712,-4.29245987778902,-5.396857874250411
1780097598236853200,5.336853271484375,-9.98141853788495,-3.0446605416089296,-3.624382922059297
1780097598246846200,5.34684619140625,-7.888999684154987,-2.6362819852918387,0.22991057939231394
1780097598256840200,5.356840087890625,0.26548633516430853,-2.945399956911802,5.079822553634643
1780097598266834200,5.366834228515625,16.687115615689752,-2.687275674948096,10.96804706401229
1780097598276828400,5.376828369140625,23.014997617745397,2.5340420925229785,14.331829084861278
1780097598286822400,5.386822509765625,13.36918349186778,10.630810666888951,5.56888909612596
1780097598296816400,5.39681640625,-7.128290037435293,9.65276526018977,-3.840670049768686
1780097598306809300,5.406809326171875,-18.546113836079837,5.77954201734066,0.3537228370219469
1780097598316803300,5.41680322265625,-15.909344944053887,11.36920560594797,1.7294798600733279
1780097598326797300,5.42679736328125,-14.175774599796533,14.62783915310502,0.04895429278314113
1780097598336791300,5.436791259765625,-9.994317766946553,8.916212149605155,-0.18237959741055965
1780097598346785300,5.446785400390625,-6.394269660198688,6.964145769417286,2.467386138832569
1780097598356779300,5.456779296875,-1.3455872179761528,9.048686437118054,5.670726253312826
1780097598366772500,5.4667724609375,2.872422398984432,11.548366241312026,5.977239595392346
1780097598376766200,5.47676611328125,4.193250146496296,10.122566545718907,2.5768893006026743
1780097598386760200,5.48676025390625,4.314439069885015,8.011657511052489,-3.300877528646588
1780097598396754200,5.496754150390625,1.333088532539457,6.62925798124671,-6.557894288256764
1780097598406748400,5.50674853515625,-0.7086405829168856,6.807544171863794,-6.01665799806714
1780097598416742400,5.516742431640625,-0.6762662535347044,7.099598780480027,-4.381068720090389
1780097598426735400,5.5267353515625,-1.7493923288978634,6.637287558445334,-3.3277503380030393
1780097598436729000,5.53672900390625,-1.9600281528472898,6.210919171929359,-3.3209374431177974
1780097598446723300,5.546723388671875,-1.6231589816011487,5.29557250572741,-5.61905685635209
1780097598456717300,5.55671728515625,-0.13139357960410417,2.833294503688812,-8.31587251306176
1780097598466711300,5.566711181640625,2.553198628413677,1.130665241140127,-10.586883846879005
1780097598476705500,5.57670556640625,4.64203670104742,0.01593231314718723,-11.791150915324687
1780097598486698800,5.58669873046875,7.183012976747751,-0.767768917581439,-10.962584122431277
1780097598496692700,5.596692626953125,9.968732074791193,-2.44977858594954,-9.549750875917077
1780097598506686700,5.606686767578125,10.514068786036967,-4.826697687393427,-7.303601011633873
1780097598516680700,5.6166806640625,7.479145210066437,-6.665557959640026,-5.540098470449447
1780097598526674700,5.6266748046875,3.904274214673042,-8.494776543316245,-6.159445005279779
1780097598536668400,5.63666845703125,2.0339210720539094,-9.637301733598113,-6.76661419558227
1780097598546661600,5.64666162109375,0.6572948649525642,-10.004896444106102,-6.064601652503013
1780097598556655600,5.656655517578125,-0.7902484604150056,-10.381597421133518,-4.521434053114056
1780097598566649600,5.666649658203125,-1.9790946723669767,-10.259792411673068,-3.4427819078058004
1780097598576643600,5.6766435546875,-1.34386726231575,-10.695862107992172,-2.8379613264560697
1780097598586637800,5.686637939453125,0.5799351464182139,-11.582121211397647,-2.127005598464608
1780097598596630500,5.696630615234375,3.38729850551486,-11.45898816820383,-0.896211757621169
1780097598606624500,5.70662451171875,7.234905076548457,-11.116139191895723,-0.2732785964757204
1780097598616618800,5.71661865234375,9.604249943345785,-10.466254895460605,-0.8130696562930941
1780097598626612700,5.72661279296875,7.262378189885616,-8.620890648147464,-0.9410115610733628
1780097598636606700,5.736606689453125,3.4516286466062067,-7.849966481405496,-1.024451768565178
1780097598646600700,5.7466005859375,1.6337164698421953,-5.685980521067977,-0.18002017480283974
1780097598656593700,5.75659375,-0.6624969636403024,-2.75200270640254,0.47861675240844487
1780097598666587600,5.766587646484375,-4.311428782153129,1.226338615000248,0.42841859704405066
1780097598676581600,5.77658154296875,-5.954641394615173,6.956653952357173,2.688183729703724
1780097598686575600,5.78657568359375,-4.016431982605159,11.593238817739486,5.781663247278332
1780097598696569600,5.796569580078125,0.16355770030170677,12.772200764536857,4.514940599441528
1780097598706562800,5.806562744140625,2.171027403281629,15.98203725529909,-6.020842005753517
1780097598716556500,5.816556640625,1.7898028113499282,17.08312335073352,-16.144578764295577
1780097598726550500,5.826550537109375,2.4348142410516735,16.318511435878275,-19.745719926977156
1780097598736544500,5.83654443359375,4.831385260687768,16.267453448814152,-15.207825152927636
1780097598746538800,5.846538818359375,5.940443357914686,15.625948858189583,-8.941702564692497
1780097598756532700,5.85653271484375,4.957922851628065,15.112203216993807,-4.37597461182177
1780097598766525700,5.866525634765625,4.241832683357596,13.556201270473002,-0.3446037110209465
1780097598776519400,5.87651953125,2.35200590172261,9.950203899931907,1.6155162117630242
1780097598786513700,5.886513671875,0.019474515798687933,6.772900728505849,2.75153684245646
1780097598796507600,5.896507568359375,-1.0228796969428657,5.72553102568984,2.69806711807549
1780097598806501600,5.906501708984375,-1.8963766416698693,3.704569388452172,2.0516881994128227
1780097598816494600,5.91649462890625,-3.1665573210060596,1.1864958494335411,1.7975351591676472
1780097598826488800,5.92648876953125,-3.9853427245974538,-0.8258832528978586,1.5346452702373266
1780097598836482600,5.936482666015625,-4.824039574100077,-2.7911726872742175,0.5585837308317423
1780097598846476500,5.9464765625,-4.575912370015681,-3.9555443831831214,1.360780987715721
1780097598856470500,5.956470458984375,-4.59611958400309,-4.606123091623187,3.198358234414458
1780097598866463700,5.966463623046875,-5.72946719609499,-5.081482011279464,4.564616776758432
1780097598876457700,5.976457763671875,-6.392983712041378,-5.691555690851807,5.528968004626035
1780097598886451700,5.98645166015625,-7.150417698091268,-6.490147032198309,6.119163263773918
1780097598896445700,5.99644580078125,-7.79331929603219,-7.14634825669527,6.616842736309766
1780097598906439400,6.006439453125,-7.8948823124527925,-7.505827465286851,7.5377616496860975
1780097598916433700,6.01643359375,-8.08009917911589,-7.6435285475373265,8.618694599407911
1780097598926426600,6.026426513671875,-7.895031950056552,-7.5079101167798035,9.861097044980525
1780097598936420600,6.036420654296875,-6.832669845291972,-6.896134309464693,11.665438961553573
1780097598946414600,6.04641455078125,-4.7247152765169735,-6.146391462439298,13.60663615720272
1780097598956408800,6.056408935546875,0.5662874370768666,-6.177811852097511,14.655678761667012
1780097598966402600,6.066402587890625,7.790640432211756,-7.05078594199419,12.071239776337146
1780097598976395500,6.0763955078125,9.264574920898676,-7.664531588077545,5.589084327414631
1780097598986389800,6.0863896484375,6.220749661070108,-7.907647686001658,-1.496029416117072
1780097598996383700,6.0963837890625,-0.06845569658875465,-7.418913736465573,-8.664737388658523
1780097599006377700,6.106377685546875,-7.784694675549864,-5.944428043636679,-14.836010778898
1780097599016371700,6.116371826171875,-10.853822134417294,-4.656723398047685,-14.369801964902877
1780097599026364700,6.12636474609375,-9.110002783346175,-3.8101281965106724,-7.148901448309421
1780097599036358700,6.136358642578125,-0.837978764361143,-1.7643880918473005,4.624245608291029
1780097599046352600,6.1463525390625,12.179079388809203,-1.0558803415298461,16.306180362093446
1780097599056346600,6.1563466796875,17.327925794309376,5.343803160411119,22.777478316915033
1780097599066340600,6.166340576171875,9.515265837991237,16.329030491805074,11.630659909117222
1780097599076333600,6.17633349609375,-13.818243602663278,12.772135298085212,-4.4463019475013015
1780097599086327600,6.18632763671875,-14.591811561912298,5.551420659452677,-5.5642450697124
1780097599096321500,6.196321533203125,-14.9540269174695,13.3020043910861,-6.916938612562418
1780097599106315500,6.2063154296875,-11.733872446310519,15.248920548903941,-12.761923700672387
1780097599116309800,6.216309814453125,-8.906779719871283,8.164501801899075,-12.259219677972792
1780097599126302700,6.226302734375,-4.962741650086641,7.690190345469117,-6.380785324725508
1780097599136296700,6.236296630859375,-0.5910983454674482,9.50007820573151,-0.3737298522621393
1780097599146290400,6.24629052734375,0.699739045189321,11.25870641887784,4.5295583228588105
1780097599156284700,6.25628466796875,6.353353127920627,10.220989510548113,6.192400349420309
1780097599166278700,6.266278564453125,8.380743921422958,7.731705428162217,2.5052152264893053
1780097599176271600,6.276271728515625,-0.07715805848240852,5.328281181630492,-3.2385756785124538
1780097599186265600,6.286265625,-5.1283051372528075,4.103374060738086,-5.317623009493946
1780097599196259800,6.296259765625,-4.340125299805402,4.2465334083944555,-3.815536777555942
1780097599206253600,6.306253662109375,-1.9327112529851496,4.05290059556365,-0.7756389203041791
1780097599216247600,6.31624755859375,0.5772878467798233,3.2830916965872046,0.3616930852487683
1780097599226240500,6.326240478515625,2.2856148825787006,2.6184540676563977,-0.9931915379047394
1780097599236234800,6.33623486328125,4.978928230255842,1.5918389835774898,-4.046986403083801
1780097599246228700,6.346228759765625,10.261043288516998,-0.33698446818888184,-5.865545061057806
1780097599256222700,6.35622265625,13.184358839392662,-2.7463135548502207,-5.147505512285233
1780097599266216700,6.366216796875,11.305283461135625,-4.488480462539195,-4.8278889430046075
1780097599276209700,6.376209716796875,7.340519414186478,-4.805044658511877,-4.437393249380588
1780097599286203600,6.38620361328125,3.3946529599308968,-5.437694911551475,-4.6103336950555445
1780097599296197600,6.39619775390625,0.8985574439644813,-6.56933455068171,-5.942986028134823
1780097599306191600,6.406191650390625,0.18035773619413376,-7.659141127210855,-6.458548947885632
1780097599316184800,6.416184814453125,0.04516600641608238,-8.78772313233614,-4.909690443378687
1780097599326178600,6.426178466796875,-0.12871346454150043,-9.163394766315818,-2.27651928358376
1780097599336172500,6.436172607421875,0.19843115302324293,-9.68574047807455,-0.8569783561244606
1780097599346166500,6.44616650390625,1.6226327657699584,-10.232663581728934,-1.1008631003335119
1780097599356160800,6.456160888671875,3.162645700520277,-10.781927111029624,-1.86652598554641
1780097599366153700,6.46615380859375,4.564473568895459,-10.714501342010497,-2.180116134144366
1780097599376147700,6.476147705078125,6.181666189438104,-10.63536409240961,-1.9214210665553808
1780097599386141400,6.486141357421875,6.08338818603754,-10.036126279628276,-2.943481556069851
1780097599396135700,6.4961357421875,3.433658105629682,-10.20909682818055,-4.793303367313742
1780097599406129700,6.506129638671875,1.0666390514314175,-8.810426547053456,-4.135722086635232
1780097599416122600,6.51612255859375,0.5313689031045884,-7.675661469379067,-2.4294375164493918
1780097599426116600,6.52611669921875,0.3281832490306347,-4.993501530009508,0.13402677765190601
1780097599436110800,6.53611083984375,-2.5429379311621187,-0.9295698373436927,2.24936531919837
1780097599446104600,6.5461044921875,-6.034664779400825,3.074745298749208,3.1435154681146145
1780097599456098600,6.5560986328125,-6.837344266843796,8.10011320861876,4.317220225036144
1780097599466091500,6.566091552734375,-3.2679297832906244,12.734831111085414,7.041453465503454
1780097599476089000,6.576089111328125,3.3526281741499897,13.947054691493511,7.1934478615224355
1780097599486083000,6.5860830078125,5.5525160534739495,17.78076776173115,-3.482009171822667
1780097599496077000,6.5960771484375,1.6117898847162722,19.290938515925408,-16.442876651215553
1780097599506070000,6.606070068359375,0.6553250261843204,16.884949387341738,-22.365813578534127
1780097599516064300,6.616064208984375,6.1434045555829995,15.733084706306457,-22.508034768557547
1780097599526058000,6.62605810546875,8.34707779866457,13.390171334838866,-14.31174023655653
1780097599536052000,6.636052001953125,8.770234821918606,13.076907349455356,-7.408245627456903
1780097599546046000,6.6460458984375,5.761437036329507,12.714404409128427,-0.6931810018479824
1780097599556039200,6.6560390625,2.9898610299289223,10.369310771012305,5.448274173232913
1780097599566033200,6.666033203125,1.3265689215123653,7.652725999471545,7.984062232640385
1780097599576027100,6.676027099609375,0.6744675335496664,5.269989151659607,7.789490677654743
1780097599586020900,6.686020751953125,-0.19724223549962042,3.063805971583724,7.045960713794827
1780097599596014000,6.69601416015625,-1.6259072573959827,0.8124643838763237,6.368823668774962
1780097599606008000,6.706008056640625,-2.39224292730391,-1.241866438999772,4.854819035506249
1780097599616002000,6.716001953125,-2.796089393149316,-2.7469518527537584,3.435290675267577
1780097599625996000,6.72599609375,-3.3215485607534645,-4.183590922269225,0.645806671732664
1780097599635990000,6.735989990234375,-3.780967568477988,-5.26701978046,-0.7284738490253686
1780097599645983000,6.74598291015625,-4.3614574261695145,-5.403529607099294,1.0049258148401976
1780097599655977000,6.75597705078125,-5.393832388949394,-5.758153776875138,2.918881367820501
1780097599665971000,6.765970947265625,-7.378980370005965,-6.171240072491765,4.267275752171874
1780097599675965200,6.775965087890625,-8.561695531857014,-6.153340258663892,5.287438299110532
1780097599685959200,6.785959228515625,-8.809377330261468,-6.416032579195499,5.848522614586353
1780097599695952000,6.795951904296875,-8.2593644438982,-6.90884006178081,7.105554474014044
1780097599705945900,6.80594580078125,-6.9046133839964865,-7.007279977744817,9.163220578792691
1780097599715940000,6.815940185546875,-4.271949004679918,-6.865663767877221,11.259182219696044
1780097599725934000,6.82593408203125,0.22476503319740293,-6.9265417226880786,13.220421501898764
1780097599735927000,6.835927001953125,4.669103571671247,-7.0922232832759615,12.858894713127611
1780097599745921000,6.845921142578125,6.235671335870027,-7.5163336617320775,8.361216798654198
1780097599755915300,6.855915283203125,6.961058324795961,-8.315963698476553,3.599799100422859
1780097599765909000,6.865908935546875,4.969359606921673,-8.097415055575967,-1.5594219840973615
1780097599775902000,6.87590185546875,-1.3324343064144253,-6.761947372815013,-7.173417465406656
1780097599785896000,6.88589599609375,-6.493903754383325,-5.352650483733416,-9.94288451682925
1780097599795890200,6.89589013671875,-9.508034717693924,-3.698217389076948,-6.433200571617483
1780097599805884200,6.90588427734375,-3.74282459256649,-1.071556049567461,3.983132647332549
1780097599815878100,6.915878173828125,9.340766180175542,0.33901217462420463,12.36426293772459
1780097599825871000,6.92587109375,14.796608158314227,5.453747636207938,15.236490106397866
1780097599835865000,6.935864990234375,3.3614845575615764,8.856219160935282,7.814865941929817
1780097599845859000,6.945859130859375,-10.266773941123486,3.7370442555993795,0.3607259937822819
1780097599855853000,6.95585302734375,-12.802145820945501,7.863530896377563,-2.343924009814858
1780097599865846300,6.96584619140625,-13.27634271108508,16.29891826213598,-2.92716345847547
1780097599875840000,6.975840087890625,-11.955523146879672,17.29304737315178,-5.247142529079317
1780097599885834000,6.985833984375,-6.628254941684007,10.846586922466754,-7.722567597460746
1780097599895828000,6.995827880859375,-3.846322376441955,9.341510861063004,-5.8904398483395575
1780097599905821200,7.0058212890625,3.396197851285338,9.408499992230533,-1.8964719187378882
1780097599915815200,7.015815185546875,2.848520129871368,9.993729737925529,0.6705003834843635
1780097599925809200,7.02580908203125,2.889908955836296,8.605335351619123,1.2238947289794684
1780097599935803100,7.03580322265625,6.692413233339786,7.616278137040138,1.7734914357572793
1780097599945796900,7.045796875,3.7324165957987305,6.549288956996798,-0.564043165281415
1780097599955790000,7.0557900390625,-2.0017580473348495,5.03301696331799,-2.817452791434526
1780097599965784000,7.0657841796875,-4.108568122249841,5.065937236145138,-3.246040607565641
1780097599975778000,7.075778076171875,-4.264433222222328,4.280962332218885,-2.7729706756293773
1780097599985772000,7.08577197265625,-2.5749545331478116,3.663068918806314,-2.0836901883512735
1780097599995765000,7.095764892578125,-0.2836825015902519,2.9408447778254745,-1.8483470625162124
1780097600005759000,7.105759033203125,2.396312953221798,0.4180769435107708,-2.7487182779043913
1780097600015753000,7.1157529296875,8.878409365433454,2.3010656958192586,-3.3341426693886516
1780097600025747000,7.125746826171875,11.699642844450473,0.6449246282011271,-5.863761100250482
1780097600035740200,7.135740234375,12.248044788485764,-3.0081133104562756,-5.692339534705877
1780097600045734100,7.145734130859375,9.85157518339753,-4.852693713915348,-4.902830786742269
1780097600055727900,7.155727783203125,6.743186558243632,-5.425402416211367,-4.37863214059323
1780097600065722000,7.16572216796875,3.34496216956675,-6.080750823271274,-4.548986661428213
1780097600075715000,7.175715087890625,1.0895862117767334,-6.79117638990879,-5.102060104405879
1780097600085709000,7.185708984375,-0.4299485830903053,-7.884023649308085,-4.48772701382339
1780097600095703000,7.195703125,-0.9811901344656944,-8.803594070684909,-3.622847383055091
1780097600105697300,7.205697265625,-0.24760285141672939,-9.627484103938936,-2.8508175931587814
1780097600115690000,7.21568994140625,1.5335639047414062,-10.147170241099596,-2.3148814552038908
1780097600125684000,7.22568408203125,3.8126901559531685,-10.774503683030604,-1.756063331094384
1780097600135678000,7.235677978515625,6.51308717828095,-11.300716007089614,-1.241631461200118
1780097600145672200,7.245672119140625,8.865075836607813,-11.082599325865507,-0.5475891663476824
1780097600155665200,7.2556650390625,9.771593884187936,-10.223563744950294,0.03675648998916149
1780097600165659000,7.265658935546875,8.111882556867599,-8.411900691708922,0.27070231624692676
1780097600175652900,7.27565283203125,4.489017053633928,-6.06703092547655,-0.1661921404585242
1780097600185647000,7.285647216796875,1.47395143982172,-3.6479900076180694,-0.7279664840251207
1780097600195640000,7.29564013671875,-1.395848793965578,-0.08782733653485775,-0.9632020578324795
1780097600205634000,7.305634033203125,-3.694636607980728,4.425236363118887,-0.13784312106966973
1780097600215628000,7.3156279296875,-2.56772165928483,8.787976230314374,1.8037924659967421
1780097600225622000,7.3256220703125,0.8304569905541836,12.860446034222841,2.001567785459757
1780097600235616000,7.335615966796875,3.369746482211351,18.779485369580982,-4.069987923964858
1780097600245609000,7.34560888671875,2.743673269474506,17.093481078618765,-10.121487518310547
1780097600255603200,7.355603271484375,4.47253616669327,16.457997063457967,-14.385457799196242
1780097600265597200,7.36559716796875,7.161421907186508,15.809531986171006,-16.661317157566547
1780097600275591200,7.375591064453125,7.63768449768424,14.828796609735488,-13.91145263223648
1780097600285584000,7.385583984375,6.636457537361979,15.60709452011585,-7.137015780204534
1780097600295578000,7.395578125,4.2019194829031825,14.325440260607003,-0.8788473658442497
1780097600305572000,7.405572021484375,1.9488611544057726,12.162648478490114,3.8161908575505015
1780097600315566000,7.415566162109375,-0.7033999057844281,9.095669722089172,5.6230561551213265
1780097600325559000,7.42555908203125,-2.3268495408952234,6.471512474355102,5.8291118116736405
1780097600335553300,7.43555322265625,-2.618224642814696,4.012641065889596,5.691499576750397
1780097600345547000,7.445547119140625,-2.8419921894073483,1.250963937690854,5.12141888487041
1780097600355541000,7.455541015625,-3.8043633493736384,-1.3310060271769761,4.4910716480761765
1780097600365534000,7.465533935546875,-4.715117719349265,-2.745309346243739,3.323815921163559
1780097600375528200,7.475528076171875,-4.606828025022149,-3.8969086543411016,3.0728818429648874
1780097600385522200,7.485522216796875,-4.930974638947844,-4.545296574738622,3.5345004065603014
1780097600395516200,7.49551611328125,-7.00636227837801,-4.725774722442031,3.922376857596636
1780097600405509000,7.505509033203125,-7.475370367702841,-4.407024999123811,5.325434560027718
1780097600415503000,7.515503173828125,-6.951558090522885,-5.389729629805684,6.748888569277525
1780097600425497000,7.5254970703125,-8.815112074521183,-6.009974574780464,7.317261288195848
1780097600435490000,7.535489990234375,-10.963476102834939,-5.615170370307564,7.914841396898031
1780097600445484300,7.545484375,-11.466797380650043,-5.276040706783533,9.573024783998727
1780097600455478000,7.55547802734375,-9.158117118173838,-5.257729974067211,11.018258663380145
1780097600465472000,7.565471923828125,-3.5901577041134236,-5.948215745481848,11.727914999210833
1780097600475461400,7.57546142578125,2.0677552448555825,-7.146971357029676,11.48815581049919
1780097600485455600,7.58545556640625,4.665937801116705,-7.803475363865494,9.015179304313659
1780097600495449600,7.59544970703125,5.850502974748611,-7.959650260439514,4.720728544968367
1780097600505443600,7.605443603515625,5.613736538112163,-8.018803291153906,0.1320224520921707
1780097600515436300,7.615436279296875,4.171164279155433,-7.304048755401372,-3.420743094477057
1780097600525430500,7.625430419921875,1.000032782101631,-6.39527386880517,-6.0894087615013115
1780097600535424500,7.635424560546875,-1.7786214921221135,-5.435990445721149,-6.2499862769484515
1780097600545418500,7.64541845703125,-0.6647358286082744,-4.16420408475399,-3.524168982160091
1780097600555411500,7.655411376953125,-1.6262752139255403,-2.2782103054106235,3.29729382494092
1780097600565405700,7.66540576171875,3.2873779956042766,-1.7019453719377517,10.44673887860775
1780097600575399400,7.6753994140625,14.397283846068381,-0.8719073374480009,14.629987855571507
1780097600585393400,7.685393310546875,14.07738436819315,5.619074392008781,13.589362366318701
1780097600595386600,7.69538671875,-5.022018014919758,10.98930378705263,4.017717053979635
1780097600605380600,7.705380615234375,-18.988291786146164,12.123839732146262,-2.778864409843087
1780097600615374600,7.71537451171875,-16.00773517565727,13.910192403042316,-2.5292244631081817
1780097600625368600,7.72536865234375,-15.252255830806494,21.52259632899761,-5.291892355909943
1780097600635361500,7.735361572265625,-7.425980021589994,12.619372840303182,-10.041064320552348
1780097600645355500,7.74535546875,-3.5071348452508446,6.9059618759959935,-8.726507323873042
1780097600655349500,7.755349609375,-4.047932159501314,8.897759962591529,-5.471955493071675
1780097600665342500,7.765342529296875,0.014895955836772917,6.777745245927572,-2.709151991191506
1780097600675336700,7.775336669921875,7.149255668574571,4.968700266230106,1.880657094490528
1780097600685330700,7.78533056640625,13.530205243951082,6.5953264855504035,4.5908904511779545
1780097600695324400,7.795324462890625,2.061576117829233,7.11923228623271,1.5556921499192713
1780097600705317400,7.8053173828125,-4.918815999120474,3.965066244766116,-1.6623334925174713
1780097600715311600,7.8153115234375,-5.346037203073501,4.118677428331971,0.1758335367679596
1780097600725305600,7.8253056640625,-4.1204374237418175,4.998308638030291,1.5608353580266237
1780097600735299600,7.835299560546875,-2.042864256966114,4.631587787747383,2.37234346409142
1780097600745292500,7.84529248046875,-0.9667524437904358,3.8419992525458335,1.8082833476752043
1780097600755286500,7.85528662109375,0.06193243229985237,3.2800708874613043,-1.0514508346498013
1780097600765280500,7.865280517578125,3.7220933547049757,1.9033423890292644,-3.8371629184305664
1780097600775273500,7.8752734375,9.36572117321193,1.3251643154114483,-5.060684137922525
1780097600785267700,7.885267822265625,12.73573595097065,1.0549684873819352,-5.020009597706794
1780097600795261700,7.89526171875,11.634403187298775,-0.1342483114480972,-6.135457980492711
1780097600805255400,7.90525537109375,8.52126707535684,-2.2111779196232555,-8.010825736403465
1780097600815248400,7.915248291015625,6.800535169884562,-4.547943874377012,-8.032517343729735
1780097600825242600,7.92524267578125,5.630388397705555,-5.879705103835463,-7.427064894217252
1780097600835236600,7.935236572265625,4.303400958520173,-6.810630447441339,-8.366866202718018
1780097600845230600,7.945230712890625,5.3434413413614035,-7.928059774911403,-8.711770357990265
1780097600855223300,7.955223388671875,6.383665848597884,-9.25968071911633,-7.855723437497019
1780097600865217500,7.965217529296875,5.914925470298528,-10.12520975370407,-6.799740804636478
1780097600875211500,7.97521142578125,5.192522465619445,-10.465214446496963,-6.133819565635919
1780097600885204500,7.98520458984375,5.190791696304083,-10.221955140709877,-5.054823721456527
1780097600895198500,7.995198486328125,5.946444644156098,-9.995676195818184,-3.544729831890762
1780097600905192700,8.005192626953125,7.783543167427181,-9.694628717929124,-1.462311855432391
1780097600915186400,8.0151865234375,9.12747063549757,-8.61494781409502,0.44865825199633835
1780097600925179400,8.025179443359375,8.114549145728349,-6.771068252381682,1.524134982138872
1780097600935173600,8.035173583984376,5.907173540997505,-5.165419939160347,1.8862953926384447
1780097600945167600,8.045167724609374,2.206142263543606,-2.7889029887765644,1.4766028311133383
1780097600955161600,8.05516162109375,-2.214159565782547,0.6184142224162816,0.06354103654026985
1780097600965154300,8.065154296875,-5.932976675295829,5.122616570222378,-0.43534488917589187
1780097600975148500,8.0751484375,-6.162326113674045,11.165116281032562,0.6996095735907554
1780097600985142500,8.085142578125,-2.603458158576488,16.27230498049855,3.778182906195521
1780097600995135500,8.095135498046876,2.3994703943394122,21.590625324606894,3.4521208140373227
1780097601005129500,8.10512939453125,1.7391703562214968,25.226954705047607,-4.775499415075779
1780097601015123700,8.115123779296875,4.359396109725535,19.50707132985592,-11.045955648601055
1780097601025117400,8.125117431640625,10.745684415781497,12.585673984318971,-15.419215156245231
1780097601035110400,8.1351103515625,15.336345149856806,9.853243408870696,-17.318453032565117
1780097601045104400,8.1451044921875,14.646567234450577,13.191548458635806,-13.214728258693217
1780097601055098600,8.1550986328125,9.940645797991753,15.733229667735099,-3.930041108614206
1780097601065091600,8.165091552734374,3.113901543356478,13.891784639692306,4.210695202293992
1780097601075085300,8.175085205078124,-1.2069716512292623,10.634484971487522,6.744931356084346
1780097601085079600,8.18507958984375,-4.251861617679894,8.506919401052594,6.690179190677404
1780097601095073500,8.195073486328125,-6.461040180179476,5.677701937544345,5.8641842940986155
1780097601105066500,8.20506640625,-5.924477142497897,1.65143478962332,3.2172382914513347
1780097601115060500,8.215060546875,-3.6272651994973417,-1.4674340207517147,0.6793845316857099
1780097601125054700,8.2250546875,-2.471751932826638,-3.5890655249625443,0.395877386662364
1780097601135047400,8.23504736328125,-3.2878649023383852,-4.839990299686789,1.4826058709204195
1780097601145041400,8.24504150390625,-4.043123882436752,-5.841675525170564,2.3548230049699543
1780097601155035400,8.255035400390625,-3.929470030727982,-5.777251276054978,4.775158638814092
1780097601165029600,8.265029541015625,-4.417096895805001,-5.9152551406443115,7.465056478959322
1780097601175022600,8.275022705078126,-6.573196486806869,-5.788127474856377,9.06659443425238
1780097601185016600,8.2850166015625,-8.18164992057681,-5.832962641882896,10.161443096601962
1780097601195010300,8.29501025390625,-8.960019727149605,-6.598367168420553,10.513173298501968
1780097601205003500,8.30500341796875,-9.188129979121685,-7.087500346407293,10.52574051913023
1780097601214997500,8.31499755859375,-8.765275738206505,-7.258046298161148,10.681062013745308
1780097601224991500,8.324991455078125,-8.225317212867736,-7.628045731723308,10.422338596844673
1780097601234985500,8.3349853515625,-6.455692973932623,-7.48775580202341,10.711686284589767
1780097601244978400,8.344978515625,-3.7687449235036965,-6.628008273446559,10.897183137238025
1780097601254972400,8.354972412109374,-1.5064765758514402,-6.7635904638469215,10.612116487812996
1780097601264966400,8.36496630859375,1.3639672165364025,-7.5310875787496565,9.469110820537805
1780097601274959600,8.374959716796875,5.124237449422479,-7.439672446855902,7.055759054231643
1780097601284953600,8.38495361328125,7.509262700432538,-6.237445359805226,2.187895828235149
1780097601294947600,8.394947509765625,3.3850726461589336,-4.793952186611294,-4.610970531654358
1780097601304940500,8.4049404296875,1.0616904891133307,-5.481872491452098,-8.019480752024053
1780097601314934500,8.4149345703125,1.0191524931132794,-4.720527469438315,-7.207861586800218
1780097601324928500,8.424928466796874,-1.5332690134480595,-1.5638286946237085,-0.6626654520750045
1780097601334922500,8.434922607421875,5.175073902690411,2.2468220644563437,10.789784254270792
1780097601344915700,8.444915771484375,12.31467326964736,11.64755843694806,17.613868057525156
1780097601354909400,8.454909423828125,6.461479156118631,20.171927569973466,16.952619486510752
1780097601364903400,8.4649033203125,-13.266219960999488,14.040140971469878,8.336178218987584
1780097601374896600,8.474896728515626,-18.019624448645114,14.665255568307638,-1.2516624413490294
1780097601384890600,8.484890625,-13.813415451854466,16.938997788393497,-5.849737251073122
1780097601394884600,8.494884521484375,-9.079138858526944,10.900783792078494,-11.477442693305015
1780097601404878600,8.504878662109375,-3.98686014342308,5.7539095634341235,-13.228698331856727
1780097601414871600,8.51487158203125,-1.5229169846512376,5.81275630467832,-7.346670922553539
1780097601424865500,8.524865478515625,2.568614808732271,6.44023763064742,-2.248210303944349
1780097601434859500,8.534859619140626,9.748512283807992,7.045429967918992,0.9193675922811031
1780097601444852500,8.5448525390625,14.945123480045794,8.639605285489559,3.097163466784358
1780097601454846700,8.5548466796875,7.231648705101013,11.181445484542847,2.340392328557372
1780097601464840400,8.56484033203125,-2.1544961013279855,8.392722528508305,0.7833189534127711
1780097601474833200,8.574833251953125,-3.8752506570234893,6.943629635611176,-0.4084031062364578
1780097601484827400,8.584827392578125,-3.932187472993135,5.532831694316863,-2.688833425784111
1780097601494821400,8.5948212890625,-2.848998268777132,3.453998882868886,-5.350103137338161
1780097601504815400,8.6048154296875,-0.5746692252466454,1.6466963629245757,-7.03769382070899
1780097601514808300,8.614808349609374,1.4354419686853885,0.6073854634016752,-7.484368497672676
1780097601524802300,8.62480224609375,2.691179696649313,0.947312999305129,-7.063570020243525
1780097601534796300,8.63479638671875,4.478747004032135,4.356707601293921,-4.994232182371616
1780097601544789200,8.644789306640625,8.0938255066514,4.490555515247583,-3.5774122043088075
1780097601554783200,8.654783203125,11.925931141692399,3.119011725977063,-2.7415035242199894
1780097601564777500,8.664777587890624,13.319661628329753,0.5126595995247364,-2.6367346974954007
1780097601574770200,8.674770263671874,11.360546498674154,-2.6439415601342917,-2.4870900794729587
1780097601584764200,8.68476416015625,7.759055207380652,-4.618877943778037,-2.0788953552901743
1780097601594758400,8.69475830078125,4.669869295346737,-5.72437484139204,-2.2067805614471436
1780097601604751400,8.70475146484375,2.9801439380347725,-6.961020330873131,-2.4532895166799427
1780097601614745300,8.714745361328125,2.3498113142877814,-8.496506728109717,-2.574736506482959
1780097601624739300,8.7247392578125,1.4156635015040635,-10.121142650395631,-2.979292874163389
1780097601634733300,8.7347333984375,0.8094307152688502,-10.88292547930479,-3.123152186782658
1780097601644726300,8.744726318359374,1.519369959694147,-10.957737266921997,-3.525615089315176
1780097601654720300,8.75472021484375,1.8640455669075249,-11.355707826471328,-4.241611149561405
1780097601664714200,8.76471435546875,2.9001579626500607,-11.595547679203747,-4.121596238388121
1780097601674707500,8.77470751953125,6.733927731510996,-11.419727001917362,-3.608658406443894
1780097601684701200,8.784701171875,12.354262937235832,-10.830897185903787,-3.136040894450247
1780097601694695200,8.794695068359376,15.546458557367323,-9.142019385331869,-2.0931153115615246
1780097601704688400,8.8046884765625,11.93535012742281,-6.145670746949315,-1.8797776813074945
1780097601714682400,8.814682373046875,6.926515419203042,-3.31836817715168,-2.5372578396990892
1780097601724676400,8.82467626953125,1.6148925269067287,-0.40922202140390873,-2.502860187795758
1780097601734669300,8.83466943359375,-3.141190240037441,3.9445945346236226,-1.713776094985008
1780097601744663300,8.844663330078125,-4.151493071740865,8.954792932412028,-0.4752671497195959
1780097601754657300,8.8546572265625,-1.3154464928649365,14.151801019012927,1.2895803763329983
1780097601764650200,8.864650146484376,0.6062440382815897,20.816353601002692,1.8122218561679124
1780097601774644500,8.87464453125,2.2579461005389687,26.149914768862722,1.6621487836003304
1780097601784638500,8.884638427734375,5.224058006089925,28.329313986909387,-1.4192770158261059
1780097601794632200,8.894632080078125,6.674239278745651,18.546989449870587,-7.326487381702661
1780097601804625200,8.904625244140625,5.574247408288717,12.730218064332007,-12.075090606546402
1780097601814619400,8.914619384765626,3.9113127350077033,10.557042835366726,-14.515517426782846
1780097601824613400,8.92461328125,4.296850806224346,9.0666330126971,-13.361845404064654
1780097601834606300,8.9346064453125,5.850424648815393,8.96273600037098,-5.227527143505215
1780097601844600300,8.944600341796875,5.48524342918992,8.905394987514615,2.253964337426424
1780097601854594300,8.95459423828125,3.3600495563223958,7.970815797576308,6.214654851326346
1780097601864587300,8.964587158203125,0.9044462097421287,6.0804667456328865,8.891537142553926
1780097601874581200,8.974581298828125,-1.4286232285812497,3.7413480902731417,9.528716271194815
1780097601884575500,8.984575439453126,-2.6866777090549467,1.438417769625783,7.7761086335122585
1780097601894568200,8.994568115234374,-2.8054376517310735,-1.1675970876961945,4.972998840206861
1780097601904562200,9.004562255859375,-3.014730098247528,-3.8044793769687413,2.299088258266449
1780097601914556200,9.01455615234375,-3.3802678762257097,-5.518586895865202,1.0708458554714917
1780097601924549400,9.02454931640625,-4.342700118729472,-5.99539776789546,1.5018962623238563
1780097601934543400,9.03454345703125,-5.230395392417908,-5.9610512616574765,2.7210020034611224
1780097601944537300,9.044537353515626,-5.633545984953641,-5.807347139111161,4.298485713949799
1780097601954530300,9.0545302734375,-6.153278299343586,-6.278870426127314,5.463354253464937
1780097601964524300,9.064524169921874,-7.020317153972387,-6.940586614653467,6.1482549182236195
1780097601974518300,9.074518310546875,-7.716034980821609,-7.118665299999713,6.885570245352387
1780097601984511500,9.084511474609375,-7.83957017507553,-7.190767244136333,7.68697547507584
1780097601994505500,9.09450537109375,-7.852668141579628,-7.632271824985742,8.920178130626677
1780097602004499200,9.104499267578126,-7.203985622149705,-7.790656798824667,10.296861620873212
1780097602014492200,9.1144921875,-5.415272651863098,-7.083414538398385,11.668422361278534
1780097602024486400,9.124486328125,-2.6776830862164496,-6.7312786783069365,12.274134338510036
1780097602034480400,9.13448046875,-0.010663140572607517,-7.166875496417283,11.68498888067603
1780097602044473300,9.144473388671875,3.919397257263958,-7.062548860502242,9.753801037865877
1780097602054467300,9.15446728515625,8.332208730834722,-5.797018637320399,5.060064544719458
1780097602064461300,9.16446142578125,6.00011719763279,-4.87892939441204,-0.9568044657498598
1780097602074454300,9.174454345703126,2.052400147074461,-5.673332636418938,-6.188922444176674
1780097602084448300,9.1844482421875,0.41136429412961006,-5.96262830171585,-9.436737660199404
1780097602094442200,9.194442138671874,-1.719876749947667,-4.880003161123395,-8.526886668804288
1780097602104435200,9.204435302734375,-1.9426395034119486,-2.407881225940585,-1.4436018942654132
1780097602114429200,9.21442919921875,11.46796057921052,4.155463728937506,7.223713820448517
1780097602124423200,9.224423095703125,11.92981119799614,18.660937316089868,13.860711456036567
1780097602134416400,9.23441650390625,14.22620831748247,20.364492461311816,17.240307132089136
1780097602144410400,9.244410400390626,-4.392466604678333,10.630768581312894,10.792641397267579
1780097602154404400,9.254404296875,-19.654815082693098,11.746647756731509,8.068737242624163
1780097602164397300,9.264397216796874,-14.059737652343511,22.034265748441218,3.8825206480264662
1780097602174391300,9.274391357421875,-11.04333582149148,15.124402188831567,-2.9382103376686572
1780097602184385300,9.28438525390625,-10.420827023237942,9.101057844868302,-5.438457712617516
1780097602194378500,9.29437841796875,-10.72630166991949,9.14324921938777,-7.971209180808067
1780097602204372500,9.30437255859375,-9.160567433935404,9.437905534934997,-7.565624054601788
1780097602214366200,9.3143662109375,4.231964200294017,9.866325008761882,-3.0637206313878296
1780097602224359200,9.324359130859374,27.279094155359267,11.352983954465389,0.9721545950949192
1780097602234353400,9.334353515625,16.025893932682276,10.293017804926633,-0.3365121745020151
1780097602244347400,9.344347412109375,-4.593087668961286,5.124301746830344,0.1745031649470329
1780097602254340400,9.35434033203125,-7.424295429503918,6.235084475892782,0.6928893254250288
1780097602264334000,9.364333984375,-7.883191874659061,7.756399724435806,-0.2986696428418159
1780097602274328300,9.374328369140626,-7.442911282646656,6.06665800051093,-1.3135282381534577
1780097602284321300,9.3843212890625,-3.5909038463056087,4.77383820386529,-2.3245699055254456
1780097602294315300,9.394315185546875,-0.14797520523918792,2.7248212694883347,-2.196971699616313
1780097602304309200,9.404309326171875,3.1874329357743263,1.5206021318376064,-3.254171014790237
1780097602314302200,9.41430224609375,8.067188844138384,2.7450609244406223,-4.937120886617898
1780097602324296200,9.424296142578125,13.786158027094602,4.711438738575578,-7.75851803176403
1780097602334290200,9.434290283203126,15.393333696013688,3.144144413667917,-10.016942271208762
1780097602344283400,9.444283447265626,11.828318324202298,-1.3138912262469529,-9.463645540869235
1780097602354277400,9.45427734375,8.862075485748052,-2.864229740178585,-9.055109163641928
1780097602364271400,9.464271240234375,6.247118612557649,-4.18117567782104,-8.15272602390945
1780097602374264300,9.474264404296875,4.250294806754589,-5.890765427032113,-7.135056462830304
1780097602384258300,9.48425830078125,3.717774030201137,-7.362906602561473,-6.414290119442343
1780097602394252300,9.494252197265626,3.26027313105762,-8.819661992910504,-5.922674476990103
1780097602404245500,9.50424560546875,2.783933968192339,-10.184788900876045,-5.352037904793024
1780097602414239500,9.514239501953124,3.050006578812003,-11.07859885805249,-5.2494893844664094
1780097602424233200,9.524233154296875,3.816944014005363,-11.274008032906055,-4.9947559139847755
1780097602434226200,9.53422607421875,4.763676875334978,-11.041333249497413,-4.259564154881239
1780097602444220400,9.544220458984375,6.238984990462661,-11.052567760217189,-3.2061282838940617
1780097602454214400,9.55421435546875,7.435890005707741,-10.96106787264943,-2.2567738418892023
1780097602464207400,9.564207275390626,7.97034467293322,-10.257019439828396,-1.4941060468390583
1780097602474201000,9.574201171875,7.017626599714159,-8.405511282932757,-0.8963359685227275
1780097602484195300,9.5841953125,5.4351177545398475,-6.148288820493221,-1.0226868047192692
1780097602494188000,9.59418798828125,3.1945155875116584,-3.250986831796169,-1.3849015757545828
1780097602504182000,9.60418212890625,0.38383977939877656,0.5023965641856193,-1.54525989549309
1780097602514175200,9.61417529296875,-1.4705039297163485,3.8302754970043895,-0.8608648421689867
1780097602524169200,9.624169189453125,-0.5808452104678378,7.262778587380051,-0.3126911539316177
1780097602534163200,9.6341630859375,1.6667337733030319,13.557279128837585,-1.2022118894815443
1780097602544156200,9.64415625,3.3152877467930315,19.039432775318623,-2.3676450771421194
1780097602554150100,9.654150146484374,5.285193150532245,25.41330028347969,-2.3366163171499967
1780097602564144000,9.66414404296875,4.635779978740215,24.15947277305126,-3.311058730921149
1780097602574137000,9.67413720703125,3.9510736675098537,17.739195395892857,-4.055912052339315
1780097602584131300,9.68413134765625,4.128343374560773,17.721071710181235,-4.199032821550965
1780097602594125000,9.694125,3.799394328789413,17.108310398960114,-3.883624809876084
1780097602604118000,9.704117919921876,4.6880558171615005,14.814239676594733,-1.3400462427228688
1780097602614112300,9.7141123046875,5.483581048935651,10.959694246208667,2.1511101121515033
1780097602624106200,9.724106201171875,4.247225774572789,7.186168810430169,2.150245019754767
1780097602634099200,9.73409912109375,2.04775787422657,5.51236232226193,1.9494652577787637
1780097602644093000,9.744093017578125,0.08247633089572191,4.483507350301743,1.9676888967335222
1780097602654087200,9.754087158203125,-1.5939152053296566,2.1840327230662107,1.5269932941794395
1780097602664080100,9.764080078125,-2.6565458979025482,-0.3342132499098778,0.2931903346478939
1780097602674074000,9.77407421875,-2.7787258781552313,-1.9618454314023255,0.06443535503149032
1780097602684067300,9.7840673828125,-2.7602304365217685,-3.257945564892888,1.2017477791011333
1780097602694061000,9.79406103515625,-3.3209088015452024,-4.21165031106174,2.536689392161369
1780097602704055000,9.804054931640625,-4.756372689801454,-5.083972659051418,3.2710698348820206
1780097602714048300,9.81404833984375,-6.116203244924545,-5.54251780655086,4.29451154962182
1780097602724042200,9.824042236328125,-7.094354450085759,-6.067429569405317,5.643538971179724
1780097602734036200,9.8340361328125,-7.430920400601625,-6.686366354390978,7.101086388689279
1780097602744029000,9.84402880859375,-7.385101483234763,-7.6271917452424765,8.36522194264233
1780097602754023200,9.854023193359374,-7.065000345307588,-8.682894392117857,8.953362022826076
1780097602764017200,9.86401708984375,-6.358959861886501,-9.134278561946749,9.884432327860592
1780097602774010000,9.874010009765625,-5.631913999837637,-8.787100032001733,10.658504144978522
1780097602784004000,9.884004150390625,-5.783852281755209,-8.307811371681094,11.267364357107876
1780097602793997000,9.8939970703125,-5.398425561958551,-7.932202866065501,12.049626494944095
1780097602803991000,9.903990966796876,-3.5827839604750276,-7.7682859770625825,12.203727507853507
1780097602813985000,9.913985107421874,-0.12752923232614993,-7.587947530090808,11.211470035928487
1780097602823978200,9.923978271484375,7.046137823927402,-7.672151999953389,7.798157383713126
1780097602833972200,9.93397216796875,7.235574354112148,-7.344465521463752,0.5986065291404724
1780097602843966200,9.94396630859375,1.0695815346240998,-6.08609159977734,-6.982635950353742
1780097602853959200,9.953959228515625,-1.0043570750415325,-6.604727935624123,-11.96626899729967
1780097602863953200,9.963953125,-3.853182325339317,-5.939789277920126,-8.94082169020474
1780097602873947100,9.973947021484374,-4.775161561423539,-2.545578216537833,-0.4815630349934101
1780097602883940000,9.983940185546874,10.136892008191346,1.4944488689273594,7.389886963945627
1780097602893934300,9.993934326171875,13.895478818035125,13.00705464555025,12.976755368876457
1780097602903927000,10.003927001953125,9.921750543385743,16.416685394382476,11.584983030569553
1780097602913921000,10.013921142578125,-0.8302036003150045,5.959740763580799,6.947289327162504
1780097602923915300,10.023915283203126,-13.387885854250191,4.786932078716158,4.93661410613954
1780097602933908200,10.033908203125,-14.186768287497758,12.595873891294001,1.7862357665181159
1780097602943902200,10.043902099609374,-12.613070525288581,14.558455235755442,-1.4241267939448357
1780097602953896000,10.05389599609375,-11.617428671622276,11.973594225621223,-2.6790608043104407
1780097602963889200,10.06388916015625,-6.8434852538168425,10.367089587831497,-1.233748014473915
1780097602973883100,10.073883056640625,2.540692198061943,9.063262659481166,0.11273790590763091
1780097602983876400,10.08387646484375,11.457522187304496,7.833526218736171,0.3262801188230514
1780097602993870300,10.093870361328126,12.363699458622932,7.331050744095444,-0.32797990847826003
1780097603003864000,10.103864013671876,4.393537741041183,9.399451593378185,-2.0608359669864176
1780097603013857000,10.11385693359375,-2.865626747494936,8.892446074092387,-3.3861353069543836
1780097603023851300,10.123851318359375,-4.530231692075729,7.107530158001184,-3.2921985476285216
1780097603033845200,10.13384521484375,-4.183162467724085,6.370241718879342,-3.468703407786786
1780097603043838000,10.143837890625,-3.5745290500879285,5.531473265445232,-3.4993978212580084
1780097603053832000,10.15383203125,-2.685792742913961,4.192696604266763,-3.418794883018732
1780097603063825200,10.1638251953125,-1.102697622284293,3.624394612497091,-3.770163558129966
1780097603073819100,10.173819091796876,1.234432489606738,4.047565079754591,-4.677203291496634
1780097603083813000,10.183813232421874,4.009598629453778,4.1233816605001685,-5.431150604474544
1780097603093806000,10.19380615234375,8.310281561186908,3.595609832039475,-6.9285448792040345
1780097603103800000,10.203800048828125,14.188952061277627,1.6481781259149313,-9.112371266043185
1780097603113794000,10.2137939453125,17.779367247283457,-1.5738649354696272,-9.662999069434404
1780097603123787300,10.223787353515625,14.530277773541211,-4.628582176190615,-9.318473684346674
1780097603133781200,10.23378125,7.87808373786509,-6.3994596300572155,-9.586239654880762
1780097603143774000,10.24377392578125,4.422592862872779,-7.01361561050713,-9.983250429487228
1780097603153768000,10.253767822265624,2.7358096964925527,-7.5723390420705075,-9.680982469892502
1780097603163762200,10.26376220703125,2.6392361589223143,-8.420024376931787,-8.600881879341602
1780097603173755100,10.273755126953125,3.243824977342784,-9.866689750421047,-7.984138805007934
1780097603183749000,10.2837490234375,4.471285582110285,-10.967698688966035,-7.9493848870128385
1780097603193743000,10.2937431640625,5.085767141252756,-10.975810683751106,-6.9664522927939885
1780097603203736000,10.303736083984376,5.479623835742474,-10.742946515250205,-5.42491083330214
1780097603213730000,10.31372998046875,6.541176962211727,-10.247204148256778,-3.7340558874383567
1780097603223723300,10.32372314453125,7.870188600701093,-9.283546747872233,-1.7083888489887118
1780097603233717200,10.33371728515625,8.401001112031937,-7.841845134270191,-0.21927578813135623
1780097603243711200,10.343711181640625,7.284913846820593,-5.877379291236401,0.5893707910224795
1780097603253704200,10.3537041015625,5.820956562268734,-3.6973885370373725,0.7907204618409276
1780097603263698200,10.3636982421875,3.657718789950013,-1.3636784627228975,0.29079145681262014
1780097603273691100,10.373691162109376,0.36741526228785515,1.2028174541592598,-0.6884960589021444
1780097603283685000,10.38368505859375,-3.359234440547228,4.2562241968035694,-1.0342796273574233
1780097603293679400,10.393679443359375,-5.496649789345264,8.028451993986964,0.06064063892364502
1780097603303672000,10.403672119140625,-4.401135648824274,12.727699944031238,1.3838409607857465
1780097603313666000,10.413666015625,-2.394781505870819,18.230290813863277,1.0137123478859662
1780097603323659300,10.4236591796875,-1.6281284405767917,22.28318322612047,0.3322480873167515
1780097603333653200,10.4336533203125,0.785510618238151,22.140625351488588,-0.8737298767000437
1780097603343647200,10.443647216796874,6.667650548005104,16.28325541357994,-2.3813410095393657
1780097603353640200,10.45364013671875,6.403567065376043,15.615904434037208,-3.5963229487448927
1780097603363634200,10.46363427734375,4.167525338131189,15.24332784346342,-4.388089997029304
1780097603373628200,10.473628173828125,3.5101363651543855,13.16488958429098,-4.539516237771511
1780097603383621000,10.48362109375,4.647439729134738,9.43234088654518,-2.2028695254832504
1780097603393615400,10.493615478515625,4.898943131653964,6.143750008019804,-1.082727431923151
1780097603403608000,10.503608154296876,3.459630751276016,5.89179710816741,-0.7948334501177072
1780097603413602000,10.51360205078125,1.6340221747905015,4.988677470853925,0.28578853395879267
1780097603423596000,10.523595947265624,-0.43040129529386756,2.8610224685698746,0.774755123206973
1780097603433589200,10.53358935546875,-2.625531458696723,0.22179800008535383,0.1924503250479698
1780097603443583200,10.543583251953125,-3.821428173682093,-2.0670482656300067,-0.9209083919823169
1780097603453576200,10.553576171875,-4.285484193557501,-3.972434143185615,-1.7102058352828025
1780097603463570200,10.563570068359375,-4.484489639337361,-5.370628623494506,-0.9968255104929208
1780097603473564200,10.573564208984376,-5.1551323539018625,-5.833673420500755,0.9251005829751491
1780097603483558000,10.583557861328124,-6.206670282313227,-5.990437515139579,3.534699144002795
1780097603493551900,10.5935517578125,-7.30793348788023,-6.766270496711135,5.546226013419032
1780097603503544800,10.603544921875,-8.191800143191218,-7.722493947702646,6.824477186486124
1780097603513538800,10.613538818359375,-8.47093272639215,-8.627343185287714,7.689950691494345
1780097603523532800,10.62353271484375,-8.479351010647415,-9.183331638929248,8.41039379427731
1780097603533526000,10.633526123046876,-8.537746500992775,-8.971493891844153,9.382928328600526
1780097603543520000,10.64352001953125,-9.409541610237955,-7.8990271571725605,10.617545527124404
1780097603553512700,10.6535126953125,-10.352944158101081,-7.010588371640443,11.810116312557458
1780097603563507000,10.6635068359375,-10.057314029085635,-6.259245688202977,12.670610860109328
1780097603573501000,10.6735009765625,-7.512123350560665,-5.834395305034518,12.912532779812812
1780097603583494000,10.683493896484375,-2.5280834763795137,-5.753212228819727,12.039428926056623
1780097603593488000,10.69348779296875,4.853100541150569,-5.906217263185978,8.796995987594126
1780097603603480800,10.703480712890626,5.240832030758261,-5.321450458827615,1.1991215222507714
1780097603613474800,10.713474853515624,1.1507663644045592,-4.57157726342082,-6.433164331260323
1780097603623468800,10.72346875,0.41571547507643697,-6.249447347766161,-12.886523893809319
1780097603633462000,10.7334619140625,-2.9694167923152444,-6.556049537172913,-11.809282784342765
1780097603643456000,10.7434560546875,-0.13303484400510787,-3.18377032161355,-3.0977550029367205
1780097603653448700,10.75344873046875,17.519279556292293,5.541821640980244,7.3591077948004004
1780097603663443000,10.76344287109375,15.234319192099571,19.133589899396895,15.026858344924449
1780097603673437000,10.77343701171875,6.095988139891624,9.414970065027475,11.663365077888965
1780097603683430000,10.783429931640624,-8.290582588982582,3.254834739395976,6.565755523151159
1780097603693423900,10.793423828125,-15.831726282322405,10.91772791261673,5.957360005924105
1780097603703416800,10.803416748046875,-14.520027597683667,17.091579044389725,0.9679507136642932
1780097603713410800,10.813410888671875,-12.192366740405559,11.68596035605669,-4.926008540973067
1780097603723404000,10.823404052734375,-11.529601919609307,8.798770011529326,-6.541362255650759
1780097603733398000,10.83339794921875,-8.866799591660499,9.976017555624246,-5.918333817437291
1780097603743392000,10.84339208984375,-2.6031463161483406,10.326191760253906,-5.018640062919259
1780097603753384700,10.853384765625,8.074742035996913,8.383658347564936,-2.4916443817764518
1780097603763379000,10.86337890625,15.893668066972493,7.690877158689498,-0.8849187947124242
1780097603773372000,10.873371826171875,7.520172216981649,7.017185870209336,-3.710721773602068
1780097603783366000,10.883365966796875,-2.261924064259231,4.42996689877212,-4.5096980226129295
1780097603793360000,10.89335986328125,-4.805089082175493,4.108173569974303,-2.7667580847248434
1780097603803352800,10.903352783203125,-4.297699532008171,4.545234615418314,-1.812230039474368
1780097603813346800,10.913346923828126,-2.9419489396750924,3.7509377563953397,-1.920375941416621
1780097603823340000,10.923340087890624,-0.6410732134699821,2.751702846673131,-2.777044793200493
1780097603833334000,10.933333984375,1.1014508370935916,2.4987001455068585,-4.154652412554621
1780097603843328000,10.943327880859375,3.9419302838504313,2.559133279159665,-5.7286804296314715
1780097603853321000,10.953321044921875,9.490968432080745,2.3189935666978356,-7.327766315597295
1780097603863315000,10.96331494140625,14.650073196744918,0.18884207142293452,-8.999092092865705
1780097603873308000,10.973307861328125,14.604817173957823,-3.823006967306137,-9.782564191013574
1780097603883302000,10.983302001953126,10.517764133423567,-6.128327397960424,-8.9723923019886
1780097603893294800,10.993294921875,6.025826808428764,-6.997339013966918,-7.820411885619163
1780097603903288800,11.003288818359374,2.933907672038674,-7.41129215554595,-7.425504220771789
1780097603913282800,11.01328271484375,0.9521370584607124,-8.193688733416796,-7.110852580422162
1780097603923276000,11.023276123046875,0.1623657140381634,-9.431965623492001,-6.706371031543612
1780097603933270000,11.03327001953125,0.865307646922022,-10.655801315760613,-6.54076370523572
1780097603943262700,11.0432626953125,2.010587688869983,-11.44000172818303,-6.48102673715353
1780097603953257000,11.053257080078126,3.075591101923585,-11.389949118769168,-5.762355320218205
1780097603963251000,11.0632509765625,4.3008448442965745,-11.044047769153117,-4.614133964121342
1780097603973244000,11.073243896484374,5.458074267235398,-10.1490629229784,-3.034275341194868
1780097603983238000,11.08323779296875,6.052166533821821,-9.092507458665967,-1.6969050396829843
1780097603993230800,11.09323095703125,6.412724769821763,-7.991639974418282,-0.8395283318907022
1780097604003224800,11.103224853515625,6.329505219343305,-6.4888949863106005,-0.19422697933167218
1780097604013218000,11.113218017578125,4.501483736497163,-4.721034834438562,0.2574544198781252
1780097604023212000,11.1232119140625,1.8503681930802762,-2.6675737801343202,0.14773644631356
1780097604033206000,11.1332060546875,-1.493662686985731,0.41254093669354913,-0.3209235602259636
1780097604043198700,11.14319873046875,-4.657282200974226,4.197460457667709,0.1851701049119234
1780097604053193000,11.15319287109375,-4.5332533779844635,8.963102495595813,1.3494947468087077
1780097604063186000,11.16318603515625,-2.4583412471115587,16.197195086717606,0.9556415594503282
1780097604073180000,11.173179931640625,0.39971155799776314,22.121294043552876,1.1815543013781309
1780097604083172900,11.1831728515625,-1.6015806253910063,19.67743374173641,-0.33005116179436444
1780097604093166800,11.193166748046876,-1.5945628555834293,18.622703739285466,-4.30725967977494
1780097604103160800,11.203160888671874,4.6843291978538035,18.799692291307448,-6.995088020169734
1780097604113154000,11.213154052734374,7.5890908549070355,16.18034332063794,-8.57117530786395
1780097604123148000,11.22314794921875,8.623815011161565,13.506874637246131,-8.554021928489208
1780097604133140700,11.233140625,8.34045691922009,11.782070952290296,-5.659141029459238
1780097604143134700,11.243134765625,5.2305356776714325,10.003346292054653,-2.0398738429784773
1780097604153128000,11.2531279296875,1.653228979563713,8.511636492702364,0.16237725834548472
1780097604163122000,11.263121826171876,-0.6533513880237937,7.106439440155029,2.468611881235242
1780097604173116000,11.273115966796874,-1.8352379900962112,4.638479300826788,4.298928197020292
1780097604183108900,11.28310888671875,-2.8209897333890197,1.6762421908825635,4.568803122532367
1780097604193102800,11.293102783203125,-3.6327711034372445,-0.7729752540528774,3.0208757613956925
1780097604203095800,11.303095703125,-3.819207282762229,-3.0697552353769537,0.15790040519237517
1780097604213090000,11.313090087890625,-3.7656454961836334,-4.841427639013529,-2.272700017556548
1780097604223082800,11.323082763671875,-3.5111727224647997,-5.739599883052707,-2.831557889154553
1780097604233076700,11.33307666015625,-4.714363686111569,-5.8682706866294145,-0.47041854064464567
1780097604243070700,11.34307080078125,-6.014648996332287,-5.9354719992429015,2.8911890587747093
1780097604253064000,11.35306396484375,-6.981824049448966,-6.493370085898041,5.013592716401815
1780097604263058000,11.363057861328125,-7.524456762433052,-7.096716503041982,6.443407492855191
1780097604273051000,11.37305078125,-7.417530173152684,-7.811981326404213,7.451788416585326
1780097604283044900,11.383044921875,-6.7989101990312335,-8.420909343072772,8.242399280571938
1780097604293037800,11.393037841796875,-6.811714735546707,-8.360477962985634,9.397247945854067
1780097604303031800,11.40303173828125,-7.810900545430183,-7.592899015018343,10.764337678325175
1780097604313026000,11.413026123046874,-9.164223033833503,-6.944751917639374,11.93868657836914
1780097604323018800,11.423018798828124,-8.318795122510194,-6.647556439003348,13.533691332501173
1780097604333012700,11.4330126953125,-3.9009064918056127,-6.248895559102296,14.319974980938433
1780097604343006000,11.443005859375,4.6778138246104115,-6.392045554408431,13.374688519024849
1780097604353000000,11.453,10.003624524474143,-6.649568363347649,8.801210390418767
1780097604362993000,11.462992919921875,7.013563588058948,-5.901711183938383,0.17622399739027023
1780097604372987000,11.47298681640625,0.5932347729742526,-5.850042371499538,-8.218555463647842
1780097604382979800,11.482979736328126,-3.78114087921828,-6.027917058706283,-13.714392767566443
1780097604392973800,11.492973876953124,-6.062804832214117,-6.243777485436201,-12.546276039910316
1780097604402967800,11.5029677734375,-8.809622829455137,-4.663868009105324,-3.642442310363054
1780097604412961000,11.5129609375,-0.4504994959488511,-0.4845914429038763,6.494036440852284
1780097604422954800,11.522954833984375,10.267126992344856,10.433234084868431,16.17678124424219
1780097604432948000,11.532947998046875,7.52009622913599,16.748149053323267,15.779138016951084
1780097604442942000,11.54294189453125,-4.245416387063265,5.782813001835346,8.28010328054428
1780097604452935000,11.552934814453126,-8.252232107800245,8.217121631452441,6.683571170714497
1780097604462929000,11.562928955078124,-3.7602909834131597,14.002825094032287,1.9807424395740032
1780097604472921900,11.572921875,-4.458348651386797,12.283138313698768,-4.7143934967279435
1780097604482915300,11.582915283203125,-7.349893976253271,8.424607028546928,-9.70129460555911
1780097604492909300,11.592909423828125,-8.47076379956603,10.210648149275778,-11.570539494675398
1780097604502902500,11.602902587890625,-6.334180809938907,10.690910038542746,-10.28347256246805
1780097604512896500,11.612896484375,-5.370767155182361,9.500186926802993,-8.425804129377006
1780097604522889500,11.622889404296876,-0.3767410167768597,7.60756525375247,-5.04215479401946
1780097604532883500,11.632883544921874,5.896523552167415,6.9929305498749015,-1.047734444475174
1780097604542876400,11.64287646484375,5.522278736120462,5.549339177003502,1.1054250014215707
1780097604552870400,11.652870361328125,1.503001008695364,4.42162986305952,1.0418863029688596
1780097604562863400,11.66286328125,-0.5496995826303959,4.128021595260501,0.4089937656059861
1780097604572857300,11.672857421875,-0.7436452608026564,4.069698001107573,-0.03675006024837494
1780097604582851300,11.682851318359376,-0.31067689149975775,3.3478152209103107,-0.6353969213992356
1780097604592844500,11.692844482421876,0.04464680484756827,2.5775825435638424,-1.8350944899722932
1780097604602838500,11.702838623046874,1.3541466642677784,2.422114918476343,-2.8595360294044014
1780097604612831200,11.712831298828124,4.676044184589386,2.6576006676524875,-4.178201045924425
1780097604622825500,11.722825439453125,10.51600238444805,1.5350076738089322,-5.2736079266786575
1780097604632818400,11.732818359375,15.867807649528979,-1.2634177610725164,-6.132797821372747
1780097604642812400,11.7428125,14.66075708784461,-4.011699401125312,-6.573508036974072
1780097604652805400,11.752805419921875,8.902230970525741,-5.618989051812886,-7.065926812502742
1780097604662799400,11.76279931640625,4.173615763960778,-6.7152347214788195,-7.87761670487523
1780097604672792300,11.772792236328126,1.1476778238046914,-7.844949530026316,-8.131517816185951
1780097604682786600,11.78278662109375,0.07452486043460667,-8.623959972590207,-8.018365484258531
1780097604692780500,11.792780517578125,0.22906945239305496,-9.510667404285073,-7.594172688215971
1780097604702773200,11.802773193359375,1.678086795835942,-10.061284101760387,-7.401533562597632
1780097604712767500,11.812767578125,3.8333459904909133,-10.034562099051476,-6.601703619366884
1780097604722760400,11.822760498046875,5.148970908662677,-9.523779983836413,-5.234566540622711
1780097604732754400,11.83275439453125,6.202306826406717,-9.390315516242385,-4.027175494937598
1780097604742747600,11.84274755859375,8.439520520040393,-9.794547474274038,-2.747963075622916
1780097604752741400,11.852741455078124,11.867150451421738,-9.783421100103855,-1.3319079444527626
1780097604762734300,11.862734375,12.723379158222675,-7.9271432445883745,0.3268874370664358
1780097604772728300,11.872728271484375,10.122888032758235,-4.039098280182481,1.2990721350386738
1780097604782721500,11.882721435546875,6.460450982114672,0.5917582706809044,0.825063753208518
1780097604792715500,11.892715576171875,1.891326957064867,4.527327787327766,-0.12766980984061957
1780097604802709200,11.902709228515626,-3.4373932005047796,6.886155936285853,0.20855741024017332
1780097604812702500,11.912702392578124,-5.752058967131376,10.350959121763706,0.40403994259089226
1780097604822696400,11.922696533203125,-4.884578213953971,16.61324841544628,0.7786115063741803
1780097604832689400,11.932689453125,-2.4365827120289203,21.81431951370239,-0.21563100188821552
1780097604842683400,11.942683349609375,-1.8000559098169207,21.378834339272974,-0.6048299336999654
1780097604852676400,11.95267626953125,-6.858918969792128,17.20193911525011,-2.5303905842781065
1780097604862670300,11.96267041015625,-5.112267025643587,17.044073781371115,-5.875287287393212
1780097604872663600,11.97266357421875,1.0360986594781278,15.557808803421258,-8.268004846471548
1780097604882657500,11.982657470703124,9.468181430733203,12.845088306093215,-8.2095859752506
1780097604892650200,11.992650146484374,12.346598686218261,10.938162797880173,-4.902646954607963
1780097604902644500,12.00264453125,6.974481285470723,8.821556428354977,-1.0871037473112344
1780097604912637400,12.012637451171875,2.632750304034352,7.869438074594735,1.5384692124396562
1780097604922631400,12.02263134765625,0.5321861377716064,7.528254985672235,2.4343945543348786
1780097604932625400,12.03262548828125,-0.719038204421103,5.340330515864491,3.3763667771339416
1780097604942618400,12.042618408203126,-2.179225615045428,2.108710063317418,3.119761667561531
1780097604952612400,12.0526123046875,-3.3080811764150857,-0.5309370144933462,1.6416244664877653
1780097604962605600,12.06260546875,-3.7770895580008625,-2.8411954860717055,-0.9195517166763544
1780097604972599600,12.072599609375,-3.8492984696432946,-4.340650200462341,-2.591347449544072
1780097604982592300,12.08259228515625,-4.274433807232976,-5.288845243299007,-2.760909650957584
1780097604992586500,12.09258642578125,-4.924729607078433,-5.688219239905476,-0.5275543863177299
1780097605002579500,12.102579345703125,-5.5895905233711005,-6.087261812600493,2.608382170975208
1780097605012573400,12.112573486328126,-6.924903307831287,-6.854527456834912,4.490294233962893
1780097605022566400,12.12256640625,-7.806188714477419,-7.429054022207856,6.369785207283496
1780097605032560400,12.132560302734374,-8.385127835595608,-7.983779324045777,8.083842457297443
1780097605042553300,12.14255322265625,-9.172303464436531,-8.487527302840352,9.360732278883457
1780097605052547300,12.15254736328125,-9.761266551440954,-8.351141979363561,10.790401509386301
1780097605062540500,12.16254052734375,-10.468846665519475,-7.662716647610067,12.600954555559158
1780097605072534300,12.1725341796875,-10.402361976742744,-6.703694505810737,14.77103415659666
1780097605082527500,12.182527587890625,-7.824736763080954,-5.883145015156269,16.441994023162124
1780097605092521500,12.192521484375,-2.398389759495854,-5.686699482992291,16.859774029552934
1780097605102515500,12.202515380859374,3.8864179477259513,-5.978348433417081,14.243003969460725
1780097605112508400,12.21250830078125,5.826640453124046,-5.936893556478619,7.793903233399987
1780097605122502400,12.22250244140625,4.516152897840738,-5.434163230293989,0.23730828842818735
1780097605132495400,12.232495361328125,-0.6779600518405438,-5.331215481516718,-6.828714970186352
1780097605142489300,12.2424892578125,-6.422188763737678,-5.5517304560542104,-11.607962924140692
1780097605152482600,12.252482666015625,-9.35990518040955,-5.800343982350826,-12.117926708710193
1780097605162476500,12.2624765625,-10.005629434555768,-3.886733297285437,-6.583777502053976
1780097605172469500,12.272469482421876,-0.34874592539221044,-0.6489741958528756,1.5842898833721875
1780097605182463500,12.28246337890625,16.348890207529067,9.152266054058074,11.496021137046814
1780097605192456400,12.29245654296875,17.17403520928025,15.114987879276274,12.76229194946289
1780097605202450400,12.302450439453125,6.9379849077224724,-1.2757920894771813,3.5495565213948486
1780097605212443400,12.312443359375,-6.167628311735391,2.256202471742034,3.258939252105355
1780097605222437400,12.322437255859375,-8.826370550638437,13.700418018227815,2.1950240726798773
1780097605232430300,12.332430419921875,-10.354483788758516,16.218244889008997,-3.102541652691364
1780097605242424600,12.342424560546876,-12.08279811218381,9.685988315355777,-6.222075941237807
1780097605252417300,12.352417236328124,-13.670041584664583,9.592608605390787,-6.294708046728372
1780097605262411300,12.362411376953125,-9.05178907930851,11.209943264752626,-4.7323131843000645
1780097605272404500,12.372404541015625,-1.913936263757944,10.924652158921957,-3.4667782849431035
1780097605282398500,12.3823984375,10.466533127880096,9.215561006882787,-1.8789584738790988
1780097605292391400,12.392391357421875,12.766537916469574,8.494723351824284,-2.495959906888008
1780097605302385400,12.402385498046876,0.6049849781312048,5.496925099155306,-5.272783750814199
1780097605312379400,12.41237939453125,-4.974757082051038,4.35139429731667,-6.622742900264263
1780097605322372400,12.422372314453124,-4.303889618819952,4.224223961430788,-6.555431113013625
1780097605332366600,12.43236669921875,-2.321217234096676,3.8560114112854,-5.07328233821094
1780097605342359600,12.442359619140625,-0.5437503188371658,3.380125252884626,-3.6643215492159125
1780097605352353300,12.452353271484375,1.3686311166942118,2.128762671265006,-2.4448636336401104
1780097605362346500,12.462346435546875,4.390962337595224,1.7968670506477356,-1.1635776229217647
1780097605372340500,12.472340576171876,8.930141890758275,1.5297358708858488,-0.7510916312858462
1780097605382333400,12.48233349609375,11.463563805556296,-0.16667641684412957,-1.4367621113732456
1780097605392327400,12.492327392578124,11.181750604969263,-1.805566489931941,-2.928109799414873
1780097605402320400,12.5023203125,8.232782726442814,-3.3875212083548307,-4.926242934250832
1780097605412314400,12.512314453125,5.466288553351164,-4.760172082084417,-5.854153313949704
1780097605422307600,12.5223076171875,3.3948014284908767,-5.651368641892075,-6.781078774264454
1780097605432301600,12.532301513671875,2.086101487276703,-7.348173143810033,-7.743640780627727
1780097605442294300,12.542294189453125,1.8810118992775677,-8.534007898986339,-6.689212975993752
1780097605452288500,12.55228857421875,2.7483769171208143,-8.110456323456765,-3.8949095894783734
1780097605462281500,12.562281494140626,5.227206240987777,-9.359658512172102,-3.4493203696638344
1780097605472275500,12.572275390625,7.241869654864073,-11.549033765310048,-3.8678795437335967
1780097605482273300,12.582273193359375,8.058774067014456,-11.947998012071848,-3.870656899492442
1780097605492267300,12.592267333984376,8.243901501828432,-11.628434049761294,-4.270741966977715
1780097605502260200,12.60226025390625,9.206111626014113,-10.207202977257966,-4.847674132187664
1780097605512254200,12.612254150390624,8.651689691036939,-8.453239833313226,-5.136193844676018
1780097605522247400,12.622247314453125,6.559014232197404,-6.768742439782619,-5.066117268887162
1780097605532241400,12.632241455078125,4.221844372817873,-4.567648691800237,-3.6413337645992634
1780097605542234000,12.642234130859375,1.9347335525929927,-2.2130191635757686,-2.0588626210868357
1780097605552228000,12.65222802734375,-0.8709773631215095,0.5682236658364535,-0.11367255640923976
1780097605562221300,12.66222119140625,-5.293534277898073,4.240703387066722,1.2405676313608884
1780097605572215300,12.67221533203125,-6.295033040899038,8.055494899213313,2.5891145759254695
1780097605582208300,12.682208251953124,-2.852106756186485,12.003505379760265,3.5196234476849435
1780097605592202200,12.6922021484375,1.1261878034651278,16.383048497718573,1.771125583408773
1780097605602195200,12.7021953125,2.736722135162353,21.213059255182742,-4.021640949425101
1780097605612189200,12.712189208984375,0.7617889663890004,19.278717332255837,-9.17017638927996
1780097605622182400,12.722182373046875,1.2480968578219414,18.29188539251089,-11.350094078242778
1780097605632176000,12.732176025390626,3.72603040189296,17.742542368233202,-12.700090637093782
1780097605642169300,12.74216943359375,2.3509636991932985,16.16842725739479,-11.578394299829005
1780097605652163300,12.752163330078124,1.8001424190565942,15.492537582087516,-7.0835296892106525
1780097605662156300,12.76215625,1.4986799306258558,13.65844350132942,-0.5500695849865674
1780097605672150300,12.772150390625,-0.17887188155055045,10.074281530499457,3.8613130248248573
1780097605682143200,12.782143310546875,-0.7031111519709229,6.921364612311124,5.333513237065077
1780097605692137200,12.79213720703125,-0.4791375614121556,4.565281378147006,5.453927084428072
