time,seconds_elapsed,z,y,x
1780097592990059500,0.0900595703125,0.02502915821969509,-0.11948899924755096,0.016037272289395332
1780097593000052700,0.100052734375,-0.0007208762690424919,-0.08185936510562897,0.08002085983753204
1780097593010046700,0.110046630859375,0.00557962991297245,-0.0659584328532219,0.1221613883972168
1780097593020040700,0.120040771484375,0.020117882639169693,-0.0443587601184845,0.1550341546535492
1780097593030034700,0.13003466796875,0.025057516992092133,-0.04206524416804314,0.1686764657497406
1780097593040028700,0.140028564453125,0.027679437771439552,-0.045657020062208176,0.1568240225315094
1780097593050022700,0.150022705078125,0.03415092080831528,-0.045174188911914825,0.1256791651248932
1780097593060016600,0.1600166015625,0.0370146781206131,-0.05541465803980827,0.07742442935705185
1780097593070010600,0.1700107421875,0.03314457833766937,-0.05726182460784912,0.01700875535607338
1780097593080004600,0.180004638671875,0.0207371786236763,-0.05247075483202934,-0.06566862761974335
1780097593089998800,0.189998779296875,0.012274450622498989,-0.082097627222538,-0.1534448117017746
1780097593099992800,0.199992919921875,0.0337056890130043,-0.12789852917194366,-0.20277564227581024
1780097593109986800,0.20998681640625,0.049900904297828674,-0.11331187188625336,-0.1894899308681488
1780097593119980500,0.21998046875,0.029823143035173416,-0.06432278454303741,-0.14869795739650726
1780097593129974500,0.229974609375,-0.008058727718889713,-0.04396664723753929,-0.10798116028308868
1780097593139967700,0.2399677734375,-0.025963012129068375,-0.04874567314982414,-0.060987282544374466
1780097593149961700,0.249961669921875,-0.01950218342244625,-0.04197192192077637,-0.010586162097752094
1780097593159955700,0.259955810546875,0.0008936943486332893,-0.02248520217835903,0.025890931487083435
1780097593169949700,0.26994970703125,0.026718901470303535,-0.007233811542391777,0.03161486238241196
1780097593179943700,0.279943603515625,0.03442062437534332,0.009268310852348804,0.007282130885869265
1780097593189937700,0.289937744140625,0.027525434270501137,0.01369235385209322,-0.04437733441591263
1780097593199931600,0.299931640625,0.029741723090410233,0.006169234402477741,-0.11523081362247467
1780097593209925600,0.309925537109375,0.04477393254637718,-0.022921539843082428,-0.1892738789319992
1780097593219919600,0.319919677734375,0.08416198194026947,-0.06770414113998413,-0.2629503607749939
1780097593229913600,0.32991357421875,0.12122651934623718,-0.12100624293088913,-0.327536016702652
1780097593239907800,0.339907958984375,0.14949946105480194,-0.12767165899276733,-0.3729712665081024
1780097593249901800,0.34990185546875,0.19432953000068665,-0.07573921978473663,-0.42117688059806824
1780097593259895800,0.359895751953125,0.258258193731308,0.05043482035398483,-0.4729953110218048
1780097593269889500,0.3698896484375,0.2989121675491333,0.16211581230163574,-0.5257783532142639
1780097593279883500,0.379883544921875,0.31178194284439087,0.24646706879138947,-0.5691612958908081
1780097593289876700,0.389876708984375,0.3096788227558136,0.26260581612586975,-0.6258370876312256
1780097593299870700,0.39987060546875,0.3043708801269531,0.09304511547088623,-0.729381799697876
1780097593309864700,0.40986474609375,0.3265315592288971,-0.0002291742421220988,-0.8581200242042542
1780097593319858700,0.419858642578125,0.34491533041000366,0.09969176352024078,-0.9702216982841492
1780097593329852700,0.429852783203125,0.39081355929374695,0.15772336721420288,-1.0543874502182007
1780097593339846700,0.4398466796875,0.4470236301422119,0.13107331097126007,-1.110426664352417
1780097593349840600,0.449840576171875,0.5166093707084656,-0.06005510315299034,-1.131893277168274
1780097593359834600,0.459834716796875,0.6122026443481445,-0.2656595706939697,-1.1475826501846313
1780097593369828600,0.46982861328125,0.7401038408279419,-0.5596826672554016,-1.1752207279205322
1780097593379822800,0.47982275390625,0.8980797529220581,-0.8347132205963135,-1.236695408821106
1780097593389816800,0.48981689453125,1.0701982975006104,-0.9404450058937073,-1.3431222438812256
1780097593399810800,0.499810791015625,1.196455717086792,-0.9718860983848572,-1.460318922996521
1780097593409804500,0.509804443359375,1.324163556098938,-1.106065273284912,-1.5661728382110596
1780097593419798500,0.519798583984375,1.4571129083633423,-1.1846494674682617,-1.6634577512741089
1780097593429791700,0.529791748046875,1.587217092514038,-1.2210381031036377,-1.7269448041915894
1780097593439785700,0.53978564453125,1.720078706741333,-1.0893539190292358,-1.6971652507781982
1780097593449779700,0.54977978515625,1.8611865043640137,-0.6925082802772522,-1.5553380250930786
1780097593459773700,0.559773681640625,2.0252795219421387,-0.20757144689559937,-1.3230432271957397
1780097593469767400,0.569767333984375,2.144702434539795,0.15728668868541718,-0.9732615947723389
1780097593479761400,0.579761474609375,2.156794786453247,0.28579553961753845,-0.5205002427101135
1780097593489755100,0.589755126953125,2.0872931480407715,0.38256415724754333,-0.014905501157045364
1780097593499749000,0.5997490234375,1.9368960857391357,0.6408302187919617,0.47775688767433167
1780097593509743000,0.6097431640625,1.713646411895752,0.9137709140777588,0.867787778377533
1780097593519737300,0.6197373046875,1.3475805521011353,1.0325427055358887,1.1100023984909058
1780097593529731300,0.6297314453125,0.7796222567558289,0.9607809782028198,1.188879370689392
1780097593539725300,0.639725341796875,0.19342997670173645,0.5124549269676208,1.2096953392028809
1780097593549719300,0.64971923828125,-0.2340095043182373,-0.30972254276275635,1.3091344833374023
1780097593559713300,0.65971337890625,-0.46944814920425415,0.12388545274734497,1.634186863899231
1780097593569706200,0.669706298828125,-0.5378687381744385,-0.28791674971580505,1.982791781425476
1780097593579700200,0.6797001953125,-0.5140350461006165,-0.4684239327907562,2.3594682216644287
1780097593589694200,0.689694091796875,-0.5018114447593689,-0.6848649382591248,2.629425287246704
1780097593599688200,0.699688232421875,-0.589028537273407,-1.4101319313049316,2.5223753452301025
1780097593609682400,0.709682373046875,-0.8207166194915771,-2.367971420288086,1.8115286827087402
1780097593619676400,0.719676513671875,-1.1326615810394287,-2.362520217895508,1.0997182130813599
1780097593629670400,0.72967041015625,-1.2854018211364746,-1.874327540397644,0.5619104504585266
1780097593639664000,0.7396640625,-1.2345409393310547,-1.333700180053711,0.09453064203262329
1780097593649658000,0.749658203125,-1.0769827365875244,-0.9196575284004211,-0.3191536068916321
1780097593659652400,0.75965234375,-0.88368159532547,-0.5702645182609558,-0.5316880345344543
1780097593669646300,0.769646240234375,-0.7068088054656982,-0.3771035671234131,-0.5088330507278442
1780097593679640300,0.779640380859375,-0.6126802563667297,-0.47486940026283264,-0.3512345850467682
1780097593689634300,0.78963427734375,-0.5481963157653809,-0.7633770704269409,-0.1512482464313507
1780097593699628300,0.799628173828125,-0.5840368270874023,-0.9554706811904907,0.06911935657262802
1780097593709621200,0.809621337890625,-0.6546180248260498,-1.0821242332458496,0.26038360595703125
1780097593719615200,0.819615234375,-0.7164406180381775,-1.415019154548645,0.3307286500930786
1780097593729609200,0.829609130859375,-0.7777137756347656,-1.7897512912750244,0.3196325898170471
1780097593739603200,0.839603271484375,-0.8159094452857971,-1.9912810325622559,0.27169179916381836
1780097593749597200,0.84959716796875,-0.8018423318862915,-2.072791576385498,0.14852513372898102
1780097593759591400,0.85959130859375,-0.7292399406433105,-1.9990482330322266,-0.0374724417924881
1780097593769585400,0.86958544921875,-0.6156598925590515,-1.5990861654281616,-0.2954072952270508
1780097593779579100,0.8795791015625,-0.5059834122657776,-0.8360268473625183,-0.6152771711349487
1780097593789573000,0.889572998046875,-0.4568561017513275,-0.0030251843854784966,-0.9040480256080627
1780097593799567000,0.899567138671875,-0.4586957097053528,0.5431157946586609,-1.0990787744522095
1780097593809561300,0.909561279296875,-0.5122153759002686,0.7493405938148499,-1.1241987943649292
1780097593819555300,0.919555419921875,-0.604987382888794,0.7946550846099854,-0.9723966121673584
1780097593829549300,0.92954931640625,-0.6591179966926575,0.6700433492660522,-0.7337217330932617
1780097593839542300,0.939542236328125,-0.6879922747612,0.45288601517677307,-0.5066947937011719
1780097593849536300,0.949536376953125,-0.7009914517402649,0.1876191943883896,-0.3279135525226593
1780097593859530200,0.9595302734375,-0.6577838063240051,-0.18045544624328613,-0.20545566082000732
1780097593869524200,0.969524169921875,-0.5659763813018799,-0.5112141370773315,-0.13775065541267395
1780097593879518200,0.979518310546875,-0.49700403213500977,-0.6507132649421692,-0.13274087011814117
1780097593889512200,0.98951220703125,-0.48716312646865845,-0.6805052757263184,-0.14045125246047974
1780097593899506400,0.99950634765625,-0.5112294554710388,-0.6560136079788208,-0.1747552752494812
1780097593909500400,1.00950048828125,-0.5478215217590332,-0.5442207455635071,-0.2624342441558838
1780097593919494100,1.019494140625,-0.5770201086997986,-0.36505401134490967,-0.3628555238246918
1780097593929488100,1.029488037109375,-0.5847485661506653,-0.11954250931739807,-0.43374940752983093
1780097593939482000,1.039482177734375,-0.5542819499969482,0.028674671426415443,-0.4649006724357605
1780097593949476400,1.049476318359375,-0.48342934250831604,0.06400522589683533,-0.4061494767665863
1780097593959470300,1.05947021484375,-0.392689973115921,0.016443682834506035,-0.28003066778182983
1780097593969464300,1.06946435546875,-0.3500266671180725,-0.1161806732416153,-0.14394843578338623
1780097593979457300,1.079457275390625,-0.3834465742111206,-0.2530636787414551,-0.024771522730588913
1780097593989451300,1.089451171875,-0.43937456607818604,-0.31873616576194763,0.010380073450505733
1780097593999445200,1.0994453125,-0.4912674129009247,-0.31551507115364075,-0.08279559761285782
1780097594009439200,1.109439208984375,-0.5074682235717773,-0.24192607402801514,-0.2720009684562683
1780097594019433200,1.11943310546875,-0.4712367653846741,-0.12941044569015503,-0.46888476610183716
1780097594029427200,1.12942724609375,-0.3964970111846924,-0.021732183173298836,-0.5984493494033813
1780097594039421400,1.13942138671875,-0.30752572417259216,0.03206120803952217,-0.653115451335907
1780097594049415400,1.14941552734375,-0.22547213733196259,0.024188902229070663,-0.6339390873908997
1780097594059409400,1.159409423828125,-0.15921089053153992,0.013256882317364216,-0.5582187175750732
1780097594069403100,1.169403076171875,-0.11449429392814636,-0.016794759780168533,-0.4394044876098633
1780097594079397000,1.179397216796875,-0.10973905026912689,-0.060145821422338486,-0.3147951662540436
1780097594089391000,1.18939111328125,-0.12784960865974426,-0.07618897408246994,-0.24262163043022156
1780097594099385300,1.19938525390625,-0.1393410563468933,-0.01744057796895504,-0.2150653898715973
1780097594109378300,1.20937841796875,-0.11518724262714386,0.10682118684053421,-0.23056498169898987
1780097594119372300,1.219372314453125,-0.08058949559926987,0.22616128623485565,-0.3017382323741913
1780097594129366300,1.2293662109375,-0.03072499856352806,0.36099791526794434,-0.39859551191329956
1780097594139360300,1.2393603515625,0.0674707442522049,0.48265787959098816,-0.48266473412513733
1780097594149354200,1.249354248046875,0.1869252324104309,0.5192534327507019,-0.5440524816513062
1780097594159348200,1.25934814453125,0.2922045886516571,0.46644243597984314,-0.5674528479576111
1780097594169342200,1.26934228515625,0.37545046210289,0.30844932794570923,-0.5417112708091736
1780097594179336200,1.279336181640625,0.42457315325737,0.07336200028657913,-0.43772318959236145
1780097594189330400,1.289330322265625,0.38590750098228455,-0.1137426421046257,-0.31494641304016113
1780097594199324400,1.299324462890625,0.3075658082962036,-0.2384759485721588,-0.21888956427574158
1780097594209318100,1.309318115234375,0.27743348479270935,-0.23554939031600952,-0.16309288144111633
1780097594219312000,1.31931201171875,0.32608145475387573,-0.14133234322071075,-0.1640031486749649
1780097594229305300,1.329305419921875,0.41348958015441895,-0.013852421194314957,-0.19761011004447937
1780097594239299300,1.33929931640625,0.5339341163635254,0.11908980458974838,-0.2078942060470581
1780097594249293300,1.349293212890625,0.659117579460144,0.19897904992103577,-0.16533343493938446
1780097594259287300,1.359287353515625,0.7343522310256958,0.20176701247692108,-0.060348235070705414
1780097594269281000,1.369281005859375,0.759431779384613,0.18650417029857635,0.09196113795042038
1780097594279275300,1.379275146484375,0.7573797702789307,0.1851227879524231,0.25277024507522583
1780097594289269200,1.389269287109375,0.7504521012306213,0.15216989815235138,0.3566252887248993
1780097594299263200,1.39926318359375,0.7770463824272156,0.09651824086904526,0.4346880316734314
1780097594309257200,1.40925732421875,0.8720924854278564,0.05943026766180992,0.5061683058738708
1780097594319251200,1.419251220703125,0.9979300498962402,-0.019609281793236732,0.5203230977058411
1780097594329245400,1.429245361328125,1.1195800304412842,-0.14735713601112366,0.459361732006073
1780097594339239400,1.439239501953125,1.2187771797180176,-0.27159324288368225,0.3903947174549103
1780097594349233200,1.449233154296875,1.2423096895217896,-0.451453298330307,0.37141647934913635
1780097594359226000,1.45922607421875,1.2050764560699463,-0.5324834585189819,0.40348801016807556
1780097594369220400,1.469220458984375,1.161241888999939,-0.5368055105209351,0.3464162051677704
1780097594379214300,1.47921435546875,1.0118553638458252,-0.2262791395187378,0.24205340445041656
1780097594389208300,1.489208251953125,0.8210670948028564,0.08381987363100052,0.03259658068418503
1780097594399202300,1.499202392578125,0.7282259464263916,0.24544376134872437,-0.21764592826366425
1780097594409196300,1.5091962890625,0.7019799947738647,0.30551934242248535,-0.4154359996318817
1780097594419190300,1.519190185546875,0.706623911857605,0.11224162578582764,-0.5112613439559937
1780097594429184300,1.529184326171875,0.6201324462890625,-0.34578239917755127,-0.4570249915122986
1780097594439178200,1.53917822265625,0.37294358015060425,-0.9317823648452759,-0.23699426651000977
1780097594449172200,1.549172119140625,0.09792372584342957,-1.426327109336853,0.044212643057107925
1780097594459166200,1.559166259765625,-0.10677952319383621,-1.6617051362991333,0.18663956224918365
1780097594469160700,1.56916064453125,-0.2132100909948349,-1.5094655752182007,0.13829760253429413
1780097594479155000,1.579155029296875,-0.20228008925914764,-0.9750372171401978,-0.10240251570940018
1780097594489148000,1.58914794921875,-0.15892142057418823,-0.17630280554294586,-0.5018404126167297
1780097594499142000,1.599141845703125,-0.16519103944301605,0.582314670085907,-0.9191974997520447
1780097594509136000,1.609135986328125,-0.19575880467891693,1.0566822290420532,-1.2575870752334595
1780097594519130000,1.619130126953125,-0.2947787940502167,1.1381677389144897,-1.5166229009628296
1780097594529123800,1.629123779296875,-0.5896264314651489,0.8965511322021484,-1.6238206624984741
1780097594539117800,1.639117919921875,-0.6991741061210632,0.5421463251113892,-1.444032073020935
1780097594549111800,1.64911181640625,-0.7249705195426941,-0.08923803269863129,-1.2368003129959106
1780097594559105800,1.659105712890625,-0.2875288724899292,-1.3237435817718506,-0.9794335961341858
1780097594569099800,1.669099853515625,0.20378465950489044,-2.504713773727417,-0.585282564163208
1780097594579094000,1.679093994140625,0.490043967962265,-3.058932304382324,-0.15661770105361938
1780097594589088000,1.689087890625,0.47269588708877563,-2.8766062259674072,0.1614670604467392
1780097594599082000,1.69908203125,0.2781774699687958,-2.2728071212768555,0.2617279887199402
1780097594609075000,1.709074951171875,0.1385735124349594,-1.5886286497116089,0.15382817387580872
1780097594619069000,1.71906884765625,0.05551958829164505,-1.129477858543396,-0.05592198669910431
1780097594629063000,1.72906298828125,0.015265638940036297,-1.219806432723999,-0.27768421173095703
1780097594639057000,1.739056884765625,0.06360974907875061,-1.740445852279663,-0.4413260519504547
1780097594649051000,1.74905078125,0.12124321609735489,-2.41391658782959,-0.5351567268371582
1780097594659044900,1.759044921875,0.08995343744754791,-2.9972620010375977,-0.5367088913917542
1780097594669038800,1.769038818359375,-0.05675237998366356,-3.4340085983276367,-0.45938560366630554
1780097594679032800,1.77903271484375,-0.31646716594696045,-3.524015188217163,-0.3465421795845032
1780097594689026800,1.78902685546875,-0.5888558030128479,-3.2153701782226562,-0.24989232420921326
1780097594699020800,1.799020751953125,-0.7113770246505737,-2.386739730834961,-0.1119125485420227
1780097594709014800,1.809014892578125,-0.6787365674972534,-1.2628278732299805,0.02802404761314392
1780097594719008000,1.819008056640625,-0.4135124683380127,-0.22540311515331268,0.06812215596437454
1780097594729002000,1.829001953125,-0.08457452058792114,0.3724032938480377,-0.060187339782714844
1780097594738995700,1.83899560546875,0.0042669568210840225,0.27664390206336975,-0.35736051201820374
1780097594748989700,1.84898974609375,-0.2639021575450897,-0.5495700836181641,-0.7664989829063416
1780097594758984000,1.85898388671875,-0.7728970050811768,-1.6637822389602661,-1.2852853536605835
1780097594768978000,1.86897802734375,-1.2879928350448608,-2.544947624206543,-1.931331753730774
1780097594778972000,1.878971923828125,-1.507442593574524,-3.1817855834960938,-2.684682607650757
1780097594788966000,1.8889658203125,-1.1639313697814941,-2.762392520904541,-2.9762871265411377
1780097594798959900,1.8989599609375,-0.478458970785141,-3.077319622039795,-2.9410321712493896
1780097594808954000,1.9089541015625,0.016410943120718002,-4.001836776733398,-2.360142707824707
1780097594818947800,1.91894775390625,0.012533142231404781,-5.1606879234313965,-1.5775002241134644
1780097594828941800,1.92894189453125,-0.2586831748485565,-6.093118667602539,-0.7185229659080505
1780097594838935800,1.938935791015625,-0.38746291399002075,-6.88656759262085,-0.040461841970682144
1780097594848929000,1.948928955078125,-0.06748145818710327,-7.412156105041504,0.20465630292892456
1780097594858923000,1.958923095703125,0.6955650448799133,-8.206825256347656,0.21010474860668182
1780097594868917000,1.9689169921875,1.5758124589920044,-9.5345458984375,0.2712245583534241
1780097594878910700,1.97891064453125,2.1712868213653564,-11.179547309875488,0.6125055551528931
1780097594888904700,1.98890478515625,2.200678586959839,-12.362171173095703,1.441959261894226
1780097594898899000,1.99889892578125,1.8459056615829468,-12.43173599243164,2.5154430866241455
1780097594908893000,2.008892822265625,1.4695173501968384,-11.653030395507812,3.4783618450164795
1780097594918887000,2.018886962890625,1.363669514656067,-10.190473556518555,3.990949869155884
1780097594928881000,2.028880859375,2.112847089767456,-8.567889213562012,3.877918004989624
1780097594938875000,2.038875,3.361877202987671,-7.5293426513671875,3.611541986465454
1780097594948868900,2.048868896484375,4.5702409744262695,-5.878518581390381,3.3737194538116455
1780097594958861800,2.05886181640625,5.555567264556885,-4.091971397399902,3.1730306148529053
1780097594968855800,2.068855712890625,6.032515048980713,-2.431917428970337,2.8762047290802
1780097594978849800,2.078849853515625,6.150310516357422,-1.1383401155471802,2.423598051071167
1780097594988844000,2.088843994140625,6.013677597045898,-0.12543588876724243,1.9176863431930542
1780097594998838000,2.098838134765625,5.734447956085205,0.2688145041465759,1.5303382873535156
1780097595008832000,2.10883203125,5.332144737243652,0.38631612062454224,1.4263490438461304
1780097595018826000,2.118825927734375,4.295286655426025,0.6407824158668518,1.5672050714492798
1780097595028819700,2.12881982421875,2.753696918487549,1.089882254600525,2.9260330200195312
1780097595038814000,2.13881396484375,1.8458958864212036,1.1317658424377441,3.967203140258789
1780097595048808000,2.148807861328125,1.227427363395691,1.155021071434021,3.776190757751465
1780097595058802000,2.158802001953125,0.8629202842712402,2.113783597946167,3.094327926635742
1780097595068796000,2.1687958984375,0.656341552734375,3.370823621749878,2.1913387775421143
1780097595078789000,2.1787890625,0.2646688222885132,3.760728597640991,1.402043104171753
1780097595088782800,2.188782958984375,-0.1478886604309082,2.9081428050994873,1.238561987876892
1780097595098776800,2.19877685546875,-0.3615710735321045,1.0417125225067139,1.4236496686935425
1780097595108770800,2.208770751953125,-0.617978572845459,-0.16685758531093597,1.7575531005859375
1780097595118764800,2.218764892578125,-0.5186660885810852,-0.3476082980632782,1.6063282489776611
1780097595128758800,2.2287587890625,-0.3166767656803131,0.24782447516918182,0.7128065824508667
1780097595138753000,2.2387529296875,-0.5399762392044067,0.610924482345581,-0.34560441970825195
1780097595148747000,2.2487470703125,-1.2735487222671509,0.6918920278549194,-0.9434869885444641
1780097595158741000,2.258740966796875,-1.9597715139389038,0.3550787568092346,-1.1117714643478394
1780097595168734700,2.268734619140625,-2.4828953742980957,-1.5458849668502808,-0.8452759385108948
1780097595178728700,2.278728759765625,-3.1914329528808594,-3.276691198348999,-0.26052263379096985
1780097595188722000,2.288721923828125,-3.6442596912384033,-3.828476905822754,0.41588592529296875
1780097595198716000,2.2987158203125,-4.340900421142578,-3.795722484588623,0.7720995545387268
1780097595208710000,2.3087099609375,-4.111342430114746,-2.92171573638916,0.5761705040931702
1780097595218704000,2.318703857421875,-3.145521402359009,-2.9598448276519775,0.26806867122650146
1780097595228697900,2.32869775390625,-1.7986481189727783,-2.5173490047454834,-0.34404370188713074
1780097595238691800,2.33869189453125,-1.3724647760391235,-1.5070170164108276,-0.22752566635608673
1780097595248685800,2.348685791015625,-0.5699123740196228,-1.1708866357803345,-0.5754415392875671
1780097595258679800,2.3586796875,0.28542402386665344,-2.502800941467285,-0.1308787614107132
1780097595268673800,2.368673828125,0.29849961400032043,-3.3768150806427,1.0265294313430786
1780097595278668000,2.37866796875,0.02584123983979225,-3.7083284854888916,2.111515998840332
1780097595288662000,2.388662109375,0.3539853096008301,-3.2335047721862793,2.238804340362549
1780097595298654700,2.39865478515625,0.9030374884605408,-1.6487298011779785,1.9284390211105347
1780097595308648700,2.408648681640625,1.386654257774353,0.29100358486175537,1.659517526626587
1780097595318643000,2.418642822265625,1.9048820734024048,1.2311782836914062,1.52963125705719
1780097595328637000,2.428636962890625,2.445648670196533,1.1599065065383911,1.5332233905792236
1780097595338631000,2.438630859375,2.854947090148926,0.9495810270309448,1.6318042278289795
1780097595348625000,2.448625,3.261667013168335,0.18150997161865234,1.4721482992172241
1780097595358619000,2.458618896484375,3.690885543823242,0.5619499683380127,0.9014517068862915
1780097595368613000,2.468613037109375,3.8555455207824707,2.8585047721862793,-0.0656249150633812
1780097595378606800,2.47860693359375,3.9655609130859375,4.625301361083984,-1.3530259132385254
1780097595388600800,2.488600830078125,4.045583724975586,4.5678911209106445,-2.2609400749206543
1780097595398593800,2.49859375,3.9683518409729004,4.537129878997803,-2.452946662902832
1780097595408588000,2.508588134765625,3.7172999382019043,4.2192487716674805,-2.284665107727051
1780097595418582000,2.51858203125,3.3174824714660645,3.522437334060669,-2.1162476539611816
1780097595428576000,2.528575927734375,2.757140636444092,2.7392630577087402,-1.8862931728363037
1780097595438569700,2.53856982421875,2.1586532592773438,1.5057474374771118,-1.690765380859375
1780097595448563700,2.548563720703125,1.6123038530349731,0.2903616726398468,-1.3675510883331299
1780097595458558000,2.558557861328125,1.182544469833374,-0.42159733176231384,-0.9764193892478943
1780097595468551200,2.56855126953125,0.6906026601791382,-0.44231486320495605,-0.5836334824562073
1780097595478545200,2.578545166015625,0.25901931524276733,-0.17083020508289337,-0.20578107237815857
1780097595488539100,2.5885390625,0.063362717628479,0.16517150402069092,0.16627530753612518
1780097595498532000,2.598531982421875,-0.06484635919332504,0.6776590943336487,0.44563302397727966
1780097595508526000,2.608526123046875,-0.2632686495780945,1.1126872301101685,0.6356522440910339
1780097595518520000,2.61852001953125,-0.38350197672843933,0.9278138875961304,0.7168452143669128
1780097595528514000,2.62851416015625,-0.456896036863327,0.3452626168727875,0.708858072757721
1780097595538508300,2.63850830078125,-0.5435690879821777,-0.5065457224845886,0.5368524789810181
1780097595548502300,2.648502197265625,-0.7766742706298828,-1.0700761079788208,0.19347144663333893
1780097595558496300,2.658496337890625,-1.138673186302185,-0.9803988337516785,-0.21986189484596252
1780097595568490000,2.668489990234375,-1.4994126558303833,-0.8043287396430969,-0.6381773948669434
1780097595578484000,2.67848388671875,-1.718558430671692,-0.611352801322937,-0.9427093267440796
1780097595588478200,2.688478271484375,-1.8553111553192139,-0.5569226145744324,-1.1422080993652344
1780097595598471200,2.69847119140625,-2.153449535369873,-0.5739572048187256,-1.2572152614593506
1780097595608465200,2.708465087890625,-2.856131076812744,-0.34087973833084106,-1.2409286499023438
1780097595618459100,2.718459228515625,-3.6376237869262695,-0.12277798354625702,-1.2092328071594238
1780097595628453400,2.728453369140625,-4.223161220550537,-0.24443118274211884,-1.21550452709198
1780097595638447000,2.738447021484375,-4.142364025115967,-0.6600243449211121,-1.1797215938568115
1780097595648441000,2.748441162109375,-3.3172607421875,-1.189699411392212,-1.032368540763855
1780097595658435000,2.75843505859375,-2.2227420806884766,-1.453238606452942,-0.7686020135879517
1780097595668429000,2.768428955078125,-1.2270209789276123,-1.1863222122192383,-0.3922960162162781
1780097595678423000,2.778423095703125,0.013543776236474514,-0.2634555995464325,-0.07157514244318008
1780097595688417300,2.788417236328125,1.56299889087677,0.8973219990730286,0.06804746389389038
1780097595698410000,2.798409912109375,2.8488664627075195,1.5898139476776123,0.0971275120973587
1780097595708404000,2.808404052734375,3.262068748474121,0.9717482924461365,-0.012977426871657372
1780097595718398200,2.818398193359375,2.523087739944458,-1.1492762565612793,-0.603833794593811
1780097595728392200,2.82839208984375,0.28357037901878357,-2.3624703884124756,-2.5334701538085938
1780097595738386200,2.83838623046875,-1.964918851852417,-2.5356545448303223,-1.8816747665405273
1780097595748380200,2.848380126953125,-3.3731348514556885,-2.9026215076446533,-0.9263603091239929
1780097595758374100,2.8583740234375,-3.8170275688171387,-2.964301824569702,-0.08246652781963348
1780097595768368000,2.8683681640625,-3.3957419395446777,-2.065359354019165,0.3895508050918579
1780097595778362000,2.878362060546875,-2.389364719390869,-0.6764150261878967,0.8597646951675415
1780097595788356000,2.888356201171875,-1.3141428232192993,0.5521419048309326,1.3509677648544312
1780097595798349000,2.89834912109375,-0.20073094964027405,0.7826432585716248,1.8800804615020752
1780097595808343300,2.90834326171875,0.9100059270858765,0.37100622057914734,2.247612714767456
1780097595818337300,2.918337158203125,1.8976999521255493,-0.02652575448155403,2.3377583026885986
1780097595828331300,2.928331298828125,2.744814157485962,-0.05287639796733856,2.280674934387207
1780097595838325000,2.938324951171875,2.706775426864624,0.11364763975143433,1.890544056892395
1780097595848319000,2.948319091796875,1.7126792669296265,0.6963621973991394,1.258349895477295
1780097595858313000,2.95831298828125,0.37458351254463196,1.0428887605667114,0.6986793279647827
1780097595868307200,2.96830712890625,-0.35415777564048767,0.3456353545188904,0.41354238986968994
1780097595878301200,2.97830126953125,-0.21851801872253418,0.3454713225364685,0.36325863003730774
1780097595888294100,2.988294189453125,0.13977596163749695,0.4328523278236389,0.6333521604537964
1780097595898288000,2.9982880859375,0.6668891906738281,-0.160971000790596,1.386359691619873
1780097595908282000,3.0082822265625,1.0679585933685303,-1.3630751371383667,2.228400230407715
1780097595918276000,3.018276123046875,1.1766856908798218,-3.491924285888672,2.4518940448760986
1780097595928270000,3.02827001953125,0.9946197867393494,-4.804706573486328,2.142176628112793
1780097595938264000,3.03826416015625,0.5345766544342041,-4.3505024909973145,1.4145859479904175
1780097595948258000,3.048258056640625,0.3598082959651947,-2.7316412925720215,0.6556103825569153
1780097595958252300,3.058252197265625,0.434689462184906,-0.8809219598770142,0.28565219044685364
1780097595968246300,3.068246337890625,0.3762253522872925,0.4925900399684906,0.13720360398292542
1780097595978239000,3.078239013671875,0.3135248124599457,1.644898772239685,0.4088723361492157
1780097595988233200,3.088233154296875,1.0507320165634155,2.315218448638916,-0.2774495780467987
1780097595998227200,3.098227294921875,1.8190752267837524,6.235074996948242,-2.769895076751709
1780097596008221200,3.10822119140625,2.187804937362671,10.012981414794922,-2.4201602935791016
1780097596018215200,3.118215087890625,3.7722811698913574,10.963107109069824,-1.740522027015686
1780097596028209200,3.128209228515625,4.299407005310059,11.232728958129883,-1.7433931827545166
1780097596038203100,3.138203125,3.3923401832580566,8.73465347290039,-1.7750324010849
1780097596048197000,3.148197021484375,2.4170498847961426,4.277808666229248,-1.2987362146377563
1780097596058191000,3.158191162109375,2.175042152404785,1.0726536512374878,-1.089863896369934
1780097596068184000,3.16818408203125,2.465911626815796,-0.7914667725563049,-0.8764063715934753
1780097596078178000,3.178177978515625,2.5696983337402344,-2.2765276432037354,-0.45645958185195923
1780097596088172300,3.18817236328125,2.877410650253296,-3.788529396057129,0.10365616530179977
1780097596098166300,3.198166259765625,3.483651876449585,-4.296252250671387,0.46104034781455994
1780097596108160300,3.20816015625,3.671414375305176,-3.678797483444214,0.6842036843299866
1780097596118154000,3.218154052734375,3.6430726051330566,-2.74723744392395,0.8905096054077148
1780097596128148000,3.22814794921875,3.5837607383728027,-2.3047728538513184,1.3566136360168457
1780097596138142200,3.23814208984375,3.527582883834839,-2.6324462890625,2.325880527496338
1780097596148136200,3.24813623046875,3.4012057781219482,-3.1251890659332275,3.4422521591186523
1780097596158129200,3.258129150390625,2.8379976749420166,-3.1425836086273193,4.2569146156311035
1780097596168123100,3.268123046875,2.0158071517944336,-2.9433391094207764,4.836708068847656
1780097596178117000,3.2781171875,1.2159042358398438,-2.6509976387023926,4.218318462371826
1780097596188111000,3.288111083984375,0.534308910369873,-1.906102180480957,2.2411081790924072
1780097596198105000,3.29810498046875,-0.4360709488391876,-0.273795485496521,1.0858266353607178
1780097596208099000,3.30809912109375,-1.3406833410263062,2.0914015769958496,0.7973384261131287
1780097596218093000,3.318093017578125,-1.645967960357666,3.2940282821655273,1.0002200603485107
1780097596228087300,3.32808740234375,-1.1886824369430542,2.758305072784424,0.9298033714294434
1780097596238080000,3.338080078125,-0.3144555389881134,1.588639736175537,0.4288105368614197
1780097596248074000,3.348073974609375,0.4136976897716522,0.5601533651351929,-0.04041871801018715
1780097596258068000,3.35806787109375,0.6565518975257874,-0.027924619615077972,-0.2980370819568634
1780097596268062200,3.368062255859375,0.41762006282806396,-0.5074464678764343,-0.3782152533531189
1780097596278056200,3.37805615234375,-0.08116638660430908,-0.4178474545478821,-0.6616042256355286
1780097596288050200,3.38805029296875,-0.7004522681236267,0.32730740308761597,-1.175612449645996
1780097596298044200,3.398044189453125,-1.330124020576477,1.5286407470703125,-1.795212984085083
1780097596308038100,3.4080380859375,-1.9691287279129028,2.4344587326049805,-2.186272382736206
1780097596318031000,3.418031005859375,-2.5663604736328125,2.2416160106658936,-1.9812486171722412
1780097596328025000,3.428025146484375,-3.0011043548583984,1.1170347929000854,-1.528550386428833
1780097596338019000,3.43801904296875,-2.964665651321411,-1.6908141374588013,-3.0539822578430176
1780097596348013000,3.448012939453125,-1.1134297847747803,-5.963702201843262,-5.515478134155273
1780097596358007300,3.45800732421875,-0.7980425357818604,-3.565539836883545,-3.208937644958496
1780097596368001300,3.468001220703125,-2.30932354927063,-1.1070162057876587,-2.0091588497161865
1780097596377995300,3.477995361328125,-3.6237151622772217,-2.0339505672454834,-2.0113847255706787
1780097596387989000,3.487989013671875,-4.64521598815918,-3.413520336151123,-2.003472328186035
1780097596397983000,3.49798291015625,-5.612037181854248,-3.858566999435425,-1.2107000350952148
1780097596407976200,3.50797607421875,-6.0113420486450195,-3.689086437225342,-0.3129895031452179
1780097596417970200,3.51797021484375,-5.930822849273682,-1.8070663213729858,-1.2737077474594116
1780097596427964200,3.527964111328125,-5.7757978439331055,1.7873764038085938,-2.0353875160217285
1780097596437958100,3.537958251953125,-5.616962432861328,5.139883518218994,-2.0234878063201904
1780097596447952100,3.5479521484375,-4.874353408813477,7.079949378967285,-1.6307905912399292
1780097596457946000,3.557946044921875,-3.3161354064941406,4.220714569091797,-2.2653117179870605
1780097596467940000,3.567940185546875,-2.023045063018799,0.34626296162605286,-2.4986374378204346
1780097596477934600,3.5779345703125,-2.1282570362091064,-0.6408331990242004,-2.0062999725341797
1780097596487927600,3.587927490234375,-2.454486846923828,-0.479979544878006,-1.4169827699661255
1780097596497921800,3.597921875,-1.9875664710998535,-0.4039754569530487,-0.43024706840515137
1780097596507915800,3.607915771484375,-1.7348812818527222,-0.4888879656791687,0.1290479153394699
1780097596517909800,3.61790966796875,-1.5912052392959595,-0.45613881945610046,0.08027896285057068
1780097596527903700,3.62790380859375,-1.4087432622909546,-0.7904092073440552,-0.0386628732085228
1780097596537897500,3.6378974609375,-1.2430576086044312,-1.4610854387283325,-0.036917541176080704
1780097596547891700,3.6478916015625,-0.997342050075531,-2.101771116256714,0.05295908451080322
1780097596557885700,3.6578857421875,-0.5960438847541809,-2.2862725257873535,0.146802619099617
1780097596567878700,3.667878662109375,-0.26149091124534607,-1.9685742855072021,0.17531388998031616
1780097596577872600,3.67787255859375,-0.06196674332022667,-1.4866307973861694,0.14853478968143463
1780097596587867000,3.687866943359375,0.12153437733650208,-0.9041318893432617,-0.0325005017220974
1780097596597860600,3.697860595703125,0.33568158745765686,0.014316159300506115,-0.25278303027153015
1780097596607854600,3.7078544921875,0.7976753115653992,0.6541488766670227,-0.27194952964782715
1780097596617848600,3.7178486328125,1.2575498819351196,1.2519538402557373,-0.15360362827777863
1780097596627842600,3.727842529296875,1.706945776939392,2.2144434452056885,0.24106194078922272
1780097596637836800,3.7378369140625,2.0094523429870605,2.909104347229004,0.9574545621871948
1780097596647829800,3.747829833984375,2.1729044914245605,2.6826319694519043,1.7824256420135498
1780097596657823700,3.75782373046875,2.148256301879883,1.6925716400146484,2.3451831340789795
1780097596667817500,3.7678173828125,1.8359978199005127,0.23449301719665527,2.1531453132629395
1780097596677811700,3.777811767578125,1.119004487991333,-0.6710882782936096,1.478349208831787
1780097596687805700,3.7878056640625,0.33743569254875183,-0.7699320316314697,1.1135255098342896
1780097596697799700,3.797799560546875,-0.5605785846710205,0.11126019805669785,0.9495770931243896
1780097596707793700,3.807793701171875,-1.3043349981307983,1.7455406188964844,0.7657396197319031
1780097596717787600,3.81778759765625,-1.6858024597167969,3.1567554473876953,0.657866358757019
1780097596727780600,3.827780517578125,-1.759403109550476,2.983158826828003,0.7139533162117004
1780097596737774600,3.837774658203125,-1.7107596397399902,1.465328574180603,1.9988750219345093
1780097596747768600,3.8477685546875,-1.5165108442306519,-1.8282394409179688,2.781399965286255
1780097596757762600,3.857762451171875,-0.6040273308753967,-0.19043123722076416,0.7033079266548157
1780097596767756800,3.8677568359375,0.6896308660507202,4.812585353851318,-1.6644060611724854
1780097596777750800,3.877750732421875,2.0279526710510254,2.72892427444458,-1.5508772134780884
1780097596787744800,3.887744873046875,1.2488741874694824,0.9753777980804443,-0.3284551501274109
1780097596797738800,3.89773876953125,-0.06506358832120895,0.9448651671409607,-0.4324701130390167
1780097596807731700,3.907731689453125,-0.3502497673034668,0.04836871102452278,-0.21591971814632416
1780097596817725700,3.9177255859375,0.27908855676651,-0.8394490480422974,0.6447731852531433
1780097596827719700,3.9277197265625,1.4663861989974976,-0.7468820810317993,0.4616113603115082
1780097596837713700,3.937713623046875,2.5669443607330322,-0.8196547031402588,-0.19022896885871887
1780097596847707600,3.947707763671875,3.195949077606201,-0.2136675864458084,-0.481696218252182
1780097596857702000,3.957701904296875,3.4484431743621826,0.2365216612815857,-0.5120410323143005
1780097596867695600,3.967695556640625,3.340308427810669,0.31783488392829895,-0.4622068703174591
1780097596877689600,3.977689697265625,3.250607490539551,0.11282531172037125,-0.28130513429641724
1780097596887682600,3.9876826171875,3.4354729652404785,-0.5937379598617554,0.24741117656230927
1780097596897676800,3.9976767578125,3.4198522567749023,-0.3719576299190521,0.6138834953308105
1780097596907670800,4.0076708984375,2.9626216888427734,0.04566197842359543,0.8069624304771423
1780097596917664800,4.017664794921875,2.5299735069274902,0.2396884560585022,1.1582248210906982
1780097596927658800,4.02765869140625,2.2688684463500977,0.19110652804374695,1.6263235807418823
1780097596937652500,4.037652587890625,2.2786483764648438,0.5683795809745789,1.8161044120788574
1780097596947646700,4.047646728515625,2.45936918258667,0.9438503980636597,1.817183256149292
1780097596957639700,4.0576396484375,2.6057815551757812,1.0687315464019775,1.4111672639846802
1780097596967633700,4.067633544921875,2.51849102973938,1.123963475227356,0.8765474557876587
1780097596977627600,4.077627685546875,2.1677656173706055,0.9265814423561096,0.27722153067588806
1780097596987622000,4.087621826171875,1.6016652584075928,0.42741158604621887,-0.16675883531570435
1780097596997615600,4.09761572265625,0.9854937791824341,-0.02286878041923046,-0.09652427583932877
1780097597007609600,4.107609619140625,0.4494423270225525,0.04965895041823387,0.14040730893611908
1780097597017603600,4.117603515625,0.15600980818271637,0.3424966037273407,0.32107001543045044
1780097597027597600,4.12759765625,-0.010442011058330536,0.5315017104148865,0.4591701030731201
1780097597037590800,4.1375908203125,-0.014829199761152267,0.46307381987571716,0.39246025681495667
1780097597047584800,4.147584716796875,-0.06676457077264786,0.294829398393631,0.05399191007018089
1780097597057578500,4.15757861328125,-0.5562295317649841,0.11170493811368942,-0.3094979524612427
1780097597067572500,4.167572509765625,-0.9016058444976807,-0.24213756620883942,-0.7343224883079529
1780097597077566700,4.177566650390625,-1.456276297569275,-0.5186005234718323,-1.118226170539856
1780097597087560700,4.187560791015625,-2.152311086654663,-0.7971088290214539,-1.6506989002227783
1780097597097554700,4.1975546875,-2.8157594203948975,-0.8683103919029236,-2.151378631591797
1780097597107547600,4.207547607421875,-3.229801654815674,-0.679470419883728,-2.3536932468414307
1780097597117542000,4.2175419921875,-3.3750643730163574,-0.4927421808242798,-2.243826389312744
1780097597127535600,4.22753564453125,-3.289371967315674,-0.4433884620666504,-1.9994553327560425
1780097597137529600,4.237529541015625,-3.1121816635131836,-0.9696695804595947,-1.5590476989746094
1780097597147523600,4.247523681640625,-3.0488975048065186,-1.4941210746765137,-1.3030478954315186
1780097597157517600,4.257517578125,-2.5525176525115967,-2.1279256343841553,-1.6291022300720215
1780097597167511800,4.26751171875,-1.9072246551513672,-2.1982460021972656,-2.338982105255127
1780097597177505800,4.277505859375,-1.6795669794082642,-1.9254809617996216,-2.9234273433685303
1780097597187498500,4.28749853515625,-2.219357490539551,-1.1320160627365112,-2.728264808654785
1780097597197492500,4.297492431640625,-3.074547052383423,-0.9915414452552795,-1.9980658292770386
1780097597207486700,4.30748681640625,-3.537454128265381,-1.4486621618270874,-1.616520643234253
1780097597217480700,4.317480712890625,-3.5023157596588135,-1.6528315544128418,-1.4465030431747437
1780097597227474700,4.327474609375,-3.119187593460083,-1.4871400594711304,-1.3268623352050781
1780097597237468700,4.33746875,-2.492244005203247,-0.9274517297744751,-1.2545567750930786
1780097597247462700,4.347462646484375,-1.839716911315918,-0.16533036530017853,-1.2477580308914185
1780097597257455600,4.35745556640625,-1.3583402633666992,0.4730306565761566,-1.3300528526306152
1780097597267449600,4.36744970703125,-1.1596486568450928,0.6332080960273743,-1.3704050779342651
1780097597277443600,4.377443603515625,-1.14497709274292,0.18507148325443268,-1.2630634307861328
1780097597287437600,4.3874375,-1.1996738910675049,-0.5726233720779419,-1.0568945407867432
1780097597297431800,4.397431884765625,-1.2770774364471436,-1.2194395065307617,-0.9097604751586914
1780097597307425800,4.40742578125,-1.2391191720962524,-1.5913163423538208,-0.8530575037002563
1780097597317419800,4.417419677734375,-1.038196086883545,-1.760170340538025,-0.6358907222747803
1780097597327412500,4.42741259765625,-0.7609556913375854,-1.4275673627853394,-0.31322959065437317
1780097597337406700,4.43740673828125,-0.2780022919178009,-0.6275549530982971,-0.08644851297140121
1780097597347400700,4.447400634765625,0.227315753698349,0.19209733605384827,0.09746859222650528
1780097597357394700,4.457394775390625,0.6064888834953308,0.9476880431175232,0.1967291384935379
1780097597367388700,4.467388671875,0.8485966324806213,1.5389833450317383,0.2563636898994446
1780097597377382700,4.477382568359375,0.9349678754806519,1.9306138753890991,0.272860586643219
1780097597387377000,4.487376953125,0.9474437236785889,2.082336664199829,0.23208840191364288
1780097597397370600,4.49737060546875,0.9688047170639038,2.0615615844726562,0.22571173310279846
1780097597407363600,4.507363525390625,0.9539576172828674,1.8425060510635376,0.32315120100975037
1780097597417357600,4.517357666015625,0.9243719577789307,0.9084643721580505,0.5257886648178101
1780097597427351800,4.527351806640625,0.9377532601356506,-0.604075014591217,0.5786768794059753
1780097597437345800,4.537345703125,0.8202834725379944,-2.1136066913604736,0.1974876970052719
1780097597447339800,4.54733984375,0.5185973644256592,-2.101743459701538,-0.3030230700969696
1780097597457333500,4.55733349609375,0.15797922015190125,-0.6743981242179871,-0.4169542193412781
1780097597467326700,4.56732666015625,-0.1672191172838211,1.8155030012130737,-0.18115316331386566
1780097597477320200,4.5773203125,-0.4020153880119324,3.8537421226501465,0.5995646715164185
1780097597487314200,4.587314208984375,-0.5291248559951782,3.9169366359710693,1.4224419593811035
1780097597497308200,4.59730810546875,-0.8087157607078552,0.9691470265388489,1.376593828201294
1780097597507302400,4.607302490234375,-0.8571586608886719,1.7539877891540527,0.3060741722583771
1780097597517296400,4.61729638671875,-0.32076600193977356,2.8159937858581543,-0.9451603293418884
1780097597527290400,4.627290283203125,0.7074218988418579,1.9944995641708374,-0.6803414225578308
1780097597537284400,4.637284423828125,0.9299995303153992,0.6963655948638916,-0.34365394711494446
1780097597547277300,4.64727734375,1.0622882843017578,0.29999983310699463,0.011423199437558651
1780097597557271300,4.657271240234375,1.0379208326339722,-0.5405445098876953,0.7436699271202087
1780097597567265300,4.667265380859375,1.169007658958435,-1.2383408546447754,1.7961293458938599
1780097597577259300,4.67725927734375,1.680355191230774,-0.8894184231758118,1.538027048110962
1780097597587253200,4.687253173828125,2.272183418273926,-0.42475754022598267,0.48273035883903503
1780097597597247500,4.69724755859375,2.6555016040802,-0.18689100444316864,0.2316235601902008
1780097597607241500,4.707241455078125,2.7165706157684326,0.12056960165500641,0.33578458428382874
1780097597617234200,4.717234130859375,2.6558890342712402,0.39721524715423584,0.7434710264205933
1780097597627228200,4.727228271484375,2.655003547668457,0.6308346390724182,1.326745867729187
1780097597637222400,4.737222412109375,2.706531286239624,0.5726940631866455,1.8421565294265747
1780097597647216400,4.74721630859375,2.86100697517395,0.23609551787376404,2.24751877784729
1780097597657210400,4.75721044921875,3.0041344165802,0.10093136876821518,2.2929389476776123
1780097597667204400,4.767204345703125,3.126096248626709,0.09296638518571854,2.142848491668701
1780097597677197300,4.777197265625,3.1798410415649414,0.38238638639450073,1.893599033355713
1780097597687191300,4.78719140625,3.182572841644287,0.6937347054481506,1.774857759475708
1780097597697185300,4.797185302734375,3.0686042308807373,1.1600873470306396,1.76714289188385
1780097597707179300,4.80717919921875,2.752638816833496,1.4843794107437134,1.6205164194107056
1780097597717173200,4.81717333984375,2.2970080375671387,1.429738163948059,1.4576411247253418
1780097597727167500,4.82716748046875,1.7617082595825195,1.1728696823120117,1.2496352195739746
1780097597737161500,4.837161376953125,1.3013681173324585,0.55292809009552,0.928485631942749
1780097597747154200,4.847154296875,0.8595619797706604,-0.018259743228554726,0.6443591117858887
1780097597757148200,4.857148193359375,0.588135302066803,-0.2086431086063385,0.5181331634521484
1780097597767142400,4.867142333984375,0.4182314872741699,-0.1793840229511261,0.31846827268600464
1780097597777136400,4.877136474609375,0.2316816747188568,-0.15106968581676483,0.10199635475873947
1780097597787130400,4.88713037109375,-0.07697231322526932,-0.20098158717155457,-0.08296044915914536
1780097597797124400,4.897124267578125,-0.4886646866798401,-0.3728751540184021,-0.25618264079093933
1780097597807118300,4.907118408203125,-0.9177246689796448,-0.454781711101532,-0.4116435945034027
1780097597817111300,4.917111328125,-1.2884949445724487,-0.523976743221283,-0.6110501885414124
1780097597827105300,4.927105224609375,-1.6467127799987793,-0.67676842212677,-1.021872639656067
1780097597837099300,4.937099365234375,-2.07269549369812,-0.8290168046951294,-1.543466567993164
1780097597847093200,4.94709326171875,-2.386913537979126,-0.8203191757202148,-1.915550947189331
1780097597857087500,4.95708740234375,-2.5517892837524414,-0.7643534541130066,-2.1252541542053223
1780097597867081500,4.96708154296875,-2.7176144123077393,-0.7980120778083801,-2.303826332092285
1780097597877074200,4.97707421875,-3.0094563961029053,-1.1103794574737549,-2.3778932094573975
1780097597887068200,4.987068115234375,-3.223153829574585,-1.677026629447937,-2.059453010559082
1780097597897062400,4.9970625,-3.2257778644561768,-2.3331878185272217,-1.592878818511963
1780097597907056400,5.007056396484375,-2.787252902984619,-2.6380465030670166,-1.3300330638885498
1780097597917050400,5.01705029296875,-1.960866093635559,-2.2485592365264893,-1.4508633613586426
1780097597927044400,5.02704443359375,-1.5645304918289185,-1.647392749786377,-1.8806724548339844
1780097597937038300,5.037038330078125,-1.7759573459625244,-1.1329896450042725,-1.8499095439910889
1780097597947031300,5.04703125,-2.235275983810425,-1.1130223274230957,-1.7289646863937378
1780097597957025300,5.057025390625,-2.6292564868927,-1.373339295387268,-1.6440812349319458
1780097597967019300,5.067019287109375,-2.8370490074157715,-1.442700982093811,-1.1860023736953735
1780097597977013200,5.07701318359375,-2.9772260189056396,-1.4586551189422607,-0.7225227952003479
1780097597987007500,5.087007568359375,-2.8184614181518555,-1.4044560194015503,-0.45562446117401123
1780097597997001500,5.09700146484375,-2.4644880294799805,-1.1361241340637207,-0.42449331283569336
1780097598006994200,5.106994140625,-1.9230427742004395,-0.678029477596283,-0.6597223281860352
1780097598016988200,5.11698828125,-1.379658579826355,-0.2192002385854721,-0.9780626893043518
1780097598026982400,5.126982421875,-0.853572428226471,0.055389516055583954,-1.1890908479690552
1780097598036976400,5.136976318359375,-0.5070632696151733,0.07508165389299393,-1.138778805732727
1780097598046970400,5.146970458984375,-0.35474908351898193,-0.08471466600894928,-0.9085512161254883
1780097598056964400,5.15696435546875,-0.3571629226207733,-0.22115667164325714,-0.6662501096725464
1780097598066957300,5.166957275390625,-0.41614606976509094,-0.3053985834121704,-0.4861101806163788
1780097598076951300,5.176951416015625,-0.391838401556015,-0.24273861944675446,-0.34210705757141113
1780097598086945300,5.1869453125,-0.29269877076148987,-0.0464218445122242,-0.23379391431808472
1780097598096939300,5.196939208984375,-0.055636629462242126,0.35884881019592285,-0.22482335567474365
1780097598106933200,5.206933349609375,0.2644258141517639,0.9250690937042236,-0.2616327702999115
1780097598116927500,5.216927490234375,0.6321472525596619,1.3671190738677979,-0.1540748029947281
1780097598126921500,5.22692138671875,1.0192023515701294,1.5796451568603516,0.09304364025592804
1780097598136914200,5.2369140625,1.4065195322036743,1.435009479522705,0.33448368310928345
1780097598146908200,5.246908203125,1.7237991094589233,0.7825883030891418,0.44565653800964355
1780097598156902400,5.25690234375,1.7991775274276733,-0.12013985961675644,0.4338879883289337
1780097598166896400,5.266896484375,1.5605820417404175,-1.3493990898132324,0.41528210043907166
1780097598176890400,5.276890380859375,1.2101640701293945,-2.430957317352295,0.37141814827919006
1780097598186884400,5.28688427734375,0.7329786419868469,-2.930811643600464,0.34740257263183594
1780097598196877300,5.296877197265625,0.27044758200645447,-2.542865037918091,0.32808807492256165
1780097598206871300,5.306871337890625,-0.1438281536102295,-1.0849173069000244,0.31835848093032837
1780097598216865300,5.316865234375,-0.4787493348121643,0.9502870440483093,0.3765685260295868
1780097598226859300,5.326859375,-0.676327645778656,2.8271102905273438,0.5464973449707031
1780097598236853200,5.336853271484375,-0.7622091770172119,3.737304925918579,0.7687095999717712
1780097598246846200,5.34684619140625,-0.7884248495101929,2.772461175918579,1.3740592002868652
1780097598256840200,5.356840087890625,-1.0484148263931274,-0.5584589242935181,1.9572844505310059
1780097598266834200,5.366834228515625,-1.167924404144287,-3.5073797702789307,1.5204440355300903
1780097598276828400,5.376828369140625,-0.5586760640144348,-1.801445484161377,0.5713024735450745
1780097598286822400,5.386822509765625,0.09756249934434891,0.6903048753738403,-1.589850664138794
1780097598296816400,5.39681640625,1.0556676387786865,2.5289039611816406,-1.3492000102996826
1780097598306809300,5.406809326171875,1.338729977607727,3.380352020263672,-0.48951300978660583
1780097598316803300,5.41680322265625,1.4520398378372192,2.9377524852752686,0.1717132329940796
1780097598326797300,5.42679736328125,1.2236794233322144,1.5769327878952026,0.837872326374054
1780097598336791300,5.436791259765625,0.7099856734275818,-1.104458212852478,1.7070398330688477
1780097598346785300,5.446785400390625,0.5758869647979736,-2.2506206035614014,2.264281749725342
1780097598356779300,5.456779296875,1.344599723815918,-2.6188666820526123,2.0471410751342773
1780097598366772500,5.4667724609375,2.5003952980041504,-1.4060503244400024,1.6384354829788208
1780097598376766200,5.47676611328125,3.257194757461548,0.16457578539848328,1.2206867933273315
1780097598386760200,5.48676025390625,3.2873451709747314,0.7055516839027405,0.8119677305221558
1780097598396754200,5.496754150390625,3.0000388622283936,0.47841277718544006,0.7826930284500122
1780097598406748400,5.50674853515625,2.7683141231536865,0.09199318289756775,0.9700837135314941
1780097598416742400,5.516742431640625,2.6585311889648438,-0.22677838802337646,1.1758314371109009
1780097598426735400,5.5267353515625,2.7761805057525635,-0.46460771560668945,1.5599499940872192
1780097598436729000,5.53672900390625,2.854058027267456,-0.6472252607345581,1.925593376159668
1780097598446723300,5.546723388671875,2.900697708129883,-0.18404938280582428,2.1758158206939697
1780097598456717300,5.55671728515625,2.8678219318389893,0.5978774428367615,2.2389044761657715
1780097598466711300,5.566711181640625,2.618729829788208,1.5004788637161255,2.1546671390533447
1780097598476705500,5.57670556640625,2.176783800125122,1.8982707262039185,1.9985536336898804
1780097598486698800,5.58669873046875,1.740496277809143,1.6344220638275146,1.7479616403579712
1780097598496692700,5.596692626953125,1.249765396118164,1.0811614990234375,1.3381606340408325
1780097598506686700,5.606686767578125,0.9401558637619019,0.5922762751579285,0.7911383509635925
1780097598516680700,5.6166806640625,0.7484822273254395,0.33105209469795227,0.38551032543182373
1780097598526674700,5.6266748046875,0.3719639778137207,0.17376473546028137,0.11083268374204636
1780097598536668400,5.63666845703125,-0.11816497147083282,-0.16857165098190308,-0.07303797453641891
1780097598546661600,5.64666162109375,-0.6081820726394653,-0.6290287375450134,-0.07083660364151001
1780097598556655600,5.656655517578125,-0.9726522564888,-0.8856414556503296,0.10727144032716751
1780097598566649600,5.666649658203125,-1.1694324016571045,-0.8764048218727112,0.3378484547138214
1780097598576643600,5.6766435546875,-1.2648892402648926,-0.5113176703453064,0.31163594126701355
1780097598586637800,5.686637939453125,-1.285391092300415,-0.05165635049343109,0.10528010874986649
1780097598596630500,5.696630615234375,-1.2701517343521118,0.05073454976081848,-0.2361990362405777
1780097598606624500,5.70662451171875,-1.4024966955184937,-0.45832228660583496,-0.7467222213745117
1780097598616618800,5.71661865234375,-1.7626826763153076,-1.214383840560913,-1.2988340854644775
1780097598626612700,5.72661279296875,-2.128268241882324,-1.7849828004837036,-1.6096864938735962
1780097598636606700,5.736606689453125,-2.4509875774383545,-1.9332492351531982,-1.838513970375061
1780097598646600700,5.7466005859375,-2.6604983806610107,-1.9079735279083252,-2.179217576980591
1780097598656593700,5.75659375,-2.927483558654785,-2.205012798309326,-2.4424808025360107
1780097598666587600,5.766587646484375,-3.1243953704833984,-2.575925827026367,-2.2709732055664062
1780097598676581600,5.77658154296875,-2.746201753616333,-2.5301690101623535,-1.8486542701721191
1780097598686575600,5.78657568359375,-1.6795947551727295,-2.1154391765594482,-1.5311849117279053
1780097598696569600,5.796569580078125,-0.26765018701553345,-1.1941403150558472,-1.655873417854309
1780097598706562800,5.806562744140625,0.2878034710884094,-0.4943884015083313,-1.990392804145813
1780097598716556500,5.816556640625,-0.5306317210197449,-0.05746046081185341,-1.8297337293624878
1780097598726550500,5.826550537109375,-1.5942119359970093,-0.47752273082733154,-1.4692161083221436
1780097598736544500,5.83654443359375,-2.3704307079315186,-1.1215596199035645,-1.140550971031189
1780097598746538800,5.846538818359375,-2.7436296939849854,-1.5738452672958374,-0.900098979473114
1780097598756532700,5.85653271484375,-2.8623249530792236,-1.575259804725647,-0.9254787564277649
1780097598766525700,5.866525634765625,-2.7565577030181885,-1.1486018896102905,-1.1245843172073364
1780097598776519400,5.87651953125,-2.3467044830322266,-0.7241920828819275,-1.2132954597473145
1780097598786513700,5.886513671875,-1.856644630432129,-0.3603214919567108,-1.1847268342971802
1780097598796507600,5.896507568359375,-1.5086501836776733,-0.20422980189323425,-1.2122052907943726
1780097598806501600,5.906501708984375,-1.2624342441558838,-0.2639937996864319,-1.166144609451294
1780097598816494600,5.91649462890625,-1.0520509481430054,-0.3230896294116974,-1.0733321905136108
1780097598826488800,5.92648876953125,-0.8954797983169556,-0.5069795846939087,-0.9025143980979919
1780097598836482600,5.936482666015625,-0.8032084107398987,-0.6498518586158752,-0.7259013652801514
1780097598846476500,5.9464765625,-0.5994611382484436,-0.6433582305908203,-0.6517792344093323
1780097598856470500,5.956470458984375,-0.3012470602989197,-0.4995678663253784,-0.5931366682052612
1780097598866463700,5.966463623046875,0.01958608627319336,-0.27255603671073914,-0.48695802688598633
1780097598876457700,5.976457763671875,0.3630228638648987,0.04452090337872505,-0.3931293785572052
1780097598886451700,5.98645166015625,0.6672471761703491,0.4052588641643524,-0.25784504413604736
1780097598896445700,5.99644580078125,0.8623729348182678,0.7457443475723267,-0.09701402485370636
1780097598906439400,6.006439453125,0.9775159955024719,0.9281993508338928,0.12163389474153519
1780097598916433700,6.01643359375,1.0142351388931274,0.9419218897819519,0.42218270897865295
1780097598926426600,6.026426513671875,1.0085761547088623,0.7538564205169678,0.7645083665847778
1780097598936420600,6.036420654296875,0.9960736632347107,0.18040594458580017,1.161649465560913
1780097598946414600,6.04641455078125,1.0812788009643555,-0.7996365427970886,1.6036192178726196
1780097598956408800,6.056408935546875,1.2044756412506104,-2.4605143070220947,1.6884348392486572
1780097598966402600,6.066402587890625,1.1900966167449951,-3.6693029403686523,1.1813032627105713
1780097598976395500,6.0763955078125,0.926906406879425,-3.476616859436035,0.5525447130203247
1780097598986389800,6.0863896484375,0.539412260055542,-1.740568995475769,0.013306022621691227
1780097598996383700,6.0963837890625,-0.013588659465312958,1.0934303998947144,-0.4357723295688629
1780097599006377700,6.106377685546875,-0.8266258835792542,3.991086483001709,-0.6434871554374695
1780097599016371700,6.116371826171875,-1.4440853595733643,5.888143062591553,-0.5526362061500549
1780097599026364700,6.12636474609375,-1.7732515335083008,5.329139232635498,0.12668561935424805
1780097599036358700,6.136358642578125,-1.9379926919937134,1.086243748664856,1.176254153251648
1780097599046352600,6.1463525390625,-1.6866432428359985,-1.979337453842163,1.4728549718856812
1780097599056346600,6.1563466796875,-0.559179425239563,-2.809263229370117,0.7344698309898376
1780097599066340600,6.166340576171875,0.34154102206230164,-1.798595905303955,-0.3787091076374054
1780097599076333600,6.17633349609375,1.3489656448364258,2.6836252212524414,0.030955644324421883
1780097599086327600,6.18632763671875,2.065296173095703,3.6174306869506836,0.2581797242164612
1780097599096321500,6.196321533203125,1.889836311340332,4.070087909698486,1.0587525367736816
1780097599106315500,6.2063154296875,1.0438379049301147,2.3411126136779785,1.3244388103485107
1780097599116309800,6.216309814453125,-0.09930307418107986,-0.5769678354263306,2.202361822128296
1780097599126302700,6.226302734375,-0.641390323638916,-3.4083902835845947,2.438763380050659
1780097599136296700,6.236296630859375,-0.4388033449649811,-4.31596565246582,2.3003244400024414
1780097599146290400,6.24629052734375,0.7481920719146729,-2.7754383087158203,2.305908441543579
1780097599156284700,6.25628466796875,2.169466018676758,-0.6921393871307373,1.5298064947128296
1780097599166278700,6.266278564453125,2.6357643604278564,0.5656710267066956,0.8874440789222717
1780097599176271600,6.276271728515625,2.3781816959381104,0.841311514377594,1.2004101276397705
1780097599186265600,6.286265625,1.9482775926589966,0.6811495423316956,1.9278978109359741
1780097599196259800,6.296259765625,1.7987266778945923,0.43004223704338074,2.5372090339660645
1780097599206253600,6.306253662109375,1.939369797706604,0.26481306552886963,2.7558865547180176
1780097599216247600,6.31624755859375,2.20794677734375,0.18109367787837982,2.811958074569702
1780097599226240500,6.326240478515625,2.462947130203247,0.6219445466995239,2.796945571899414
1780097599236234800,6.33623486328125,2.5444085597991943,1.448514461517334,2.5129549503326416
1780097599246228700,6.346228759765625,2.436065435409546,1.9672369956970215,1.7511001825332642
1780097599256222700,6.35622265625,2.289915084838867,2.132244348526001,0.9114974141120911
1780097599266216700,6.366216796875,2.0793845653533936,1.92202889919281,0.3522386848926544
1780097599276209700,6.376209716796875,1.743971347808838,1.5681079626083374,0.17719267308712006
1780097599286203600,6.38620361328125,1.279447078704834,1.0668514966964722,0.2922937273979187
1780097599296197600,6.39619775390625,0.6807261109352112,0.5798869729042053,0.4768729507923126
1780097599306191600,6.406191650390625,0.06855887174606323,0.29956260323524475,0.5338963270187378
1780097599316184800,6.416184814453125,-0.3390467166900635,0.16789326071739197,0.4626341164112091
1780097599326178600,6.426178466796875,-0.4366379678249359,0.2069019079208374,0.3586270213127136
1780097599336172500,6.436172607421875,-0.36265629529953003,0.3143278956413269,0.1896752417087555
1780097599346166500,6.44616650390625,-0.33605289459228516,0.5277184247970581,-0.09390000998973846
1780097599356160800,6.456160888671875,-0.44437718391418457,0.7054834365844727,-0.42736074328422546
1780097599366153700,6.46615380859375,-0.727580726146698,0.5416387915611267,-0.6884280443191528
1780097599376147700,6.476147705078125,-1.0420749187469482,-0.12690497934818268,-0.9934288263320923
1780097599386141400,6.486141357421875,-1.6548832654953003,-0.8363945484161377,-1.2628072500228882
1780097599396135700,6.4961357421875,-2.314312696456909,-1.280946969985962,-1.379506230354309
1780097599406129700,6.506129638671875,-2.8108530044555664,-1.1961314678192139,-1.5345224142074585
1780097599416122600,6.51612255859375,-3.0703086853027344,-0.9236946105957031,-1.8294236660003662
1780097599426116600,6.52611669921875,-3.1844544410705566,-0.9110616445541382,-2.037022113800049
1780097599436110800,6.53611083984375,-3.230318784713745,-1.1824458837509155,-1.9551708698272705
1780097599446104600,6.5461044921875,-3.1593058109283447,-1.417776346206665,-1.5463848114013672
1780097599456098600,6.5560986328125,-2.695484161376953,-1.4281913042068481,-1.1833828687667847
1780097599466091500,6.566091552734375,-1.6308786869049072,-1.345850944519043,-1.2523571252822876
1780097599476089000,6.576089111328125,0.007539032027125359,-0.5348838567733765,-1.647595763206482
1780097599486083000,6.5860830078125,0.8071744441986084,0.1469319760799408,-2.6197187900543213
1780097599496077000,6.5960771484375,-0.06867533922195435,0.24938786029815674,-2.093129873275757
1780097599506070000,6.606070068359375,-1.40999436378479,-0.4592675566673279,-1.4172697067260742
1780097599516064300,6.616064208984375,-2.681732416152954,-1.3327301740646362,-0.826808512210846
1780097599526058000,6.62605810546875,-3.418269634246826,-2.072421073913574,-0.6327056288719177
1780097599536052000,6.636052001953125,-3.7990996837615967,-2.2853896617889404,-0.7348858118057251
1780097599546046000,6.6460458984375,-3.5555124282836914,-2.0281903743743896,-0.7706134915351868
1780097599556039200,6.6560390625,-2.8266103267669678,-1.5470504760742188,-0.745042622089386
1780097599566033200,6.666033203125,-1.9665309190750122,-1.0056596994400024,-0.7696691155433655
1780097599576027100,6.676027099609375,-1.2837517261505127,-0.6331395506858826,-0.880538821220398
1780097599586020900,6.686020751953125,-0.7069451212882996,-0.46792134642601013,-0.9355458617210388
1780097599596014000,6.69601416015625,-0.2850874960422516,-0.5627350211143494,-0.8313753008842468
1780097599606008000,6.706008056640625,0.04441503435373306,-0.6102205514907837,-0.7054845094680786
1780097599616002000,6.716001953125,0.2607293725013733,-0.5485860109329224,-0.5611270070075989
1780097599625996000,6.72599609375,0.19489096105098724,-0.35158640146255493,-0.4790225923061371
1780097599635990000,6.735989990234375,0.08897309750318527,-0.07949264347553253,-0.46468934416770935
1780097599645983000,6.74598291015625,0.1624840646982193,0.23392440378665924,-0.4934866428375244
1780097599655977000,6.75597705078125,0.3708919286727905,0.626239538192749,-0.4774363040924072
1780097599665971000,6.765970947265625,0.6373805999755859,1.0506634712219238,-0.3639150857925415
1780097599675965200,6.775965087890625,0.83424311876297,1.3822455406188965,-0.18440738320350647
1780097599685959200,6.785959228515625,0.8861209750175476,1.5496712923049927,0.06352359056472778
1780097599695952000,6.795951904296875,0.8926677107810974,1.5457388162612915,0.3567393720149994
1780097599705945900,6.80594580078125,0.9230759739875793,1.3101481199264526,0.6810838580131531
1780097599715940000,6.815940185546875,0.9984134435653687,0.6794700026512146,0.9995018243789673
1780097599725934000,6.82593408203125,1.0437273979187012,-0.6749849915504456,1.2137296199798584
1780097599735927000,6.835927001953125,0.8998719453811646,-2.0753278732299805,1.1416020393371582
1780097599745921000,6.845921142578125,0.5272219181060791,-3.088623046875,0.9851183891296387
1780097599755915300,6.855915283203125,0.11883166432380676,-3.229163646697998,0.7503977417945862
1780097599765909000,6.865908935546875,-0.2669050991535187,-1.5889064073562622,0.2610328197479248
1780097599775902000,6.87590185546875,-0.5979089140892029,1.104875922203064,-0.17647022008895874
1780097599785896000,6.88589599609375,-0.9167934656143188,4.045114040374756,-0.32232755422592163
1780097599795890200,6.89589013671875,-0.9702988266944885,4.799902439117432,0.09114142507314682
1780097599805884200,6.90588427734375,-0.9613205194473267,1.8309284448623657,0.9609567523002625
1780097599815878100,6.915878173828125,-0.9000352621078491,-1.4485889673233032,1.2244080305099487
1780097599825871000,6.92587109375,-0.4685022234916687,-1.5677582025527954,0.7291203141212463
1780097599835865000,6.935864990234375,-0.029142335057258606,-1.0025746822357178,-0.2771531343460083
1780097599845859000,6.945859130859375,0.8714790344238281,1.1799347400665283,0.05199866741895676
1780097599855853000,6.95585302734375,1.452339768409729,2.194643259048462,0.05319497361779213
1780097599865846300,6.96584619140625,1.9303330183029175,3.726938247680664,0.7044705152511597
1780097599875840000,6.975840087890625,2.0479602813720703,3.2059872150421143,0.6873177886009216
1780097599885834000,6.985833984375,1.3564406633377075,0.3279629349708557,1.5655548572540283
1780097599895828000,6.995827880859375,0.5648943185806274,-2.918950319290161,2.3836143016815186
1780097599905821200,7.0058212890625,0.5092158317565918,-4.15292501449585,2.1107664108276367
1780097599915815200,7.015815185546875,1.027831792831421,-2.846404790878296,1.9817862510681152
1780097599925809200,7.02580908203125,1.8908640146255493,-1.0861481428146362,1.6746617555618286
1780097599935803100,7.03580322265625,2.411771774291992,0.3445042371749878,1.1107083559036255
1780097599945796900,7.045796875,2.390695571899414,0.94462651014328,0.9462047815322876
1780097599955790000,7.0557900390625,2.174717664718628,0.8399791717529297,1.286810278892517
1780097599965784000,7.0657841796875,2.0093681812286377,0.884056568145752,1.854444146156311
1780097599975778000,7.075778076171875,1.9202351570129395,1.0062153339385986,2.3250670433044434
1780097599985772000,7.08577197265625,1.978867530822754,0.9570446014404297,2.707671642303467
1780097599995765000,7.095764892578125,1.9770197868347168,0.9360371232032776,3.0261926651000977
1780097600005759000,7.105759033203125,2.1431291103363037,0.8159387111663818,3.055036783218384
1780097600015753000,7.1157529296875,2.2518515586853027,1.3828723430633545,2.493990659713745
1780097600025747000,7.125746826171875,2.1632673740386963,2.166078567504883,1.5156453847885132
1780097600035740200,7.135740234375,2.0649912357330322,2.508755922317505,0.7314897179603577
1780097600045734100,7.145734130859375,1.7845312356948853,2.1411309242248535,0.287192165851593
1780097600055727900,7.155727783203125,1.3397164344787598,1.508413314819336,0.14946484565734863
1780097600065722000,7.16572216796875,0.8434081673622131,0.8971705436706543,0.1768714338541031
1780097600075715000,7.175715087890625,0.3724805414676666,0.44374704360961914,0.27522724866867065
1780097600085709000,7.185708984375,0.0028894171118736267,0.1975761502981186,0.40042006969451904
1780097600095703000,7.195703125,-0.26055893301963806,0.232998326420784,0.5159923434257507
1780097600105697300,7.205697265625,-0.4714655876159668,0.384804904460907,0.5208064913749695
1780097600115690000,7.21568994140625,-0.6541444063186646,0.521969199180603,0.35646477341651917
1780097600125684000,7.22568408203125,-0.8729795217514038,0.4761141240596771,0.036006055772304535
1780097600135678000,7.235677978515625,-1.137789011001587,0.014853902161121368,-0.4230281114578247
1780097600145672200,7.245672119140625,-1.4790046215057373,-0.7565988898277283,-0.9154274463653564
1780097600155665200,7.2556650390625,-1.7605574131011963,-1.398034930229187,-1.4778287410736084
1780097600165659000,7.265658935546875,-1.8895641565322876,-1.6376477479934692,-1.9899357557296753
1780097600175652900,7.27565283203125,-2.0161545276641846,-1.6959092617034912,-2.2905189990997314
1780097600185647000,7.285647216796875,-2.223081588745117,-1.8231340646743774,-2.607196092605591
1780097600195640000,7.29564013671875,-2.5105409622192383,-1.8382229804992676,-2.714813709259033
1780097600205634000,7.305634033203125,-2.4894208908081055,-1.6039154529571533,-2.52603816986084
1780097600215628000,7.3156279296875,-1.8673667907714844,-1.0914640426635742,-2.4888687133789062
1780097600225622000,7.3256220703125,-0.6951165199279785,-0.08753924816846848,-2.7933297157287598
1780097600235616000,7.335615966796875,-0.18278928101062775,0.7026515603065491,-3.228994607925415
1780097600245609000,7.34560888671875,-0.640241265296936,0.381372332572937,-2.760964870452881
1780097600255603200,7.355603271484375,-1.5879074335098267,-0.7513041496276855,-2.2686727046966553
1780097600265597200,7.36559716796875,-2.776010036468506,-1.8719478845596313,-1.7782810926437378
1780097600275591200,7.375591064453125,-3.5248475074768066,-2.451627254486084,-1.5677549839019775
1780097600285584000,7.385583984375,-3.696092367172241,-2.4444689750671387,-1.4481867551803589
1780097600295578000,7.395578125,-3.3581082820892334,-1.9710921049118042,-1.3822903633117676
1780097600305572000,7.405572021484375,-2.6563823223114014,-1.3218626976013184,-1.2919609546661377
1780097600315566000,7.415566162109375,-1.9991101026535034,-0.8577843308448792,-1.1245131492614746
1780097600325559000,7.42555908203125,-1.4597923755645752,-0.6634411811828613,-0.9324777126312256
1780097600335553300,7.43555322265625,-1.0965453386306763,-0.7013530731201172,-0.8461606502532959
1780097600345547000,7.445547119140625,-0.8255356550216675,-0.8995436429977417,-0.7447053790092468
1780097600355541000,7.455541015625,-0.6485897302627563,-1.0661451816558838,-0.6261066198348999
1780097600365534000,7.465533935546875,-0.5701372623443604,-0.9327725172042847,-0.6314942240715027
1780097600375528200,7.475528076171875,-0.43140336871147156,-0.5436614751815796,-0.7296780943870544
1780097600385522200,7.485522216796875,-0.25231030583381653,-0.17318277060985565,-0.705197274684906
1780097600395516200,7.49551611328125,-0.04089749976992607,0.21824906766414642,-0.4774026572704315
1780097600405509000,7.505509033203125,0.29142850637435913,0.7722235918045044,-0.4247343838214874
1780097600415503000,7.515503173828125,0.6466087698936462,1.4092594385147095,-0.33254656195640564
1780097600425497000,7.5254970703125,0.960068941116333,2.22176456451416,-0.09329508244991302
1780097600435490000,7.535489990234375,1.2112064361572266,2.8224594593048096,0.25510385632514954
1780097600445484300,7.545484375,1.4007385969161987,2.8074491024017334,0.7327215671539307
1780097600455478000,7.55547802734375,1.4828134775161743,2.0852582454681396,1.1474839448928833
1780097600465472000,7.565471923828125,1.4025089740753174,0.7731825113296509,1.2649255990982056
1780097600475461400,7.57546142578125,1.1671690940856934,-0.8418279886245728,1.1402298212051392
1780097600485455600,7.58545556640625,0.7541006207466125,-2.241724967956543,0.9090930223464966
1780097600495449600,7.59544970703125,0.24842539429664612,-2.8142924308776855,0.574323296546936
1780097600505443600,7.605443603515625,-0.23549681901931763,-2.155775547027588,0.257849782705307
1780097600515436300,7.615436279296875,-0.5942562222480774,-0.375461608171463,-0.05304015055298805
1780097600525430500,7.625430419921875,-0.861325204372406,2.087780475616455,-0.24950474500656128
1780097600535424500,7.635424560546875,-0.9408459067344666,4.173939228057861,-0.47657638788223267
1780097600545418500,7.64541845703125,-0.8261805772781372,5.012260437011719,-0.5395537614822388
1780097600555411500,7.655411376953125,-0.8438702821731567,2.623509645462036,0.21503636240959167
1780097600565405700,7.66540576171875,-0.8282220959663391,-0.5890663862228394,1.07711923122406
1780097600575399400,7.6753994140625,-0.38435089588165283,-1.3975638151168823,0.4856242835521698
1780097600585393400,7.685393310546875,0.01009415090084076,-1.4350402355194092,-0.22489775717258453
1780097600595386600,7.69538671875,0.1794796735048294,0.6420705318450928,-0.09343242645263672
1780097600605380600,7.705380615234375,1.1774462461471558,3.215883731842041,0.18806184828281403
1780097600615374600,7.71537451171875,1.8027644157409668,4.003390789031982,0.9180915951728821
1780097600625368600,7.72536865234375,1.8692864179611206,3.5335049629211426,2.008164167404175
1780097600635361500,7.735361572265625,1.25016188621521,0.9833722710609436,1.8086122274398804
1780097600645355500,7.74535546875,0.2331973761320114,-1.7612173557281494,1.9350956678390503
1780097600655349500,7.755349609375,-0.08072507381439209,-3.1505532264709473,2.096623659133911
1780097600665342500,7.765342529296875,0.5176110863685608,-2.2011959552764893,1.8266247510910034
1780097600675336700,7.775336669921875,1.660494327545166,0.09562847763299942,1.0205515623092651
1780097600685330700,7.78533056640625,2.005300283432007,0.5668644309043884,-0.06471112370491028
1780097600695324400,7.795324462890625,1.677632212638855,1.2184762954711914,0.13979440927505493
1780097600705317400,7.8053173828125,1.6176202297210693,1.282297968864441,0.8241748809814453
1780097600715311600,7.8153115234375,1.8123270273208618,1.4995745420455933,1.4284071922302246
1780097600725305600,7.8253056640625,2.0620968341827393,1.8329354524612427,1.6987947225570679
1780097600735299600,7.835299560546875,2.3662195205688477,1.961798906326294,1.7843278646469116
1780097600745292500,7.84529248046875,2.6913726329803467,2.1986007690429688,1.8588900566101074
1780097600755286500,7.85528662109375,2.8783562183380127,2.894857168197632,1.877095341682434
1780097600765280500,7.865280517578125,2.942702531814575,3.621568202972412,1.619826078414917
1780097600775273500,7.8752734375,2.8564188480377197,3.869389772415161,1.1817145347595215
1780097600785267700,7.885267822265625,2.675877332687378,3.7902960777282715,0.7777121067047119
1780097600795261700,7.89526171875,2.363011598587036,3.709319591522217,0.45070475339889526
1780097600805255400,7.90525537109375,1.8774617910385132,3.394089937210083,0.2353210598230362
1780097600815248400,7.915248291015625,1.359737753868103,2.541677713394165,0.09239034354686737
1780097600825242600,7.92524267578125,0.8725157976150513,1.7634706497192383,0.07295139878988266
1780097600835236600,7.935236572265625,0.42403411865234375,1.3404896259307861,-0.030273305252194405
1780097600845230600,7.945230712890625,0.014993622899055481,1.1674543619155884,-0.3914110064506531
1780097600855223300,7.955223388671875,-0.4104851484298706,0.9287377595901489,-0.8220214247703552
1780097600865217500,7.965217529296875,-0.8485226631164551,0.5340144038200378,-1.0903711318969727
1780097600875211500,7.97521142578125,-1.2797435522079468,0.0010704025626182556,-1.2321276664733887
1780097600885204500,7.98520458984375,-1.6887046098709106,-0.5287982821464539,-1.3227732181549072
1780097600895198500,7.995198486328125,-2.0088350772857666,-0.9381058812141418,-1.4752312898635864
1780097600905192700,8.005192626953125,-2.2006731033325195,-1.3594485521316528,-1.8214308023452759
1780097600915186400,8.0151865234375,-2.356022834777832,-1.7590382099151611,-2.2903971672058105
1780097600925179400,8.025179443359375,-2.508469343185425,-2.3268702030181885,-2.691617488861084
1780097600935173600,8.035173583984376,-2.6441752910614014,-2.8924014568328857,-2.9905829429626465
1780097600945167600,8.045167724609374,-2.802456855773926,-3.1141796112060547,-3.210775375366211
1780097600955161600,8.05516162109375,-3.017773389816284,-2.9211008548736572,-3.3097503185272217
1780097600965154300,8.065154296875,-3.149587392807007,-2.354893207550049,-3.0174074172973633
1780097600975148500,8.0751484375,-2.9911463260650635,-1.7012827396392822,-2.570876121520996
1780097600985142500,8.085142578125,-2.107149839401245,-1.245278239250183,-2.357605457305908
1780097600995135500,8.095135498046876,-0.6168410778045654,-0.061123326420784,-2.7567198276519775
1780097601005129500,8.10512939453125,-0.26439008116722107,0.6431858539581299,-2.587299108505249
1780097601015123700,8.115123779296875,-1.0055991411209106,-0.18108214437961578,-1.924986720085144
1780097601025117400,8.125117431640625,-2.182222366333008,-1.434370994567871,-1.9472688436508179
1780097601035110400,8.1351103515625,-3.447568655014038,-1.7897602319717407,-2.3135907649993896
1780097601045104400,8.1451044921875,-4.118989944458008,-1.4845715761184692,-2.690748929977417
1780097601055098600,8.1550986328125,-3.898782968521118,-0.8973706364631653,-2.739145040512085
1780097601065091600,8.165091552734374,-3.0917422771453857,-0.24979349970817566,-2.4161179065704346
1780097601075085300,8.175085205078124,-2.2971079349517822,-0.06012371927499771,-1.9815415143966675
1780097601085079600,8.18507958984375,-1.6252641677856445,-0.5262408256530762,-1.3594611883163452
1780097601095073500,8.195073486328125,-1.1558797359466553,-1.2957897186279297,-0.7938799858093262
1780097601105066500,8.20506640625,-0.9121754765510559,-1.7216273546218872,-0.5915217995643616
1780097601115060500,8.215060546875,-0.6910174489021301,-1.590419888496399,-0.7183948755264282
1780097601125054700,8.2250546875,-0.35065722465515137,-1.1233091354370117,-0.8151965141296387
1780097601135047400,8.23504736328125,-0.039718322455883026,-0.6879327893257141,-0.6962146759033203
1780097601145041400,8.24504150390625,0.23365436494350433,-0.20269472897052765,-0.6459722518920898
1780097601155035400,8.255035400390625,0.5581820607185364,0.38412609696388245,-0.7790057063102722
1780097601165029600,8.265029541015625,0.8532187342643738,0.9313966631889343,-0.8174675703048706
1780097601175022600,8.275022705078126,1.1816080808639526,1.3869715929031372,-0.6219952702522278
1780097601185016600,8.2850166015625,1.521325945854187,1.7335052490234375,-0.3203960061073303
1780097601195010300,8.29501025390625,1.7891013622283936,1.9662115573883057,0.03914656862616539
1780097601205003500,8.30500341796875,1.9933667182922363,1.997128963470459,0.3866667151451111
1780097601214997500,8.31499755859375,2.1003458499908447,1.7251880168914795,0.7447672486305237
1780097601224991500,8.324991455078125,2.093379259109497,1.15908944606781,1.0769041776657104
1780097601234985500,8.3349853515625,1.9906563758850098,0.3308390974998474,1.2533159255981445
1780097601244978400,8.344978515625,1.8150190114974976,-1.0118036270141602,1.482506513595581
1780097601254972400,8.354972412109374,1.6028679609298706,-2.5354979038238525,1.8617709875106812
1780097601264966400,8.36496630859375,1.3408910036087036,-3.7496144771575928,2.043581962585449
1780097601274959600,8.374959716796875,1.015080451965332,-4.383091449737549,1.8276320695877075
1780097601284953600,8.38495361328125,0.5691402554512024,-3.3777668476104736,1.3725426197052002
1780097601294947600,8.394947509765625,-0.03534623607993126,-0.46973851323127747,0.8156622052192688
1780097601304940500,8.4049404296875,-0.43365925550460815,3.3015873432159424,0.11592225730419159
1780097601314934500,8.4149345703125,-0.673981785774231,6.312553405761719,-0.7353272438049316
1780097601324928500,8.424928466796874,-0.9552640318870544,5.144167900085449,-0.10191167891025543
1780097601334922500,8.434922607421875,-0.9627078771591187,1.6137027740478516,1.1456108093261719
1780097601344915700,8.444915771484375,-0.8338742852210999,-1.5594134330749512,0.8564701080322266
1780097601354909400,8.454909423828125,0.1720236986875534,-1.2190619707107544,-0.11383078992366791
1780097601364903400,8.4649033203125,1.4248087406158447,2.14196515083313,0.19355551898479462
1780097601374896600,8.474896728515626,2.951535940170288,5.295897960662842,0.549211859703064
1780097601384890600,8.484890625,3.166896343231201,6.132688045501709,1.297157883644104
1780097601394884600,8.494884521484375,1.9876089096069336,4.615809917449951,1.044947862625122
1780097601404878600,8.504878662109375,0.5299670100212097,1.3462269306182861,1.4053044319152832
1780097601414871600,8.51487158203125,-0.09844184666872025,-1.8169879913330078,2.0953402519226074
1780097601424865500,8.524865478515625,0.07434350997209549,-2.7349298000335693,1.9226784706115723
1780097601434859500,8.534859619140626,1.0866382122039795,-0.7678137421607971,0.893891453742981
1780097601444852500,8.5448525390625,2.1559126377105713,1.3018664121627808,-0.4591831862926483
1780097601454846700,8.5548466796875,2.5340652465820312,2.105590343475342,-0.4422425329685211
1780097601464840400,8.56484033203125,2.770637035369873,2.022217035293579,0.3651900887489319
1780097601474833200,8.574833251953125,2.9819812774658203,1.7061445713043213,1.0961145162582397
1780097601484827400,8.584827392578125,2.9807355403900146,1.6969233751296997,1.740527629852295
1780097601494821400,8.5948212890625,2.8055667877197266,1.8869209289550781,2.1914520263671875
1780097601504815400,8.6048154296875,2.5257742404937744,2.129019260406494,2.3215243816375732
1780097601514808300,8.614808349609374,2.098715305328369,2.259953022003174,2.4472436904907227
1780097601524802300,8.62480224609375,1.9508287906646729,2.5079524517059326,2.5936172008514404
1780097601534796300,8.63479638671875,2.0310072898864746,2.697509288787842,2.603226661682129
1780097601544789200,8.644789306640625,2.142650604248047,2.623307943344116,2.4150097370147705
1780097601554783200,8.654783203125,2.1675684452056885,2.5298171043395996,1.8446112871170044
1780097601564777500,8.664777587890624,1.9553511142730713,2.431428909301758,1.050829529762268
1780097601574770200,8.674770263671874,1.6507964134216309,2.0906927585601807,0.38019177317619324
1780097601584764200,8.68476416015625,1.4278160333633423,1.5067204236984253,-0.004514625761657953
1780097601594758400,8.69475830078125,1.1359539031982422,1.1629844903945923,-0.30071118474006653
1780097601604751400,8.70475146484375,0.9169316291809082,1.038369059562683,-0.5158846974372864
1780097601614745300,8.714745361328125,0.7045584917068481,0.8654825091362,-0.557547926902771
1780097601624739300,8.7247392578125,0.37635719776153564,0.612550675868988,-0.45333418250083923
1780097601634733300,8.7347333984375,0.01687736064195633,0.4729248285293579,-0.301318496465683
1780097601644726300,8.744726318359374,-0.40183788537979126,0.5336875319480896,-0.22279199957847595
1780097601654720300,8.75472021484375,-0.8351943492889404,0.9530589580535889,-0.27380460500717163
1780097601664714200,8.76471435546875,-1.2114007472991943,1.292118787765503,-0.5434291958808899
1780097601674707500,8.77470751953125,-1.5851038694381714,1.0156632661819458,-1.0269689559936523
1780097601684701200,8.784701171875,-2.0506410598754883,-0.09635996073484421,-1.7401049137115479
1780097601694695200,8.794695068359376,-2.4759507179260254,-1.1514078378677368,-2.66367769241333
1780097601704688400,8.8046884765625,-2.7865467071533203,-1.5200170278549194,-3.556260108947754
1780097601714682400,8.814682373046875,-3.093892812728882,-1.383305549621582,-4.259982585906982
1780097601724676400,8.82467626953125,-3.44963002204895,-0.9377642273902893,-4.680132865905762
1780097601734669300,8.83466943359375,-3.765871524810791,-0.45373183488845825,-4.586523056030273
1780097601744663300,8.844663330078125,-3.89628529548645,-0.5912428498268127,-3.788285970687866
1780097601754657300,8.8546572265625,-3.438629627227783,-1.3141131401062012,-2.666794538497925
1780097601764650200,8.864650146484376,-2.1291663646698,-1.6517995595932007,-2.392254114151001
1780097601774644500,8.87464453125,-0.632619321346283,-0.9185174107551575,-3.0945520401000977
1780097601784638500,8.884638427734375,-0.33266109228134155,0.0894448459148407,-3.698650360107422
1780097601794632200,8.894632080078125,-0.6935648918151855,-0.3075854182243347,-3.5549986362457275
1780097601804625200,8.904625244140625,-1.3867018222808838,-1.2953121662139893,-2.7417385578155518
1780097601814619400,8.914619384765626,-2.671828269958496,-1.7007949352264404,-1.9046679735183716
1780097601824613400,8.92461328125,-3.785737991333008,-1.5669811964035034,-1.5423771142959595
1780097601834606300,8.9346064453125,-3.9943811893463135,-1.1645162105560303,-1.6575961112976074
1780097601844600300,8.944600341796875,-3.610968828201294,-0.734443187713623,-1.8921955823898315
1780097601854594300,8.95459423828125,-2.9649674892425537,-0.49593812227249146,-1.9898194074630737
1780097601864587300,8.964587158203125,-2.14209246635437,-0.4821320176124573,-1.8297075033187866
1780097601874581200,8.974581298828125,-1.2652459144592285,-0.8403063416481018,-1.3879153728485107
1780097601884575500,8.984575439453126,-0.5038591027259827,-1.2537211179733276,-0.9642876386642456
1780097601894568200,8.994568115234374,0.031808242201805115,-1.3104721307754517,-0.6913068890571594
1780097601904562200,9.004562255859375,0.3861580491065979,-0.9271742701530457,-0.5701552033424377
1780097601914556200,9.01455615234375,0.6363896131515503,-0.5329062938690186,-0.4347311854362488
1780097601924549400,9.02454931640625,0.8134008646011353,-0.2864339351654053,-0.22691433131694794
1780097601934543400,9.03454345703125,0.9320030212402344,-0.06267539411783218,-0.02691860869526863
1780097601944537300,9.044537353515626,1.064001202583313,0.3707205057144165,0.042441558092832565
1780097601954530300,9.0545302734375,1.1554349660873413,0.832146942615509,0.11736726760864258
1780097601964524300,9.064524169921874,1.2286370992660522,1.2656123638153076,0.23732377588748932
1780097601974518300,9.074518310546875,1.2627625465393066,1.676920771598816,0.3508620262145996
1780097601984511500,9.084511474609375,1.2289958000183105,1.8963111639022827,0.4831569492816925
1780097601994505500,9.09450537109375,1.154936671257019,1.6668150424957275,0.751437246799469
1780097602004499200,9.104499267578126,1.048916220664978,0.9789895415306091,1.0719304084777832
1780097602014492200,9.1144921875,0.9755595326423645,-0.010892253369092941,1.3511226177215576
1780097602024486400,9.124486328125,0.9091554880142212,-1.1470415592193604,1.6240739822387695
1780097602034480400,9.13448046875,0.8762432932853699,-2.1359119415283203,1.747499942779541
1780097602044473300,9.144473388671875,0.8506556749343872,-2.9113175868988037,1.5726498365402222
1780097602054467300,9.15446728515625,0.6524935960769653,-2.69332218170166,1.1529130935668945
1780097602064461300,9.16446142578125,0.29405710101127625,-0.8113280534744263,0.6118810176849365
1780097602074454300,9.174454345703126,-0.17785565555095673,1.8984112739562988,-0.05178454518318176
1780097602084448300,9.1844482421875,-0.759976327419281,4.823623180389404,-0.903728187084198
1780097602094442200,9.194442138671874,-1.2713751792907715,6.537261962890625,-1.1367008686065674
1780097602104435200,9.204435302734375,-1.7297123670578003,3.823936700820923,0.1958375871181488
1780097602114429200,9.21442919921875,-1.8800263404846191,0.15421096980571747,1.3405557870864868
1780097602124423200,9.224423095703125,-1.626222848892212,-1.194697380065918,0.6260972023010254
1780097602134416400,9.23441650390625,-0.38710448145866394,-0.35514792799949646,-1.1299222707748413
1780097602144410400,9.244410400390626,1.2517225742340088,3.590394973754883,-2.031771659851074
1780097602154404400,9.254404296875,2.8927719593048096,6.112919807434082,-1.551543116569519
1780097602164397300,9.264397216796874,3.7925384044647217,5.873059272766113,-0.9704536199569702
1780097602174391300,9.274391357421875,3.4686830043792725,2.8354029655456543,-1.0058865547180176
1780097602184385300,9.28438525390625,2.3632431030273438,-0.6506707668304443,0.3493303060531616
1780097602194378500,9.29437841796875,1.1430189609527588,-3.9218027591705322,2.065530776977539
1780097602204372500,9.30437255859375,0.7783991098403931,-4.8835039138793945,3.960357189178467
1780097602214366200,9.3143662109375,1.4704662561416626,-2.061717987060547,3.5949690341949463
1780097602224359200,9.324359130859374,2.2220804691314697,1.7807081937789917,0.2981566786766052
1780097602234353400,9.334353515625,2.075469732284546,3.328996419906616,-0.6041784286499023
1780097602244347400,9.344347412109375,2.150059461593628,3.2398242950439453,0.10613453388214111
1780097602254340400,9.35434033203125,2.4459424018859863,2.3442232608795166,1.088316798210144
1780097602264334000,9.364333984375,2.5727779865264893,2.0244948863983154,2.094716787338257
1780097602274328300,9.374328369140626,2.6108765602111816,2.049535036087036,2.9104630947113037
1780097602284321300,9.3843212890625,2.6267247200012207,2.265752077102661,3.410837173461914
1780097602294315300,9.394315185546875,2.818310499191284,2.431171417236328,3.5470573902130127
1780097602304309200,9.404309326171875,3.0313427448272705,2.9500441551208496,3.4188971519470215
1780097602314302200,9.41430224609375,3.13488507270813,3.4394938945770264,2.824718475341797
1780097602324296200,9.424296142578125,2.8418188095092773,3.881868362426758,1.7119665145874023
1780097602334290200,9.434290283203126,2.5743091106414795,3.8815648555755615,0.7605686783790588
1780097602344283400,9.444283447265626,2.2739665508270264,3.151280403137207,0.4397168755531311
1780097602354277400,9.45427734375,1.826593041419983,2.175964832305908,0.37900790572166443
1780097602364271400,9.464271240234375,1.3789094686508179,1.479566216468811,0.23852188885211945
1780097602374264300,9.474264404296875,1.014370083808899,1.0165005922317505,0.048204630613327026
1780097602384258300,9.48425830078125,0.6665825247764587,0.6719844937324524,-0.1455046385526657
1780097602394252300,9.494252197265626,0.34741246700286865,0.4100569784641266,-0.2621719241142273
1780097602404245500,9.50424560546875,-0.011923598125576973,0.26386862993240356,-0.2726847529411316
1780097602414239500,9.514239501953124,-0.47936275601387024,0.1341930627822876,-0.3131501078605652
1780097602424233200,9.524233154296875,-0.9663044214248657,0.12626242637634277,-0.45394396781921387
1780097602434226200,9.53422607421875,-1.3237133026123047,0.20405764877796173,-0.7331558465957642
1780097602444220400,9.544220458984375,-1.593842625617981,0.0858074352145195,-1.1432116031646729
1780097602454214400,9.55421435546875,-1.8776721954345703,-0.34252414107322693,-1.5606896877288818
1780097602464207400,9.564207275390626,-2.1304516792297363,-0.989539384841919,-1.9493788480758667
1780097602474201000,9.574201171875,-2.2957098484039307,-1.5331788063049316,-2.3042166233062744
1780097602484195300,9.5841953125,-2.4825611114501953,-1.8369635343551636,-2.7741615772247314
1780097602494188000,9.59418798828125,-2.724839687347412,-1.9132006168365479,-3.315507173538208
1780097602504182000,9.60418212890625,-2.980313539505005,-1.97124183177948,-3.563974380493164
1780097602514175200,9.61417529296875,-3.0756709575653076,-2.163252353668213,-3.08793568611145
1780097602524169200,9.624169189453125,-2.9797046184539795,-2.564781665802002,-2.225987672805786
1780097602534163200,9.6341630859375,-2.466529130935669,-2.532653331756592,-2.114659547805786
1780097602544156200,9.64415625,-1.8464256525039673,-1.980081558227539,-2.6230335235595703
1780097602554150100,9.654150146484374,-1.5315793752670288,-0.5485159754753113,-3.612804412841797
1780097602564144000,9.66414404296875,-1.4971790313720703,-0.07935301214456558,-3.9171926975250244
1780097602574137000,9.67413720703125,-1.6537232398986816,-0.8203566670417786,-3.4703290462493896
1780097602584131300,9.68413134765625,-1.9417413473129272,-1.8106797933578491,-2.5844337940216064
1780097602594125000,9.694125,-2.328434944152832,-2.1732211112976074,-2.003600835800171
1780097602604118000,9.704117919921876,-2.4094672203063965,-1.743316650390625,-2.0025627613067627
1780097602614112300,9.7141123046875,-2.203097343444824,-1.1949301958084106,-2.254394054412842
1780097602624106200,9.724106201171875,-1.915527105331421,-0.79990553855896,-2.28533673286438
1780097602634099200,9.73409912109375,-1.6019831895828247,-0.4496798813343048,-2.109675645828247
1780097602644093000,9.744093017578125,-1.2730375528335571,-0.243354931473732,-1.7657725811004639
1780097602654087200,9.754087158203125,-0.9823118448257446,-0.2946590185165405,-1.2839560508728027
1780097602664080100,9.764080078125,-0.8013087511062622,-0.4323742687702179,-0.8352169394493103
1780097602674074000,9.77407421875,-0.6701929569244385,-0.4834226667881012,-0.5703761577606201
1780097602684067300,9.7840673828125,-0.45526576042175293,-0.44894057512283325,-0.44348883628845215
1780097602694061000,9.79406103515625,-0.20000191032886505,-0.37290334701538086,-0.27042028307914734
1780097602704055000,9.804054931640625,0.02785150334239006,-0.2047332376241684,-0.058357566595077515
1780097602714048300,9.81404833984375,0.23880839347839355,0.12663479149341583,0.12077835202217102
1780097602724042200,9.824042236328125,0.4972066581249237,0.6449240446090698,0.21175992488861084
1780097602734036200,9.8340361328125,0.7735121250152588,1.328145980834961,0.20333456993103027
1780097602744029000,9.84402880859375,0.9767323732376099,1.8938813209533691,0.19163504242897034
1780097602754023200,9.854023193359374,1.1005430221557617,2.244288444519043,0.17353297770023346
1780097602764017200,9.86401708984375,1.220969557762146,2.38763165473938,0.09516813606023788
1780097602774010000,9.874010009765625,1.2716448307037354,2.261850118637085,0.04963400959968567
1780097602784004000,9.884004150390625,1.3000074625015259,1.7638250589370728,0.158842533826828
1780097602793997000,9.8939970703125,1.3040704727172852,0.5899481177330017,0.5674826502799988
1780097602803991000,9.903990966796876,1.2727229595184326,-1.2053427696228027,1.2403450012207031
1780097602813985000,9.913985107421874,1.2430614233016968,-3.0865237712860107,1.7713207006454468
1780097602823978200,9.923978271484375,1.0538265705108643,-3.99996280670166,1.6978720426559448
1780097602833972200,9.93397216796875,0.6763034462928772,-2.111138343811035,1.0804259777069092
1780097602843966200,9.94396630859375,0.12001115828752518,1.6630148887634277,0.13011953234672546
1780097602853959200,9.953959228515625,-0.6342593431472778,5.159461975097656,-0.8326287865638733
1780097602863953200,9.963953125,-1.0033458471298218,6.113241195678711,-1.0089895725250244
1780097602873947100,9.973947021484374,-1.2093145847320557,3.6332204341888428,0.22661930322647095
1780097602883940000,9.983940185546874,-1.3319697380065918,-0.8224566578865051,1.6786128282546997
1780097602893934300,9.993934326171875,-0.8801404237747192,-0.12870387732982635,0.1376507580280304
1780097602903927000,10.003927001953125,0.2122589498758316,1.1886752843856812,-1.7897396087646484
1780097602913921000,10.013921142578125,1.1188987493515015,1.7370023727416992,-1.8584705591201782
1780097602923915300,10.023915283203126,1.6142749786376953,2.1283836364746094,-0.9694898724555969
1780097602933908200,10.033908203125,1.792906403541565,2.7041726112365723,0.1282115876674652
1780097602943902200,10.043902099609374,1.970278263092041,1.9618860483169556,0.5115861296653748
1780097602953896000,10.05389599609375,1.7669299840927124,0.2136310189962387,1.6915149688720703
1780097602963889200,10.06388916015625,1.5353037118911743,-1.8206647634506226,3.0632293224334717
1780097602973883100,10.073883056640625,1.8701273202896118,-2.3946495056152344,3.0369679927825928
1780097602983876400,10.08387646484375,2.3490371704101562,-1.1699650287628174,1.7303208112716675
1780097602993870300,10.093870361328126,2.688276767730713,0.7206748723983765,0.4149697422981262
1780097603003864000,10.103864013671876,2.7910635471343994,1.9918715953826904,0.02571544237434864
1780097603013857000,10.11385693359375,2.81528639793396,2.563063144683838,0.4779041111469269
1780097603023851300,10.123851318359375,2.880258321762085,2.5633978843688965,1.2205209732055664
1780097603033845200,10.13384521484375,2.907710075378418,2.3334996700286865,1.8282277584075928
1780097603043838000,10.143837890625,2.915670394897461,2.1765520572662354,2.308786392211914
1780097603053832000,10.15383203125,3.0390918254852295,1.957299828529358,2.7746448516845703
1780097603063825200,10.1638251953125,3.043463945388794,1.874812364578247,3.1763627529144287
1780097603073819100,10.173819091796876,2.9742355346679688,2.1106483936309814,3.434648275375366
1780097603083813000,10.183813232421874,3.1392102241516113,2.4685935974121094,3.4975967407226562
1780097603093806000,10.19380615234375,3.165661573410034,2.8159267902374268,3.133308172225952
1780097603103800000,10.203800048828125,2.9125003814697266,2.8371944427490234,2.2193994522094727
1780097603113794000,10.2137939453125,2.4702577590942383,2.2126388549804688,1.0033042430877686
1780097603123787300,10.223787353515625,1.8852239847183228,1.2190697193145752,0.22519665956497192
1780097603133781200,10.23378125,1.2516939640045166,0.2626475393772125,0.011193634942173958
1780097603143774000,10.24377392578125,0.6948983073234558,-0.4430387318134308,0.018585238605737686
1780097603153768000,10.253767822265624,0.3078971803188324,-0.869170069694519,0.09656983613967896
1780097603163762200,10.26376220703125,0.05228085070848465,-1.013147234916687,0.15194201469421387
1780097603173755100,10.273755126953125,-0.3593190610408783,-0.9020205140113831,0.07257098704576492
1780097603183749000,10.2837490234375,-0.8632375597953796,-0.6467592120170593,-0.2802134156227112
1780097603193743000,10.2937431640625,-1.3166929483413696,-0.26204296946525574,-0.7182480096817017
1780097603203736000,10.303736083984376,-1.722603440284729,-0.13736657798290253,-1.1451714038848877
1780097603213730000,10.31372998046875,-2.0618879795074463,-0.3215537667274475,-1.5120717287063599
1780097603223723300,10.32372314453125,-2.2715580463409424,-0.9521074891090393,-1.8351000547409058
1780097603233717200,10.33371728515625,-2.4109244346618652,-1.8235549926757812,-2.183661937713623
1780097603243711200,10.343711181640625,-2.4767982959747314,-2.3368120193481445,-2.6319217681884766
1780097603253704200,10.3537041015625,-2.509378433227539,-2.569420576095581,-3.1877694129943848
1780097603263698200,10.3636982421875,-2.6055147647857666,-2.7712769508361816,-3.776776075363159
1780097603273691100,10.373691162109376,-2.9208614826202393,-2.939079999923706,-4.163027763366699
1780097603283685000,10.38368505859375,-3.2663471698760986,-2.7246286869049072,-3.9648969173431396
1780097603293679400,10.393679443359375,-3.1922314167022705,-2.5487306118011475,-3.1428661346435547
1780097603303672000,10.403672119140625,-2.66211199760437,-2.5262980461120605,-2.284858226776123
1780097603313666000,10.413666015625,-1.7515016794204712,-2.064639091491699,-2.2864410877227783
1780097603323659300,10.4236591796875,-1.038118600845337,-0.4827388525009155,-2.9866485595703125
1780097603333653200,10.4336533203125,-0.953697681427002,0.5499922633171082,-3.3875160217285156
1780097603343647200,10.443647216796874,-1.0193935632705688,-0.016714345663785934,-3.5106098651885986
1780097603353640200,10.45364013671875,-1.1523213386535645,-0.8928704261779785,-3.1127774715423584
1780097603363634200,10.46363427734375,-1.737538456916809,-1.7011924982070923,-2.3929221630096436
1780097603373628200,10.473628173828125,-2.203770399093628,-1.8660653829574585,-2.0364105701446533
1780097603383621000,10.48362109375,-2.1417460441589355,-1.5352131128311157,-2.061675786972046
1780097603393615400,10.493615478515625,-1.9453989267349243,-0.8784487843513489,-2.1376967430114746
1780097603403608000,10.503608154296876,-1.7018944025039673,-0.22920897603034973,-2.1581528186798096
1780097603413602000,10.51360205078125,-1.3798046112060547,0.051797401160001755,-1.9935197830200195
1780097603423596000,10.523595947265624,-1.0483084917068481,-0.13482706248760223,-1.556549310684204
1780097603433589200,10.53358935546875,-0.7637521028518677,-0.5807605385780334,-1.0302802324295044
1780097603443583200,10.543583251953125,-0.681468665599823,-1.0453470945358276,-0.5721660256385803
1780097603453576200,10.553576171875,-0.6793715357780457,-1.3282312154769897,-0.27056393027305603
1780097603463570200,10.563570068359375,-0.6256651878356934,-1.3984148502349854,-0.10735581815242767
1780097603473564200,10.573564208984376,-0.4156412184238434,-1.191251277923584,-0.018047409132122993
1780097603483558000,10.583557861328124,-0.07726743817329407,-0.5542808771133423,0.009342935867607594
1780097603493551900,10.5935517578125,0.24080637097358704,0.23717711865901947,0.0677480399608612
1780097603503544800,10.603544921875,0.49059438705444336,1.029083251953125,0.11249075084924698
1780097603513538800,10.613538818359375,0.6365606784820557,1.6956984996795654,0.1092287227511406
1780097603523532800,10.62353271484375,0.7402966618537903,2.1234188079833984,0.11265354603528976
1780097603533526000,10.633526123046876,0.8298271298408508,2.2086002826690674,0.20365770161151886
1780097603543520000,10.64352001953125,0.9343727231025696,1.8979145288467407,0.4436465799808502
1780097603553512700,10.6535126953125,1.0424615144729614,1.1350224018096924,0.8541057705879211
1780097603563507000,10.6635068359375,1.1397790908813477,0.026347897946834564,1.3881908655166626
1780097603573501000,10.6735009765625,1.244098424911499,-1.2679632902145386,1.8735036849975586
1780097603583494000,10.683493896484375,1.409356951713562,-2.7398927211761475,2.213218927383423
1780097603593488000,10.69348779296875,1.4316167831420898,-2.9742538928985596,1.9629528522491455
1780097603603480800,10.703480712890626,1.1995086669921875,-0.77618008852005,1.2193481922149658
1780097603613474800,10.713474853515624,0.634007453918457,2.145481586456299,0.4026954770088196
1780097603623468800,10.72346875,-0.34902918338775635,5.119827747344971,-0.4458480775356293
1780097603633462000,10.7334619140625,-1.1287754774093628,5.808522701263428,-0.45455336570739746
1780097603643456000,10.7434560546875,-1.6437640190124512,2.73433256149292,0.8544904589653015
1780097603653448700,10.75344873046875,-1.860874891281128,0.6449199318885803,0.7256529927253723
1780097603663443000,10.76344287109375,-1.1055102348327637,0.30224862694740295,-0.9941335916519165
1780097603673437000,10.77343701171875,0.24366897344589233,1.0454518795013428,-1.9448989629745483
1780097603683430000,10.783429931640624,1.2398173809051514,1.6581286191940308,-1.5786634683609009
1780097603693423900,10.793423828125,2.0086612701416016,2.809281587600708,-0.7473222613334656
1780097603703416800,10.803416748046875,2.4143848419189453,2.8311052322387695,-0.1291235238313675
1780097603713410800,10.813410888671875,2.33914852142334,1.2243525981903076,0.423355370759964
1780097603723404000,10.823404052734375,1.997746229171753,-0.4317697286605835,1.686804175376892
1780097603733398000,10.83339794921875,1.7439539432525635,-1.8729629516601562,2.990175724029541
1780097603743392000,10.84339208984375,1.8786526918411255,-2.0767431259155273,3.488227605819702
1780097603753384700,10.853384765625,2.1867096424102783,-1.2968522310256958,2.635145902633667
1780097603763379000,10.86337890625,2.428262710571289,0.2730037569999695,1.082270622253418
1780097603773372000,10.873371826171875,2.37048077583313,1.493329644203186,0.599329948425293
1780097603783366000,10.883365966796875,2.3972246646881104,2.004142999649048,1.1568872928619385
1780097603793360000,10.89335986328125,2.5201172828674316,1.8853068351745605,1.8993937969207764
1780097603803352800,10.903352783203125,2.57717227935791,1.7609710693359375,2.4416894912719727
1780097603813346800,10.913346923828126,2.597526788711548,1.5362374782562256,2.836127758026123
1780097603823340000,10.923340087890624,2.6334691047668457,1.18898606300354,3.268106698989868
1780097603833334000,10.933333984375,2.642439842224121,1.180091142654419,3.6635804176330566
1780097603843328000,10.943327880859375,2.6374824047088623,1.7502427101135254,3.6586387157440186
1780097603853321000,10.953321044921875,2.608790159225464,2.402604818344116,2.99452543258667
1780097603863315000,10.96331494140625,2.4498493671417236,2.552137613296509,1.8696534633636475
1780097603873308000,10.973307861328125,2.027620553970337,2.149430990219116,0.8951224684715271
1780097603883302000,10.983302001953126,1.5314816236495972,1.576070785522461,0.2811205983161926
1780097603893294800,10.993294921875,1.044365406036377,0.9988583326339722,-0.0742102712392807
1780097603903288800,11.003288818359374,0.6132678389549255,0.49635469913482666,-0.23425453901290894
1780097603913282800,11.01328271484375,0.2864495813846588,0.17145128548145294,-0.2544749081134796
1780097603923276000,11.023276123046875,-0.01192353293299675,-0.09976131469011307,-0.19013695418834686
1780097603933270000,11.03327001953125,-0.4010224938392639,-0.38260847330093384,-0.1545698046684265
1780097603943262700,11.0432626953125,-0.8851508498191833,-0.5737310647964478,-0.2563749849796295
1780097603953257000,11.053257080078126,-1.3770771026611328,-0.666004478931427,-0.4954366385936737
1780097603963251000,11.0632509765625,-1.7949573993682861,-0.8126466274261475,-0.8439804911613464
1780097603973244000,11.073243896484374,-2.056746482849121,-1.0231300592422485,-1.240342140197754
1780097603983238000,11.08323779296875,-2.1992533206939697,-1.2841070890426636,-1.5856542587280273
1780097603993230800,11.09323095703125,-2.2933568954467773,-1.6361069679260254,-2.041187047958374
1780097604003224800,11.103224853515625,-2.389059543609619,-1.936073660850525,-2.5984959602355957
1780097604013218000,11.113218017578125,-2.4863369464874268,-2.062340259552002,-3.160515308380127
1780097604023212000,11.1232119140625,-2.645911455154419,-2.2308247089385986,-3.703321695327759
1780097604033206000,11.1332060546875,-2.863267421722412,-2.4437217712402344,-3.6970956325531006
1780097604043198700,11.14319873046875,-2.831547975540161,-2.7571094036102295,-2.981482982635498
1780097604053193000,11.15319287109375,-2.708416223526001,-2.9091405868530273,-2.1808931827545166
1780097604063186000,11.16318603515625,-2.1599321365356445,-2.3981916904449463,-2.036123752593994
1780097604073180000,11.173179931640625,-1.1834975481033325,-1.8298895359039307,-2.336817979812622
1780097604083172900,11.1831728515625,-0.8298539519309998,-0.9213329553604126,-1.9717882871627808
1780097604093166800,11.193166748046876,-0.8934277296066284,-1.021207332611084,-1.459102749824524
1780097604103160800,11.203160888671874,-1.2286930084228516,-1.779938817024231,-1.2404028177261353
1780097604113154000,11.213154052734374,-1.9564294815063477,-2.136096715927124,-1.237626314163208
1780097604123148000,11.22314794921875,-2.6729001998901367,-1.9860317707061768,-1.5405030250549316
1780097604133140700,11.233140625,-2.8283491134643555,-1.3873449563980103,-1.9409996271133423
1780097604143134700,11.243134765625,-2.694258689880371,-0.5101059675216675,-2.1012041568756104
1780097604153128000,11.2531279296875,-2.3636693954467773,0.2548093795776367,-1.9833171367645264
1780097604163122000,11.263121826171876,-1.883107304573059,0.7317785620689392,-1.72005295753479
1780097604173116000,11.273115966796874,-1.2979358434677124,0.824016273021698,-1.3627474308013916
1780097604183108900,11.28310888671875,-0.7350070476531982,0.45077213644981384,-0.9249133467674255
1780097604193102800,11.293102783203125,-0.3480495810508728,-0.18028636276721954,-0.5340473055839539
1780097604203095800,11.303095703125,-0.24667315185070038,-0.7639500498771667,-0.2623145878314972
1780097604213090000,11.313090087890625,-0.3425528109073639,-1.0028365850448608,-0.18284305930137634
1780097604223082800,11.323082763671875,-0.4288269877433777,-0.8399915099143982,-0.20692682266235352
1780097604233076700,11.33307666015625,-0.29006320238113403,-0.48745453357696533,-0.15335483849048615
1780097604243070700,11.34307080078125,-0.04397006332874298,0.014937196858227253,-0.050962407141923904
1780097604253064000,11.35306396484375,0.23655980825424194,0.6031619310379028,0.06363433599472046
1780097604263058000,11.363057861328125,0.47935914993286133,1.1836514472961426,0.16646777093410492
1780097604273051000,11.37305078125,0.6456266641616821,1.5858380794525146,0.2289978563785553
1780097604283044900,11.383044921875,0.7408626675605774,1.6928389072418213,0.22701752185821533
1780097604293037800,11.393037841796875,0.8402806520462036,1.6230477094650269,0.21325966715812683
1780097604303031800,11.40303173828125,0.9188961386680603,1.2217823266983032,0.3738733232021332
1780097604313026000,11.413026123046874,0.9393193125724792,0.2800350487232208,0.807033360004425
1780097604323018800,11.423018798828124,0.9590941071510315,-1.2324628829956055,1.4100022315979004
1780097604333012700,11.4330126953125,1.0506595373153687,-3.2416832447052,1.812522292137146
1780097604343006000,11.443005859375,1.2313131093978882,-5.044637680053711,1.6431671380996704
1780097604353000000,11.453,1.2020444869995117,-4.513299465179443,1.0241880416870117
1780097604362993000,11.462992919921875,0.9329466819763184,-1.8229724168777466,0.3606463670730591
1780097604372987000,11.47298681640625,0.3780049681663513,1.9538698196411133,-0.37805452942848206
1780097604382979800,11.482979736328126,-0.4619144797325134,5.481433868408203,-1.0646061897277832
1780097604392973800,11.492973876953124,-1.232911229133606,7.065457820892334,-1.149492621421814
1780097604402967800,11.5029677734375,-1.655955195426941,5.524209976196289,0.22344255447387695
1780097604412961000,11.5129609375,-1.7551145553588867,1.7139580249786377,1.897133708000183
1780097604422954800,11.522954833984375,-1.6967599391937256,-0.8204379081726074,1.611003041267395
1780097604432948000,11.532947998046875,-0.5165569186210632,-2.0612831115722656,-0.23958849906921387
1780097604442942000,11.54294189453125,0.48473358154296875,0.06205282360315323,0.812063455581665
1780097604452935000,11.552934814453126,2.047616958618164,1.8169608116149902,0.3987935781478882
1780097604462929000,11.562928955078124,3.168736219406128,2.935661792755127,0.0917886346578598
1780097604472921900,11.572921875,3.113574504852295,2.005030870437622,-0.3098405599594116
1780097604482915300,11.582915283203125,2.3681325912475586,0.24471142888069153,0.4906372129917145
1780097604492909300,11.592909423828125,1.675943374633789,-1.6828649044036865,1.4533017873764038
1780097604502902500,11.602902587890625,1.2726892232894897,-2.786980390548706,2.2328779697418213
1780097604512896500,11.612896484375,0.9794490337371826,-2.2636666297912598,2.9085006713867188
1780097604522889500,11.622889404296876,0.972179651260376,-1.2760883569717407,3.0040628910064697
1780097604532883500,11.632883544921874,1.3141916990280151,-0.35247865319252014,2.3902647495269775
1780097604542876400,11.64287646484375,1.7439920902252197,0.3937252163887024,2.0626957416534424
1780097604552870400,11.652870361328125,2.019216537475586,1.0129804611206055,2.1942138671875
1780097604562863400,11.66286328125,2.210312604904175,1.3052277565002441,2.46535062789917
1780097604572857300,11.672857421875,2.3787283897399902,1.2956907749176025,2.6920864582061768
1780097604582851300,11.682851318359376,2.4600963592529297,1.1786456108093262,2.9466819763183594
1780097604592844500,11.692844482421876,2.524064302444458,1.2106155157089233,3.3325374126434326
1780097604602838500,11.702838623046874,2.6004984378814697,1.5151256322860718,3.6364119052886963
1780097604612831200,11.712831298828124,2.634603500366211,2.2267158031463623,3.570666790008545
1780097604622825500,11.722825439453125,2.6728768348693848,2.73949933052063,2.8641510009765625
1780097604632818400,11.732818359375,2.5509960651397705,2.6063754558563232,1.7848507165908813
1780097604642812400,11.7428125,2.190573215484619,1.938724398612976,1.0160666704177856
1780097604652805400,11.752805419921875,1.5885810852050781,1.148776650428772,0.6769618391990662
1780097604662799400,11.76279931640625,0.9551562070846558,0.29420000314712524,0.675784170627594
1780097604672792300,11.772792236328126,0.44641366600990295,-0.41749411821365356,0.862777829170227
1780097604682786600,11.78278662109375,0.12398955971002579,-0.8555889129638672,1.1194957494735718
1780097604692780500,11.792780517578125,-0.205941304564476,-0.928294837474823,1.3143380880355835
1780097604702773200,11.802773193359375,-0.6416126489639282,-0.7784256935119629,1.1976327896118164
1780097604712767500,11.812767578125,-1.088887333869934,-0.5913792848587036,0.8185927867889404
1780097604722760400,11.822760498046875,-1.451939344406128,-0.34580197930336,0.3174056112766266
1780097604732754400,11.83275439453125,-1.7475992441177368,-0.10997505486011505,-0.23955994844436646
1780097604742747600,11.84274755859375,-1.9678459167480469,-0.15998440980911255,-0.9844319820404053
1780097604752741400,11.852741455078124,-2.1121621131896973,-0.7189317345619202,-1.9484033584594727
1780097604762734300,11.862734375,-2.1507954597473145,-1.50841224193573,-2.836940050125122
1780097604772728300,11.872728271484375,-2.184516668319702,-2.1109507083892822,-3.6200742721557617
1780097604782721500,11.882721435546875,-2.297922372817993,-2.6626412868499756,-4.358938694000244
1780097604792715500,11.892715576171875,-2.2801287174224854,-3.422544479370117,-4.519586086273193
1780097604802709200,11.902709228515626,-2.1737804412841797,-3.811767339706421,-3.8396146297454834
1780097604812702500,11.912702392578124,-2.068277597427368,-3.4129741191864014,-2.8912816047668457
1780097604822696400,11.922696533203125,-1.5507469177246094,-1.9380342960357666,-2.636943817138672
1780097604832689400,11.932689453125,-0.9953860640525818,-0.8123499155044556,-3.4984776973724365
1780097604842683400,11.942683349609375,-0.49353039264678955,0.44097042083740234,-3.863811492919922
1780097604852676400,11.95267626953125,-0.4453897476196289,1.0108438730239868,-3.32706356048584
1780097604862670300,11.96267041015625,-0.647645115852356,0.518890917301178,-2.4511237144470215
1780097604872663600,11.97266357421875,-1.4209926128387451,-0.21960806846618652,-1.819461703300476
1780097604882657500,11.982657470703124,-2.442814826965332,-1.0017433166503906,-2.0002100467681885
1780097604892650200,11.992650146484374,-2.931645393371582,-1.4035968780517578,-2.378915548324585
1780097604902644500,12.00264453125,-2.8247017860412598,-1.1730952262878418,-2.3944709300994873
1780097604912637400,12.012637451171875,-2.438324213027954,-0.5758872032165527,-2.237257719039917
1780097604922631400,12.02263134765625,-1.8955235481262207,0.07000262290239334,-2.0856316089630127
1780097604932625400,12.03262548828125,-1.3172106742858887,0.44073209166526794,-1.8635987043380737
1780097604942618400,12.042618408203126,-0.7888347506523132,0.5174940228462219,-1.5398660898208618
1780097604952612400,12.0526123046875,-0.4857853353023529,0.35073500871658325,-1.1681526899337769
1780097604962605600,12.06260546875,-0.4258034825325012,0.08579230308532715,-0.8823704123497009
1780097604972599600,12.072599609375,-0.4911525249481201,-0.12899358570575714,-0.6827127933502197
1780097604982592300,12.08259228515625,-0.5398657917976379,-0.23038224875926971,-0.5255314707756042
1780097604992586500,12.09258642578125,-0.40937355160713196,-0.17765462398529053,-0.4784775972366333
1780097605002579500,12.102579345703125,-0.20746305584907532,0.0635843575000763,-0.5109580755233765
1780097605012573400,12.112573486328126,0.003377544693648815,0.46734991669654846,-0.5245364308357239
1780097605022566400,12.12256640625,0.24172645807266235,0.9966766834259033,-0.5503895878791809
1780097605032560400,12.132560302734374,0.4709216356277466,1.4929423332214355,-0.5091840624809265
1780097605042553300,12.14255322265625,0.6523734331130981,1.8506735563278198,-0.36768174171447754
1780097605052547300,12.15254736328125,0.8215389251708984,1.9400421380996704,-0.11071792244911194
1780097605062540500,12.16254052734375,0.9529171586036682,1.5568569898605347,0.3311798572540283
1780097605072534300,12.1725341796875,1.0506455898284912,0.5414834022521973,0.9287046790122986
1780097605082527500,12.182527587890625,1.1937271356582642,-1.0027772188186646,1.5443096160888672
1780097605092521500,12.192521484375,1.456997275352478,-2.7137668132781982,1.8324377536773682
1780097605102515500,12.202515380859374,1.654039978981018,-3.4487435817718506,1.5939958095550537
1780097605112508400,12.21250830078125,1.5830813646316528,-2.541585683822632,1.1078765392303467
1780097605122502400,12.22250244140625,1.3296974897384644,-0.3291325271129608,0.5462467074394226
1780097605132495400,12.232495361328125,0.8369193077087402,2.620572328567505,-0.04360887035727501
1780097605142489300,12.2424892578125,0.10792185366153717,4.743035316467285,-0.3543744385242462
1780097605152482600,12.252482666015625,-0.6040260195732117,5.577176094055176,-0.04659811407327652
1780097605162476500,12.2624765625,-1.0468705892562866,4.592421054840088,1.040147066116333
1780097605172469500,12.272469482421876,-1.1842883825302124,1.3376134634017944,2.745039701461792
1780097605182463500,12.28246337890625,-0.8651384115219116,0.4393981397151947,1.966092824935913
1780097605192456400,12.29245654296875,-0.2368897944688797,-0.16768918931484222,-0.7039433121681213
1780097605202450400,12.302450439453125,0.21314874291419983,0.6812639832496643,-0.8129672408103943
1780097605212443400,12.312443359375,1.1958348751068115,0.7543197274208069,-0.6003381013870239
1780097605222437400,12.322437255859375,1.9169429540634155,1.470459222793579,-0.21329477429389954
1780097605232430300,12.332430419921875,1.9924269914627075,1.157758355140686,-0.15058360993862152
1780097605242424600,12.342424560546876,1.6831810474395752,0.24598626792430878,0.7356170415878296
1780097605252417300,12.352417236328124,1.5053311586380005,-0.47944676876068115,1.9598941802978516
1780097605262411300,12.362411376953125,1.6459074020385742,-1.2180579900741577,2.8612241744995117
1780097605272404500,12.372404541015625,1.919068455696106,-0.8454065918922424,3.1298863887786865
1780097605282398500,12.3823984375,2.203098773956299,-0.3368834853172302,2.0999419689178467
1780097605292391400,12.392391357421875,2.2653777599334717,-0.18040567636489868,1.2523760795593262
1780097605302385400,12.402385498046876,2.1349263191223145,-0.3134859800338745,1.5901210308074951
1780097605312379400,12.41237939453125,1.9036669731140137,-0.45884886384010315,2.294957160949707
1780097605322372400,12.422372314453124,1.6919020414352417,-0.3797798752784729,2.7782530784606934
1780097605332366600,12.43236669921875,1.6442519426345825,-0.18768146634101868,3.0154569149017334
1780097605342359600,12.442359619140625,1.7118570804595947,0.08055424690246582,3.108520984649658
1780097605352353300,12.452353271484375,1.9443814754486084,0.43535465002059937,3.3023548126220703
1780097605362346500,12.462346435546875,2.2412219047546387,0.9349226355552673,3.2814674377441406
1780097605372340500,12.472340576171876,2.4999990463256836,1.3315784931182861,2.8224568367004395
1780097605382333400,12.48233349609375,2.640772819519043,1.4993064403533936,2.1775002479553223
1780097605392327400,12.492327392578124,2.529080867767334,1.3692471981048584,1.666176676750183
1780097605402320400,12.5023203125,2.1613171100616455,1.0533199310302734,1.3593733310699463
1780097605412314400,12.512314453125,1.7309962511062622,0.5254934430122375,1.2569663524627686
1780097605422307600,12.5223076171875,1.1067681312561035,0.1780928373336792,1.2154197692871094
1780097605432301600,12.532301513671875,0.5054542422294617,0.10624436289072037,1.1691995859146118
1780097605442294300,12.542294189453125,0.20906013250350952,0.12142384797334671,1.1240395307540894
1780097605452288500,12.55228857421875,0.17771023511886597,0.11835546046495438,0.9502613544464111
1780097605462281500,12.562281494140626,-0.06160569563508034,-0.0971483364701271,0.5925983190536499
1780097605472275500,12.572275390625,-0.4779871106147766,-0.316913902759552,0.10994456708431244
1780097605482273300,12.582273193359375,-0.9401786923408508,-0.5238492488861084,-0.41061127185821533
1780097605492267300,12.592267333984376,-1.3484418392181396,-0.6442254781723022,-1.0933849811553955
1780097605502260200,12.60226025390625,-1.678959846496582,-0.8706154823303223,-1.8268482685089111
1780097605512254200,12.612254150390624,-2.069810152053833,-1.4379109144210815,-2.314131498336792
1780097605522247400,12.622247314453125,-2.5090627670288086,-1.674575686454773,-2.739454746246338
