time,seconds_elapsed,z,y,x
1780100631238106600,0.058106689453125,-1.1871481758624314,-0.20758125868439672,-1.0280494277309626
1780100631248098600,0.0680986328125,-1.300528471326828,-0.06331774917840957,-1.028967638554424
1780100631258090800,0.0780908203125,-1.1692910321325063,0.07552198171317577,-1.0027508088886736
1780100631268082700,0.088082763671875,-0.5936708263039588,0.24364684379994866,-1.244382513473928
1780100631278073600,0.098073486328125,-0.2132686566710472,0.3021294279068708,-1.3747548602715134
1780100631288065500,0.1080654296875,0.028815760117769238,0.3127823393464088,-1.6472444983266292
1780100631298057500,0.118057373046875,-0.024902386066317558,0.14033318431973457,-1.6817258829906583
1780100631308049400,0.12804931640625,-0.14130992039740084,-0.057216509693861,-1.4979672523118555
1780100631318041600,0.13804150390625,-0.2546153970599174,-0.09340952058136463,-1.2158682205207645
1780100631328033500,0.148033447265625,-0.3842109142661094,-0.0034352351456880567,-0.9368535646110773
1780100631338025500,0.158025390625,-0.7227519642472267,-0.08448562489151955,-0.552954273577407
1780100631348017400,0.168017333984375,-1.3677964194357395,-0.4413455908954143,-0.12136048969649708
1780100631358008300,0.17800830078125,-1.7872978427916764,-0.8356248947113751,0.29183972375653683
1780100631368000500,0.18800048828125,-1.4946733253329991,-0.895340820005536,0.6603561522193253
1780100631377992400,0.197992431640625,-0.3894453077882528,-0.4202285685867071,1.0885537999890744
1780100631387984600,0.207984619140625,1.059629464930296,0.4436474380970001,1.7766881859719752
1780100631397976300,0.217976318359375,2.06221134699285,1.3939566966086625,2.6989778031796217
1780100631407968500,0.227968505859375,2.47495569730401,1.8634136987447738,3.5568566152751444
1780100631417960400,0.23796044921875,1.3863421299517154,1.8116466866284608,4.564584628054499
1780100631427952600,0.24795263671875,0.21678630940318105,1.1309575020849705,5.171458634802699
1780100631437943600,0.257943603515625,1.6537889515340327,0.5082487973451614,3.7018656824514267
1780100631447935500,0.267935546875,0.7737304563343524,1.4408616556465625,1.2770379978850483
1780100631457927400,0.277927490234375,0.8062567614078521,1.1317746636867523,-0.00042177820918150245
1780100631467919600,0.287919677734375,-0.03501695284545421,0.47687458491623397,0.5549830029260366
1780100631477911600,0.29791162109375,-0.2570394093364477,0.8558376616567372,1.3752959814108907
1780100631487903500,0.307903564453125,0.7437211025178432,1.5962895332455633,1.2186650116324425
1780100631497895400,0.3178955078125,2.7405916700720785,1.957431706613302,0.9338454688362776
1780100631507887400,0.327887451171875,3.327564460042119,1.4415864627897739,-0.1189277735237032
1780100631517878500,0.33787841796875,2.0478297704190016,-0.3668587974488735,-2.047299024543166
1780100631527870500,0.347870361328125,-1.0369669667452572,-3.494754087105393,-2.121870281402767
1780100631537862700,0.357862548828125,-2.0557506265461445,-4.306881201851367,-1.3206765024729072
1780100631547854300,0.367854248046875,-1.9761486820429561,-2.123613617938757,-2.166742857830226
1780100631557846500,0.377846435546875,-1.2222796949982642,0.08797580509483814,-2.1672790105335413
1780100631567838500,0.38783837890625,-0.22290742263197896,0.7651900070041417,-0.7581294209681451
1780100631577830700,0.39783056640625,0.12344751597046852,0.16506372095048427,0.20393596098460257
1780100631587822300,0.407822265625,-0.3814811970412731,-0.7784200754553079,0.1524371713504195
1780100631597813200,0.417813232421875,-1.7525316498368977,-0.9469956039190291,-0.9416067504875362
1780100631607805400,0.427805419921875,-3.0037498545497656,-0.6157154848515987,-1.7885922665163874
1780100631617797400,0.43779736328125,-2.8786767832040785,-0.4518851050883531,-0.8051031343933195
1780100631627789600,0.44778955078125,-2.238309672176838,-0.27093700178563596,0.08162475556768477
1780100631637781500,0.457781494140625,-0.8459335227578878,0.14957213730812072,-0.27222894129231573
1780100631647773400,0.4677734375,0.5555073921263217,-0.011017068576812743,-0.1304312373779714
1780100631657765400,0.477765380859375,1.6673773319035767,-0.4397866710156202,-0.22633359768837688
1780100631667756500,0.487756591796875,1.3275474111557006,-0.1431283679962158,-0.19761194559484718
1780100631677748500,0.49774853515625,0.9956237334877251,0.07205342881977558,0.16167320172935723
1780100631687740700,0.50774072265625,1.3853180476009845,0.12119243052005767,0.580635257511586
1780100631697732400,0.517732421875,0.6664648443579674,0.24618016166985032,1.3049103396728634
1780100631707724500,0.527724609375,-0.970966846615076,0.7859931410580873,1.7175902464456856
1780100631717716500,0.537716552734375,-0.9453706330657005,1.1106535497248171,1.13126583738178
1780100631727708700,0.547708740234375,-1.0641618476629258,0.6983072588205337,1.4893519841797649
1780100631737700400,0.557700439453125,-1.0436042128026486,0.5300578935712575,0.2185986195221543
1780100631747691500,0.56769140625,0.29685294880867,0.06700958943367004,-0.38990401134118435
1780100631757683500,0.577683349609375,1.5915110667973755,-0.6135434015095234,-0.29870880580842496
1780100631767675400,0.58767529296875,2.309414421969652,-1.0389923350930212,-0.28549393492639064
1780100631777667600,0.59766748046875,2.594250769770145,-0.8442407473653555,0.20067776290625333
1780100631787659500,0.607659423828125,1.3151532090067863,0.41543315100371836,1.1901930965162812
1780100631797651500,0.6176513671875,0.9487433243691921,3.057460401949286,1.7586773129850626
1780100631807643400,0.627643310546875,2.1413339835464953,2.595171976268291,-0.4071769254423678
1780100631817635600,0.637635498046875,2.8700866495132447,2.2267694565087557,0.3763358700420707
1780100631827626500,0.64762646484375,2.9587346547812223,1.1366028144955633,0.030655908091738817
1780100631837618700,0.65761865234375,2.3557588245153425,0.3025783407181501,0.2809009080477059
1780100631847610400,0.6676103515625,1.551660702446103,0.036523265755176545,0.863766774155572
1780100631857602600,0.6776025390625,1.1103957755714655,0.09765373402237891,0.5737094768363982
1780100631867594500,0.687594482421875,0.882606426116824,0.6058195292592048,0.41311084553599353
1780100631877586400,0.69758642578125,-0.3609878595888614,-0.0746358465284109,-0.5824125693824141
1780100631887578400,0.707578369140625,-1.7196359269291162,-0.7642804909437895,-2.733122941626608
1780100631897570300,0.7175703125,-0.7485194427102804,-1.2364081735938788,-2.6879066663280127
1780100631907561500,0.7275615234375,1.2576654811561108,-3.685852413022518,0.814377231760323
1780100631917553400,0.737553466796875,0.9690548755139112,-4.164089226202666,0.0200406983140856
1780100631927545600,0.747545654296875,0.965965092805028,-1.779786444248259,-2.6847645689100026
1780100631937537500,0.75753759765625,0.7425543968260288,0.11210194609165192,-2.303986843962967
1780100631947529500,0.767529541015625,0.058497781676053996,0.8513806822478771,-1.7904912320055066
1780100631957521400,0.777521484375,-2.999519085112214,0.48993952593356366,-2.2490672130346296
1780100631967513600,0.787513671875,-4.963562318819761,1.115363042590022,-1.4436594696715472
1780100631977504500,0.79750439453125,-5.462568656045198,1.7714187211364507,-0.5501994949765503
1780100631987496400,0.807496337890625,-5.623864548894763,1.7171400184601544,0.24389906499534844
1780100631997488400,0.81748828125,-3.8493437700897455,1.6250573625683784,2.2256901368394493
1780100632007480300,0.827480224609375,-1.7935411210954189,1.138050675216317,3.6276688118621703
1780100632017472500,0.837472412109375,-0.5452408496558666,0.8248197153195739,3.5839907059162854
1780100632027464400,0.84746435546875,0.5636339999586344,1.5884101781725883,3.204645351859927
1780100632037456600,0.85745654296875,0.44964463268518445,1.880276570740342,2.224507064534724
1780100632047448300,0.8674482421875,0.46461716088950633,1.8188325064793227,1.1003174491494894
1780100632057439500,0.877439453125,0.862421716222167,1.6333213330447673,0.7556888959482312
1780100632067431400,0.887431396484375,1.9470827465564011,1.1252724421858786,0.37728666796088217
1780100632077423600,0.897423583984375,3.7153403733134267,0.6304381299480796,0.6327089974895119
1780100632087415600,0.90741552734375,5.118001185381412,0.7164245147913694,1.2494321980789302
1780100632097407500,0.917407470703125,5.863957499605417,0.523705017413199,1.1939648701399563
1780100632107399400,0.9273994140625,3.058493836650252,-0.2897629905477166,0.30979806283861394
1780100632117391600,0.9373916015625,0.6739438019365072,-1.1052741947740317,-0.570151126767695
1780100632127382500,0.947382568359375,0.6696767921417951,-1.250917175939679,-0.3672046882770955
1780100632137374500,0.95737451171875,-0.4391133017987013,-0.9175558666840196,-0.7407207516580819
1780100632147366400,0.967366455078125,-2.9675404770493508,-0.3295980111993849,-1.7971014439254998
1780100632157358300,0.9773583984375,-8.414788229843973,-0.7955326844282448,-4.354097418795526
1780100632167350500,0.9873505859375,-13.376504044014215,-1.6735871463291345,-6.741055391433835
1780100632177342500,0.997342529296875,-9.567062660723924,-0.7432315654352307,-6.001740414920449
1780100632187334700,1.007334716796875,-2.3616467135101558,0.5372976355664432,-2.9786908166170116
1780100632197326300,1.017326416015625,0.7353875739365816,0.8502999012738466,-1.2567176789119838
1780100632207317500,1.0273173828125,2.6001339825898406,0.5852734387062489,1.2305135625973342
1780100632217309400,1.037309326171875,4.121739738512039,-0.18452727696374058,3.083396807238459
1780100632227301400,1.04730126953125,5.191947880601883,-0.5842454108327627,4.366350458908081
1780100632237293600,1.05729345703125,5.48056199337542,-0.5706580533765256,3.8952807608783244
1780100632247285200,1.06728515625,5.017714180245995,-0.438714657869935,2.8023440696299073
1780100632257277400,1.07727734375,3.2710400242656466,-0.25519874990582464,1.776727641199529
1780100632267269400,1.087269287109375,0.585253711092472,0.1526288945302367,0.9473359417892991
1780100632277261600,1.097261474609375,-2.0474398943185803,0.592221504278481,0.10943129297713748
1780100632287253500,1.10725341796875,-3.8808682046443224,0.9110400550492107,-0.9112698452170938
1780100632297245400,1.117245361328125,-4.4598155090689655,1.1344535275071859,-1.610387616702914
1780100632307237400,1.1272373046875,-3.9003701929718253,1.0509216962091623,-1.8202105168342588
1780100632317229600,1.1372294921875,-2.803921109688282,0.887195361342281,-1.014105584987253
1780100632327221500,1.147221435546875,-1.5642109719395636,0.7664647031150758,0.19423097965335473
1780100632337213200,1.157213134765625,-0.5136667307406664,0.5116020532958209,0.5659908287504688
1780100632347205400,1.167205322265625,0.42591655109524723,0.36544893065094947,0.5904326481003314
1780100632357196300,1.1771962890625,1.363186879813671,0.3028422523513436,1.0253752400856464
1780100632367188500,1.1871884765625,2.176328140038252,0.08370718786492944,0.8625143629416823
1780100632377180400,1.197180419921875,2.214651733213663,-0.18853797390982507,0.13039086883496492
1780100632387172400,1.20717236328125,1.4900065025657414,-0.275146143913269,-0.4742064982181415
1780100632397164300,1.217164306640625,0.6441641652226447,-0.20588293033391236,-1.036649425228685
1780100632407156500,1.227156494140625,-0.13398235398828984,-0.106215810662508,-1.3598890073120593
1780100632417148400,1.2371484375,-0.9884487272918224,-0.5449387979693711,-1.39902961595878
1780100632427139300,1.247139404296875,-1.571594067928195,-1.260582976038009,-1.057880721566826
1780100632437131500,1.257131591796875,-1.3352145847827195,-1.647324431695044,-1.1715714712198824
1780100632447123200,1.267123291015625,-0.5593927091270685,-1.4832709107004105,-1.1626280671119689
1780100632457115400,1.277115478515625,0.21519640986323355,-1.1205834075868129,-0.593477495688945
1780100632467107300,1.287107421875,0.7982458889096975,-0.9329391676463186,0.07862603040942921
1780100632477099500,1.297099609375,1.116788106957078,-0.7513970439732074,0.33457649373169984
1780100632487091200,1.30709130859375,1.1089163506686688,-0.2532223352663219,0.35208504321966316
1780100632497083400,1.31708349609375,0.8203618591278791,0.2282448381371796,0.1140752189259976
1780100632507074300,1.32707421875,0.32777415677309035,0.49216860015988345,0.004054481288883835
1780100632517066500,1.33706640625,-0.14484335522055625,0.5004368084199726,0.1098629897921346
1780100632527058400,1.347058349609375,-0.3528887242853641,0.4980616037212312,0.3453890161797404
1780100632537050400,1.35705029296875,-0.6535188535451889,0.6804663355730474,0.01045347987730056
1780100632547042300,1.367042236328125,-0.7105155830085277,0.6183047706924378,-0.22359894856009632
1780100632557034500,1.377034423828125,-0.4799783961504698,0.2876464367851615,-0.33169757729452104
1780100632567026400,1.3870263671875,-0.1661035853922367,-0.007494155147671699,-0.41847986175585533
1780100632577017300,1.397017333984375,0.16446867766678333,-0.13636910299435256,-0.48383565610051155
1780100632587009500,1.407009521484375,0.3998334308117628,-0.2658110370740294,-0.5361123713046312
1780100632597001200,1.417001220703125,0.42147710734307764,-0.3477430319599807,-0.3641690469082445
1780100632606993400,1.426993408203125,0.3094944037169218,-0.21539339374005792,-0.14825645159967243
1780100632616985300,1.4369853515625,0.10860884327888488,0.030256898836791512,-0.12090049836877732
1780100632626977500,1.4469775390625,-0.0030798458367586132,-0.268327696070075,0.23299225185997782
1780100632636969200,1.45696923828125,0.012847206613421439,-0.464850969645381,0.6536760899335146
1780100632646960400,1.46696044921875,-0.16813304539322851,-0.38230434999242424,0.45165162512604146
1780100632656952300,1.476952392578125,-0.15515607492029665,-0.28318375828787684,0.1507966376017779
1780100632666944500,1.486944580078125,-0.029213235002756115,-0.2624414145104587,-0.10064349042288959
1780100632676936400,1.4969365234375,0.13732815728485584,-0.22347835438773034,-0.27676044724211096
1780100632686928400,1.506928466796875,0.22070435962975024,-0.1467493349723518,-0.3926628815952688
1780100632696920300,1.51692041015625,0.2662467981427908,-0.18496932164281604,-0.3812211578655988
1780100632706912300,1.526912353515625,0.33186054930388925,-0.1963597535766661,-0.27222126944251357
1780100632716904400,1.536904541015625,0.17931553366482256,-0.1500857859186828,-0.20443411976508796
1780100632726895400,1.546895263671875,-0.18188392284810542,-0.10482114143371582,-0.12903554523587227
1780100632736887600,1.556887451171875,-0.46676878596544263,-0.03584010579660535,-0.08136243310337886
1780100632746879200,1.566879150390625,-0.6959983973562717,0.07899024234563112,-0.03902162190955132
1780100632756871400,1.576871337890625,-0.8039023072361946,0.2073717075869441,-0.17403803165331483
1780100632766863400,1.58686328125,-0.6167845753878355,0.26347441082000733,-0.2757659015131183
1780100632776855600,1.59685546875,-0.205779177698493,0.23667422830834983,-0.15668233463950454
1780100632786847200,1.60684716796875,0.23646774595081804,0.1218313129454851,0.04394632842801511
1780100632796838400,1.61683837890625,0.5790349827080965,0.009033347413688898,0.1592648984786123
1780100632806830300,1.626830322265625,0.7006050143688917,-0.08780351726785302,0.09237495336923748
1780100632816822300,1.636822265625,0.7090256367117166,-0.17402736412882805,0.020427286478877066
1780100632826814500,1.646814453125,0.5967056639552116,-0.2432441082179546,0.04524330943599343
1780100632836806400,1.656806396484375,0.3884294087439775,-0.25337577226236463,0.05381883007958531
1780100632846798300,1.66679833984375,0.15910802741646765,-0.21586276481747627,0.06762165691740811
1780100632856790300,1.676790283203125,-0.04886486093401909,-0.12204232534766196,0.09647270754426718
1780100632866782500,1.686782470703125,-0.21104162827134132,-0.003980886329710483,0.11756254958510398
1780100632876773400,1.6967734375,-0.2775274860918522,0.13284677408710122,0.14441561306146905
1780100632886765600,1.706765625,-0.2931687073379755,0.1910338823787868,0.17019405130995435
1780100632896757200,1.71675732421875,-0.30482056668698787,0.2976262712687254,0.06062648253412917
1780100632906749400,1.72674951171875,-0.1751625056385994,0.3096168610528111,-0.01661719013880938
1780100632916741400,1.736741455078125,0.06260463247299194,0.2535432377837598,0.11970314181037246
1780100632926733600,1.746733642578125,0.2333329550564289,0.15101502959281204,0.17695110608842224
1780100632936724500,1.756724365234375,0.27037761433720586,0.09899287367165088,0.09271835997942834
1780100632946716400,1.76671630859375,0.21189678379595278,0.030636984195560216,0.02700863763056695
1780100632956708400,1.776708251953125,0.10923895787596702,-0.1067376425795257,-0.020235782494768498
1780100632966700300,1.7867001953125,-0.0010176526099443435,-0.24657939012050628,-0.10656590274181216
1780100632976692500,1.7966923828125,-0.07270633977055549,-0.28849837743937967,-0.13199976533632723
1780100632986684400,1.806684326171875,-0.10727847145795821,-0.2793910880066454,-0.11577888103872537
1780100632996676400,1.81667626953125,-0.1710492251008749,-0.2159716320194304,-0.16510569692868737
1780100633006668300,1.826668212890625,-0.2397597732335329,-0.13192834406793116,-0.2035439659923315
1780100633016659500,1.836659423828125,-0.24441841269433498,-0.027162586083263156,-0.16433135155532508
1780100633026651400,1.8466513671875,-0.16806933250725267,0.05463482263758778,-0.13351331170443445
1780100633036643600,1.8566435546875,-0.08085983560979366,0.08613821440413594,-0.08309508384857327
1780100633046635300,1.86663525390625,-0.030396307307481763,0.08423515726178885,-0.05803761681839823
1780100633056627500,1.87662744140625,-0.004805354455113411,0.03588993628770113,0.0062464201088994736
1780100633066619400,1.886619384765625,0.05855038864612579,-0.015427724625915289,0.074477842955105
1780100633076611300,1.896611328125,0.05813654714822769,-0.04837327802479267,0.04972542328611016
1780100633086602500,1.9066025390625,0.008878887504339218,-0.10234189183861017,-0.1109474788269028
1780100633096594400,1.916594482421875,0.03212824566662311,-0.10277239221036434,-0.21624398268740622
1780100633106586400,1.92658642578125,0.016410452052950858,-0.08059300136715174,-0.17903583994060754
1780100633116578300,1.936578369140625,0.04609831883013248,-0.07927592741921544,-0.15007851592767982
1780100633126570500,1.946570556640625,0.06140519355535507,-0.06561228985637425,-0.09982789972368628
1780100633136562400,1.9565625,0.016051555612683295,-0.031767303399741646,-0.11444346771650016
1780100633146554400,1.966554443359375,0.009009235885739326,-0.0011778116077184677,-0.15012586220074445
1780100633156545300,1.976545166015625,0.013025485789775847,0.03855331027805805,-0.07080887211877852
1780100633166537200,1.986537109375,0.01597206063568592,0.1104708377584815,0.020903452623263
1780100633176529400,1.996529296875,-0.004075286614894867,0.17537030317038296,0.10351597711928189
1780100633186521300,2.006521240234375,0.05696633432507515,0.17461758510693906,0.1425307674292475
1780100633196513500,2.016513427734375,0.12343641005456447,0.06848010037764907,0.12460307921376079
1780100633206505200,2.026505126953125,0.15176584796011447,-0.05641366887837648,0.06339293330647051
1780100633216497400,2.036497314453125,0.1602437534481287,-0.15163769153580067,0.0075656494813039895
1780100633226488300,2.04648828125,0.15773381645381448,-0.16474574104249476,-0.08236161847487092
1780100633236480500,2.05648046875,0.11521920132935047,-0.13437602948099375,-0.10332231771070509
1780100633246472400,2.066472412109375,0.0804611916810274,-0.07857581632584333,-0.01941887662131339
1780100633256464400,2.07646435546875,0.032602292919158934,-0.005531769033521414,0.08177811949849129
1780100633266456300,2.086456298828125,-0.09669979429841041,0.035963732176274056,0.138977203133516
1780100633276451600,2.09645166015625,-0.17606208482682703,0.09455153022333979,0.1466145661441609
1780100633286443800,2.10644384765625,-0.16515139923393726,0.13887509446591137,0.10777297697663306
1780100633296435700,2.116435791015625,-0.11721826619207858,0.13159399754703044,0.036596732850186525
1780100633306426600,2.126426513671875,-0.04640636186599731,0.05757745196074247,-0.025789507631771263
1780100633316418600,2.13641845703125,-0.02234159566760063,-0.030882921780645844,-0.041833172198943794
1780100633326410500,2.146410400390625,-0.0033779520004987716,-0.04288476361110806,-0.07950056648794561
1780100633336402700,2.156402587890625,-0.011537293058633803,-0.056665305551886556,-0.11116101197972893
1780100633346394600,2.16639453125,-0.0447118329077959,-0.05415770664513111,-0.09213646843824536
1780100633356386600,2.176386474609375,-0.0671679948657751,-0.03831964765265584,-0.04714874119851738
1780100633366378500,2.18637841796875,-0.044942719054222105,-0.02364128008931875,0.10481840148735791
1780100633376369700,2.19636962890625,0.00827449187040329,0.041691169912368056,0.19361597129385918
1780100633386361600,2.206361572265625,0.039519524961709976,0.08600611245706677,0.14770360348988323
1780100633396353500,2.216353515625,0.0011591069072484968,0.07846724138483405,0.029946919572167097
1780100633406345700,2.226345703125,-0.006558335602283478,0.019655863714963195,-0.023786533778905865
1780100633416337400,2.23633740234375,0.02300385896861553,-0.08299991637840867,-0.012394932801276445
1780100633426329600,2.24632958984375,0.05546352854669094,-0.1791976063735783,-0.07444576731640845
1780100633436321500,2.256321533203125,0.051724926540255546,-0.19375074012205004,-0.15747293702792375
1780100633446312700,2.266312744140625,-0.019203297641873358,-0.1564195189848542,-0.2409757248945534
1780100633456304600,2.2763046875,-0.02001812115609646,-0.06832023364081978,-0.19658764404840767
1780100633466296600,2.286296630859375,-0.010717208847403526,0.022103987519443032,-0.10730729569364339
1780100633476288500,2.29628857421875,0.006315174496173858,0.07901566904783248,-0.039072694509662685
1780100633486280700,2.30628076171875,0.03132920424342155,0.09096154290735721,0.0410399759946391
1780100633496272600,2.316272705078125,0.07299275549650192,0.07001169385910033,0.07092402293104678
1780100633506264600,2.3262646484375,0.11387421646118163,0.02346636191383004,0.031309622760117055
1780100633516255700,2.336255859375,0.10461422068476676,-0.030073943485319613,-0.05706946590598672
1780100633526247400,2.346247314453125,0.08671732946634292,-0.0968489935107529,-0.14830255576372145
1780100633536239600,2.356239501953125,0.06970598891079426,-0.13916925510689615,-0.1232245939347893
1780100633546231600,2.3662314453125,0.07700082209408282,-0.16915610483065247,-0.06545713582728058
1780100633556223700,2.3762236328125,0.030247838747501372,-0.1280002108387649,-0.016168423458002505
1780100633566215400,2.38621533203125,-0.03923486280143261,-0.08770663276463747,-0.028845241940580305
1780100633576207600,2.39620751953125,-0.08432020519673823,-0.04613265949115157,-0.06605963176507502
1780100633586198500,2.406198486328125,-0.06491933915615082,0.022654607139527796,-0.03462104886304587
1780100633596190700,2.416190673828125,-0.007314706927537918,0.0943348187327385,0.04211509441286325
1780100633606182700,2.4261826171875,-0.004112111493945122,0.10266527857407927,0.026438801853358743
1780100633616174600,2.436174560546875,-0.033546880292892454,0.0632166268914938,-0.025936332223936914
1780100633626166500,2.44616650390625,-0.021527356675267218,0.02266658983826637,-0.04956409524455666
1780100633636158700,2.45615869140625,-0.04220774113237857,-0.06365794091820716,-0.0602617956738919
1780100633646150700,2.466150634765625,-0.0674076488405466,-0.08862915443703531,-0.015828633577004075
1780100633656141600,2.4761416015625,-0.05893441952764988,-0.05890899282544851,-0.02740070568807423
1780100633666133800,2.4861337890625,-0.03411211296021938,0.011706950537115336,0.029563546277768908
1780100633676125400,2.49612548828125,0.032981063103675844,0.08590878956243396,0.11592862824033945
1780100633686117600,2.50611767578125,0.060308630490303036,0.11952537409067153,0.1494566211696714
1780100633696109600,2.516109619140625,0.03717617670595646,0.1320629302330315,0.12826876211445778
1780100633706101800,2.526101806640625,0.00012859481573104857,0.0954872036382556,0.09560345042906701
1780100633716093400,2.536093505859375,-0.008265139520168304,0.020096008697897193,0.0002994944032281637
1780100633726085600,2.546085693359375,-0.03474924181997776,-0.08747428531348705,-0.15947788364216683
1780100633736076500,2.55607666015625,-0.04493628931343555,-0.18953283016607164,-0.25138719226103273
1780100633746068700,2.56606884765625,-0.00796118813753128,-0.2194835856631398,-0.12972118941247462
1780100633756060700,2.576060791015625,0.02029109287858009,-0.17439108287468552,-0.07109415533356368
1780100633766052600,2.586052490234375,0.006806757405400276,-0.08088599296435714,-0.07435819863080978
1780100633776044500,2.59604443359375,-0.04754325694143772,0.029054975701123475,-0.10186769845560192
1780100633786036500,2.606036376953125,-0.040898996621370316,0.12482318823784588,0.000011653905175626277
1780100633796027600,2.616027587890625,0.015855740779638288,0.18310469681471586,0.1422897982802242
1780100633806019600,2.62601953125,0.0872059897661209,0.18144056299477815,0.20409889646135268
1780100633816011800,2.63601171875,0.13052256892323494,0.09490984214171767,0.1463436767809093
1780100633826003500,2.64600341796875,0.10431962165236472,0.005891688387095928,0.010158150192536413
1780100633835995600,2.65599560546875,0.046647184884548186,-0.05540785283669829,-0.11737521031945942
1780100633845987600,2.665987548828125,0.04017769660949707,-0.10810834641084074,-0.18938417894300072
1780100633855979800,2.675979736328125,0.024629414343833922,-0.15029226827621459,-0.1544238516556099
1780100633865970700,2.685970703125,-0.005612579184770584,-0.19073913721591232,-0.1942251161681488
1780100633875962400,2.69596240234375,0.02867021416723728,-0.16409911370202898,-0.039004926503077145
1780100633885954600,2.70595458984375,0.037250410985946655,-0.12680690940096973,-0.02442026510518044
1780100633895946500,2.715946533203125,0.0134545248568058,-0.13840163173526523,-0.11248963023498654
1780100633905938700,2.725938720703125,0.03780278417170047,-0.0616349106580019,0.030683234490081666
1780100633915930600,2.7359306640625,0.08746025678813457,0.1392519649542868,0.24918299674764274
1780100633925922600,2.745922607421875,0.043645664981007574,0.19587518493011594,0.15443674766980112
1780100633935914500,2.75591455078125,-0.04020633818209171,0.19983780495077372,0.08372665975037961
1780100633945905700,2.76590576171875,-0.13309738784730435,0.109209147259593,0.05698080124184489
1780100633955897600,2.775897705078125,-0.20414310092926025,-0.001838759734481573,-0.07255345076378435
1780100633965889800,2.785889892578125,-0.22304887692928313,-0.0511744530506432,-0.18468926259241997
1780100633975881500,2.795881591796875,-0.17497604315578935,-0.0614377806507051,-0.21149759187791495
1780100633985873700,2.805873779296875,-0.08368424538075923,-0.10344576142728328,-0.21727906135618685
1780100633995865600,2.815865478515625,0.06930559141635895,-0.1531162396557629,-0.15291067061368374
1780100634005857800,2.82585791015625,0.14456746088862418,-0.10159282703697681,-0.12766685069855302
1780100634015848700,2.8358486328125,0.21111761611700056,-0.1003520331956446,-0.04109725913982838
1780100634025840600,2.845840576171875,0.2622171042352915,-0.06513356642872095,0.0738351976700127
1780100634035832600,2.85583251953125,0.23205577472746372,0.007761573912203311,0.22110019054692237
1780100634045824500,2.865824462890625,0.10606968019008636,0.03998158951550722,0.22000384667757897
1780100634055816700,2.875816650390625,-0.03475041086375713,0.11586027571186423,0.07817823184300214
1780100634065808600,2.88580859375,-0.2154869172424078,0.14492591893747447,-0.07521086993739008
1780100634075800600,2.895800537109375,-0.3255465438514948,0.10828706397861242,-0.09677355365436524
1780100634085791500,2.90579150390625,-0.38256782323420047,0.049679830578714605,-0.11117792658191174
1780100634095783700,2.91578369140625,-0.4359650669008493,0.03400982162952423,-0.3230529734700918
1780100634105775600,2.925775634765625,-0.21312135715484617,-0.1537285263352096,-0.3466459574382752
1780100634115767800,2.935767822265625,0.06408113476634025,-0.3155506350159645,-0.3675636212499812
1780100634125759500,2.945759521484375,0.18797347189486024,-0.3346583633288741,-0.34045813564881683
1780100634135751400,2.95575146484375,0.29032383930087086,-0.2769755512975156,-0.17875698646660892
1780100634145743600,2.96574365234375,0.24355273577570913,-0.18758841810002921,0.04614855118002742
1780100634155734500,2.975734619140625,0.16056757857501505,-0.08501184072270988,0.21165259977653622
1780100634165726700,2.985726806640625,0.07640577881038188,0.013107611115276812,0.29003669292256234
1780100634175718700,2.99571875,0.015531915652751922,0.11566358409598469,0.3339219753457233
1780100634185710600,3.005710693359375,-0.014982465076446532,0.23787673596590755,0.36243257850445804
1780100634195702500,3.01570263671875,0.017874094864726065,0.3407417748957872,0.3410389677440747
1780100634205694700,3.02569482421875,0.07170622281730174,0.30262364116460083,0.24203787423335013
1780100634215686700,3.035686767578125,0.058438160443305964,0.17817089367434383,0.0822609711119905
1780100634225677600,3.045677490234375,0.03882920460999012,0.05089958163201808,-0.06270948108695447
1780100634235669500,3.05566943359375,0.03447568557560444,-0.10571429088115691,-0.17975359628852455
1780100634245661400,3.065661376953125,0.018853169029951093,-0.2067249341160059,-0.27050029086880384
1780100634255653600,3.075653564453125,0.005658171892166137,-0.26804917138963935,-0.27837935368083416
1780100634265645600,3.0856455078125,-0.008258125257492066,-0.27838819457441566,-0.22862324299551545
1780100634275634200,3.09563427734375,0.021256138518452643,-0.2058015356607735,-0.14084537162557242
1780100634285625900,3.1056259765625,0.02494680972993374,-0.11427855947837233,-0.07026559555493295
1780100634295616800,3.11561669921875,0.06815525233745574,-0.06107946873232722,-0.037799021312035615
1780100634305609000,3.12560888671875,0.09238134657740592,0.01625540762171149,0.05344791440796107
1780100634315601000,3.135600830078125,0.2284142033547163,0.27741102010533214,0.9064267160348594
1780100634325593000,3.145593017578125,0.50912791826725,0.249838099655509,1.3232793784476815
1780100634335584800,3.155584716796875,0.5060696997404098,0.1323458388276398,0.7121289364892989
1780100634345577000,3.165576904296875,0.3202045983016491,0.13171060966402293,0.004679864911921322
1780100634355569000,3.17556884765625,0.1445879191547632,0.018059242173284293,-0.397330909938924
1780100634365560000,3.18556005859375,-0.12167641464471816,-0.11820640044659375,-0.44864137392677367
1780100634375552000,3.195552001953125,-0.42731881910860536,-0.19868512778431177,-0.40634968083798884
1780100634385544000,3.2055439453125,-0.7468576469779015,-0.22921353703886269,-0.4366900201745331
1780100634395536000,3.215535888671875,-1.0522259106755256,-0.2402932955883443,-0.642961292238906
1780100634405528000,3.225528076171875,-1.1273024867087602,-0.1322965928584337,-0.8850299269367009
1780100634415520000,3.23552001953125,-1.0126824203163385,-0.010677753619849682,-0.9495056870438158
1780100634425512200,3.24551220703125,-0.6927835269629955,0.04217150077521801,-0.6702146984107792
1780100634435503000,3.255503173828125,-0.17293313915133476,0.015236001446098088,-0.20216135252751408
1780100634445494800,3.265494873046875,0.5938298162579536,0.07589797541871666,0.2505219172012061
1780100634455487000,3.275487060546875,1.130818385875225,0.1417680394284427,0.5344328937850892
1780100634465479000,3.28547900390625,1.399918235361576,0.20039909209534526,0.7164720802601426
1780100634475471000,3.29547119140625,1.3468652750879526,0.16302870799154043,0.6938504986073821
1780100634485462800,3.305462890625,1.00544370123446,0.05513327367901802,0.47389038147367535
1780100634495455000,3.315455078125,0.5645803408980369,-0.0755612908102572,0.24328498821761457
1780100634505446000,3.32544580078125,1.5235826089531181,-0.6659267919585108,-0.012282375804893672
1780100634515438000,3.33543798828125,0.08942308129370212,-0.7066252975717187,-0.14372755773207171
1780100634525430000,3.345429931640625,-0.9201450063943862,-0.49769803110584615,0.03574534931839444
1780100634535422200,3.355422119140625,-0.5318628971666097,-0.12061419224068522,0.5443801777059212
1780100634545414000,3.365413818359375,-0.692799309054017,0.4104804970324039,0.5631385811245069
1780100634555406000,3.375406005859375,-0.7742582796007395,0.632540947446227,0.2951091556149535
1780100634565398000,3.38539794921875,-0.613504823064804,0.5678546863935887,0.010673479303531347
1780100634575389000,3.395388916015625,-0.4370061003863811,0.4486452463842928,-0.38614012876302
1780100634585381000,3.405381103515625,-0.19395313082635401,0.20750234822928904,-0.6452155739717185
1780100634595372800,3.415372802734375,-0.015767477974295615,-0.06141951434165239,-0.6766898857742547
1780100634605365000,3.425364990234375,-0.004932780227065086,-0.10100231379792093,-0.5611651256270707
1780100634615357000,3.43535693359375,-0.13029168277680872,-0.035883944938331844,-0.33788375511616464
1780100634625349000,3.44534912109375,-0.035704350587725635,-0.08828414039164781,-0.16783391631618141
1780100634635341000,3.455341064453125,0.06715864251554012,0.3924021117672324,0.344247956385836
1780100634645332000,3.46533203125,0.004891863694787025,0.7054753968842327,0.7280327541943639
1780100634655324000,3.475323974609375,0.02154723041951656,0.42625148213803765,1.090991110138595
1780100634665315800,3.48531591796875,-0.006592822393774986,-0.11622823224142192,1.3327668993696569
1780100634675308000,3.49530810546875,-0.0687543872743845,-0.7139120935790241,1.3090692129179835
1780100634685300000,3.505300048828125,-0.02923310874700546,-1.1084716756410895,0.9543249238938093
1780100634695292000,3.5152919921875,0.07291735217273235,-1.1518135353699326,0.09797149473465978
1780100634705283800,3.525283935546875,0.15840718567073345,-1.2043570848166942,-0.9144733904987573
1780100634715275000,3.53527490234375,-0.042344519254565234,-1.3205081601686774,-1.7234227519914507
1780100634725267000,3.545266845703125,-0.375393986082077,-1.1714936567433178,-1.8864817089907824
1780100634735259100,3.555259033203125,-0.3646984045445919,-0.8543535605788231,-1.4886463201284408
1780100634745250800,3.565250732421875,0.11894026767909525,-0.3565292727448046,-0.8927559180788696
1780100634755243000,3.575242919921875,0.626406974735856,0.3145841280713677,-0.3570611511318013
1780100634765235000,3.58523486328125,1.1178028369575739,0.5524488813385368,0.36156752264034003
1780100634775227100,3.59522705078125,0.753104432412982,0.6308360432244837,0.46413635510262097
1780100634785218000,3.605218017578125,0.4977829329103231,0.9118350048191844,0.23776786876395342
1780100634795210000,3.6152099609375,0.3775321671545505,0.8019874135255813,0.25958218915443865
1780100634805202000,3.625201904296875,-0.22107728459537027,0.3299440481580794,0.2200320315924473
1780100634815193900,3.63519384765625,-0.9167693924814462,-0.30635245242938397,-0.10908624239913187
1780100634825186000,3.64518603515625,-1.4137521149247885,-0.5886306401796638,-0.09992061950843781
1780100634835178000,3.655177978515625,-1.0588175640255213,0.1571951795324683,0.43633572684414684
1780100634845170000,3.665169921875,-0.5438005877196789,0.16615926110222934,0.409963779681921
1780100634855160800,3.675160888671875,-0.4392606013149023,0.3552478546321392,0.10685646491991356
1780100634865153000,3.685153076171875,-0.18488894988298415,0.5910179737076163,-0.15745923729613423
1780100634875145000,3.69514501953125,0.2849514986127615,0.6066138945072889,-0.47285373190231617
1780100634885137200,3.70513720703125,0.817640909731388,0.9687791273124515,-0.619984321277216
1780100634895129000,3.715129150390625,1.0879852063208817,0.9337921312138437,-0.2842817278587259
1780100634905121000,3.72512109375,1.1086948168724775,0.29194749497994776,0.03881207994525321
1780100634915113000,3.735113037109375,0.8811381071299313,-0.36335005867555736,0.18522400878993794
1780100634925103900,3.745103759765625,0.35720483391880986,-0.6790700589090586,0.5940848139323294
1780100634935096000,3.755095947265625,-0.45583062784373757,-0.15666560270041227,0.4346371062327176
1780100634945088000,3.765087890625,-0.41104163804650307,0.12050094112455845,0.022555649410234763
1780100634955080000,3.775079833984375,-0.4314174865990877,-0.15911489554867148,-0.11970292261466384
1780100634965072000,3.78507177734375,-0.7328624393731356,-0.08904708758816123,-0.5375238455377519
1780100634975064000,3.79506396484375,-0.4958645320683717,0.09515256485641002,-0.9745886903740465
1780100634985056000,3.805055908203125,-0.04862696052491665,0.14606281401291488,-0.7226021805129945
1780100634995048000,3.8150478515625,0.5998135668426752,0.363614700961113,-0.39934382066391405
1780100635005039000,3.8250390625,0.8291343636482954,0.16594254961162805,-0.031071612753160296
1780100635015030800,3.83503076171875,0.12896949426233767,0.44100189202427864,0.0923612353711389
1780100635025023000,3.84502294921875,0.20731530122458933,0.07817308074384928,0.3210608498048037
1780100635035015000,3.855014892578125,-0.17202771474421022,-0.47775998944863673,1.0054696393933147
1780100635045007000,3.865007080078125,-0.6652256579518318,-0.3908730025038123,1.4340535830669103
1780100635054998800,3.874998779296875,-0.8318886307924985,-0.3254949597947299,0.7475536664180458
1780100635064991000,3.884990966796875,-0.6958446680992841,-0.5035832897521555,-0.41171186545826494
1780100635074982000,3.89498193359375,-0.13395663502514363,-0.21326967958435414,-0.9037176762718707
1780100635084974000,3.90497412109375,0.42225569050014017,0.21424086270406842,-0.8307715363960713
1780100635094966000,3.914966064453125,0.6310024858325719,0.028330460818856953,-0.45281222987063224
1780100635104958000,3.9249580078125,0.41569501681029797,-0.055734892833977936,0.09608526999610476
1780100635114950000,3.934949951171875,0.06863748289644718,-0.07497779183387755,0.3206274633562192
1780100635124942000,3.944942138671875,-0.3006318828254938,0.08818301810473203,0.4121618011828512
1780100635134933000,3.95493310546875,-0.6723106477767229,0.17830884084030985,0.27800757949268445
1780100635144925000,3.964925048828125,-0.6143126323163509,0.2272983510673046,0.03465867745969444
1780100635154917000,3.974917236328125,-0.12033376786410808,0.27112361039891836,0.09955164006557315
1780100635164908800,3.98490869140625,0.2535731945306062,0.08965425970107316,0.31456600789278744
1780100635174901000,3.99490087890625,0.15001929655373095,-0.06777940476238727,0.6108728305933997
1780100635184893000,4.004892822265625,0.041781040152907366,-0.2894830045625567,0.8135639426160604
1780100635194885000,4.014885009765625,-0.07213643092811108,-0.26607319514155386,0.779712453353405
1780100635204876800,4.024876708984375,-0.014410218146443367,0.17098010538741945,-0.31055582240335644
1780100635214868000,4.034867919921875,0.46090778497755525,0.2897729274198413,-1.01798761405237
1780100635224860000,4.04485986328125,1.0894587860047817,0.0774617176041007,-1.297432258877158
1780100635234852000,4.05485205078125,1.3407774796068668,-0.3106711924113333,-1.0926382197584956
1780100635244844000,4.064843994140625,0.9822317524731159,-0.7192194062069058,-0.3537851982010528
1780100635254836000,4.0748359375,1.0917103643238544,-0.05756678443625569,0.6511925294894725
1780100635264828000,4.084827880859375,-0.5069260243088006,2.2706959842577574,1.4672887670621275
1780100635274819600,4.094819580078125,-2.051937205737829,1.7604549901820719,-0.13231184522649272
1780100635284810800,4.104810791015625,-2.336962354108691,0.8967034866608679,-0.9737558928117156
1780100635294802700,4.114802734375,-1.6997598445922135,1.095001660954207,-1.4849638322234153
1780100635304795000,4.124794921875,-0.420547717538476,0.818198543614149,-1.5031021309822796
1780100635314786600,4.13478662109375,-0.023663784182071684,0.0382147259734571,-0.986709847735241
1780100635324778800,4.14477880859375,0.18027064243257046,-0.63368704874143,-0.5526786349738017
1780100635334770700,4.154770751953125,0.34479718776643276,-1.1340751957140862,-0.19397841139808297
1780100635344763000,4.164762939453125,0.3761883513301611,-1.4675491715639828,0.08487818613937125
1780100635354753800,4.17475390625,0.5718921252161264,-1.5491874442003666,0.4121302370008081
1780100635364745700,4.184745849609375,0.7932879742413759,-1.2787769505068658,0.7593330976694822
1780100635374737700,4.194737548828125,0.9033534460693597,-0.8325197683028877,1.062343838455528
1780100635384729600,4.2047294921875,0.7859855422735214,-0.42332638847157356,1.2431610088549554
1780100635394721800,4.2147216796875,0.6112491530925035,-0.1262131812915206,1.1115380774743855
1780100635404713700,4.224713623046875,0.3591431085050106,0.05281798247396945,0.6501980385594069
1780100635414705700,4.23470556640625,0.02200432653725147,0.20194325279742478,0.21672805814361198
1780100635424696600,4.244696533203125,-0.2778828754007816,0.34076281768381594,-0.11153275876841508
1780100635434688800,4.254688720703125,-0.45936640075445173,0.4415099876768887,-0.3262545094577595
1780100635444680700,4.2646806640625,-0.5292956770271062,0.4545920259594917,-0.48881132562123236
1780100635454673000,4.2746728515625,-0.5197679702252149,0.423941013238579,-0.4783423559138551
1780100635464664600,4.28466455078125,-0.4721738598793745,0.3016286387778818,-0.3561822859380394
1780100635474656800,4.29465673828125,-0.36982407699525355,0.1438775789283216,-0.2086958505964838
1780100635484648700,4.304648681640625,-0.2157394306987524,-0.03233355898037553,-0.07308121923124417
1780100635494639600,4.3146396484375,-0.0032861820638179777,-0.17211641594097019,0.03837409495336469
1780100635504631800,4.3246318359375,0.22367022369801998,-0.25426468392610546,0.09199595485585742
1780100635514623700,4.334623779296875,0.38472353996336456,-0.27846242885440586,0.12216582386316731
1780100635524615700,4.34461572265625,0.4480120630472898,-0.22210721216499804,0.13044150304365904
1780100635534607600,4.354607666015625,0.407274394467473,-0.15304098246246575,0.1153710491565056
1780100635544599800,4.364599853515625,0.2806646150738001,-0.05329027616083622,0.07531457690703681
1780100635554591700,4.374591796875,0.10234569123089313,0.024632044692337512,-0.015042565799807197
1780100635564583000,4.3845830078125,-0.06530512360334396,0.04852832245603204,-0.10544056110684759
1780100635574574600,4.39457470703125,-0.20360767887830733,0.04947086400315165,-0.18284705052552744
1780100635584566800,4.40456689453125,-0.2655342659592628,0.035890374679118396,-0.2403282573038712
1780100635594558700,4.414558837890625,-0.24722937846183776,-0.012532879967242479,-0.23505650917971505
1780100635604551000,4.424551025390625,-0.178428813958168,-0.06553498683646321,-0.19424148278106002
1780100635614542800,4.43454296875,-0.05265957704186439,-0.11527093151658772,-0.12997519157300702
1780100635624534800,4.44453466796875,0.05159983885586261,-0.14700740138664842,-0.046800786277372386
1780100635634525700,4.454525634765625,0.13356266727149485,-0.14475290045812725,0.006681582956039347
1780100635644517600,4.464517578125,0.19511399129927157,-0.09510375727862119,0.07334398008696734
1780100635654509800,4.474509765625,0.20556699625253677,-0.03403480994030833,0.10430798601349815
1780100635664501800,4.484501708984375,0.179161804407835,0.04188552344068885,0.13613929456016047
1780100635674493700,4.49449365234375,0.0925087723493576,0.13146701016649603,0.1446098935245536
1780100635684485600,4.504485595703125,0.010656418570876122,0.17275807484537362,0.1075194040743634
1780100635694477800,4.514477783203125,-0.06634206543564795,0.20033771729692815,0.04408369107209146
1780100635704468700,4.52446875,-0.11442366703748702,0.15167071702256799,-0.03395600451647769
1780100635714460700,4.534460693359375,-0.1395996093481779,0.08197145011350512,-0.07319741578970569
1780100635724452600,4.54445263671875,-0.12440145569443702,-0.007372720725089311,-0.12483599292049184
1780100635734444500,4.554444580078125,-0.05959492926299571,-0.1049418452039361,-0.12599399471604264
1780100635744436700,4.564436767578125,-0.026134558209776875,-0.16359774005115033,-0.1075061975329183
1780100635754428700,4.5744287109375,0.034760347735881804,-0.20890739272162318,-0.07267153331865556
1780100635764420900,4.5844208984375,0.0950356604784727,-0.2135116716466844,-0.011836814861325547
1780100635774412500,4.59441259765625,0.12478840918540954,-0.1662453319504857,0.055869784959754906
1780100635784403700,4.60440380859375,0.11180617801547049,-0.093889997574687,0.08344896618700585
1780100635794395600,4.614395751953125,0.09280746303498745,-0.009065934509038925,0.09342672744449228
1780100635804387800,4.624387939453125,0.0568593668192625,0.057827481199055904,0.07786166757396422
1780100635814379800,4.6343798828125,0.02193593747615814,0.09110168203040957,0.03051457709202077
1780100635824371700,4.644371826171875,-0.027579496321082114,0.09807765852287412,-0.015991668376809685
1780100635834363600,4.65436376953125,-0.06375380250811577,0.1010202878460288,-0.0671432166175451
1780100635844355800,4.66435595703125,-0.10457388867437839,0.08063888633549213,-0.10719774350509978
1780100635854346800,4.6743466796875,-0.1060720182776451,0.05009206464141607,-0.12308819027193821
1780100635864338700,4.684338623046875,-0.11449556322991847,0.027535218787938354,-0.13223384808683766
1780100635874331000,4.694330810546875,-0.10097089574635028,0.020791297485679386,-0.1049392148554325
1780100635884322600,4.704322509765625,-0.07547346639633178,0.017050941913574934,-0.06514375902917235
1780100635894314800,4.714314697265625,-0.06458966881036758,0.0015421148754656314,-0.002032699987560045
1780100635904306700,4.724306640625,-0.013347557350993156,-0.019728490559756756,0.0574490215417929
1780100635914299000,4.734298828125,0.030631869629025456,-0.03836348679438233,0.09098595582940615
1780100635924289800,4.744289794921875,0.08642916017472743,-0.04322641665562987,0.09636047934144734
1780100635934281700,4.75428173828125,0.14199907170534132,-0.05414236294552684,0.07502792371907271
1780100635944273700,4.764273681640625,0.16098142007291316,-0.06048764031901955,0.014865558415220585
1780100635954265900,4.774265869140625,0.15471300732791424,-0.05563859285265207,-0.031314239569730125
1780100635964257800,4.7842578125,0.12324176426529884,-0.04222016222253441,-0.052748579632723704
1780100635974249700,4.794249755859375,0.07023615026473999,-0.05249722608700394,-0.08578707201206125
1780100635984241700,4.80424169921875,0.006286532923579216,-0.042320261596143244,-0.12325125361285172
1780100635994232600,4.814232666015625,-0.03304886764287948,-0.03252703572586178,-0.13015503251878544
1780100636004224800,4.824224853515625,-0.03985445600450039,-0.039049277101457114,-0.1157490156234242
1780100636014216700,4.834216796875,-0.049123804131150244,-0.020257629000395534,-0.10405724438913166
1780100636024209000,4.844208984375,-0.05202946244478225,-0.016543723043799398,-0.06464939507439267
1780100636034200600,4.85420068359375,-0.024133155259490013,-0.025903379802405833,-0.01944081445848569
1780100636044192800,4.86419287109375,-0.00042319384813308713,-0.01703574434444308,0.016729429758072366
1780100636054184700,4.874184814453125,0.0010334347009658812,0.004644026413559914,0.05715739991776645
1780100636064175900,4.88417578125,0.01961889270544052,-0.006021598377078771,0.07949552498664707
1780100636074167800,4.894167724609375,0.0043003275424242015,-0.0044007191769778724,0.08392322350209579
1780100636084159500,4.904159423828125,-0.0157376673579216,0.0003473521329462528,0.06116749407565221
1780100636094151700,4.914151611328125,-0.02197919209599495,0.019926643480360506,0.0442075868798187
1780100636104143600,4.9241435546875,-0.041859950608015055,0.011184680228680372,0.01601199763714103
1780100636114135800,4.9341357421875,-0.07733926026821136,0.021162322755157947,-0.006028635472641326
1780100636124127700,4.944127685546875,-0.08130641033351421,0.03726955407783389,-0.012031026825751178
1780100636134119000,4.954118896484375,-0.08027063754498959,0.06546279838308691,-0.016339302495901938
1780100636144110600,4.964110595703125,-0.06509352667927741,0.08264554998278617,-0.01675471032980131
1780100636154102800,4.974102783203125,-0.056987377113103865,0.07861234894394874,-0.010790429347241297
1780100636164094700,4.9840947265625,-0.03981763112545013,0.029246552750468252,-0.0022569120813161134
1780100636174087000,4.9940869140625,0.005737666869163513,0.00044599020183086393,0.0130228440248291
1780100636184078600,5.00407861328125,0.06162731187343597,-0.04277531188726425,0.0003544965430744923
1780100636194070800,5.01407080078125,0.10500409678518771,-0.08403042846992612,0.007745257531641982
1780100636204061700,5.024061767578125,0.122581254529953,-0.12196502232775092,0.018042482834728434
1780100636214053600,5.0340537109375,0.1345797353595495,-0.14979396336525677,0.002243216916103847
1780100636224045800,5.0440458984375,0.10657295353710651,-0.1632856053620577,-0.016009056761383544
1780100636234037800,5.054037841796875,0.09548632685542106,-0.1495882116600871,-0.0201932151448098
1780100636244029700,5.06402978515625,0.08006020966470241,-0.12137684717625379,-0.01661128098783083
1780100636254021600,5.074021728515625,0.06103694476485252,-0.09269742678925394,-0.026651385158114133
1780100636264013800,5.084013916015625,0.05904021798968315,-0.06834945973530411,-0.017351625910180152
1780100636274004700,5.094004638671875,0.07081248884797096,-0.05105535671561956,-0.025815991496609056
1780100636283996200,5.10399609375,0.06653261957168578,-0.05495952454730868,-0.01931130632730201
1780100636293988000,5.113988037109375,0.08569207807183266,-0.07355389651060104,-0.013362476358911954
1780100636303980000,5.12397998046875,0.09467150334119796,-0.06967690894678234,0.006432839209225494
1780100636313972000,5.133971923828125,0.11025368787646293,-0.08219941365048289,-0.004336526800389402
1780100636323964200,5.143964111328125,0.11948971825540065,-0.07916179952025414,-0.016361013145855394
1780100636333956000,5.1539560546875,0.11838438736200332,-0.055846682645380494,-0.0136446360348491
1780100636343948000,5.163947998046875,0.07710837412178516,-0.016343378166109323,-0.04152618860900402
1780100636353939000,5.17393896484375,0.06349135217964649,0.046467882794886825,-0.04598205377301201
1780100636363931100,5.18393115234375,0.035654081705212594,0.10901026368662714,-0.05991394578402396
1780100636373923000,5.193923095703125,0.030917700833082196,0.19163243279382586,-0.07245184441967867
1780100636383915300,5.203915283203125,0.020711364117264746,0.22157281302735207,-0.1041831997232046
1780100636393907000,5.213906982421875,0.043265141230821605,0.24126374805569648,-0.12136475487966089
1780100636403899100,5.223899169921875,0.06061316639482975,0.24227350962013006,-0.16010403445018453
1780100636413891000,5.23389111328125,0.027586510583758352,0.21535583820864557,-0.1645623838322237
1780100636423882000,5.243882080078125,-0.0005669862329959869,0.18008637190684676,-0.13241308624441733
1780100636433874200,5.253874267578125,-0.019506664502620695,0.12312076823413372,-0.08926870358274318
1780100636443866000,5.2638662109375,-0.04562894775271415,0.03497574405223131,-0.025246080370876004
1780100636453858000,5.273858154296875,-0.044161797809600827,-0.019404373171925542,0.04090393765796907
1780100636463850000,5.28385009765625,-0.06845102041363715,-0.06777019854262471,0.0946503783547785
1780100636473842200,5.29384228515625,-0.06652618983089924,-0.12347396558597683,0.15864212693776936
1780100636483834000,5.303834228515625,-0.07791793693900108,-0.1409862414009869,0.18884693026114255
1780100636493825300,5.3138251953125,-0.08332067276537418,-0.15679039812386034,0.21887544543584808
1780100636503817000,5.32381689453125,-0.10100129088461399,-0.15197963684126733,0.20332734583327547
1780100636513809200,5.33380908203125,-0.1170692131102085,-0.13648030828386545,0.14824993966049513
1780100636523801000,5.343801025390625,-0.13856851273477078,-0.10444076381400227,0.07247072265008464
1780100636533793300,5.353793212890625,-0.19261691378653048,-0.07563464830741286,-0.015563500384392682
1780100636543785200,5.36378515625,-0.2180272493749857,-0.0657131198823452,-0.09139688385101034
1780100636553777200,5.373777099609375,-0.25117899287045,-0.06994958840832113,-0.16290657944921402
1780100636563769000,5.38376904296875,-0.2937637506216764,-0.06834653712585569,-0.21472934034075586
1780100636573760000,5.393760009765625,-0.2932838581502437,-0.09893544439598917,-0.25563473017029464
1780100636583752200,5.403752197265625,-0.2707172215551138,-0.12758593094944953,-0.22067566325822843
1780100636593744100,5.413744140625,-0.24554478637576102,-0.13365312203392385,-0.18219088817173615
1780100636603736000,5.423736083984375,-0.17677987770736217,-0.146530723785609,-0.10898814318636432
1780100636613728000,5.43372802734375,-0.10952069742679596,-0.12403262238204478,-0.08479136637244374
1780100636623720200,5.44372021484375,-0.05200023635029793,-0.10654533487781882,-0.019743386734789235
1780100636633712000,5.453712158203125,-0.0007037643551826477,-0.08366451776698232,-0.0044074114959570575
1780100636643703000,5.463703125,0.035896658289432525,-0.038940702160447836,-0.01863739482933306
1780100636653695200,5.4736953125,0.05729658919274807,0.014731266794353723,-0.007794455551786814
1780100636663687000,5.48368701171875,0.08185702995359898,0.05902209781110286,-0.018896623437543166
1780100636673679000,5.49367919921875,0.0714028559565544,0.08234832060188055,-0.019110262763290666
1780100636683671000,5.503671142578125,0.1026344450443983,0.10658800497576594,-0.0332166665244149
1780100636693663200,5.513663330078125,0.1197094984859228,0.1206606617309153,-0.02109774678607937
1780100636703655000,5.523655029296875,0.1269821198374033,0.10533902782797813,-0.008235590340342606
1780100636713647000,5.533647216796875,0.15816344004273414,0.10648863625451922,0.013698648369073634
1780100636723638000,5.543637939453125,0.19562544795274733,0.07398278944715857,0.06854739346019924
1780100636733630200,5.553630126953125,0.2063280437529087,0.05195858916565776,0.11052918034959584
1780100636743622100,5.5636220703125,0.21033143417537212,0.025415596285462378,0.14274604501458815
1780100636753614000,5.573614013671875,0.20854279719293117,0.024540713147073984,0.150600859301351
1780100636763606000,5.58360595703125,0.20155133087038993,0.030535715778172014,0.1471658250850625
1780100636773598200,5.59359814453125,0.18081892396509647,0.05707622444033622,0.15146841764980926
1780100636783590100,5.603590087890625,0.16693302195370197,0.09565145428925752,0.12757234994866884
1780100636793581000,5.6135810546875,0.14575053319334982,0.1352791158005595,0.09107260206639767
1780100636803573200,5.6235732421875,0.10419804109930991,0.15363427218049763,0.07438190373338292
1780100636813565000,5.63356494140625,0.082513448035717,0.15766893452405928,0.03419971132857026
1780100636823557000,5.64355712890625,0.08160451649725436,0.14568229026272891,0.0067607103235670365
1780100636833549000,5.653549072265625,0.08522738316953182,0.10235913523435593,-0.009656055022450163
1780100636843541200,5.663541259765625,0.06009586452245712,0.02891615175232291,0.005928552082052919
1780100636853533000,5.673532958984375,0.06600713439285755,-0.02978533580228686,0.012283720661897677
1780100636863525000,5.683525146484375,0.07716215013563632,-0.10038213607296347,0.003152132471546065
1780100636873516000,5.69351611328125,0.0642705198585987,-0.144146312867105,0.03370658491622889
1780100636883508200,5.70350830078125,0.04421440477967262,-0.16137348813042043,0.04322826155284419
1780100636893500200,5.713500244140625,0.01965337949693203,-0.17536197373345494,0.06274261617157607
1780100636903492000,5.7234921875,-0.009943301865458488,-0.16504750046804548,0.08326188264968805
1780100636913484000,5.733484130859375,-0.030091771402955055,-0.15214622557982801,0.061526052589202296
1780100636923476200,5.743476318359375,-0.0819300951898098,-0.14602292039394377,0.014527844043588265
1780100636933468200,5.75346826171875,-0.11111936479508876,-0.13348039581552146,-0.02272358757237671
1780100636943459000,5.763458984375,-0.13307459149360656,-0.13455328574404118,-0.07422185890004038
1780100636953451300,5.773451171875,-0.15139467656016348,-0.13511720323711632,-0.10833826444288715
1780100636963443000,5.78344287109375,-0.17150749026238918,-0.1346498779863119,-0.09883821283290162
1780100636973435100,5.79343505859375,-0.18369944783747194,-0.1339747552037239,-0.10931332915327512
1780100636983427000,5.803427001953125,-0.1670049181461334,-0.1623677598647773,-0.11429187561767175
1780100636993419300,5.813419189453125,-0.13168109130859373,-0.17454320469647644,-0.1394248007705435
1780100637003411000,5.823410888671875,-0.1152437512487173,-0.17852496780902147,-0.15309638417782262
1780100637013402000,5.833402099609375,-0.11036591607928276,-0.1964392485536635,-0.1759441758018918
1780100637023394000,5.84339404296875,-0.12427987514138221,-0.14993424861878155,-0.18518037057761103
1780100637033386000,5.853385986328125,-0.14344868599176405,-0.09559154079556464,-0.175234109570086
1780100637043378200,5.863378173828125,-0.17173428475558758,-0.026786007855832576,-0.15186413896912707
1780100637053370000,5.8733701171875,-0.17287176435291765,0.06690583679825067,-0.13666355589628218
1780100637063362000,5.883362060546875,-0.14511457337737083,0.14642258723601698,-0.09669509985698387
1780100637073354000,5.89335400390625,-0.1019067152917385,0.23143983478620647,-0.06849107842938974
1780100637083346200,5.90334619140625,-0.06845511206686496,0.24133666716143487,-0.04573521200562827
1780100637093337000,5.913337158203125,-0.002790507501363754,0.22480858007818458,-0.0252340086238808
1780100637103329300,5.923329345703125,0.09767126967906951,0.1790430003337562,0.01075912317681359
1780100637113321000,5.933321044921875,0.1776537379324436,0.10513926747217774,0.05770739391676616
1780100637123313200,5.943313232421875,0.23620061944723128,0.05001709970906377,0.09479324829103425
1780100637133305000,5.95330517578125,0.2595212892800569,-0.035915216859430076,0.12250514795328489
1780100637143297300,5.96329736328125,0.2504074239760637,-0.0899886062219739,0.15144350240426138
1780100637153289000,5.9732890625,0.2230892089396715,-0.10550737013220786,0.19089666586518286
1780100637163281200,5.98328125,0.15577508360147474,-0.09692936527058482,0.21524627688694745
1780100637173272000,5.99327197265625,0.10055354711711406,-0.030498744768649336,0.24867707478580994
1780100637183264000,6.003263916015625,0.04646306048929691,0.02799538364559412,0.2508183063318953
1780100637193256200,6.013256103515625,0.005035656079649925,0.09647475337088107,0.23140410588569937
1780100637203248000,6.023248046875,-0.007632102313637733,0.15868936361297964,0.17922237548865377
1780100637213240000,6.033239990234375,-0.017985154023766516,0.18709215901568532,0.12790855049993843
1780100637223232000,6.04323193359375,0.011932429856061934,0.2002287039645016,0.053871277219452895
1780100637233224200,6.05322412109375,0.027570728492736816,0.15767448748201132,-0.008585959839215502
1780100637243216100,6.063216064453125,0.042726796570420264,0.10729834520220756,-0.06533822215534746
1780100637253207300,6.073207275390625,0.058337038156390186,0.03718742875233293,-0.1011614772818517
1780100637263199000,6.083198974609375,0.07474865925312042,-0.04952770875692367,-0.11145268840268253
1780100637273191200,6.093191162109375,0.07956453510224819,-0.11738894658386706,-0.10298334068045951
1780100637283184600,6.1031845703125,0.0851145704448223,-0.1803667962834239,-0.10295386799080297
1780100637293176300,6.11317626953125,0.07361702487468719,-0.2282940841063857,-0.08293032174091786
1780100637303168500,6.12316845703125,0.046110009267926216,-0.23150310928076503,-0.08916358097414485
1780100637313160400,6.133160400390625,-0.0025105215162038804,-0.210565681322664,-0.08832474639667197
1780100637323151600,6.143151611328125,-0.062143444702029225,-0.16176234131753445,-0.11650973433023318
1780100637333143600,6.1531435546875,-0.12280220380425452,-0.1007090299397707,-0.12704577792445196
1780100637343135500,6.163135498046875,-0.16434475902616977,-0.04349427381157875,-0.1555276481790468
1780100637353127400,6.17312744140625,-0.2013473327308893,0.022556553592532873,-0.1824784546751529
1780100637363119600,6.18311962890625,-0.21453239299654958,0.07218772272393106,-0.19203199003804475
1780100637373111600,6.193111572265625,-0.2159264777034521,0.09316928208470344,-0.21639964817315338
1780100637383103500,6.203103515625,-0.1949164229005575,0.10189546324536204,-0.20015147400982677
1780100637393095400,6.213095458984375,-0.15283143136501312,0.09793971135690807,-0.17728687738142906
1780100637403086300,6.22308642578125,-0.09921557651162147,0.08468056294173001,-0.15605006461795418
1780100637413078500,6.23307861328125,-0.020992519146203995,0.053366556267440315,-0.13635306517500428
1780100637423070500,6.243070556640625,0.02019230867922306,0.02547068747356534,-0.1145566731668543
1780100637433062700,6.253062744140625,0.04768529576063156,-0.012363807010650634,-0.09371928978343494
1780100637443054300,6.263054443359375,0.08352759351432323,-0.032552608558535576,-0.0718266708591953
1780100637453046500,6.273046630859375,0.13807283817231655,-0.05994096622169017,-0.050678595825098455
1780100637463038500,6.28303857421875,0.16874796242117882,-0.06124824942797422,-0.026687397186411544
1780100637473030700,6.29303076171875,0.174260588362813,-0.06101034901887178,-0.021695698979496955
1780100637483021600,6.303021484375,0.16366846719980238,-0.030786475668847558,0.008753242697520182
1780100637493013500,6.313013427734375,0.13205167818665503,-0.008553747203201055,0.0377877875319682
1780100637503005400,6.32300537109375,0.1001204163968563,0.03789017019420862,0.06277451371375936
1780100637512997600,6.33299755859375,0.0601490560144186,0.08660670869871974,0.0862770018203184
1780100637522989600,6.342989501953125,0.029386253482103344,0.1136558975353837,0.12717261004135944
1780100637532981800,6.352981689453125,0.01975391726195812,0.1493998494811356,0.1582134714632295
1780100637542973400,6.362973388671875,0.01376782858967781,0.16544760570153594,0.17431016312558203
1780100637552965400,6.37296533203125,0.028778935238718984,0.14119301601946352,0.17232193018412217
1780100637562956500,6.38295654296875,0.02265606844425201,0.11653963627815246,0.15921181658450514
1780100637572948500,6.392948486328125,0.01802256342470646,0.06738543700873852,0.13858033103672787
1780100637582940700,6.402940673828125,0.020538930159807203,0.011380056670308112,0.10951643224363215
1780100637592932400,6.412932373046875,-0.003307224851846695,-0.07095876545086503,0.08880242864470929
1780100637602924500,6.422924560546875,-0.001000116953253746,-0.1097080366924405,0.06724493712608236
1780100637612916500,6.43291650390625,-0.01184592061638832,-0.14540449623465537,0.048978084650682284
1780100637622908700,6.44290869140625,0.009065349987149238,-0.16334800307378172,0.04700547853661701
1780100637632900400,6.452900390625,0.014161796343326568,-0.15149945210888982,0.022507965210452674
1780100637642891500,6.4628916015625,0.011504559832811356,-0.10664119646772742,0.0176920528287068
1780100637652883500,6.472883544921875,0.005396306085586547,-0.06359437416270375,-0.0074298760061152274
1780100637662875400,6.48287548828125,-0.008206687331199645,-0.024575930590927598,-0.034182876641489564
1780100637672867600,6.49286767578125,0.0024006314009428023,0.009502426230162382,-0.05177427297416143
1780100637682859500,6.502859619140625,0.0022340426623821256,0.021176205150038003,-0.07218612442188896
1780100637692851500,6.5128515625,-0.014990648382902145,0.01213525895178318,-0.1014964083246421
1780100637702843400,6.522843505859375,-0.011542553755640983,-0.016652736376225948,-0.11533541158754378
1780100637712835600,6.532835693359375,-0.0139250649780035,-0.026498423086106775,-0.09642510554287582
1780100637722826500,6.542826416015625,0.0019669161587953566,-0.047602147521823644,-0.10099800294898449
1780100637732818700,6.552818603515625,0.015953940457105634,-0.04482815276384353,-0.09703375722682103
1780100637742810400,6.562810302734375,0.011282441514730453,-0.040554859358817336,-0.09510350155029446
1780100637752802600,6.572802490234375,0.006337970849871635,-0.05115341026261449,-0.09358982731802389
1780100637762794500,6.58279443359375,-0.014589081844687461,-0.048952100826054806,-0.11549128713584504
1780100637772786700,6.59278662109375,-0.06620002661645412,-0.048083501297980544,-0.12405371083584614
1780100637782778600,6.602778564453125,-0.11917933713197708,-0.019569208344817162,-0.14288249434321187
1780100637792770600,6.6127705078125,-0.15229425574839114,0.003936170405149459,-0.1249486138489563
1780100637802761500,6.622761474609375,-0.1585533161431551,0.02403349427729845,-0.10767869542245752
1780100637812753400,6.63275341796875,-0.14975859979093073,0.04719926580935716,-0.07815213842052035
1780100637822745600,6.64274560546875,-0.1265063190191984,0.06459346820265054,-0.03931658626813441
1780100637832737500,6.652737548828125,-0.10580781438350677,0.04841419455707073,-0.012586107991822063
1780100637842729500,6.6627294921875,-0.07192132687270641,0.022713205458968877,0.04426829952453263
1780100637852721400,6.672721435546875,-0.039050153884291644,0.014648995338380336,0.10190033121672458
1780100637862713600,6.682713623046875,-0.0083785367667675,-0.010757248596847057,0.13923329678643495
1780100637872705500,6.69270556640625,0.023704700714349745,0.00502455016374588,0.18752094235438851
1780100637882696700,6.70269677734375,0.05076514159739017,0.013335720782727002,0.20328849339392036
1780100637892688600,6.712688720703125,0.07236965516209602,0.024999708960950374,0.19388101543821393
1780100637902680600,6.7226806640625,0.07946107472777367,0.020703180810809133,0.1872171005696058
1780100637912672500,6.732672607421875,0.06018120471835136,0.00770911307260394,0.1531077092894353
1780100637922664400,6.74266455078125,0.06465513526201248,-0.031126667408645153,0.1008506760333199
1780100637932656600,6.75265673828125,0.07673895628750324,-0.06532996578365564,0.057379390371683985
1780100637942648300,6.7626484375,0.09186053757369518,-0.08685469211041927,0.003873526098253205
1780100637952640500,6.772640625,0.09237959301173686,-0.08529518770873547,-0.037775594770675526
1780100637962631400,6.78263134765625,0.08667699745595454,-0.06651201517507434,-0.07141725894124247
1780100637972623600,6.79262353515625,0.06904489465355873,-0.009619330608099698,-0.08587831222577952
1780100637982615600,6.802615478515625,0.042572482791543007,0.042852907168120145,-0.10231269314358941
1780100637992607500,6.812607421875,0.016335633251070975,0.06513517386391758,-0.0898977404675912
1780100638002599400,6.822599365234375,0.006219312906265258,0.07777940525114536,-0.11586577387088909
1780100638012591600,6.832591552734375,-0.005574000740051269,0.049473932743072505,-0.12294585919179953
1780100638022583600,6.84258349609375,0.0029366379737854,-0.011139087521284818,-0.1288223774092272
1780100638032575500,6.852575439453125,0.022915596163272857,-0.08068360226005315,-0.1379758806038648
1780100638042567400,6.8625673828125,0.0531949990928173,-0.1304724461711943,-0.15133796880370937
1780100638052558300,6.872558349609375,0.07147066049575805,-0.1455444892272353,-0.14966959720007142
1780100638062550500,6.882550537109375,0.06832943986058235,-0.16847426004633306,-0.14248150319373235
1780100638072542500,6.89254248046875,0.05143675724864006,-0.15650003687515854,-0.1281139916778542
1780100638082534700,6.90253466796875,0.019165888240933418,-0.13066782261282206,-0.1063051511800848
1780100638092526300,6.9125263671875,-0.01177227085828781,-0.11926350828409195,-0.10635602285079658
1780100638102518500,6.9225185546875,-0.028558570486307142,-0.10060235469490289,-0.06891296623642557
1780100638112510500,6.932510498046875,-0.03736556179821491,-0.08434402446374296,-0.049342844576155766
1780100638122502700,6.942502685546875,-0.014848609563708304,-0.07604264458641409,-0.04043884546344634
1780100638132493600,6.95249365234375,0.011510989573597908,-0.05265796960666776,-0.01690009873341769
1780100638142485500,6.962485595703125,0.035168344014883036,-0.0241499602638185,0.009234824802540242
1780100638152477400,6.9724775390625,0.0588853196889162,-0.014100421544909477,0.03760674100979231
1780100638162469600,6.9824697265625,0.0699742844581604,0.014272270980477331,0.06493077843219507
1780100638172461600,6.992461669921875,0.057550856214761734,0.024539836364239453,0.08498732733596116
1780100638182453800,7.002453857421875,0.028356910434365272,0.03027954906001687,0.11208199928216636
1780100638192445400,7.012445556640625,-0.017492402070760724,0.02016308258473873,0.15759528476595877
1780100638202437400,7.022437255859375,-0.035332010143995285,0.010622370170801877,0.18405640804897994
1780100638212429600,7.0324296875,-0.07409925543367862,-0.019250205523520705,0.1902878863170743
1780100638222420500,7.04242041015625,-0.08407295243740082,-0.044998833155632016,0.1905198867083527
1780100638232412700,7.05241259765625,-0.09081248982548713,-0.051071138806641096,0.17254994852002709
1780100638242404400,7.062404296875,-0.10589257005751132,-0.04759878652095794,0.15708894267901777
1780100638252396500,7.072396484375,-0.11034019711613655,0.013761106587946414,0.1541814577344805
1780100638262388500,7.082388427734375,-0.1308247667402029,0.09352861691638827,0.14709162733769043
1780100638272380700,7.092380615234375,-0.16731413022577762,0.17393603258356452,0.1435756551059894
1780100638282372000,7.1023720703125,-0.18370704662203788,0.25051658343896266,0.11192036071335897
1780100638292363800,7.11236376953125,-0.18831658624410627,0.32480040165930985,0.11126021630419418
1780100638302354700,7.122354736328125,-0.17075521059036253,0.34777240418493743,0.054451501959934825
1780100638312347000,7.132346923828125,-0.12100538351535796,0.3476582762859762,-0.017143501868122257
1780100638322338800,7.1423388671875,-0.05896949084103107,0.30234540874511,-0.03629372218246572
1780100638332331000,7.1523310546875,0.017788754668831824,0.22719357551857827,-0.06535215021600015
1780100638342323000,7.162322998046875,0.1012619876474142,0.1153537874944508,-0.09654069474656134
1780100638352315000,7.17231494140625,0.1962070472329855,0.0059556935340166085,-0.12404322597444987
1780100638362306800,7.182306884765625,0.26357261049747466,-0.09424553301408886,-0.15441499249571933
1780100638372299000,7.192299072265625,0.320076003485918,-0.18200448048785328,-0.17285799155589193
1780100638382290000,7.2022900390625,0.3730979840993881,-0.2505902331970632,-0.1873958546699956
1780100638392282000,7.2122822265625,0.35876667640805243,-0.2735438232831657,-0.19536270536333322
1780100638402273800,7.222273681640625,0.3359364204406738,-0.2685528831280768,-0.21127998533817008
1780100638412265700,7.232265625,0.2762456295877695,-0.22723989887833593,-0.21509537890786304
1780100638422258000,7.2422578125,0.20593056886792183,-0.15110095431059598,-0.2148534964433871
1780100638432249900,7.252249755859375,0.14572481423020361,-0.08580810566693543,-0.21953637529630213
1780100638442241800,7.26224169921875,0.052205988055467605,-0.02574965054541826,-0.19435104410275816
1780100638452233700,7.272233642578125,-0.03698386900424957,0.031164807461947202,-0.1963172661418095
1780100638462226000,7.282225830078125,-0.08183364907801151,0.042296588459610936,-0.17587180468542501
1780100638472216800,7.292216796875,-0.10175766220986843,0.03795490599349141,-0.14269773062714375
1780100638482209000,7.302208984375,-0.1594464655905962,0.020117197616398335,-0.12544760374650357
1780100638492201000,7.312200927734375,-0.16736206102073192,-0.006499737282842397,-0.07606705750846303
1780100638502193000,7.32219287109375,-0.17606325387060642,-0.04970262693241238,-0.040554754327540285
1780100638512184800,7.332184814453125,-0.20004677152633665,-0.0580151127256453,-0.0025246870388742535
1780100638522177000,7.342177001953125,-0.19586393288373946,-0.045672786894440646,0.03832886300557293
1780100638532169000,7.3521689453125,-0.21348492977023123,-0.02528890116587281,0.07058898229040204
1780100638542161000,7.362160888671875,-0.21863690570592878,0.012840484611690043,0.09493830105122178
1780100638552151800,7.37215185546875,-0.22229542821347711,0.04838321489691734,0.10646430553086102
1780100638562143700,7.382143798828125,-0.21626783848702907,0.07499065131545066,0.13654546420825645
1780100638572136000,7.392135986328125,-0.2002969468951225,0.08395765549466014,0.14299506047274915
1780100638582127900,7.4021279296875,-0.1630184788584709,0.0753581694535911,0.12967049127169883
1780100638592119800,7.412119873046875,-0.10812135202288627,0.05700169789940118,0.1471492210101336
1780100638602111700,7.42211181640625,-0.034033202505111694,0.03502937393561006,0.14756107148034497
1780100638612104000,7.43210400390625,0.04030804499089718,-0.008001958539336919,0.16115889553166926
1780100638622096000,7.442095947265625,0.11749532956779002,-0.04338452982679009,0.16411854905486106
1780100638632088000,7.452088134765625,0.15849954012930392,-0.04060293628424406,0.15753792855553328
1780100638642079000,7.462078857421875,0.21031799017190933,-0.042840486077964306,0.15698564670132473
1780100638652071000,7.47207080078125,0.2316208904415369,-0.05009045720621943,0.1348437200579792
1780100638662062800,7.482062744140625,0.21114976482093334,-0.039561172146350146,0.10356668439321219
1780100638672055000,7.492054931640625,0.19467852249145506,-0.012359276966005563,0.05985380852804519
1780100638682047000,7.502046875,0.152945413133502,0.030054654262959956,0.035558124217181464
1780100638692039000,7.512038818359375,0.10970423730015753,0.04976297881752252,-0.007141674748458899
1780100638702030800,7.52203076171875,0.07238719081878661,0.056812751198559996,-0.04571068491914775
1780100638712022800,7.532022705078125,0.05368482843637466,0.05334609800130129,-0.06223347020619548
1780100638722014000,7.542013916015625,0.048014381584525104,0.05640753139853477,-0.08269500601454638
1780100638732006000,7.552005859375,0.035625440132617946,0.0514653988212347,-0.08726614985498599
1780100638741998000,7.561998046875,0.04962357034683227,0.029163258381187915,-0.09264644552068785
1780100638751989800,7.57198974609375,0.060873278635740276,0.01675868096873164,-0.09292577391872182
1780100638761982000,7.58198193359375,0.06104805068075657,-0.003585457271337509,-0.08616624405537732
1780100638771974000,7.591973876953125,0.07035539273023605,-0.01620002417266369,-0.1084396881239023
1780100638781966000,7.601966064453125,0.03162555684149265,-0.03809022281095385,-0.1222201661325991
1780100638791957800,7.611957763671875,0.004825812721252441,-0.06289703954830765,-0.1175066546794027
1780100638801950000,7.621949951171875,-0.01112520512640476,-0.07064458493515849,-0.11386051672939211
1780100638811940900,7.63194091796875,-0.014891864183545113,-0.0846028215304017,-0.11461386498049832
1780100638821932800,7.641932861328125,-0.02545125212073326,-0.06780015528947114,-0.10862759364512749
1780100638831925000,7.651925048828125,-0.028380291309952736,-0.0359795142672956,-0.10983877779948524
1780100638841916700,7.661916748046875,-0.04801262801885604,-0.020876637681573627,-0.09558159479028545
1780100638851908900,7.671908935546875,-0.08943068007826804,-0.007558890946954488,-0.10205684608584269
1780100638861900800,7.68190087890625,-0.12017711599767207,0.00478664975464344,-0.091623596145818
1780100638871893000,7.69189306640625,-0.14166764779388905,-0.007422551216185093,-0.061113731761532834
1780100638881885000,7.701885009765625,-0.13525485814213753,-0.007840338236838579,-0.0293504195503192
1780100638891876900,7.711876953125,-0.08987550123631953,-0.017837708377093076,0.0068850605057319625
1780100638901867800,7.72186767578125,-0.07459843712747097,-0.022673019579052923,0.02778829393328633
1780100638911860000,7.73185986328125,-0.027546763095259663,-0.02080664118528366,0.04620511737258639
1780100638921852000,7.741851806640625,-0.012731471279263495,-0.0400914796307683,0.030751372389425522
1780100638931844000,7.751843994140625,-0.03257014421522617,-0.04700929619520902,0.010717455442575737
1780100638941835800,7.761835693359375,-0.03607902911901474,-0.04100143408253789,0.024531360796838996
1780100638951828000,7.771827880859375,-0.03393675639331341,-0.036722441589087246,0.035340750572877
1780100638961820000,7.78181982421875,-0.04474164352416992,-0.02751066886857152,0.05743457745790947
1780100638971812000,7.79181201171875,-0.01878887162208557,-0.021147417446970938,0.0783418340400327
1780100638981803000,7.801802978515625,0.01943418378829956,-0.011512158617377281,0.08356382473832927
1780100638991795000,7.811794921875,0.04152852669656276,0.0067414370842278,0.04099516417195555
1780100639001787000,7.821786865234375,0.055470542809367175,0.009706132108718157,0.02393914422446396
1780100639011778800,7.83177880859375,0.060792030093073844,0.03580751870125532,0.02487776308171451
1780100639021771000,7.84177099609375,0.0501104770809412,0.0465885865651071,0.013768956534261814
1780100639031763000,7.851762939453125,0.056904375004768366,0.05395210107043385,0.0045608005429385225
1780100639041755000,7.8617548828125,0.06784136408269405,0.0725045335881412,0.0007868669282179325
1780100639051746800,7.871746826171875,0.07359773565232754,0.08740048942491412,0.008561807212070562
1780100639061739000,7.881739013671875,0.09808978735208511,0.10343260968476534,0.018946108010411262
1780100639071730000,7.89172998046875,0.10438099645078182,0.11672478358671068,0.00856959779288154
1780100639081721900,7.901721923828125,0.11149813497960567,0.1329993343003094,-0.01688829869776964
1780100639091713800,7.9117138671875,0.13908698365092276,0.10308554981276392,-0.03210478715922217
1780100639101705700,7.921705810546875,0.14664543620645998,0.07653247392997145,-0.03330100207331124
1780100639111698000,7.931697998046875,0.13523615344166756,0.03006108400374651,-0.033949620441463775
1780100639121689900,7.94168994140625,0.1079021563142538,-0.0041799160331487655,-0.008853985958523117
1780100639131681800,7.951681884765625,0.08480652740895747,-0.03391425230056047,0.0281776220444357
1780100639141673700,7.961673828125,0.08030629338026046,-0.06077127956598997,0.056145350498124025
1780100639151665000,7.971664794921875,0.04049801460504532,-0.043278439103811975,0.0939683600405231
1780100639161656800,7.98165673828125,0.010592705684900283,-0.04425152191966772,0.1142669055731967
1780100639171649000,7.99164892578125,-0.020505027890205384,-0.041274551935493946,0.11888232694678008
1780100639181641000,8.001640869140624,-0.042753100055456156,-0.03563157761245966,0.11513229023087769
1780100639191633000,8.0116328125,-0.07216039632558822,-0.005911269870400428,0.13051776488395406
1780100639201624800,8.021624755859374,-0.11379939765930175,0.004139584022760391,0.12409893821706064
1780100639211617000,8.031616943359374,-0.1395470023781061,0.012262100201845169,0.12274105733470059
1780100639221609000,8.04160888671875,-0.15317688380181788,0.025255437287688254,0.1208945983509533
1780100639231599900,8.051599853515626,-0.16875614572763442,0.052690264441072936,0.10951053222580812
1780100639241591800,8.061591796875,-0.15650807405114173,0.04920373749956488,0.10821720447964034
1780100639251583700,8.071583740234376,-0.1059504377245903,0.05808876248374581,0.10080141179780475
1780100639261576000,8.081575927734375,-0.0591249736636877,0.06699556090831756,0.0762946374529507
1780100639271568000,8.09156787109375,0.007498831322789192,0.0806150670684874,0.041971302028000354
1780100639281563000,8.10156298828125,0.04154313974380493,0.10091039773076772,0.02709987784428522
1780100639291554800,8.111554931640624,0.04376373840272426,0.0910620806723833,-0.044440413821581745
1780100639301546800,8.121546630859376,-0.0047989247143268585,0.03938508492708206,-0.11263448206577449
1780100639311538700,8.13153857421875,-0.0870318022429943,-0.05295066894292831,-0.1942186681610532
1780100639321529600,8.141529541015625,-0.15261983444094657,-0.17141104415059089,-0.25982524066269397
1780100639331521800,8.151521728515625,-0.17640519917607306,-0.32002558847293255,-0.295120425927639
1780100639341513700,8.161513671875,-0.19134674772024154,-0.42163434373140335,-0.303126914511621
1780100639351505700,8.171505615234375,-0.196144503390789,-0.5032296540088951,-0.29036972426921126
1780100639361497600,8.18149755859375,-0.19644085598886013,-0.5323220391109585,-0.2418183131985366
1780100639371489800,8.19148974609375,-0.18182722422480582,-0.49826867060065266,-0.18988012750009073
1780100639381481700,8.201481689453125,-0.1508668532937765,-0.37960619694963094,-0.15335333634726703
1780100639391473700,8.2114736328125,-0.1363315474629402,-0.23804361696541307,-0.13914242189889772
1780100639401464600,8.221464599609375,-0.11577215903699398,-0.06462576303705572,-0.13142870571641252
1780100639411456800,8.231456787109375,-0.08247954576611519,0.06913271906748414,-0.15441908414894714
1780100639421448700,8.24144873046875,-0.04639467142820358,0.2013238057248294,-0.1683297552754171
1780100639431441000,8.25144091796875,0.025388708278536794,0.3280842456355691,-0.1868327408945188
1780100639441432800,8.261432861328124,0.09723989252448081,0.4049349917344749,-0.20377810354176906
1780100639451424800,8.2714248046875,0.18486732257306573,0.4516135946705937,-0.19736233648164198
1780100639461416700,8.281416748046874,0.2715180165439844,0.4748896947093308,-0.19010292167160658
1780100639471409000,8.291408935546874,0.3385147464960813,0.44368689332455397,-0.17960472586974502
1780100639481399800,8.30139990234375,0.4045826711654663,0.37022622805535793,-0.14468621016377584
1780100639491391700,8.311391845703126,0.461712087097764,0.279025323434174,-0.08764203396267257
1780100639501383700,8.3213837890625,0.4815437457710504,0.18652078886851667,-0.012566900967853144
1780100639511375600,8.331375732421876,0.4935241064220667,0.08137363035082816,0.050760401490190996
1780100639521367800,8.341367919921876,0.47869829321205615,-0.013118424770236014,0.12024996203817427
1780100639531359700,8.35135986328125,0.43342064311504364,-0.11038798178061843,0.1985963169896975
1780100639541351700,8.3613515625,0.3447083404392004,-0.19929346894100308,0.24841793065927922
1780100639551343600,8.371343505859375,0.2571715112835169,-0.24283859615698455,0.2992699650888331
1780100639561335800,8.381335693359375,0.1417640939056873,-0.28161241731792686,0.34027558215614406
1780100639571326700,8.39132666015625,0.01689794330894947,-0.2927104421764612,0.38069987393785265
1780100639581318700,8.401318603515625,-0.10653203700482845,-0.28398806040808555,0.4219509719325229
1780100639591310800,8.411310791015625,-0.23725275884866714,-0.2479736209578812,0.4553449266860261
1780100639601302500,8.421302490234375,-0.3253501444965601,-0.21335341234505176,0.4528993601648137
1780100639611294700,8.431294677734375,-0.4075537959307432,-0.13313085172548889,0.42964740818664426
1780100639621286700,8.44128662109375,-0.4706523494005203,-0.06527969690114259,0.35639070452433075
1780100639631278800,8.45127880859375,-0.5298334371656179,0.025182664312422273,0.26907511690389363
1780100639641270500,8.4612705078125,-0.5320481906056403,0.10222893298342824,0.182481267686747
1780100639651261700,8.47126171875,-0.5389741904765367,0.1523890944249928,0.09000537469368428
1780100639661253600,8.481253662109374,-0.4831050037384033,0.16805281976386904,0.015513548878999426
1780100639671245800,8.491245849609374,-0.40155718586444855,0.1969226481564343,-0.07178430215534753
1780100639681237800,8.50123779296875,-0.28860300685763357,0.1989689131617546,-0.12653277776786126
1780100639691229700,8.511229736328126,-0.15765841313004492,0.19597396912947296,-0.1854313131313771
1780100639701221600,8.5212216796875,-0.040546529921889306,0.1765478225171566,-0.21336776966396717
1780100639711213800,8.5312138671875,0.07076514257490635,0.12869462284371255,-0.2682174223623238
1780100639721205800,8.541205810546876,0.14150047453343867,0.08590966634526848,-0.3104248164348304
1780100639731196700,8.55119677734375,0.1820066724449396,0.007687339632213115,-0.3163488361889496
1780100639741188900,8.56118896484375,0.25526012470424175,-0.05224821976199746,-0.3285783127628267
1780100639751180500,8.5711806640625,0.2721756036698818,-0.1102522265717387,-0.30615281993774696
1780100639761172700,8.5811728515625,0.2723141353577375,-0.14863207997903227,-0.26491911146929487
1780100639771164700,8.59116455078125,0.2864852840512991,-0.16929507490992546,-0.21620306615512816
1780100639781156900,8.601156982421875,0.27445290095210073,-0.20916911239773034,-0.16921731523228808
1780100639791148500,8.6111484375,0.2582984694868326,-0.21895868500620125,-0.12226668128860183
1780100639801140700,8.621140625,0.22873919752538202,-0.1955335318855941,-0.06242348548611626
1780100639811131600,8.631131591796875,0.20358897417783736,-0.15347221348658202,-0.010623868008144199
1780100639821123800,8.641123779296874,0.17124796254336833,-0.10968538646921515,0.015731365481298415
1780100639831115800,8.65111572265625,0.1289770930469036,-0.06988353743478655,0.04787427899409085
1780100639841108000,8.66110791015625,0.09079261608123779,-0.02509264794141054,0.04310780437779613
1780100639851099600,8.671099609375,0.054180502998828886,0.01992488991469145,0.03641849933960475
1780100639861091600,8.681091552734374,0.010020458754897116,0.07025164009481669,0.029332760596042496
1780100639871083800,8.691083740234374,-0.025061960542201993,0.09439619353115558,0.000779295543115586
1780100639881075700,8.70107568359375,-0.04512801249325275,0.11720730640664696,0.005820230586081743
1780100639891067000,8.71106689453125,-0.06467676257193088,0.13801029433012008,-0.004985067536728456
1780100639901058600,8.72105859375,-0.06784428669214249,0.15155834268927573,0.0046961493264418095
1780100639911050800,8.73105078125,-0.06610416502654552,0.13586685256063938,0.0025565982807893304
1780100639921042700,8.741042724609375,-0.05235562565922737,0.11463672526627779,0.002712994418898597
1780100639931035000,8.751034912109375,-0.048237668946385384,0.10127236291095613,0.007044849610747769
1780100639941026600,8.761026611328125,-0.05611702401936054,0.06566124356463551,0.011329824320413172
1780100639951018800,8.771018798828125,-0.06417524279057979,0.03593143734186888,0.0343465062379837
1780100639961010700,8.7810107421875,-0.10534721113443374,0.007488456059247255,0.04130088281999342
1780100639971001600,8.791001708984375,-0.11746259634196758,-0.03119491033926606,0.03466034882697277
1780100639980993800,8.800993896484375,-0.13331073833703994,-0.03154737703874707,0.06102447800892405
1780100639990985700,8.81098583984375,-0.16252981855869292,-0.04827449382543564,0.061631613589217885
1780100640000977700,8.820977783203125,-0.1676853016257286,-0.053082040237635374,0.0721195619917009
1780100640010969600,8.830969482421875,-0.14985504590272902,-0.031096710661798713,0.05578317982195876
1780100640020961800,8.8409619140625,-0.13611176723241805,-0.018410247568041084,0.051242339788237584
1780100640030953700,8.85095361328125,-0.12375555900633334,0.006676409024000168,0.04779345970968715
1780100640040945700,8.860945556640624,-0.0912409443706274,0.014706278483569622,0.02489461375181563
1780100640050936600,8.8709365234375,-0.05754208838641643,0.021807927182316778,0.04694521798305213
1780100640060928800,8.8809287109375,-0.013708207356929777,0.01900719054788351,0.03734470167327672
1780100640070920700,8.890920654296876,0.051821957173943514,0.00784223793298006,0.051821135190036144
1780100640080913000,8.900912841796876,0.11123626917302608,-0.005709609818458557,0.05411489954986609
1780100640090904800,8.91090478515625,0.14465981534719466,-0.026456775901466608,0.061114768374571575
1780100640100896800,8.920896728515626,0.19086743977069853,-0.044347675770521164,0.07476713562472723
1780100640110888700,8.930888671875,0.19930033707320688,-0.06743307554274797,0.06386398488432168
1780100640120881000,8.940880859375,0.21230361103117465,-0.08014394242540002,0.04214711525263264
1780100640130871800,8.950871826171875,0.2024976718097925,-0.06557838758677244,0.016701023364206775
1780100640140863700,8.96086376953125,0.18437515514194963,-0.05096913973689079,-0.007293600207427516
1780100640150855700,8.970855712890625,0.1349906542479992,-0.03283800137117505,-0.028014143144991246
1780100640160847600,8.98084765625,0.09022387628257274,-0.001980652423202991,-0.068012035341328
1780100640170839800,8.99083984375,0.06037643502950668,0.002874240262061357,-0.08534486293620429
1780100640180831700,9.000831787109375,0.02223871981501579,0.023882979890704155,-0.08567104441695846
1780100640190823700,9.01082373046875,-0.016553075394034385,0.04457651609033346,-0.10293577521168626
1780100640200815600,9.020815673828125,-0.052881695359945295,0.0520601498439908,-0.10667209392949006
1780100640210806500,9.030806640625,-0.06233925953507423,0.06119198919609189,-0.10139153231121599
1780100640220798700,9.040798828125,-0.06707447136342524,0.04933160166293382,-0.0818212005883921
1780100640230790700,9.050790771484374,-0.07427811913192271,0.0337017785936594,-0.04682360089737922
1780100640240782800,9.060782958984374,-0.06339665963351726,0.0174031163521111,-0.038044894965039565
1780100640250774500,9.0707744140625,-0.0673252312541008,-0.012601999680697917,-0.010210364436963573
1780100640260766700,9.0807666015625,-0.05942249530553818,-0.031806612496823074,0.00595819601835683
1780100640270758700,9.090758544921876,-0.04325403531491756,-0.0572590336613357,-0.0007613123618531971
1780100640280747800,9.100747802734375,-0.043512393990159035,-0.05525383131876588,-0.00005829692534171045
1780100640290738700,9.11073876953125,-0.0431564201593399,-0.031057547695189713,-0.018139011144917457
1780100640300730600,9.120730712890625,-0.05265606991052627,-0.028801293200999497,-0.042342372963251544
1780100640310722600,9.13072265625,-0.04628302774727344,-0.006516103895753622,-0.06738495295154862
1780100640320714800,9.14071484375,-0.024197452667355537,-0.003316284941136837,-0.05598010889985598
1780100640330706700,9.150706787109375,-0.007650222492218017,0.018068740653991697,-0.05948650045245885
1780100640340698600,9.16069873046875,-0.026126374903321266,0.011418488984555006,-0.052360868089925496
1780100640350690600,9.170690673828124,-0.0022568390160799027,0.0069046648219227786,-0.03288938449854031
1780100640360682500,9.1806826171875,-0.0019938041657209396,-0.01978840405344963,-0.0236994856831152
1780100640370673700,9.190673583984376,0.012414660415053368,-0.046654345277696845,0.0024760255915578454
1780100640380665600,9.20066552734375,-0.015156068077683448,-0.07349442140832543,0.020730278880288822
1780100640390657500,9.210657470703126,-0.012869418445229529,-0.09259542771950363,0.019810469754785297
1780100640400649500,9.2206494140625,-0.021185995891690252,-0.09959083956480026,0.060065149723784995
1780100640410641700,9.2306416015625,-0.029781974801421165,-0.08881620144173502,0.06562997164353727
1780100640420633600,9.240633544921875,-0.03061959466934204,-0.049427463252842425,0.06620514118298888
1780100640430625800,9.250625732421875,-0.02549392221868038,-0.0109067400701344,0.060205562841473145
1780100640440616700,9.26061669921875,-0.017119477105140685,0.024650895523279905,0.06006157866036519
1780100640450608400,9.2706083984375,-0.005666939720511436,0.060709027984738345,0.04101011971249245
1780100640460600600,9.2806005859375,-0.007474865925312042,0.0663632543541491,0.017089949616556986
1780100640470592500,9.290592529296875,0.005310381367802619,0.07686798949465155,0.002501561891613528
1780100640480584700,9.300584716796875,0.02012859579324722,0.0739445032633841,-0.033680671873549
1780100640490576400,9.310576416015625,0.06975508874952793,0.0738837129868567,-0.05042620109976269
1780100640500568600,9.320568603515625,0.08524725691378116,0.06742766871526837,-0.05913594258227385
1780100640510560500,9.330560546875,0.10807809740304947,0.032388357907533645,-0.05513153837965801
1780100640520551700,9.3405517578125,0.14157996951043605,0.015922084014117717,-0.04720696505862288
1780100640530543600,9.350543701171874,0.15582476796209813,0.004658347199857235,-0.04384701450569555
1780100640540535800,9.360535888671874,0.12088789461553096,-0.015201076263189315,-0.014935931654134765
1780100640550527500,9.370527587890624,0.1151782847970724,-0.03858282863348722,-0.006265773263340816
1780100640560519700,9.380519775390624,0.0870575212061405,-0.04127352902218699,0.005384515183093026
1780100640570511600,9.39051171875,0.061658876055479046,-0.0450527552999556,0.008021558288950473
1780100640580503800,9.40050390625,0.02179214509129524,-0.03590206511691212,-0.01343837743960321
1780100640590495500,9.41049560546875,-0.017456746235489845,-0.054605158151686185,0.00751353570157662
1780100640600486400,9.420486328125,-0.048017304193973535,-0.053675914477556944,0.001044376220088452
1780100640610478600,9.430478515625,-0.07123042199909686,-0.05006546889543533,0.0075585895528551186
1780100640620470500,9.440470458984375,-0.08800912284255027,-0.03446019574552774,0.01043447378273122
1780100640630462700,9.450462646484375,-0.07605740376412869,-0.02219619584754109,0.041969922921666875
1780100640640454700,9.46045458984375,-0.07816518969833851,0.01927723966091871,0.0437732460165862
1780100640650446600,9.470446533203125,-0.08566694363057613,0.058889849733561275,0.050110915472358464
1780100640660438500,9.4804384765625,-0.11128127735853195,0.07016410794183611,0.030550091363396495
1780100640670429700,9.4904296875,-0.1317699386358261,0.08852963958531618,0.003999609296489507
1780100640680421600,9.500421630859375,-0.14177110816836355,0.0742637983456254,0.0002522394617088139
1780100640690413800,9.510413818359375,-0.1682698235154152,0.037719051411002874,-0.01023546234560199
1780100640700405500,9.520405517578125,-0.121387660831213,0.018410978220403194,-0.026064799175504593
1780100640710397700,9.530397705078125,-0.08060206145644187,-0.007673164976388216,-0.03388210359662771
1780100640720389600,9.5403896484375,-0.03602700667083263,-0.03823533037006855,-0.035326941243233156
1780100640730381600,9.550381591796874,0.009098667734861373,-0.06462663981989025,-0.03963547035842202
1780100640740373500,9.56037353515625,0.05812076505720615,-0.08613792214319109,-0.05745126829780638
1780100640750364400,9.570364501953126,0.09193944802880287,-0.09111658733859658,-0.052249197009531775
1780100640760356600,9.580356689453126,0.11894435933232307,-0.08456862699985504,-0.05298379489439539
1780100640770348500,9.5903486328125,0.13164894260466098,-0.07441051333993673,-0.05016154968105256
1780100640780340700,9.6003408203125,0.12778408387005327,-0.055262891408056014,-0.043962320581590754
1780100640790332700,9.610332763671876,0.1264928750157356,-0.03586728606447577,-0.03365983001491986
1780100640800324600,9.62032470703125,0.12924948024749755,-0.03687383275851607,-0.02344973957259208
1780100640810316500,9.630316650390625,0.11075345409214496,0.004051175086945295,-0.007648998649511486
1780100640820307500,9.640307373046875,0.10498773017227649,0.02009293995797634,-0.004422291687969118
1780100640830299600,9.650299560546875,0.0793114371240139,0.043244829095155,0.0108691023403313
1780100640840291600,9.66029150390625,0.05992810674011707,0.04675692886933684,0.03973583459351211
1780100640850283500,9.670283447265625,0.036062077984213826,0.05681377411186695,0.022272119761118665
1780100640860275500,9.680275390625,0.02715045725405216,0.04971680158823728,0.01914722920623608
1780100640870267600,9.690267578125,0.02301438036262989,0.04732186927571892,0.019178565059415995
1780100640880259600,9.700259521484375,-0.021552491116523742,0.06842793179899453,0.0186705972709693
1780100640890250800,9.710250732421875,-0.03639408641755581,0.03791574302688241,0.016283848264906555
1780100640900242700,9.72024267578125,-0.04814297640025615,0.03177607122808695,0.014468387207621707
1780100640910234600,9.730234619140624,-0.044836336070299146,0.025963147165626286,0.012991428256547078
1780100640920226600,9.7402265625,-0.04814063831269741,0.007726356468349695,0.011283701890055089
1780100640930218800,9.75021875,-0.058492520979046815,0.004806523498892784,-0.003302009820612147
1780100640940210700,9.760210693359374,-0.04670446802973747,0.022999475054442883,-0.002623124178359285
1780100640950202600,9.77020263671875,-0.0443026675850153,0.02509600894227624,0.005870572533831
1780100640960194600,9.780194580078126,-0.06383446652889252,0.01937836194783449,0.007113667930103838
1780100640970185500,9.790185546875,-0.07539221785366534,0.010742781680077314,0.023960237244842572
1780100640980177700,9.800177734375,-0.053557402664422986,0.002890606874972582,0.03855099958996288
1780100640990169600,9.810169677734375,-0.041140404161810876,0.012045827102661132,0.05620314053338952
1780100641000161500,9.82016162109375,-0.034413141733407974,-0.003031184389442205,0.051151775427954266
1780100641010153500,9.830153564453125,0.000009936872124671935,0.004235884004086256,0.06467100868457928
1780100641020145700,9.840145751953125,0.0006488192975521087,-0.018963351406157014,0.06592894545695745
1780100641030137600,9.8501376953125,0.028235329881310462,-0.016690876429527997,0.046885834212321786
1780100641040128800,9.860128662109375,0.045531332597136494,-0.027375498181581494,0.010765833762101829
1780100641050120700,9.87012060546875,0.06285305427610874,-0.0331245632275939,-0.004534839551197364
1780100641060112600,9.880112548828125,0.04579787457883358,-0.028758476972579956,-0.031136047158343717
1780100641070104600,9.8901044921875,0.01377484285235405,-0.03149842333048582,-0.05752848911932669
1780100641080096500,9.900096435546875,0.004632335975766182,-0.036332419358193875,-0.0698167010099627
1780100641090088700,9.910088623046875,-0.0002098433583974838,-0.046270752787590026,-0.09054716255334205
1780100641100080400,9.920080322265624,-0.004938625445961952,-0.05175444489568472,-0.07469059978979639
1780100641110071600,9.930071533203124,-0.015547113221883773,-0.03228957370817661,-0.08203786641322076
1780100641120063500,9.9400634765625,0.008514145845174789,-0.016319705029577015,-0.05839400164117105
1780100641130055700,9.9500556640625,0.02313888352513313,-0.017246026094257832,-0.04406460277913138
1780100641140047600,9.960047607421876,0.013073416584730147,-0.0053590428151190275,-0.03364601155212149
1780100641150039600,9.97003955078125,0.03399403953850269,0.00314078224375844,-0.0229434066188056
1780100641160031500,9.980031494140626,0.019016250637173653,0.006597936960309744,-0.031058643673732875
1780100641170023700,9.990023681640626,0.012258008548617362,0.006831161194294691,-0.025324849262088535
1780100641180014600,10.0000146484375,-0.005297521886229515,0.012180851659178734,-0.01727069474463351
1780100641190006500,10.010006591796875,-0.0035720132678747174,0.007373305246978998,-0.01644626315184869
1780100641199998700,10.019998779296875,0.002613397368788719,0.016401245833188294,-0.011402505964133888
1780100641209990400,10.029990478515625,0.009234861335158348,0.02299056109562516,-0.002187691903160885
1780100641219982600,10.039982666015625,0.025441899770498273,0.011888006192445755,0.004413213332369923
1780100641229974500,10.049974609375,0.007998013016581535,0.020857932981103656,0.0037398349822964517
1780100641239966700,10.059966796875,0.030083588096499442,0.045802258493006225,0.021227460413239894
1780100641249957600,10.06995751953125,0.034551673421263696,0.045180911724269385,0.039136873186519365
1780100641259949600,10.079949462890625,0.02348959665894508,0.04030205364152789,0.04545739971124567
1780100641269941500,10.08994140625,0.007218260815739631,0.033290421313792465,0.05014302764367312
1780100641279933700,10.09993359375,-0.0002098433583974838,0.031139380759745833,0.04754585989047773
1780100641289926000,10.10992578125,-0.025280571728944778,0.012158785957843065,0.039001446771202604
1780100641299917800,10.119917724609374,-0.04080196598768234,-0.0061734279379248615,0.031034449947392566
1780100641309909800,10.12990966796875,-0.053796472117304796,-0.019141776712983845,0.024467255185218525
1780100641319900700,10.139900634765626,-0.042241643401980396,-0.03364128057807684,0.032691825232980774
1780100641329892600,10.149892578125,-0.05196867216825485,-0.02970437952056527,0.042285044152289626
1780100641339884800,10.159884765625,-0.024728783065080643,-0.043800124890357256,0.030821336919674647
1780100641349876700,10.169876708984376,-0.020507950499653815,-0.03653539458438754,0.02475961659476161
1780100641359868700,10.17986865234375,-0.004457563930749893,-0.04059256102070212,0.030253957961034028
1780100641369860600,10.189860595703125,0.017137012761831282,-0.03037014995291829,0.024268371612252666
1780100641379852800,10.199852783203125,0.0047772974044084544,-0.02115107070878148,0.00924311770685017
1780100641389843700,10.20984375,-0.00010112228691577911,-0.012385142059624194,-0.011298314937297254
1780100641399836000,10.2198359375,-0.0011363105535507202,-0.022322160314768552,-0.018681301328074187
1780100641409827600,10.22982763671875,-0.011477087303996086,-0.013048136013001203,-0.030143857783218844
1780100641419819800,10.23981982421875,-0.007330489018559455,-0.004334229812026024,-0.03376046824464574
1780100641429811700,10.249811767578125,0.021798574832081793,-0.020088263782858846,-0.037165865374496204
1780100641439804000,10.259803955078125,0.02174947499334812,0.000838642781227827,-0.040474378001131114
1780100641449795800,10.2697958984375,0.04865034140050411,0.006424187828600407,-0.025356504775676875
1780100641459786800,10.279786865234374,0.06214578278958797,0.004151858982443809,-0.04930514291427098
1780100641469778700,10.28977880859375,0.07284720954596996,-0.0008045943811535835,-0.07035563932540827
1780100641479770600,10.2997705078125,0.06053191785216331,-0.025843904700130222,-0.06536428817836568
1780100641489762800,10.3097626953125,0.04701601819694042,-0.020029227072000503,-0.06610317864585667
1780100641499754800,10.319754638671874,0.016882745739817618,-0.01938376877531409,-0.08419000294581055
1780100641509746700,10.32974658203125,-0.005512625941634178,-0.015608926411718129,-0.06619750586580485
1780100641519738600,10.339738525390626,-0.004130231672525406,0.0025026304706931113,-0.060686624356685204
1780100641529729800,10.349729736328126,-0.006197685596346855,0.00676627926453948,-0.0692638529001735
1780100641539721700,10.3597216796875,-0.0036357261538505553,0.020227672253549097,-0.04794860460562631
1780100641549713700,10.369713623046875,-0.011249708288908004,0.0360970031671226,-0.040654054550128056
1780100641559705900,10.379705810546875,-0.01992167504429817,0.06505582501739263,-0.015550547287985682
1780100641569697500,10.389697509765625,-0.05114566534757614,0.06402458227351307,0.0002677749575581401
1780100641579689700,10.399689697265625,-0.06408464189767837,0.05644537919089198,0.011252274705329909
1780100641589681700,10.409681640625,-0.09302548969984054,0.02267711123228073,0.015550063230795785
1780100641599672800,10.4196728515625,-0.06064648414254188,0.008859598281979561,0.03263779349080287
1780100641609664800,10.429664794921875,-0.03596913900375366,0.004844517421722412,0.05321583181829191
1780100641619656700,10.43965673828125,-0.020336685585975647,-0.018446780186146497,0.0810266526772175
1780100641629648600,10.449648681640625,0.02098082870841026,-0.053486821646243334,0.08454711842094548
1780100641639640800,10.459640869140625,0.03463233744204044,-0.06145151691511273,0.07168395618656649
1780100641649632800,10.4696328125,0.03906827406287193,-0.06142652860432863,0.05840484269559383
1780100641659624700,10.479624755859374,0.03920739027261734,-0.0655835021533072,0.05643673009355552
1780100641669615900,10.489615966796874,0.030847558206319806,-0.057954176318645474,0.039901391285611314
1780100641679607600,10.499607666015624,0.016357845082879064,-0.05110577172860503,0.02653013339862227
1780100641689599700,10.509599853515626,0.008739186772704124,-0.03670139880105853,0.01703132389765233
1780100641699591700,10.519591796875,0.005574000740051269,-0.01640080744177103,0.02580539932064712
1780100641709584000,10.529583984375,0.02589256614744663,-0.002936199582368135,0.037378850538050755
1780100641719575600,10.539575439453126,0.03213935158252716,0.010535860931128262,0.025713802913902326
1780100641729567700,10.549567626953126,0.04603694403171539,0.017874094864726065,0.027860614817403255
1780100641739558700,10.55955859375,0.052344519743323326,0.021046587421000004,0.028459795420104635
1780100641749550800,10.56955078125,0.048474984833598134,0.018822920022159812,0.005573991606896742
1780100641759542800,10.579542724609375,0.037895138630270955,0.017633710237592456,-0.008425307651096954
1780100641769534700,10.58953466796875,0.03450549619197845,0.045723932559788225,-0.010524471887433901
1780100641779526700,10.599526611328125,0.016015899777412412,0.03394800843968987,-0.016080133253196252
1780100641789518800,10.609518798828125,-0.008926233777403831,0.04281535163670778,-0.04798972206730395
1780100641799509800,10.619509765625,-0.01892623426616192,0.04735094923973083,-0.06148595804083161
1780100641809501700,10.629501708984375,-0.02104278802871704,0.03812894738614559,-0.04780980805628933
1780100641819494000,10.639493896484375,-0.027992168775200842,0.03306640329957008,-0.04446658030929975
1780100641829485600,10.649485595703124,-0.01733282759487629,0.012591332156211136,-0.041244576922338454
1780100641839477800,10.659477783203124,0.006032850423455238,0.014482698860764502,-0.04216694333110936
1780100641849469700,10.6694697265625,0.01251519818007946,0.011431202335655689,-0.03903037147158757
1780100641859462000,10.6794619140625,0.014084054931998252,0.00822846077159047,-0.030241664735041557
1780100641869452800,10.689452880859376,0.005510872375965118,0.004816752631962299,-0.0280934919915162
1780100641879444700,10.69944482421875,-0.00826923117339611,-0.008345072888582944,-0.02881324850027449
1780100641889436700,10.709436767578126,-0.02157353390455246,0.004232815264165401,-0.020421623923070727
1780100641899428900,10.719428955078126,-0.016921324184536932,-0.01592588340640068,-0.008557847989583388
1780100641909420800,10.7294208984375,-0.02400046879053116,-0.04765811549276113,-0.006679413831839337
1780100641919412700,10.739412841796875,0.00509469279050827,-0.04920870593562722,-0.002188550419686362
1780100641929404700,10.74940478515625,0.006489946541190147,-0.06427665733844042,0.018021266516763716
1780100641939395600,10.7593955078125,0.017457915279269216,-0.07529080330580472,0.03443659567423164
1780100641949387800,10.7693876953125,0.03896539821028709,-0.05424816140756011,0.031107524316757916
1780100641959379700,10.779379638671875,0.04346972389221191,-0.05243132124394178,0.04698001530179754
1780100641969372000,10.789371826171875,0.028904022923111915,-0.05771729882284998,0.05124776488202624
1780100641979363600,10.799363525390625,0.0179641112357378,-0.03345058031156659,0.03196434207549319
1780100641989355800,10.809355712890625,-0.0010755202770233153,-0.00475114004984498,0.034488280195696275
1780100641999346700,10.8193466796875,-0.02508124976456165,0.01288461601436138,0.02461024385248311
1780100642009338600,10.829338623046874,-0.044072950482368464,-0.00014408464580774306,0.0030635431559290736
1780100642019330800,10.839330810546874,-0.04322305565476417,0.014299158987402916,0.007035798654612154
1780100642029322800,10.84932275390625,-0.0421282461553812,-0.0012840484611690043,0.00041776875434443355
1780100642039314700,10.859314697265624,-0.030260113707184788,0.0038350481182336804,-0.0007444342922884971
1780100642049306600,10.869306640625,-0.03709259007573128,0.016141718114167453,0.005520188193581998
1780100642059298800,10.879298828125,0.0007207154899835586,0.025127719254791736,0.028352791381673886
1780100642069289700,10.889289794921876,0.006719663643836975,0.01653466295450926,0.02529874670645222
1780100642079282000,10.899281982421876,0.014091069194674491,0.025413988850265738,0.020735667441459372
1780100642089273600,10.909273681640625,0.01803250029683113,0.011590484550595283,0.01408974488726817
1780100642099265800,10.919265869140625,0.01779167727828026,0.015056991617381572,0.03090006471169181
1780100642109257700,10.9292578125,-0.0016103578060865402,0.02064502088278532,0.019786266895290464
1780100642119250000,10.93925,0.004998246678709984,0.02307502450868487,0.02505608792384155
1780100642129240800,10.94924072265625,0.00876373669207096,0.015012567953765392,0.020187687303032723
1780100642139232500,10.959232421875,0.015354805520176887,0.030530162820219992,0.004291185254743322
1780100642149224700,10.969224609375,0.017270283752679822,0.02453063014447689,-0.009466624264419079
1780100642159216600,10.979216552734375,0.02981879968047142,0.02865063268393278,-0.03244648130293935
1780100642169208800,10.989208740234375,0.03815057469606399,0.01829056671112776,-0.06067588376696221
1780100642179200800,10.99920068359375,0.02567746209204197,0.02313888352513313,-0.0693144140436314
1780100642189192700,11.009192626953125,0.020856910067796705,0.01775996696576476,-0.07809111068197526
1780100642199183600,11.01918359375,0.04118190521597862,0.005246230090409517,-0.08332727603609673
1780100642209175800,11.02917578125,0.030526071166992186,0.0058420040264725685,-0.09215025036842561
1780100642219167700,11.039167724609374,0.029001638078689572,0.016016338168829677,-0.08954412299063988
1780100642229160000,11.049159912109374,0.03302899389863014,-0.00923237711712718,-0.07703930920725688
1780100642239151600,11.059151611328126,0.005201075774431229,-0.027292057681828737,-0.06633738012737594
1780100642249143800,11.069143798828126,-0.008995207360386849,-0.01583615929633379,-0.05549744908260181
1780100642259134700,11.079134765625,-0.025867431706190106,-0.01930441992878914,-0.030665552702918646
1780100642269126700,11.089126708984375,-0.025372926187515257,-0.032847207590937615,-0.02621811744053848
1780100642279118800,11.099118896484375,-0.0516875171393156,-0.037393472718447444,-0.007719944993872195
1780100642289110500,11.109110595703125,-0.047639703053236004,-0.040777708329260344,0.0032538963625673204
1780100642299102200,11.119102294921875,-0.04436053525209427,-0.05345511133372784,0.031260541187692434
1780100642309094400,11.129094482421875,-0.04633797280490398,-0.04311287327855825,0.04939671192155219
1780100642319086300,11.13908642578125,-0.04637947385907173,-0.04366378515958786,0.050726691016834226
1780100642329077500,11.149077392578125,-0.03683247783482074,-0.028473522551357745,0.07466639693030155
1780100642339069400,11.1590693359375,-0.028199089524149894,-0.014283230765908955,0.08764485610742122
1780100642349061400,11.169061279296875,-0.007146364623308182,-0.001055354271829128,0.07399719243184663
1780100642359053300,11.17905322265625,-0.003739771050214767,0.00608896452486515,0.07317056888197548
1780100642369045500,11.18904541015625,-0.0015226795226335524,0.021405776122212408,0.05840027611833065
1780100642379037400,11.199037353515624,0.008018471282720565,0.021675240713357923,0.055268709227489304
1780100642389028400,11.2090283203125,0.0013864859223365782,0.03462693061456084,0.04503940262803808
1780100642399020500,11.2190205078125,0.009292144480347634,0.02743000484779477,0.044267705869488416
1780100642409012200,11.22901220703125,0.012432780593633652,0.023442688777297733,0.033036062960233537
1780100642419004400,11.23900439453125,0.0329828166693449,0.0061466860614717,0.021888773866184055
1780100642428996400,11.248996337890626,0.043398996743559834,0.006106646312028169,0.0284187144910451
1780100642438988500,11.258988525390626,0.04053250139653682,0.013579758671671152,0.012864623539103195
1780100642448980200,11.268980224609376,0.04218260669112205,0.01543853828087449,-0.009150251791626214
1780100642458971400,11.278971435546875,0.020379355683922767,0.006985621103644371,-0.021880554027110338
1780100642468963300,11.28896337890625,-0.006050386080145836,0.005143061976879835,-0.03855400439780205
1780100642478955500,11.29895556640625,-0.03219020498692989,-0.002798398546874523,-0.054344269592640916
1780100642488947500,11.308947509765625,-0.033821021059155465,0.016533640041202304,-0.07734225594289601
1780100642498939400,11.318939453125,-0.02891512883901596,0.01881532123759389,-0.09830877299816347
1780100642508931300,11.328931396484375,-0.025711948883533477,0.03913125629648566,-0.10834759852681308
1780100642518922200,11.338922119140625,-0.026886253359913823,0.03443666873946786,-0.11525008965795859
1780100642528914400,11.34891455078125,-0.016856442254781723,0.047153380841016765,-0.14300545400260015
1780100642538906400,11.35890625,-0.025679215657711026,0.04397402015253901,-0.12675573633615858
1780100642548898600,11.368898681640625,-0.03714461252391338,0.026450784552097317,-0.12617250222126022
1780100642558890200,11.37889013671875,-0.04842997664809227,0.0093425594933331,-0.10966479120575823
1780100642568882400,11.38888232421875,-0.013203764966130255,-0.017857289860397575,-0.08335124143357388
1780100642578873300,11.398873291015626,0.012233458629250526,-0.027216654358059165,-0.03863844041139818
1780100642588865300,11.408865234375,0.04775953004062176,-0.03872296775653958,-0.002606848896993324
1780100642598857500,11.418857421875,0.06797521959543228,-0.05532090520560741,0.02422290676902048
1780100642608849400,11.428849365234376,0.07202946342229842,-0.050314767481386656,0.052665394861297676
1780100642618841300,11.43884130859375,0.05700023659467697,-0.05939999121278524,0.057515739235607904
1780100642628833300,11.448833251953126,0.037843700703978536,-0.05002367558032274,0.06641875653420574
1780100642638824400,11.458824462890625,0.020367665246129034,-0.029334523294866084,0.06640940418397076
1780100642648816400,11.46881640625,0.0012415244936943054,-0.04347863785102963,0.07287963224453851
1780100642658808600,11.47880859375,-0.012989245432615279,-0.04119651826322079,0.08526691146232188
1780100642668800300,11.48880029296875,-0.022469021439552306,-0.026116438031196593,0.08766325028063729
1780100642678792400,11.49879248046875,-0.01582008494436741,-0.008914835600554942,0.10158427840434014
1780100642688784400,11.508784423828125,0.00608545739352703,0.002587824536114931,0.1012993148499634
1780100642698776600,11.518776611328125,0.015437223106622695,0.012879355317354202,0.11160706611364148
1780100642708767500,11.528767578125,0.01554068348109722,0.022609891214966774,0.10761270838100463
1780100642718759400,11.538759521484375,0.025125088906288146,0.037475013522058724,0.10169220489137805
1780100642728751400,11.54875146484375,0.03372165233790874,0.032768297135829925,0.08747006579609587
1780100642738743300,11.558743408203124,0.025440730726718902,0.059403936735540626,0.06411186783132143
1780100642748735500,11.568735595703124,0.010751695638895034,0.06731704794764519,0.04231548495632596
1780100642758727400,11.5787275390625,-0.01277355685532093,0.07126724687814712,0.024294547233125192
1780100642768718600,11.588718505859376,-0.039187516528367994,0.07046279862746596,-0.005047273452207446
1780100642778710300,11.598710205078126,-0.05068330853283405,0.05263517325296998,-0.03600135163976811
1780100642788702500,11.608702392578126,-0.0517792870759964,0.04308467009738087,-0.04697935771467164
1780100642798694400,11.6186943359375,-0.030057284611463547,0.021431056693941353,-0.06711229175631887
1780100642808686600,11.6286865234375,-0.002381342178583145,-0.00707081516906619,-0.07240414195358753
1780100642818678300,11.63867822265625,0.023815759873390196,-0.005472147800773382,-0.08566252318378538
1780100642828669200,11.648669189453125,0.05589724378883838,-0.01168166996538639,-0.08863563897674903
1780100642838661400,11.658661376953125,0.04254559478461742,-0.02512099725306034,-0.10568668135502375
1780100642848653300,11.6686533203125,0.025074820023775098,-0.01981938371360302,-0.09887495551356114
1780100642858645500,11.6786455078125,0.01362578977048397,-0.026057255189865826,-0.10444048068621195
1780100642868637400,11.688637451171875,-0.01801905629336834,-0.023436405166983604,-0.0961689479578752
1780100642878629400,11.69862939453125,-0.038618776729702944,-0.026256869415193795,-0.07766478416183963
1780100642888620300,11.708620361328125,-0.032797523230314256,-0.03745718560442328,-0.06694883568976075
1780100642898612500,11.718612548828125,-0.0051841246396303175,-0.025540391708910464,-0.051941957691265264
1780100642908604400,11.7286044921875,0.006226327168941497,-0.03656272098273038,-0.03197089968044311
1780100642918596600,11.7385966796875,0.01897182697355747,-0.04201046499460935,-0.012562663184152915
1780100642928588300,11.74858837890625,0.034003391888737675,-0.040388855142146345,0.004794805661635473
1780100642938580500,11.75858056640625,0.02755260831415653,-0.02780643694475293,0.02559573862534016
1780100642948571400,11.7685712890625,0.02759235580265522,-0.01841799248307943,0.01998097661663778
1780100642958563300,11.778563232421876,0.01391337454020977,-0.0034957331612706184,0.02791752350325696
1780100642968555500,11.788555419921876,-0.012484803041815757,-0.02060527339428663,0.0184224859951064
1780100642978547500,11.79854736328125,-0.04131517620682716,-0.0029153029248118398,0.01766332905772142
1780100642988539400,11.808539306640625,-0.05326221911013126,0.00880816035568714,0.036883367771841584
1780100642998531300,11.81853125,-0.05206453375816345,0.001229687925428152,0.034577575047500426
1780100643008522500,11.8285224609375,-0.05015782335400581,-0.012384849798679352,0.023889236101554707
1780100643018514400,11.838514404296875,-0.03599076631367206,-0.005751549264043569,0.03675670005171559
1780100643028506400,11.84850634765625,-0.006264321091771125,-0.005998655892908573,0.04322606959575787
1780100643038498300,11.858498291015625,-0.004946224230527877,-0.0002754559405148029,0.06003689174368046
1780100643048490200,11.868490234375,0.016273673930764197,0.012892214798927307,0.04339590973732993
1780100643058482400,11.878482421875,0.03466799327731132,0.023675328489392994,0.05600458575398661
1780100643068473300,11.888473388671875,0.017752514311671255,0.02978095188811421,0.04110805452847853
1780100643078465500,11.898465576171875,0.009672083708643912,0.03134966250956058,0.025070691837929187
1780100643088457500,11.90845751953125,0.021482933011651037,0.016536124259233474,0.020150944622373206
1780100643098449400,11.918449462890624,0.022529227194190024,0.016343670427054167,0.024290263783652333
1780100643108441300,11.92844140625,0.007572481080889701,0.0047623920962214464,0.02525301700173877
1780100643118433500,11.93843359375,0.00818038384616375,0.010981412741541862,0.002184951956802979
1780100643128425500,11.948425537109374,0.027492402559518812,0.007166238367557525,-0.007120928787952289
1780100643138416400,11.95841650390625,0.02155775181353092,-0.011573679546266794,0.0010346859431359916
1780100643148408300,11.968408203125,0.020715455770492552,-0.016435440363734958,-0.00924372049504891
1780100643158400300,11.978400146484375,0.021080197429656982,-0.0022129998743534085,-0.013843277579220012
1780100643168392400,11.988392333984375,0.007653729623556137,-0.008947714956849814,-0.01362839271952398
1780100643178384400,11.99838427734375,0.0034960254222154616,-0.0027284020505845543,-0.00704189046868123
1780100643188375600,12.00837548828125,-0.004726444000005722,-0.008300503094494342,-0.0022172193917445837
1780100643198367200,12.0183671875,-0.01298223116993904,-0.020243600475043057,-0.02987236563176848
1780100643208359400,12.028359375,-0.005851648637652397,-0.016458236717432736,-0.021903606109134853
1780100643218351400,12.038351318359375,-0.007313537883758545,-0.02353109771311283,-0.017154265290731562
1780100643228343600,12.048343505859375,-0.008214870637655258,-0.017392741088569162,-0.008749351973691954
1780100643238335500,12.05833544921875,0.009044307199120522,-0.01297507077679038,-0.014283614358399062
1780100643248326400,12.068326416015625,0.004431844967603683,-0.021468319964408872,-0.01414338390380144
1780100643258318300,12.078318359375,0.009774375039339065,-0.018446780186146497,-0.008079051496693863
1780100643268310300,12.088310302734374,-0.0010462941825389862,-0.000725099404156208,-0.0063535154788754876
1780100643278302500,12.098302490234374,-0.007441548177599906,0.004416939659416676,-0.015925344550283625
1780100643288294700,12.108294677734374,-0.01695581097602844,0.0075409168988466255,-0.002169507792498916
1780100643298286600,12.11828662109375,-0.03787994106113911,0.00810235017389059,-0.007613726406730711
1780100643308277500,12.128277587890626,-0.03270575329363346,0.006712357120215892,-0.013078366754483432
1780100643318269400,12.13826953125,-0.02212766065597534,0.00581204727962613,0.0025103479862678794
1780100643328261600,12.14826171875,-0.021615034958720206,0.007986760970205068,-0.0015035546970553696
1780100643338253600,12.158253662109376,-0.015373510220646857,-0.006109715051949024,0.007933624277170747
1780100643348245500,12.16824560546875,0.00955284124314785,-0.010383446848392486,0.0008539408150594681
1780100643358237400,12.178237548828125,-0.012940145593881605,0.005229571216553449,-0.005441277738474309
1780100643368228600,12.188228515625,-0.005949263793230056,0.007516366979479789,-0.016593169942405075
1780100643378220500,12.198220458984375,-0.015428455278277397,-0.001066606318205595,-0.019341683199256658
