time,seconds_elapsed,z,y,x
1780100631238106600,0.058106689453125,-0.7112536430358887,0.5608983635902405,-0.2860063314437866
1780100631248098600,0.0680986328125,-0.7524974942207336,0.36115092039108276,-0.12512077391147614
1780100631258090800,0.0780908203125,-0.8273276686668396,0.09539858996868134,0.04538484662771225
1780100631268082700,0.088082763671875,-0.9525564312934875,-0.16371898353099823,0.17855621874332428
1780100631278073600,0.098073486328125,-1.1246132850646973,-0.36915844678878784,0.2465825080871582
1780100631288065500,0.1080654296875,-1.3154393434524536,-0.5088918209075928,0.25320419669151306
1780100631298057500,0.118057373046875,-1.4832018613815308,-0.6118322610855103,0.22720536589622498
1780100631308049400,0.12804931640625,-1.6023730039596558,-0.6831261515617371,0.18920311331748962
1780100631318041600,0.13804150390625,-1.6845064163208008,-0.7217660546302795,0.14138436317443848
1780100631328033500,0.148033447265625,-1.7272933721542358,-0.7331968545913696,0.11608593165874481
1780100631338025500,0.158025390625,-1.7204545736312866,-0.7579104900360107,0.1606035977602005
1780100631348017400,0.168017333984375,-1.6807096004486084,-0.8443622589111328,0.30022647976875305
1780100631358008300,0.17800830078125,-1.6273274421691895,-0.9474981427192688,0.4989444613456726
1780100631368000500,0.18800048828125,-1.5819300413131714,-1.0257279872894287,0.6745748519897461
1780100631377992400,0.197992431640625,-1.5358586311340332,-1.0506256818771362,0.7495361566543579
1780100631387984600,0.207984619140625,-1.4575608968734741,-1.080153465270996,0.6808013319969177
1780100631397976300,0.217976318359375,-1.3000859022140503,-1.1707003116607666,0.4883546531200409
1780100631407968500,0.227968505859375,-1.0238261222839355,-1.2335467338562012,0.193844735622406
1780100631417960400,0.23796044921875,-0.4144294261932373,0.4104193150997162,-0.4843403100967407
1780100631427952600,0.24795263671875,0.41709601879119873,1.2072744369506836,-0.9322125911712646
1780100631437943600,0.257943603515625,0.9867004156112671,0.9808281064033508,-1.1181881427764893
1780100631447935500,0.267935546875,1.252981424331665,0.5794016122817993,-1.1633762121200562
1780100631457927400,0.277927490234375,1.3596816062927246,0.2944117486476898,-1.0922359228134155
1780100631467919600,0.287919677734375,1.3672682046890259,0.3371078073978424,-0.9625779986381531
1780100631477911600,0.29791162109375,1.3164820671081543,0.40287473797798157,-0.7909722328186035
1780100631487903500,0.307903564453125,1.3259598016738892,0.1476922482252121,-0.6061251163482666
1780100631497895400,0.3178955078125,1.4031189680099487,-0.5519590973854065,-0.4943839907646179
1780100631507887400,0.327887451171875,1.3238340616226196,-1.1934263706207275,-0.5770953893661499
1780100631517878500,0.33787841796875,1.0080020427703857,-1.1709047555923462,-0.8352302312850952
1780100631527870500,0.347870361328125,0.6991451978683472,-0.6275571584701538,-1.175880789756775
1780100631537862700,0.357862548828125,0.4533572196960449,-0.0561615489423275,-1.484299659729004
1780100631547854300,0.367854248046875,0.29436302185058594,0.31141114234924316,-1.6959136724472046
1780100631557846500,0.377846435546875,0.30294665694236755,0.1766716092824936,-1.730920672416687
1780100631567838500,0.38783837890625,0.45684701204299927,-0.23690184950828552,-1.5818723440170288
1780100631577830700,0.39783056640625,0.6041402816772461,-0.66633141040802,-1.2779406309127808
1780100631587822300,0.407822265625,0.580994725227356,-0.9541032910346985,-0.8654350638389587
1780100631597813200,0.417813232421875,0.37124136090278625,-0.9644412994384766,-0.35999974608421326
1780100631607805400,0.427805419921875,0.17916037142276764,-0.8044849038124084,0.1454218626022339
1780100631617797400,0.43779736328125,0.16517949104309082,-0.23999404907226562,0.5282133221626282
1780100631627789600,0.44778955078125,0.18114487826824188,0.13009558618068695,0.7418822050094604
1780100631637781500,0.457781494140625,0.19160930812358856,0.23815494775772095,0.8041954040527344
1780100631647773400,0.4677734375,0.2755492031574249,-0.004067547153681517,0.7868667244911194
1780100631657765400,0.477765380859375,0.4377850294113159,-0.5934528708457947,0.7088383436203003
1780100631667756500,0.487756591796875,0.4608144462108612,-0.8071573972702026,0.5983374118804932
1780100631677748500,0.49774853515625,0.38878297805786133,-0.9313333034515381,0.4503311216831207
1780100631687740700,0.50774072265625,0.33547207713127136,-0.9542982578277588,0.2562735080718994
1780100631697732400,0.517732421875,0.37079229950904846,-0.5115588903427124,0.08177308738231659
1780100631707724500,0.527724609375,0.32739901542663574,0.3133493661880493,-0.007501663640141487
1780100631717716500,0.537716552734375,0.3496360182762146,0.7219116687774658,0.014455892145633698
1780100631727708700,0.547708740234375,0.4286040663719177,0.9303237199783325,0.1561429798603058
1780100631737700400,0.557700439453125,0.3308333158493042,0.9191312193870544,0.34832414984703064
1780100631747691500,0.56769140625,0.15310566127300262,0.6178704500198364,0.4729936420917511
1780100631757683500,0.577683349609375,-0.07499135285615921,0.2088669240474701,0.4503694772720337
1780100631767675400,0.58767529296875,-0.29655250906944275,-0.10424251854419708,0.25434696674346924
1780100631777667600,0.59766748046875,-0.439045786857605,-0.2481464296579361,-0.021980810910463333
1780100631787659500,0.607659423828125,-0.2688162922859192,0.22581633925437927,-0.32343173027038574
1780100631797651500,0.6176513671875,-0.12478342652320862,0.7781277298927307,-0.5157843232154846
1780100631807643400,0.627643310546875,0.0367647260427475,0.9445255398750305,-0.7115397453308105
1780100631817635600,0.637635498046875,0.2550382614135742,0.8607983589172363,-0.9859041571617126
1780100631827626500,0.64762646484375,0.42765316367149353,0.8938857316970825,-1.317615270614624
1780100631837618700,0.65761865234375,0.6084557175636292,1.1187782287597656,-1.6484366655349731
1780100631847610400,0.6676103515625,0.7519095540046692,1.4203097820281982,-1.8992888927459717
1780100631857602600,0.6776025390625,0.7797796726226807,1.8404091596603394,-2.132744312286377
1780100631867594500,0.687594482421875,0.7574528455734253,2.252833843231201,-2.283379554748535
1780100631877586400,0.69758642578125,0.5479339361190796,2.519996404647827,-2.160665988922119
1780100631887578400,0.707578369140625,0.22213874757289886,1.4647659063339233,-1.7072092294692993
1780100631897570300,0.7175703125,0.17694954574108124,-1.239412546157837,-1.3646296262741089
1780100631907561500,0.7275615234375,0.5761904716491699,-1.6184927225112915,-1.8301738500595093
1780100631917553400,0.737553466796875,0.6003109812736511,-1.85407292842865,-2.249493360519409
1780100631927545600,0.747545654296875,0.3013482093811035,-2.3109519481658936,-2.4441144466400146
1780100631937537500,0.75753759765625,0.0863606408238411,-2.7033679485321045,-2.494490146636963
1780100631947529500,0.767529541015625,-0.05682582035660744,-3.1522634029388428,-2.3032357692718506
1780100631957521400,0.777521484375,-0.11276546120643616,-3.3892860412597656,-1.8234666585922241
1780100631967513600,0.787513671875,-0.13823087513446808,-3.3785929679870605,-1.2958191633224487
1780100631977504500,0.79750439453125,-0.2788606286048889,-2.862879991531372,-0.8203650116920471
1780100631987496400,0.807496337890625,-0.3791254460811615,-1.9804145097732544,-0.4487941563129425
1780100631997488400,0.81748828125,-0.3367319703102112,-1.1946464776992798,-0.17430348694324493
1780100632007480300,0.827480224609375,-0.21913638710975647,-1.0194671154022217,0.10262370854616165
1780100632017472500,0.837472412109375,-0.12740758061408997,-1.093948245048523,0.24418385326862335
1780100632027464400,0.84746435546875,-0.0660795047879219,-1.1430885791778564,0.1830424666404724
1780100632037456600,0.85745654296875,-0.026359781622886658,-0.9762630462646484,-0.019344570115208626
1780100632047448300,0.8674482421875,0.02754046767950058,-0.656876802444458,-0.29946383833885193
1780100632057439500,0.877439453125,0.1531088948249817,-0.20157015323638916,-0.6101164817810059
1780100632067431400,0.887431396484375,0.3288405239582062,0.42574408650398254,-1.0049090385437012
1780100632077423600,0.897423583984375,0.5689908266067505,1.102027416229248,-1.4634400606155396
1780100632087415600,0.90741552734375,0.794731855392456,1.8064175844192505,-1.9578065872192383
1780100632097407500,0.917407470703125,0.9558904767036438,2.1994667053222656,-2.3106272220611572
1780100632107399400,0.9273994140625,0.9416239261627197,1.796390414237976,-2.075188159942627
1780100632117391600,0.9373916015625,0.9680169820785522,1.7763866186141968,-2.0590481758117676
1780100632127382500,0.947382568359375,1.0661044120788574,2.8316333293914795,-2.4894497394561768
1780100632137374500,0.95737451171875,1.1285024881362915,4.218228340148926,-2.8604652881622314
1780100632147366400,0.967366455078125,1.0094575881958008,5.65510892868042,-2.754340887069702
1780100632157358300,0.9773583984375,0.6214174628257751,6.04925537109375,-1.4918206930160522
1780100632167350500,0.9873505859375,0.11414206027984619,4.667385578155518,0.5462797284126282
1780100632177342500,0.997342529296875,-0.20810142159461975,3.861299514770508,1.5956318378448486
1780100632187334700,1.007334716796875,-0.3762616813182831,3.9139585494995117,1.628935694694519
1780100632197326300,1.017326416015625,-0.433034747838974,3.4875059127807617,1.308525562286377
1780100632207317500,1.0273173828125,-0.30052119493484497,2.3172380924224854,0.8920985460281372
1780100632217309400,1.037309326171875,-0.01561046577990055,0.8648683428764343,0.43244367837905884
1780100632227301400,1.04730126953125,0.32463687658309937,-0.32823416590690613,-0.027957499027252197
1780100632237293600,1.05729345703125,0.5192877054214478,-1.262346625328064,-0.3863499164581299
1780100632247285200,1.06728515625,0.5884987711906433,-2.0552492141723633,-0.6670153737068176
1780100632257277400,1.07727734375,0.5580931305885315,-2.6336793899536133,-0.8565353155136108
1780100632267269400,1.087269287109375,0.4743551015853882,-2.6490941047668457,-0.9864040613174438
1780100632277261600,1.097261474609375,0.3457057774066925,-2.211278200149536,-0.9514554142951965
1780100632287253500,1.10725341796875,0.1702207773923874,-1.5956186056137085,-0.685499370098114
1780100632297245400,1.117245361328125,-0.00834275409579277,-0.9155457615852356,-0.2753429412841797
1780100632307237400,1.1272373046875,-0.18891173601150513,-0.22910377383232117,0.14637260138988495
1780100632317229600,1.1372294921875,-0.24291428923606873,0.4730928838253021,0.47664326429367065
1780100632327221500,1.147221435546875,-0.15512743592262268,1.0288006067276,0.6955884099006653
1780100632337213200,1.157213134765625,0.03575907275080681,1.3845585584640503,0.7625491619110107
1780100632347205400,1.167205322265625,0.32518982887268066,1.6836810111999512,0.605018138885498
1780100632357196300,1.1771962890625,0.6831443309783936,2.0311546325683594,0.20947736501693726
1780100632367188500,1.1871884765625,0.9850237369537354,2.1116859912872314,-0.2642585039138794
1780100632377180400,1.197180419921875,1.149176836013794,1.4421201944351196,-0.541659414768219
1780100632387172400,1.20717236328125,1.160082221031189,0.2356686145067215,-0.5315220952033997
1780100632397164300,1.217164306640625,1.002808690071106,-0.7898202538490295,-0.3403531014919281
1780100632407156500,1.227156494140625,0.7225637435913086,-1.155139684677124,-0.13866418600082397
1780100632417148400,1.2371484375,0.43429961800575256,-1.0416442155838013,0.04350331425666809
1780100632427139300,1.247139404296875,0.10308174788951874,-0.5780040621757507,0.16667957603931427
1780100632437131500,1.257131591796875,-0.16075928509235382,0.003965705633163452,0.21227271854877472
1780100632447123200,1.267123291015625,-0.2733513414859772,0.4788754880428314,0.21240854263305664
1780100632457115400,1.277115478515625,-0.23554043471813202,0.6717395782470703,0.17903494834899902
1780100632467107300,1.287107421875,-0.14351783692836761,0.4169240891933441,0.12454906851053238
1780100632477099500,1.297099609375,-0.05716921389102936,0.07308405637741089,0.03227155655622482
1780100632487091200,1.30709130859375,-0.03305775299668312,-0.1849120706319809,-0.07346978783607483
1780100632497083400,1.31708349609375,-0.06603742390871048,-0.31644177436828613,-0.15315444767475128
1780100632507074300,1.32707421875,-0.10625968128442764,-0.29957783222198486,-0.17113985121250153
1780100632517066500,1.33706640625,-0.04706892371177673,-0.28226178884506226,-0.139187291264534
1780100632527058400,1.347058349609375,0.011031663976609707,-0.09018156677484512,-0.08316796272993088
1780100632537050400,1.35705029296875,0.018055669963359833,0.20960336923599243,0.0013390249805524945
1780100632547042300,1.367042236328125,-0.015365669503808022,0.4475139379501343,0.09256134927272797
1780100632557034500,1.377034423828125,-0.04949209466576576,0.6179177761077881,0.15285657346248627
1780100632567026400,1.3870263671875,-0.09344650059938431,0.6256532073020935,0.17529423534870148
1780100632577017300,1.397017333984375,-0.15718846023082733,0.4830770790576935,0.14856821298599243
1780100632587009500,1.407009521484375,-0.19800619781017303,0.3230418562889099,0.09172224253416061
1780100632597001200,1.417001220703125,-0.18791162967681885,0.15671584010124207,0.032778818160295486
1780100632606993400,1.426993408203125,-0.1817687749862671,0.03717958554625511,-0.011984389275312424
1780100632616985300,1.4369853515625,-0.19724680483341217,-0.08404502272605896,-0.017968103289604187
1780100632626977500,1.4469775390625,-0.05775335058569908,-0.37307149171829224,-0.007556208409368992
1780100632636969200,1.45696923828125,0.07692795246839523,-0.47458553314208984,0.011600003577768803
1780100632646960400,1.46696044921875,0.1378384381532669,-0.4455067217350006,0.026283342391252518
1780100632656952300,1.476952392578125,0.12635257840156555,-0.321342796087265,0.03113953210413456
1780100632666944500,1.486944580078125,0.07970038801431656,-0.16540485620498657,0.023661907762289047
1780100632676936400,1.4969365234375,0.028001654893159866,-0.014518052339553833,0.003072277642786503
1780100632686928400,1.506928466796875,-0.010542805306613445,0.11342579871416092,-0.023528972640633583
1780100632696920300,1.51692041015625,-0.01655169576406479,0.09573069214820862,-0.06171790510416031
1780100632706912300,1.526912353515625,-0.0031003355979919434,-0.06761003285646439,-0.10645847767591476
1780100632716904400,1.536904541015625,0.02105119451880455,-0.16494520008563995,-0.14437024295330048
1780100632726895400,1.546895263671875,0.023240581154823303,-0.24154968559741974,-0.14724886417388916
1780100632736887600,1.556887451171875,0.008979431353509426,-0.2508029341697693,-0.11031249910593033
1780100632746879200,1.566879150390625,-0.0019765468314290047,-0.11560836434364319,-0.03803244233131409
1780100632756871400,1.576871337890625,-0.0000484175980091095,0.12262337654829025,0.05508445203304291
1780100632766863400,1.58686328125,0.004807374440133572,0.3035198152065277,0.13363267481327057
1780100632776855600,1.59685546875,0.0152070177718997,0.3527507483959198,0.16828839480876923
1780100632786847200,1.60684716796875,0.03195137903094292,0.30861204862594604,0.15372195839881897
1780100632796838400,1.61683837890625,0.05059942603111267,0.22575969994068146,0.10015077143907547
1780100632806830300,1.626830322265625,0.049717389047145844,0.1284445971250534,0.026663774624466896
1780100632816822300,1.636822265625,0.039005182683467865,0.01451342273503542,-0.041897792369127274
1780100632826814500,1.646814453125,0.023711714893579483,-0.10242278128862381,-0.08466629683971405
1780100632836806400,1.656806396484375,-0.00037582870572805405,-0.19082100689411163,-0.10138151049613953
1780100632846798300,1.66679833984375,-0.027307312935590744,-0.24465414881706238,-0.09734043478965759
1780100632856790300,1.676790283203125,-0.03798913583159447,-0.25306564569473267,-0.07728012651205063
1780100632866782500,1.686782470703125,-0.02885609120130539,-0.21819446980953217,-0.0504506379365921
1780100632876773400,1.6967734375,-0.009133512154221535,-0.15159112215042114,-0.019887518137693405
1780100632886765600,1.706765625,0.016570784151554108,-0.01583969220519066,0.010127902962267399
1780100632896757200,1.71675732421875,0.027842983603477478,0.15474145114421844,0.038400594145059586
1780100632906749400,1.72674951171875,0.02064286172389984,0.23023834824562073,0.05165887624025345
1780100632916741400,1.736741455078125,0.01462707482278347,0.21006730198860168,0.049030087888240814
1780100632926733600,1.746733642578125,0.014512293040752411,0.15918228030204773,0.03329666331410408
1780100632936724500,1.756724365234375,0.019357962533831596,0.1053791493177414,0.013830173760652542
1780100632946716400,1.76671630859375,0.01991988904774189,0.05918155983090401,-0.002580224769189954
1780100632956708400,1.776708251953125,0.024667274206876755,0.029121659696102142,-0.011282883584499359
1780100632966700300,1.7867001953125,0.02415568009018898,0.019269295036792755,-0.014709839597344398
1780100632976692500,1.7966923828125,0.02086509019136429,-0.005742847453802824,-0.016872582957148552
1780100632986684400,1.806684326171875,0.013034066185355186,-0.022288000211119652,-0.019418563693761826
1780100632996676400,1.81667626953125,0.006372750736773014,0.020847130566835403,-0.01769188605248928
1780100633006668300,1.826668212890625,-0.002084917388856411,0.07672131806612015,-0.009538084268569946
1780100633016659500,1.836659423828125,-0.005573426838964224,0.11508157849311829,0.003927779849618673
1780100633026651400,1.8466513671875,-0.008381197229027748,0.11099095642566681,0.018834024667739868
1780100633036643600,1.8566435546875,-0.008901716209948063,0.09365280717611313,0.02928459271788597
1780100633046635300,1.86663525390625,-0.0015897415578365326,0.08742047846317291,0.030631618574261665
1780100633056627500,1.87662744140625,0.006159085780382156,0.07303372770547867,0.020610058680176735
1780100633066619400,1.886619384765625,0.01772972196340561,0.04595523327589035,0.005148810800164938
1780100633076611300,1.896611328125,0.02422432228922844,0.03877437487244606,-0.009747999720275402
1780100633086602500,1.9066025390625,0.018201053142547607,0.020826000720262527,-0.013885220512747765
1780100633096594400,1.916594482421875,0.005047057755291462,0.013299464248120785,-0.01149735413491726
1780100633106586400,1.92658642578125,-0.0026739779859781265,0.019488118588924408,-0.00846561137586832
1780100633116578300,1.936578369140625,-0.0024115070700645447,-0.0007788957445882261,-0.0008516823290847242
1780100633126570500,1.946570556640625,0.0035835346207022667,-0.019101710990071297,0.002121204510331154
1780100633136562400,1.9565625,0.009213055483996868,0.0009253525640815496,0.0033513768576085567
1780100633146554400,1.966554443359375,0.0036526424810290337,0.036667902022600174,0.0047183772549033165
1780100633156545300,1.976545166015625,-0.0050288354977965355,0.057202912867069244,0.0074121239595115185
1780100633166537200,1.986537109375,-0.01498399768024683,0.07772070914506912,0.01278691552579403
1780100633176529400,1.996529296875,-0.014552614651620388,0.08616364747285843,0.022386901080608368
1780100633186521300,2.006521240234375,-0.003633387852460146,0.050811510533094406,0.03166908025741577
1780100633196513500,2.016513427734375,0.007493012584745884,0.016886653378605843,0.033646080642938614
1780100633206505200,2.026505126953125,0.013510159216821194,0.004861682187765837,0.02434871904551983
1780100633216497400,2.036497314453125,0.014355071820318699,0.006752616260200739,0.006638773716986179
1780100633226488300,2.04648828125,0.005604724399745464,0.022006936371326447,-0.01570061966776848
1780100633236480500,2.05648046875,-0.006058196071535349,0.01521170511841774,-0.03442045673727989
1780100633246472400,2.066472412109375,-0.01568179577589035,-0.02222221903502941,-0.04260754585266113
1780100633256464400,2.07646435546875,-0.008245247416198254,-0.04900048300623894,-0.03757619485259056
1780100633266456300,2.086456298828125,0.004779474809765816,-0.05363917723298073,-0.020029960200190544
1780100633276451600,2.09645166015625,0.017389856278896332,-0.04772837460041046,0.005622025579214096
1780100633286443800,2.10644384765625,0.01900639571249485,-0.032557412981987,0.026322243735194206
1780100633296435700,2.116435791015625,0.019741185009479523,-0.008324694819748402,0.0317978635430336
1780100633306426600,2.126426513671875,0.01774195209145546,0.02264547161757946,0.026528269052505493
1780100633316418600,2.13641845703125,0.017157480120658875,0.04771078750491142,0.014931713230907917
1780100633326410500,2.146410400390625,0.009715010412037373,0.07190321385860443,0.0044774748384952545
1780100633336402700,2.156402587890625,0.0008003208786249161,0.07582223415374756,-0.00098749331664294
1780100633346394600,2.16639453125,-0.007775324396789074,0.07899884879589081,0.0038181806448847055
1780100633356386600,2.176386474609375,-0.013466906733810902,0.0615321509540081,0.00839369185268879
1780100633366378500,2.18637841796875,-0.017905596643686295,0.010924103669822216,0.008902888745069504
1780100633376369700,2.19636962890625,-0.0162181556224823,-0.04393710568547249,0.00413599144667387
1780100633386361600,2.206361572265625,-0.007337578572332859,-0.0697236880660057,-0.003361339680850506
1780100633396353500,2.216353515625,0.0007387865334749222,-0.062300484627485275,-0.0036418759264051914
1780100633406345700,2.226345703125,0.003217124380171299,-0.0624522864818573,-0.0028597055934369564
1780100633416337400,2.23633740234375,0.0011089490726590157,-0.07130055129528046,-0.0038215050008147955
1780100633426329600,2.24632958984375,-0.003964372910559177,-0.07452191412448883,-0.005542439874261618
1780100633436321500,2.256321533203125,-0.0073759471997618675,-0.04419321194291115,-0.009602591395378113
1780100633446312700,2.266312744140625,-0.014039709232747555,0.0033961443696171045,-0.010284094139933586
1780100633456304600,2.2763046875,-0.017078716307878494,0.04268842563033104,-0.008505682460963726
1780100633466296600,2.286296630859375,-0.01193801686167717,0.06999621540307999,-0.0041796439327299595
1780100633476288500,2.29628857421875,-0.0016973325982689857,0.07399202138185501,0.0031696350779384375
1780100633486280700,2.30628076171875,0.0028580036014318466,0.05263746157288551,0.008566531352698803
1780100633496272600,2.316272705078125,0.0038171960040926933,0.027729183435440063,0.010664519853889942
1780100633506264600,2.3262646484375,0.00514850951731205,0.0073754433542490005,0.0070247771218419075
1780100633516255700,2.336255859375,-0.0005811434239149094,0.009760299697518349,0.0031065559014678
1780100633526247400,2.346247314453125,-0.006305607967078686,0.01764724962413311,-0.0019766197074204683
1780100633536239600,2.356239501953125,-0.008516451343894005,0.012304775416851044,-0.010032101534307003
1780100633546231600,2.3662314453125,-0.0042985365726053715,-0.00703243725001812,-0.015072133392095566
1780100633556223700,2.3762236328125,0.002457917667925358,-0.010202132165431976,-0.014120044186711311
1780100633566215400,2.38621533203125,0.007534169591963291,0.01637648046016693,-0.007852294482290745
1780100633576207600,2.39620751953125,0.003519735299050808,0.04236973449587822,-0.0028836254496127367
1780100633586198500,2.406198486328125,0.00018705520778894424,0.04134069010615349,0.00026263322797603905
1780100633596190700,2.416190673828125,0.005107748322188854,0.024234937503933907,-0.0009344769059680402
1780100633606182700,2.4261826171875,0.013981134630739689,0.008103905245661736,-0.0004782774194609374
1780100633616174600,2.436174560546875,0.013920241966843605,-0.009486096911132336,-0.004815320484340191
1780100633626166500,2.44616650390625,0.00950072705745697,-0.02416943572461605,-0.007828154601156712
1780100633636158700,2.45615869140625,0.0035369377583265305,-0.029397929087281227,-0.006303193047642708
1780100633646150700,2.466150634765625,0.0014359699562191963,-0.026205597445368767,-0.003715665778145194
1780100633656141600,2.4761416015625,-0.005797503516077995,-0.00765126571059227,0.0008083515567705035
1780100633666133800,2.4861337890625,-0.01187270600348711,-0.006218751426786184,0.003116247011348605
1780100633676125400,2.49612548828125,-0.012365251779556274,-0.036073677241802216,0.0011473160702735186
1780100633686117600,2.50611767578125,-0.003900393843650818,-0.0631612166762352,-0.0007957261987030506
1780100633696109600,2.516109619140625,0.008544651791453362,-0.07167063653469086,-0.0022288586478680372
1780100633706101800,2.526101806640625,0.018083296716213226,-0.06953025609254837,0.000035360884794499725
1780100633716093400,2.536093505859375,0.023286357522010803,-0.05991092324256897,0.0005318025359883904
1780100633726085600,2.546085693359375,0.015446278266608715,-0.023415230214595795,0.001863383105956018
1780100633736076500,2.55607666015625,0.00616342481225729,0.01342197135090828,-0.0008425978594459593
1780100633746068700,2.56606884765625,-0.004713457077741623,0.012015290558338165,-0.0056000687181949615
1780100633756060700,2.576060791015625,-0.013735216110944748,0.011075280606746674,-0.01102906558662653
1780100633766052600,2.586052490234375,-0.01801624894142151,0.0457640215754509,-0.010090834461152554
1780100633776044500,2.59604443359375,-0.021655190736055374,0.0811409205198288,-0.000027014415536541492
1780100633786036500,2.606036376953125,-0.019731324166059494,0.08956529945135117,0.012197693809866905
1780100633796027600,2.616027587890625,-0.006831577979028225,0.06727490574121475,0.01854795403778553
1780100633806019600,2.62601953125,0.00803152471780777,0.020187288522720337,0.019642779603600502
1780100633816011800,2.63601171875,0.019718226045370102,-0.009072594344615936,0.012177642434835434
1780100633826003500,2.64600341796875,0.022917483001947403,-0.003067432902753353,0.0031098450999706984
1780100633835995600,2.65599560546875,0.015915781259536743,0.01894092932343483,-0.004200521856546402
1780100633845987600,2.665987548828125,0.0009565390646457672,0.027167433872818947,-0.007175805512815714
1780100633855979800,2.675979736328125,-0.00474622892215848,0.03929511457681656,-0.006548963021486998
1780100633865970700,2.685970703125,-0.011677104979753494,0.042394500225782394,-0.01015381794422865
1780100633875962400,2.69596240234375,-0.01582048274576664,0.0035536291543394327,-0.013889187015593052
1780100633885954600,2.70595458984375,-0.011116540990769863,-0.0025612548924982548,-0.012483570724725723
1780100633895946500,2.715946533203125,0.001262253150343895,0.0437496080994606,0.017647508531808853
1780100633905938700,2.725938720703125,-0.0015108957886695862,-0.04929431527853012,0.03706568107008934
1780100633915930600,2.7359306640625,-0.004183754324913025,-0.10598573833703995,0.03125553950667381
1780100633925922600,2.745922607421875,0.00405792985111475,-0.10581529140472412,-0.0027016298845410347
1780100633935914500,2.75591455078125,0.020286917686462402,-0.10671500116586685,-0.04368635267019272
1780100633945905700,2.76590576171875,0.03638865798711777,-0.0963185578584671,-0.06774215400218964
1780100633955897600,2.775897705078125,0.037130847573280334,-0.0446634367108345,-0.05969424545764923
1780100633965889800,2.785889892578125,0.02205469459295273,0.0010939340572804213,-0.02317405305802822
1780100633975881500,2.795881591796875,0.003746827132999897,0.03490222990512848,0.02634744718670845
1780100633985873700,2.805873779296875,-0.009736225008964539,0.047149576246738434,0.06387724727392197
1780100633995865600,2.815865478515625,-0.027784138917922974,0.05413096398115158,0.059995584189891815
1780100634005857800,2.82585791015625,-0.03979499638080597,0.06039365381002426,0.024612294510006905
1780100634015848700,2.8358486328125,-0.04060404747724533,0.018901072442531586,-0.026450615376234055
1780100634025840600,2.845840576171875,-0.037315577268600464,-0.07271672785282135,-0.0673903226852417
1780100634035832600,2.85583251953125,-0.038400955498218536,-0.17156758904457092,-0.08167759329080582
1780100634045824500,2.865824462890625,-0.03276091441512108,-0.23921453952789307,-0.07162576168775558
1780100634055816700,2.875816650390625,-0.046347592025995255,-0.23451317846775055,-0.041583046317100525
1780100634065808600,2.88580859375,-0.054828960448503494,-0.12725356221199036,-0.004418901167809963
1780100634075800600,2.895800537109375,-0.04882510006427765,0.046534206718206406,0.02764184959232807
1780100634085791500,2.90579150390625,-0.03884996473789215,0.24999704957008362,0.06125307083129883
1780100634095783700,2.91578369140625,-0.015095099806785583,0.4886953830718994,0.08402922749519348
1780100634105775600,2.925775634765625,0.05107060447335243,0.5273668766021729,0.07788558304309845
1780100634115767800,2.935767822265625,0.09003374725580215,0.45786571502685547,0.051960114389657974
1780100634125759500,2.945759521484375,0.10024163872003555,0.30003002285957336,0.014452951960265636
1780100634135751400,2.95575146484375,0.09057300537824631,0.11456279456615448,-0.01451918575912714
1780100634145743600,2.96574365234375,0.0640692263841629,-0.037052035331726074,-0.0230407677590847
1780100634155734500,2.975734619140625,0.02615734376013279,-0.13104546070098877,-0.017764609307050705
1780100634165726700,2.985726806640625,-0.022368114441633224,-0.15764324367046356,-0.00877004861831665
1780100634175718700,2.99571875,-0.05632316693663597,-0.14079183340072632,0.0009928231593221426
1780100634185710600,3.005710693359375,-0.060256656259298325,-0.10179170221090317,0.003683414775878191
1780100634195702500,3.01570263671875,-0.03538268432021141,-0.054599687457084656,0.00035662358277477324
1780100634205694700,3.02569482421875,-0.00011977087706327438,-0.019147954881191254,-0.005788354203104973
1780100634215686700,3.035686767578125,0.02724767103791237,-0.0047378577291965485,-0.006113792769610882
1780100634225677600,3.045677490234375,0.04080529138445854,-0.004032919183373451,-0.006188893690705299
1780100634235669500,3.05566943359375,0.04255989193916321,-0.008330637589097023,-0.003608244936913252
1780100634245661400,3.065661376953125,0.031646791845560074,-0.007921043783426285,0.0006592043791897595
1780100634255653600,3.075653564453125,0.012368620373308659,0.0021512063685804605,0.00372420996427536
1780100634265645600,3.0856455078125,-0.00028645433485507965,0.02154248021543026,0.004953259136527777
1780100634275634200,3.09563427734375,-0.005935566499829292,0.03802958130836487,0.006075505167245865
1780100634285625900,3.1056259765625,-0.0031027626246213913,0.04323099926114082,0.005056313704699278
1780100634295616800,3.11561669921875,0.0025952281430363655,0.03681020438671112,0.003577003488317132
1780100634305609000,3.12560888671875,0.012381546199321747,0.013183441013097763,-0.002325626788660884
1780100634315601000,3.135600830078125,0.044170260429382324,-0.10138379037380219,-0.013964629732072353
1780100634325593000,3.145593017578125,0.11656616628170013,-0.33964961767196655,-0.043552350252866745
1780100634335584800,3.155584716796875,0.1510542333126068,-0.42627862095832825,-0.09597700089216232
1780100634345577000,3.165576904296875,0.1287129819393158,-0.4961112439632416,-0.14381295442581177
1780100634355569000,3.17556884765625,0.0755467340350151,-0.5850632786750793,-0.16582171618938446
1780100634365560000,3.18556005859375,0.028239401057362556,-0.6060221195220947,-0.15901227295398712
1780100634375552000,3.195552001953125,0.0008512632921338081,-0.4495832324028015,-0.12774059176445007
1780100634385544000,3.2055439453125,0.006847103126347065,-0.023809021338820457,-0.07797118276357651
1780100634395536000,3.215535888671875,0.02168435975909233,0.5776811242103577,-0.006348663941025734
1780100634405528000,3.225528076171875,0.030237633734941483,1.0981903076171875,0.08466246724128723
1780100634415520000,3.23552001953125,0.03749594837427139,1.3698840141296387,0.17494383454322815
1780100634425512200,3.24551220703125,0.053470123559236526,1.400328516960144,0.2286214381456375
1780100634435503000,3.255503173828125,0.06178823113441467,1.0647567510604858,0.23220297694206238
1780100634445494800,3.265494873046875,0.050974197685718536,0.5628865361213684,0.166742742061615
1780100634455487000,3.275487060546875,0.027408936992287636,0.062479887157678604,0.06525685638189316
1780100634465479000,3.28547900390625,-0.0028701405972242355,-0.4062822759151459,-0.031588196754455566
1780100634475471000,3.29547119140625,-0.04080060496926308,-0.7667723298072815,-0.1000426784157753
1780100634485462800,3.305462890625,-0.07282831519842148,-0.9710527658462524,-0.14446260035037994
1780100634495455000,3.315455078125,-0.0999697744846344,-1.2318623065948486,-0.08935613930225372
1780100634505446000,3.32544580078125,-0.16878214478492737,-2.06172251701355,0.12791278958320618
1780100634515438000,3.33543798828125,-0.17394600808620453,-1.7636587619781494,-0.024827493354678154
1780100634525430000,3.345429931640625,-0.16988016664981842,-1.350068211555481,-0.15028820931911469
1780100634535422200,3.355422119140625,-0.12938877940177917,-1.0021761655807495,-0.16497372090816498
1780100634545414000,3.365413818359375,-0.07460302859544754,-0.7174892425537109,-0.10991260409355164
1780100634555406000,3.375406005859375,0.007536127232015133,-0.4811848998069763,-0.03268608823418617
1780100634565398000,3.38539794921875,0.09189974516630173,-0.23285473883152008,0.01738346926867962
1780100634575389000,3.395388916015625,0.13762293756008148,-0.06088022142648697,0.030454881489276886
1780100634585381000,3.405381103515625,0.13539041578769684,-0.011164598166942596,0.0174205731600523
1780100634595372800,3.415372802734375,0.09438060224056244,-0.027926089242100716,-0.00504097156226635
1780100634605365000,3.425364990234375,0.06287620961666107,-0.04980289191007614,-0.023543016985058784
1780100634615357000,3.43535693359375,0.044063590466976166,0.0035997021477669477,-0.04941897094249725
1780100634625349000,3.44534912109375,0.06034962087869644,-0.09225039184093475,-0.0014850021107122302
1780100634635341000,3.455341064453125,0.07286147028207779,-0.2580114006996155,0.04026966542005539
1780100634645332000,3.46533203125,0.08442331105470657,-0.47536954283714294,0.03082849271595478
1780100634655324000,3.475323974609375,0.19184273481369019,-0.4473797380924225,-0.004262372851371765
1780100634665315800,3.48531591796875,0.386980265378952,-0.21576860547065735,-0.03960038721561432
1780100634675308000,3.49530810546875,0.6074995994567871,0.09175397455692291,-0.0493285097181797
1780100634685300000,3.505300048828125,0.7676189541816711,0.3913601040840149,-0.04730264097452164
1780100634695292000,3.5152919921875,0.7291520833969116,0.559232771396637,-0.03540651872754097
1780100634705283800,3.525283935546875,0.5090469121932983,0.5922071933746338,-0.031235743314027786
1780100634715275000,3.53527490234375,0.23406703770160675,0.6548792719841003,-0.037522781640291214
1780100634725267000,3.545266845703125,-0.0031822631135582924,0.775876522064209,-0.02504667080938816
1780100634735259100,3.555259033203125,-0.19348205626010895,0.7831708788871765,0.025388730689883232
1780100634745250800,3.565250732421875,-0.30645787715911865,0.5436357855796814,0.10033034533262253
1780100634755243000,3.575242919921875,-0.28656530380249023,0.10858648270368576,0.10836368799209595
1780100634765235000,3.58523486328125,-0.2221812605857849,-0.2208436131477356,0.03833160921931267
1780100634775227100,3.59522705078125,-0.2200912982225418,-0.2774415612220764,-0.04146566614508629
1780100634785218000,3.605218017578125,-0.17818832397460938,-0.3841850459575653,-0.14433585107326508
1780100634795210000,3.6152099609375,-0.15957140922546387,-0.4174079895019531,-0.21093639731407166
1780100634805202000,3.625201904296875,-0.141666978597641,-0.31695008277893066,-0.22047264873981476
1780100634815193900,3.63519384765625,-0.1664895862340927,0.01306519377976656,-0.1565481722354889
1780100634825186000,3.64518603515625,-0.1263197958469391,0.31185775995254517,-0.07753004878759384
1780100634835178000,3.655177978515625,-0.07402833551168442,0.378133088350296,-0.010245410725474358
1780100634845170000,3.665169921875,-0.05943261459469795,0.3548533320426941,0.032485540956258774
1780100634855160800,3.675160888671875,-0.03670134395360947,0.3896711468696594,0.06089421361684799
1780100634865153000,3.685153076171875,-0.07413793355226517,0.39798951148986816,0.10611522197723389
1780100634875145000,3.69514501953125,-0.1493655890226364,0.29664692282676697,0.1498858630657196
1780100634885137200,3.70513720703125,-0.1601356714963913,0.1611144095659256,0.13950271904468536
1780100634895129000,3.715129150390625,-0.10595391690731049,0.06520199030637741,0.0729932188987732
1780100634905121000,3.72512109375,-0.0735539048910141,-0.01291491836309433,-0.0260782353579998
1780100634915113000,3.735113037109375,-0.024564428254961967,-0.11866699904203415,-0.1518290638923645
1780100634925103900,3.745103759765625,0.07808658480644226,-0.18004940450191498,-0.23128287494182587
1780100634935096000,3.755095947265625,0.12324424833059311,-0.15572799742221832,-0.1783866286277771
1780100634945088000,3.765087890625,0.14512236416339874,-0.3358258306980133,-0.08630064874887466
1780100634955080000,3.775079833984375,0.1060185432434082,-0.2817690968513489,0.014819527976214886
1780100634965072000,3.78507177734375,-0.011053487658500671,-0.046742744743824005,0.08061132580041885
1780100634975064000,3.79506396484375,-0.10826804488897324,0.17523030936717987,0.10070215910673141
1780100634985056000,3.805055908203125,-0.14410275220870972,0.32384374737739563,0.07448386400938034
1780100634995048000,3.8150478515625,-0.12149092555046082,0.1831296980381012,0.009000576101243496
1780100635005039000,3.8250390625,-0.08900249004364014,0.10721123218536377,-0.04439660161733627
1780100635015030800,3.83503076171875,-0.06637481600046158,0.04918307438492775,-0.07082600146532059
1780100635025023000,3.84502294921875,-0.037600163370370865,-0.06363402307033539,-0.10617519915103912
1780100635035015000,3.855014892578125,0.06089385598897934,-0.10582879185676575,-0.12599541246891022
1780100635045007000,3.865007080078125,0.18777084350585938,-0.13977104425430298,-0.09713499993085861
1780100635054998800,3.874998779296875,0.22938582301139832,-0.08358784019947052,-0.03526436164975166
1780100635064991000,3.884990966796875,0.1565137505531311,0.07358153909444809,0.0314190611243248
1780100635074982000,3.89498193359375,0.053985726088285446,0.19708828628063202,0.08232083171606064
1780100635084974000,3.90497412109375,-0.028740042820572853,0.22143037617206573,0.08004515618085861
1780100635094966000,3.914966064453125,-0.049530018121004105,0.19735336303710938,0.022626478224992752
1780100635104958000,3.9249580078125,-0.024548767134547234,0.1446898877620697,-0.022182803601026535
1780100635114950000,3.934949951171875,0.006412633694708347,0.08137687295675278,-0.009289241395890713
1780100635124942000,3.944942138671875,0.06576862931251526,0.10847294330596924,0.05906984210014343
1780100635134933000,3.95493310546875,0.09850603342056274,0.24113991856575012,0.12542779743671417
1780100635144925000,3.964925048828125,0.10076119750738144,0.2785157859325409,0.1346529871225357
1780100635154917000,3.974917236328125,0.07271995395421982,0.162788987159729,0.07227735966444016
1780100635164908800,3.98490869140625,0.07036198675632477,0.009520882740616798,-0.024486465379595757
1780100635174901000,3.99490087890625,0.1303185522556305,-0.11331537365913391,-0.09249121695756912
1780100635184893000,4.004892822265625,0.19532471895217896,-0.22804862260818481,-0.0685451328754425
1780100635194885000,4.014885009765625,0.16378110647201538,-0.3036927878856659,0.030430138111114502
1780100635204876800,4.024876708984375,-0.008785602636635303,-0.2977294325828552,0.12183462083339691
1780100635214868000,4.034867919921875,-0.22844156622886658,-0.30213794112205505,0.111724853515625
1780100635224860000,4.04485986328125,-0.4448489546775818,-0.37199264764785767,-0.001499704783782363
1780100635234852000,4.05485205078125,-0.5869223475456238,-0.4192016124725342,-0.15558505058288574
1780100635244844000,4.064843994140625,-0.5532461404800415,-0.5983535051345825,-0.3753568232059479
1780100635254836000,4.0748359375,-0.2121363878250122,-0.7565328478813171,-0.5113565921783447
1780100635264828000,4.084827880859375,0.16968393325805664,-0.5152525901794434,-0.3514271080493927
1780100635274819600,4.094819580078125,0.34507834911346436,-0.0863669365644455,-0.14977562427520752
1780100635284810800,4.104810791015625,0.3550867736339569,0.360087513923645,-0.029518185183405876
1780100635294802700,4.114802734375,0.2654988765716553,0.35830849409103394,0.08355273306369781
1780100635304795000,4.124794921875,0.19905807077884674,0.2876511216163635,0.20389938354492188
1780100635314786600,4.13478662109375,0.11153808236122131,0.33611932396888733,0.3115169107913971
1780100635324778800,4.14477880859375,0.009572005830705166,0.44239482283592224,0.351955771446228
1780100635334770700,4.154770751953125,-0.10434441268444061,0.576462984085083,0.3242044746875763
1780100635344763000,4.164762939453125,-0.21171535551548004,0.6977081894874573,0.24104462563991547
1780100635354753800,4.17475390625,-0.260993093252182,0.6827099323272705,0.13403575122356415
1780100635364745700,4.184745849609375,-0.2287861704826355,0.43197253346443176,0.027322622016072273
1780100635374737700,4.194737548828125,-0.13331541419029236,0.06308939307928085,-0.05691281333565712
1780100635384729600,4.2047294921875,-0.015623393468558788,-0.3116176426410675,-0.1142440065741539
1780100635394721800,4.2147216796875,0.06594554334878922,-0.5777949690818787,-0.14068783819675446
1780100635404713700,4.224713623046875,0.09047086536884308,-0.6960151195526123,-0.14321091771125793
1780100635414705700,4.23470556640625,0.07669508457183838,-0.657482385635376,-0.13268080353736877
1780100635424696600,4.244696533203125,0.04549802094697952,-0.4907783269882202,-0.11271588504314423
1780100635434688800,4.254688720703125,0.008672624826431274,-0.2574779689311981,-0.08267036825418472
1780100635444680700,4.2646806640625,-0.020862098783254623,-0.014801941812038422,-0.04182200878858566
1780100635454673000,4.2746728515625,-0.024546660482883453,0.18242910504341125,0.004103620536625385
1780100635464664600,4.28466455078125,-0.009815385565161705,0.30453425645828247,0.047695040702819824
1780100635474656800,4.29465673828125,0.012664122506976128,0.34590575098991394,0.077111154794693
1780100635484648700,4.304648681640625,0.027938149869441986,0.31381091475486755,0.0857033059000969
1780100635494639600,4.3146396484375,0.032086331397295,0.22649118304252625,0.07154276967048645
1780100635504631800,4.3246318359375,0.02348245680332184,0.10589127242565155,0.042761728167533875
1780100635514623700,4.334623779296875,0.00949715543538332,-0.02568708173930645,0.010162106715142727
1780100635524615700,4.34461572265625,-0.004909480456262827,-0.13847221434116364,-0.0173448845744133
1780100635534607600,4.354607666015625,-0.014100239612162113,-0.21190108358860016,-0.04074259474873543
1780100635544599800,4.364599853515625,-0.016056330874562263,-0.23160608112812042,-0.052691131830215454
1780100635554591700,4.374591796875,-0.01395572628825903,-0.19891656935214996,-0.05446788668632507
1780100635564583000,4.3845830078125,-0.008470413275063038,-0.12986214458942413,-0.04614124447107315
1780100635574574600,4.39457470703125,-0.00668935663998127,-0.04565076529979706,-0.027258263900876045
1780100635584566800,4.40456689453125,-0.0035130041651427746,0.036260880529880524,-0.005895185749977827
1780100635594558700,4.414558837890625,-0.0033769886940717697,0.09906382113695145,0.017145903781056404
1780100635604551000,4.424551025390625,-0.0010073082521557808,0.1288193017244339,0.03115226700901985
1780100635614542800,4.43454296875,-0.0006395895034074783,0.13207778334617615,0.03499531373381615
1780100635624534800,4.44453466796875,-0.005027946550399065,0.10529277473688126,0.023850517347455025
1780100635634525700,4.454525634765625,-0.00498293898999691,0.06073995307087898,0.006078178063035011
1780100635644517600,4.464517578125,-0.006058855913579464,0.006736903451383114,-0.012296568602323532
1780100635654509800,4.474509765625,-0.006176144350320101,-0.044698767364025116,-0.029518090188503265
1780100635664501800,4.484501708984375,-0.0035521313548088074,-0.08428798615932465,-0.03700583055615425
1780100635674493700,4.49449365234375,0.0021271081641316414,-0.10428415238857269,-0.0348820798099041
1780100635684485600,4.504485595703125,0.005307720974087715,-0.09681718051433563,-0.024441152811050415
1780100635694477800,4.514477783203125,0.008622730150818825,-0.06527142226696014,-0.011862159706652164
1780100635704468700,4.52446875,0.008849898353219032,-0.0168564822524786,0.0034582067746669054
1780100635714460700,4.534460693359375,0.005359728820621967,0.03395387530326843,0.01533373724669218
1780100635724452600,4.54445263671875,0.0009884154424071312,0.07635166496038437,0.022079525515437126
1780100635734444500,4.554444580078125,-0.003155586775392294,0.09628845006227493,0.020430561155080795
1780100635744436700,4.564436767578125,-0.007360185496509075,0.0958666056394577,0.01276092417538166
1780100635754428700,4.5744287109375,-0.009732983075082302,0.07088499516248703,0.0007539672078564763
1780100635764420900,4.5844208984375,-0.008817654103040695,0.025438154116272926,-0.015318209305405617
1780100635774412500,4.59441259765625,-0.009665027260780334,-0.02707885019481182,-0.028240904211997986
1780100635784403700,4.60440380859375,-0.006127817090600729,-0.07031713426113129,-0.03579975292086601
1780100635794395600,4.614395751953125,-0.006922957953065634,-0.09744231402873993,-0.03663235157728195
1780100635804387800,4.624387939453125,-0.004520786460489035,-0.09702632576227188,-0.03567308187484741
1780100635814379800,4.6343798828125,-0.006510400678962469,-0.070205457508564,-0.03273867070674896
1780100635824371700,4.644371826171875,-0.007486981805413961,-0.03480112925171852,-0.029380157589912415
1780100635834363600,4.65436376953125,-0.011302166618406773,0.002477531787008047,-0.022112350910902023
1780100635844355800,4.66435595703125,-0.014521129429340363,0.027954397723078728,-0.013576654717326164
1780100635854346800,4.6743466796875,-0.0175637099891901,0.039590105414390564,-0.0023801657371222973
1780100635864338700,4.684338623046875,-0.020409565418958664,0.034115709364414215,0.007158478256314993
1780100635874331000,4.694330810546875,-0.02120223268866539,0.022712763398885727,0.015924226492643356
1780100635884322600,4.704322509765625,-0.018409375101327896,0.011271823197603226,0.022843385115265846
1780100635894314800,4.714314697265625,-0.01345137506723404,0.004559943452477455,0.02706490270793438
1780100635904306700,4.724306640625,-0.003894621040672064,0.004221987910568714,0.02573651820421219
1780100635914299000,4.734298828125,0.0038600219413638115,0.010013211518526077,0.022800536826252937
1780100635924289800,4.744289794921875,0.00770296435803175,0.01773158460855484,0.01101658120751381
1780100635934281700,4.75428173828125,0.010110905393958092,0.019561445340514183,-0.000053969924920238554
1780100635944273700,4.764273681640625,0.011268848553299904,0.01051735132932663,-0.012281341478228569
1780100635954265900,4.774265869140625,0.01161023136228323,-0.00486364820972085,-0.01992235705256462
1780100635964257800,4.7842578125,0.00950154010206461,-0.021474316716194153,-0.020856061950325966
1780100635974249700,4.794249755859375,0.007387273944914341,-0.032521460205316544,-0.020643677562475204
1780100635984241700,4.80424169921875,0.006583000533282757,-0.03160347044467926,-0.019743530079722404
1780100635994232600,4.814232666015625,0.0020339731127023697,-0.018848618492484093,-0.01427581999450922
1780100636004224800,4.824224853515625,-0.0009202715009450912,0.001702462905086577,-0.010952727869153023
1780100636014216700,4.834216796875,-0.0027175461873412132,0.023230835795402527,-0.007247024681419134
1780100636024209000,4.844208984375,-0.003504510037600994,0.041876159608364105,-0.005048052407801151
1780100636034200600,4.85420068359375,-0.0036722742952406406,0.04815642535686493,-0.0044706701301038265
1780100636044192800,4.86419287109375,-0.0020333649590611458,0.043262068182229996,-0.005709306336939335
1780100636054184700,4.874184814453125,0.00011945422738790512,0.0278009083122015,-0.007750257849693298
1780100636064175900,4.88417578125,0.002292860299348831,0.007364075630903244,-0.011870168149471283
1780100636074167800,4.894167724609375,0.006474541500210762,-0.01354147121310234,-0.014660371467471123
1780100636084159500,4.904159423828125,0.005974931642413139,-0.031682126224040985,-0.01741540990769863
1780100636094151700,4.914151611328125,0.006560374982655048,-0.039551589637994766,-0.017441604286432266
1780100636104143600,4.9241435546875,0.006721762008965015,-0.03983335196971893,-0.016465023159980774
1780100636114135800,4.9341357421875,0.004054194316267967,-0.03178323805332184,-0.013589410111308098
1780100636124127700,4.944127685546875,0.0046414220705628395,-0.02049383334815502,-0.00893713440746069
1780100636134119000,4.954118896484375,0.004036136902868748,-0.007126182317733765,-0.004649025388062
1780100636144110600,4.964110595703125,0.004091797396540642,0.007046361919492483,-0.0025962607469409704
1780100636154102800,4.974102783203125,0.005327848717570305,0.0230643879622221,-0.00027913940721191466
1780100636164094700,4.9840947265625,0.005217861384153366,0.035615600645542145,0.0024668460246175528
1780100636174087000,4.9940869140625,0.005036407150328159,0.04114245995879173,0.0037957048043608665
1780100636184078600,5.00407861328125,0.006611666642129421,0.03650696203112602,0.0032609421759843826
1780100636194070800,5.01407080078125,0.008666924200952053,0.023180682212114334,-0.001293947920203209
1780100636204061700,5.024061767578125,0.00834334921091795,0.006451237481087446,-0.006446099374443293
1780100636214053600,5.0340537109375,0.0050515709444880486,-0.008222071453928947,-0.010942626744508743
1780100636224045800,5.0440458984375,0.0009519001469016075,-0.019339704886078835,-0.014028430916368961
1780100636234037800,5.054037841796875,0.0018442906439304352,-0.025267813354730606,-0.013355061411857605
1780100636244029700,5.06402978515625,0.001283162273466587,-0.023986300453543663,-0.014659211039543152
1780100636254021600,5.074021728515625,0.0012695658951997757,-0.01975107565522194,-0.01370527595281601
1780100636264013800,5.084013916015625,0.0018519992008805275,-0.014357108622789383,-0.013941498473286629
1780100636274004700,5.094004638671875,0.002277592197060585,-0.008810097351670265,-0.013714997097849846
1780100636283996200,5.10399609375,-0.00039515644311904907,-0.00643002986907959,-0.011361295357346535
1780100636293988000,5.113988037109375,0.0010789502412080765,-0.005446612369269133,-0.008783204481005669
1780100636303980000,5.12397998046875,-0.00023398827761411667,-0.009679174050688744,-0.009954994544386864
1780100636313972000,5.133971923828125,0.0016500083729624748,-0.015138390474021435,-0.011157096363604069
1780100636323964200,5.143964111328125,0.0035877246409654617,-0.02367648296058178,-0.019240321591496468
1780100636333956000,5.1539560546875,0.0035526007413864136,-0.0357041209936142,-0.025538412854075432
1780100636343948000,5.163947998046875,0.0017027687281370163,-0.04943111911416054,-0.025998340919613838
1780100636353939000,5.17393896484375,-0.00004233513027429581,-0.05841120705008507,-0.020926067605614662
1780100636363931100,5.18393115234375,0.0021987147629261017,-0.06155586615204811,-0.009680869989097118
1780100636373923000,5.193923095703125,0.002650854177772999,-0.05321413651108742,0.00368392001837492
1780100636383915300,5.203915283203125,0.0024447254836559296,-0.03591370955109596,0.013257451355457306
1780100636393907000,5.213906982421875,-0.000005082227289676666,-0.011378360912203789,0.021023903042078018
1780100636403899100,5.223899169921875,-0.005805979482829571,0.01606311835348606,0.02663438580930233
1780100636413891000,5.23389111328125,-0.012962273322045803,0.043956972658634186,0.03060005232691765
1780100636423882000,5.243882080078125,-0.022745927795767784,0.0710517093539238,0.0351247638463974
1780100636433874200,5.253874267578125,-0.02510129287838936,0.08986969292163849,0.03656883165240288
1780100636443866000,5.2638662109375,-0.02963559329509735,0.10122035443782806,0.03428597003221512
1780100636453858000,5.273858154296875,-0.03242751955986023,0.10396776348352432,0.028464358299970627
1780100636463850000,5.28385009765625,-0.032826460897922516,0.08966046571731567,0.02023625560104847
1780100636473842200,5.29384228515625,-0.030831359326839447,0.06270243972539902,0.011436695232987404
1780100636483834000,5.303834228515625,-0.02530929446220398,0.024244792759418488,0.004475724883377552
1780100636493825300,5.3138251953125,-0.016573406755924225,-0.011664650402963161,-0.0031567993573844433
1780100636503817000,5.32381689453125,-0.008011875674128532,-0.043182097375392914,-0.008856495842337608
1780100636513809200,5.33380908203125,0.00029991287738084793,-0.0645093098282814,-0.015507846139371395
1780100636523801000,5.343801025390625,0.009476633742451668,-0.07378057390451431,-0.018675142899155617
1780100636533793300,5.353793212890625,0.015042291022837162,-0.06565802544355392,-0.023143423721194267
1780100636543785200,5.36378515625,0.019306812435388565,-0.050798650830984116,-0.02622390165925026
1780100636553777200,5.373777099609375,0.02117433398962021,-0.02555711939930916,-0.02653730846941471
1780100636563769000,5.38376904296875,0.022698726505041122,-0.0020667072385549545,-0.027057424187660217
1780100636573760000,5.393760009765625,0.023486625403165817,0.01813700795173645,-0.023939717561006546
1780100636583752200,5.403752197265625,0.022872235625982285,0.030063707381486893,-0.020191052928566933
1780100636593744100,5.413744140625,0.024438735097646713,0.030668243765830994,-0.015449276193976402
1780100636603736000,5.423736083984375,0.022657349705696106,0.020503224804997444,-0.01071257796138525
1780100636613728000,5.43372802734375,0.020627224817872047,0.0053606717847287655,-0.012113542295992374
1780100636623720200,5.44372021484375,0.018589109182357788,-0.011315776966512203,-0.011825388297438622
1780100636633712000,5.453712158203125,0.016856234520673752,-0.02420041710138321,-0.0176456980407238
1780100636643703000,5.463703125,0.012776006013154984,-0.030144060030579567,-0.021448692306876183
1780100636653695200,5.4736953125,0.009606908075511456,-0.028290854766964912,-0.02529573254287243
1780100636663687000,5.48368701171875,0.006435881368815899,-0.021753594279289246,-0.02565925382077694
1780100636673679000,5.49367919921875,0.0001055477187037468,-0.009293727576732635,-0.023364407941699028
1780100636683671000,5.503671142578125,-0.003615953493863344,0.006031166296452284,-0.020710300654172897
1780100636693663200,5.513663330078125,-0.008845731616020203,0.02071947231888771,-0.014603732153773308
1780100636703655000,5.523655029296875,-0.009769314900040627,0.028429323807358742,-0.012452962808310986
1780100636713647000,5.533647216796875,-0.010218698531389236,0.0341954231262207,-0.011461392045021057
1780100636723638000,5.543637939453125,-0.011036821641027927,0.03527586907148361,-0.01123768649995327
1780100636733630200,5.553630126953125,-0.008741574361920357,0.0332174189388752,-0.013421270065009594
1780100636743622100,5.5636220703125,-0.008669935166835785,0.02696751430630684,-0.015629297122359276
1780100636753614000,5.573614013671875,-0.009001807309687138,0.01470792107284069,-0.017024554312229156
1780100636763606000,5.58360595703125,-0.008248665370047092,-0.0011434799525886774,-0.019198225811123848
1780100636773598200,5.59359814453125,-0.00722643593326211,-0.018817903473973274,-0.01878950744867325
1780100636783590100,5.603590087890625,-0.00662802392616868,-0.03589622676372528,-0.01450155209749937
1780100636793581000,5.6135810546875,-0.0069555132649838924,-0.04255865886807442,-0.006880597211420536
1780100636803573200,5.6235732421875,-0.005765879061073065,-0.03966886177659035,0.002300117863342166
1780100636813565000,5.63356494140625,-0.004347790032625198,-0.028142783790826797,0.013366174884140491
1780100636823557000,5.64355712890625,-0.0061478205025196075,-0.009041792713105679,0.020833414047956467
1780100636833549000,5.653549072265625,-0.005842750426381826,0.013356366194784641,0.023431535810232162
1780100636843541200,5.663541259765625,-0.003330857027322054,0.031340692192316055,0.023554572835564613
1780100636853533000,5.673532958984375,-0.004095223266631365,0.040403515100479126,0.01668214052915573
1780100636863525000,5.683525146484375,-0.0017971815541386604,0.037881236523389816,0.006336825899779797
1780100636873516000,5.69351611328125,-0.0011552423238754272,0.021676791831851006,-0.003026799065992236
1780100636883508200,5.70350830078125,-0.0029265107586979866,-0.004858945030719042,-0.010996841825544834
1780100636893500200,5.713500244140625,-0.0010267971083521843,-0.035262662917375565,-0.01622217521071434
1780100636903492000,5.7234921875,0.0008858852088451385,-0.060590654611587524,-0.017350289970636368
1780100636913484000,5.733484130859375,0.0032013291493058205,-0.07814159244298935,-0.01891965977847576
1780100636923476200,5.743476318359375,0.004496957175433636,-0.07962390780448914,-0.021512245759367943
1780100636933468200,5.75346826171875,0.004029637202620506,-0.0696917325258255,-0.02619844861328602
1780100636943459000,5.763458984375,0.00417398102581501,-0.05116785317659378,-0.030042722821235657
1780100636953451300,5.773451171875,0.002498283050954342,-0.03055223636329174,-0.03178084269165993
1780100636963443000,5.78344287109375,0.0017541954293847084,-0.013429708778858185,-0.030613314360380173
1780100636973435100,5.79343505859375,0.001262071542441845,-0.002974672941491008,-0.028969861567020416
1780100636983427000,5.803427001953125,0.0029755495488643646,-0.00043002242455258965,-0.0317041277885437
1780100636993419300,5.813419189453125,0.004378076642751694,-0.005481063853949308,-0.036339171230793
1780100637003411000,5.823410888671875,0.006547220982611179,-0.020456552505493164,-0.04399203136563301
1780100637013402000,5.833402099609375,0.006597551517188549,-0.0380428172647953,-0.04963728040456772
1780100637023394000,5.84339404296875,0.002203335054218769,-0.056279346346855164,-0.05144982784986496
1780100637033386000,5.853385986328125,-0.0039349808357656,-0.06387033313512802,-0.04659287631511688
1780100637043378200,5.863378173828125,-0.007005339488387108,-0.06346447020769119,-0.036804959177970886
1780100637053370000,5.8733701171875,-0.010436703450977802,-0.05336274206638336,-0.021969502791762352
1780100637063362000,5.883362060546875,-0.011668415740132332,-0.031244924291968346,-0.006000123452395201
1780100637073354000,5.89335400390625,-0.012844067066907883,0.003389926627278328,0.008160377852618694
1780100637083346200,5.90334619140625,-0.01823856681585312,0.04374054819345474,0.01604679599404335
1780100637093337000,5.913337158203125,-0.021908270195126534,0.08339083939790726,0.022282646968960762
1780100637103329300,5.923329345703125,-0.02519114874303341,0.10960699617862701,0.02388800121843815
1780100637113321000,5.933321044921875,-0.028194036334753036,0.12045165151357651,0.018621394410729408
1780100637123313200,5.943313232421875,-0.030526166781783104,0.10875451564788818,0.009797809645533562
1780100637133305000,5.95330517578125,-0.03149691969156265,0.07888948172330856,-0.006728602107614279
1780100637143297300,5.96329736328125,-0.03292730078101158,0.03711620345711708,-0.02792789600789547
1780100637153289000,5.9732890625,-0.033539704978466034,-0.013618970289826393,-0.04511893540620804
1780100637163281200,5.98328125,-0.029979325830936432,-0.06487683206796646,-0.05535479262471199
1780100637173272000,5.99327197265625,-0.025916285812854767,-0.1048661544919014,-0.05811149999499321
1780100637183264000,6.003263916015625,-0.015662316232919693,-0.12999467551708221,-0.05022348091006279
1780100637193256200,6.013256103515625,-0.0061553786508738995,-0.13506372272968292,-0.03551884740591049
1780100637203248000,6.023248046875,0.004015766084194183,-0.11796783655881882,-0.0220887940376997
1780100637213240000,6.033239990234375,0.010961570776998997,-0.0859001874923706,-0.012042009271681309
1780100637223232000,6.04323193359375,0.01823359727859497,-0.048814333975315094,-0.006757499650120735
1780100637233224200,6.05322412109375,0.02003239095211029,-0.014209040440618992,-0.003965260926634073
1780100637243216100,6.063216064453125,0.020608432590961456,0.008708525449037552,-0.002029408933594823
1780100637253207300,6.073207275390625,0.019535548985004425,0.016853448003530502,-0.004223398398607969
1780100637263199000,6.083198974609375,0.016404472291469574,0.006929710041731596,-0.0068577975034713745
1780100637273191200,6.093191162109375,0.014461241662502289,-0.012765519320964813,-0.014206086285412312
1780100637283184600,6.1031845703125,0.011387422680854797,-0.039132408797740936,-0.023268023505806923
1780100637293176300,6.11317626953125,0.008401964791119099,-0.0638289675116539,-0.032865557819604874
1780100637303168500,6.12316845703125,0.006988625042140484,-0.0841297134757042,-0.04282205179333687
1780100637313160400,6.133160400390625,0.0024598948657512665,-0.0971708595752716,-0.04900631681084633
1780100637323151600,6.143151611328125,0.0026569683104753494,-0.09737459570169449,-0.05232861265540123
1780100637333143600,6.1531435546875,0.0032871905714273453,-0.09112663567066193,-0.053952407091856
1780100637343135500,6.163135498046875,0.0037684235721826553,-0.07687526196241379,-0.046866800636053085
1780100637353127400,6.17312744140625,0.005325443111360073,-0.054403156042099,-0.041706331074237823
1780100637363119600,6.18311962890625,0.004468970000743866,-0.03363049775362015,-0.03063211217522621
1780100637373111600,6.193111572265625,0.0027311230078339577,-0.008514052256941795,-0.01926926150918007
1780100637383103500,6.203103515625,-0.0018013110384345055,0.012491896748542786,-0.005454912781715393
1780100637393095400,6.213095458984375,-0.005076691508293152,0.03005429357290268,0.003907575737684965
1780100637403086300,6.22308642578125,-0.00640241289511323,0.04081852734088898,0.011343920603394508
1780100637413078500,6.23307861328125,-0.009160690940916538,0.046374764293432236,0.015897247940301895
1780100637423070500,6.243070556640625,-0.009786799550056458,0.04340454190969467,0.01964671164751053
1780100637433062700,6.253062744140625,-0.012273113243281841,0.0414867140352726,0.02388126775622368
1780100637443054300,6.263054443359375,-0.013704828917980194,0.03800809383392334,0.023179790005087852
1780100637453046500,6.273046630859375,-0.013617824763059616,0.0345112644135952,0.02279014326632023
1780100637463038500,6.28303857421875,-0.016030382364988327,0.03558744862675667,0.0150059899315238
1780100637473030700,6.29303076171875,-0.01764841005206108,0.037250157445669174,0.006736651994287968
1780100637483021600,6.303021484375,-0.01601482555270195,0.0359172448515892,-0.007609263993799686
1780100637493013500,6.313013427734375,-0.01651606336236,0.030765442177653313,-0.017913172021508217
1780100637503005400,6.32300537109375,-0.014119218103587627,0.02135702781379223,-0.02449863776564598
1780100637512997600,6.33299755859375,-0.015123286284506321,0.009322818368673325,-0.02373792789876461
1780100637522989600,6.342989501953125,-0.013022851198911667,-0.002923993393778801,-0.01837778277695179
1780100637532981800,6.352981689453125,-0.009544502943754196,-0.010144434869289398,-0.012121371924877167
1780100637542973400,6.362973388671875,-0.004807272460311651,-0.01187042985111475,-0.005879188887774944
1780100637552965400,6.37296533203125,0.0008529815822839737,-0.011323066428303719,-0.001943174283951521
1780100637562956500,6.38295654296875,0.004253571853041649,-0.010680446401238441,-0.0006411548238247633
1780100637572948500,6.392948486328125,0.007974020205438137,-0.008723822422325611,0.00013995857443660498
1780100637582940700,6.402940673828125,0.011639061383903027,-0.008468957617878914,0.002198582049459219
1780100637592932400,6.412932373046875,0.015079628676176071,-0.005142487119883299,0.004044823348522186
1780100637602924500,6.422924560546875,0.017370479181408882,-0.00396084226667881,0.005660829599946737
1780100637612916500,6.43291650390625,0.018959328532218933,-0.007001028396189213,0.0041445777751505375
1780100637622908700,6.44290869140625,0.01701948046684265,-0.010172054171562195,0.001213502837345004
1780100637632900400,6.452900390625,0.01503099873661995,-0.021593987941741943,-0.001108204247429967
1780100637642891500,6.4628916015625,0.016314642503857613,-0.03475027158856392,-0.0023409815039485693
1780100637652883500,6.472883544921875,0.013983231969177723,-0.04733574762940407,-0.003631987376138568
1780100637662875400,6.48287548828125,0.012847394682466984,-0.05395237356424332,-0.0027044084854424
1780100637672867600,6.49286767578125,0.009919414296746254,-0.050514861941337585,-0.002574749756604433
1780100637682859500,6.502859619140625,0.00730498880147934,-0.036307964473962784,-0.0018354562344029546
1780100637692851500,6.5128515625,0.004171508364379406,-0.015987323597073555,-0.0021197672467678785
1780100637702843400,6.522843505859375,-0.0015473635867238045,0.005788545589894056,-0.0017091080080717802
1780100637712835600,6.532835693359375,-0.004176517482846975,0.02434447593986988,-0.0008155228570103645
1780100637722826500,6.542826416015625,-0.003737096209079027,0.03196138143539429,-0.0022190087474882603
1780100637732818700,6.552818603515625,-0.005262863822281361,0.029818687587976456,-0.0040322355926036835
1780100637742810400,6.562810302734375,-0.002977604977786541,0.019712788984179497,-0.006934815086424351
1780100637752802600,6.572802490234375,-0.0024329200387001038,0.006950568873435259,-0.008959452621638775
1780100637762794500,6.58279443359375,-0.002330920659005642,-0.002231211867183447,-0.011391984298825264
1780100637772786700,6.59278662109375,-0.003786778077483177,-0.00430776784196496,-0.008876713924109936
1780100637782778600,6.602778564453125,-0.0036288523115217686,-0.0037399819120764732,-0.008137420751154423
1780100637792770600,6.6127705078125,-0.00473173288628459,0.002717390423640609,-0.004899059422314167
1780100637802761500,6.622761474609375,-0.003819067496806383,0.011273328214883804,0.0006946437060832977
1780100637812753400,6.63275341796875,-0.004430347587913275,0.019801205024123192,0.004832370672374964
1780100637822745600,6.64274560546875,-0.005070571321994066,0.030495660379529,0.007326953578740358
1780100637832737500,6.652737548828125,-0.00902618933469057,0.037346988916397095,0.006956373807042837
1780100637842729500,6.6627294921875,-0.012764735147356987,0.04117980971932411,0.00573984207585454
1780100637852721400,6.672721435546875,-0.012532878667116165,0.04078354313969612,0.003930418752133846
1780100637862713600,6.682713623046875,-0.01624292880296707,0.03143451735377312,0.00006697134813293815
1780100637872705500,6.69270556640625,-0.015225600451231003,0.015166332013905048,-0.004534970968961716
1780100637882696700,6.70269677734375,-0.012966590002179146,-0.006246906239539385,-0.009308489970862865
1780100637892688600,6.712688720703125,-0.01108422502875328,-0.02742151729762554,-0.01418112963438034
1780100637902680600,6.7226806640625,-0.007689759600907564,-0.04620026424527168,-0.013794970698654652
1780100637912672500,6.732672607421875,-0.002809930592775345,-0.052827101200819016,-0.011254650540649891
1780100637922664400,6.74266455078125,0.003134245052933693,-0.04787575080990791,-0.009170460514724255
1780100637932656600,6.75265673828125,0.005281672812998295,-0.035187557339668274,-0.0088066216558218
1780100637942648300,6.7626484375,0.009667900390923023,-0.020646966993808746,-0.011044742539525032
1780100637952640500,6.772640625,0.010469191707670689,-0.00425006402656436,-0.0151735944673419
1780100637962631400,6.78263134765625,0.006970063783228397,0.006709642708301544,-0.017326494678854942
1780100637972623600,6.79262353515625,0.002188277430832386,0.00900537520647049,-0.018475554883480072
1780100637982615600,6.802615478515625,0.00008304882794618607,0.005962181370705366,-0.015110383741557598
1780100637992607500,6.812607421875,-0.0012464020401239395,0.005993340630084276,-0.012747094966471195
1780100638002599400,6.822599365234375,0.00010408740490674973,0.009651724249124527,-0.01124587096273899
1780100638012591600,6.832591552734375,-0.0006028087809681892,0.01964505948126316,-0.008394071832299232
1780100638022583600,6.84258349609375,-0.00609584478661418,0.03203701600432396,-0.005767928436398506
1780100638032575500,6.852575439453125,-0.009410068392753601,0.03841652721166611,-0.002726426813751459
1780100638042567400,6.8625673828125,-0.011127540841698647,0.03776804730296135,-0.0013386536156758666
1780100638052558300,6.872558349609375,-0.014603331685066223,0.030510038137435913,0.0014935813378542662
1780100638062550500,6.882550537109375,-0.015455277636647224,0.02459435909986496,0.0015601603081449866
1780100638072542500,6.89254248046875,-0.013028953224420547,0.01987266167998314,-0.00033378583611920476
1780100638082534700,6.90253466796875,-0.011193769052624702,0.02145031839609146,-0.002205455442890525
1780100638092526300,6.9125263671875,-0.008345113135874271,0.02533756196498871,0.000050570590246934444
1780100638102518500,6.9225185546875,-0.005262770690023899,0.0331193171441555,0.004958510398864746
1780100638112510500,6.932510498046875,-0.003684593364596367,0.04226807877421379,0.009815042838454247
1780100638122502700,6.942502685546875,-0.004777288530021906,0.04883596673607826,0.015835383906960487
1780100638132493600,6.95249365234375,-0.00464016105979681,0.051992349326610565,0.01682792790234089
1780100638142485500,6.962485595703125,-0.009186975657939911,0.04923517629504204,0.01475785207003355
1780100638152477400,6.9724775390625,-0.013973090797662735,0.04391994699835777,0.010686076246201992
1780100638162469600,6.9824697265625,-0.021115155890583992,0.037369899451732635,0.003513384610414505
1780100638172461600,6.992461669921875,-0.026332179084420204,0.03179094195365906,-0.0036970805376768112
1780100638182453800,7.002453857421875,-0.03420102223753929,0.02476499043405056,-0.011412790976464748
1780100638192445400,7.012445556640625,-0.03419876843690872,0.016743270680308342,-0.014849252067506313
1780100638202437400,7.022437255859375,-0.03485150635242462,0.011598308570683002,-0.015963783487677574
1780100638212429600,7.0324296875,-0.031770069152116776,0.0045937527902424335,-0.01796294003725052
1780100638222420500,7.04242041015625,-0.02878493070602417,-0.00218052975833416,-0.022160615772008896
1780100638232412700,7.05241259765625,-0.025239339098334312,-0.012029070407152176,-0.03101104311645031
1780100638242404400,7.062404296875,-0.023401491343975067,-0.023323535919189453,-0.042411502450704575
1780100638252396500,7.072396484375,-0.018914401531219482,-0.039729855954647064,-0.05096574127674103
1780100638262388500,7.082388427734375,-0.0138461384922266,-0.05726490542292595,-0.05650937929749489
1780100638272380700,7.092380615234375,-0.006471788510680199,-0.07543672621250153,-0.053568676114082336
1780100638282372000,7.1023720703125,0.0003307238221168518,-0.0860946923494339,-0.04491393640637398
1780100638292363800,7.11236376953125,0.009747720323503017,-0.08884715288877487,-0.031855497509241104
1780100638302354700,7.122354736328125,0.009929615072906017,-0.08480048179626465,-0.016326341778039932
1780100638312347000,7.132346923828125,0.0127584682777524,-0.07199689000844955,0.002614207100123167
1780100638322338800,7.1423388671875,0.016774248331785202,-0.05721501633524895,0.01696891151368618
1780100638332331000,7.1523310546875,0.015699375420808792,-0.03975045680999756,0.030935993418097496
1780100638342323000,7.162322998046875,0.01754254847764969,-0.02254377119243145,0.038566749542951584
1780100638352315000,7.17231494140625,0.017467215657234192,-0.009614206850528717,0.0386371947824955
1780100638362306800,7.182306884765625,0.016838977113366127,0.0016344529576599598,0.028086019679903984
1780100638372299000,7.192299072265625,0.021696891635656357,0.003303105477243662,0.014443591237068176
1780100638382290000,7.2022900390625,0.025117721408605576,-0.002712176414206624,-0.002828340046107769
1780100638392282000,7.2122822265625,0.028412263840436935,-0.015150384977459908,-0.01786709949374199
1780100638402273800,7.222273681640625,0.027544338256120682,-0.028319448232650757,-0.026159917935729027
1780100638412265700,7.232265625,0.02369966357946396,-0.03807656466960907,-0.030803998932242393
1780100638422258000,7.2422578125,0.01647690311074257,-0.03988458588719368,-0.02952488325536251
1780100638432249900,7.252249755859375,0.011559897102415562,-0.032874345779418945,-0.023194823414087296
1780100638442241800,7.26224169921875,0.004507048055529594,-0.016035977751016617,-0.014148597605526447
1780100638452233700,7.272233642578125,-0.0017825886607170105,0.010071528144180775,-0.006027853116393089
1780100638462226000,7.282225830078125,-0.008582171984016895,0.039662446826696396,-0.0005230992683209479
1780100638472216800,7.292216796875,-0.011923826299607754,0.06713473051786423,0.004135474096983671
1780100638482209000,7.302208984375,-0.012708660215139389,0.0846620574593544,0.008638080209493637
1780100638492201000,7.312200927734375,-0.013543281704187393,0.09295327216386795,0.012232290580868721
1780100638502193000,7.32219287109375,-0.01569298468530178,0.08633504807949066,0.014383059926331043
1780100638512184800,7.332184814453125,-0.015339292585849762,0.0710783302783966,0.012294892221689224
1780100638522177000,7.342177001953125,-0.018372099846601486,0.049999408423900604,0.009843451902270317
1780100638532169000,7.3521689453125,-0.016473844647407532,0.02623078227043152,0.005916472990065813
1780100638542161000,7.362160888671875,-0.013246359303593636,0.0040650260634720325,0.003574489150196314
1780100638552151800,7.37215185546875,-0.011883239261806011,-0.010977931320667267,0.004620507825165987
1780100638562143700,7.382143798828125,-0.009366018697619438,-0.01587468571960926,0.007495390251278877
1780100638572136000,7.392135986328125,-0.0060861967504024506,-0.009746125899255276,0.013769062235951424
1780100638582127900,7.4021279296875,-0.0058025699108839035,0.0017976125236600637,0.01934225857257843
1780100638592119800,7.412119873046875,-0.0029462631791830063,0.018238361924886703,0.019889583811163902
1780100638602111700,7.42211181640625,-0.0012599499896168709,0.030591966584324837,0.015805359929800034
1780100638612104000,7.43210400390625,0.0017356332391500473,0.034864846616983414,0.008459039032459259
1780100638622096000,7.442095947265625,0.004752196371555328,0.02803490310907364,-0.003080704715102911
1780100638632088000,7.452088134765625,0.009678268805146217,0.012331039644777775,-0.013837994076311588
1780100638642079000,7.462078857421875,0.015139613300561905,-0.010995588265359402,-0.02507653459906578
1780100638652071000,7.47207080078125,0.018223635852336884,-0.031113727018237114,-0.03348875418305397
1780100638662062800,7.482062744140625,0.020034316927194595,-0.049285273998975754,-0.041281428188085556
1780100638672055000,7.492054931640625,0.020109673961997032,-0.059575650840997696,-0.04644222930073738
1780100638682047000,7.502046875,0.018134407699108124,-0.06148567050695419,-0.048157837241888046
1780100638692039000,7.512038818359375,0.0171285979449749,-0.05653448775410652,-0.04611944034695625
1780100638702030800,7.52203076171875,0.013779938220977783,-0.044087935239076614,-0.0412469208240509
1780100638712022800,7.532022705078125,0.011563949286937714,-0.028624026104807854,-0.034533608704805374
1780100638722014000,7.542013916015625,0.010345019400119781,-0.01473031472414732,-0.024687634781003
1780100638732006000,7.552005859375,0.008870172314345837,-0.004865624941885471,-0.017708132043480873
1780100638741998000,7.561998046875,0.007662427611649036,-0.0021105846390128136,-0.012580481357872486
1780100638751989800,7.57198974609375,0.006528884172439575,-0.003959259949624538,-0.011403019540011883
1780100638761982000,7.58198193359375,0.004922730848193169,-0.007884226739406586,-0.01183684915304184
1780100638771974000,7.591973876953125,0.004526964388787746,-0.013739715330302715,-0.010460276156663895
1780100638781966000,7.601966064453125,0.003239857964217663,-0.016340291127562523,-0.01034496072679758
1780100638791957800,7.611957763671875,0.0022562118247151375,-0.014018909074366093,-0.006251745857298374
1780100638801950000,7.621949951171875,0.003163018263876438,-0.010122970677912235,-0.0008263541967608035
1780100638811940900,7.63194091796875,0.0030597932636737823,-0.002815690590068698,0.0024307318963110447
1780100638821932800,7.641932861328125,0.0019130362197756767,0.005987654440104961,0.005775928497314453
1780100638831925000,7.651925048828125,0.004486645571887493,0.018055854365229607,0.0050026485696434975
1780100638841916700,7.661916748046875,0.004427523352205753,0.03165875002741814,0.0014113757060840726
1780100638851908900,7.671908935546875,0.0009646601974964142,0.045818425714969635,-0.0018082380993291736
1780100638861900800,7.68190087890625,-0.002400243654847145,0.05507184565067291,-0.003341686213389039
1780100638871893000,7.69189306640625,-0.004311651457101107,0.055361684411764145,0.00044597190571948886
1780100638881885000,7.701885009765625,-0.005258937831968069,0.044340990483760834,0.006050061900168657
1780100638891876900,7.711876953125,-0.002836051397025585,0.026407349854707718,0.008629442192614079
1780100638901867800,7.72186767578125,0.0018620314076542854,0.013073699548840523,0.008077369071543217
1780100638911860000,7.73185986328125,0.0029050754383206367,0.008732040412724018,0.0021788047160953283
1780100638921852000,7.741851806640625,0.003974600695073605,0.008501676842570305,-0.0021757299546152353
1780100638931844000,7.751843994140625,0.002090402878820896,0.012409335002303123,-0.004322512075304985
1780100638941835800,7.761835693359375,-0.0009618466719985008,0.017587052658200264,-0.0037549922708421946
1780100638951828000,7.771827880859375,-0.0047271293587982655,0.017158186063170433,-0.00018186922534368932
1780100638961820000,7.78181982421875,-0.004309013020247221,0.014989838935434818,0.005315960850566626
1780100638971812000,7.79181201171875,-0.0046654799953103065,0.008158926852047443,0.005672879982739687
1780100638981803000,7.801802978515625,-0.001094980165362358,0.002134057693183422,0.005078995134681463
1780100638991795000,7.811794921875,0.0005753543227910995,-0.005841843783855438,0.00028929984546266496
1780100639001787000,7.821786865234375,0.001619846560060978,-0.011454987339675426,-0.004806126467883587
1780100639011778800,7.83177880859375,0.003951164893805981,-0.016346681863069534,-0.006136382929980755
1780100639021771000,7.84177099609375,0.002845420502126217,-0.020735304802656174,-0.0057291858829557896
1780100639031763000,7.851762939453125,0.004887682385742664,-0.021636424586176872,-0.0034699563402682543
1780100639041755000,7.8617548828125,0.004829092882573605,-0.02179728075861931,0.0010808533988893032
1780100639051746800,7.871746826171875,0.006602018140256405,-0.021358931437134743,0.007710566278547049
1780100639061739000,7.881739013671875,0.007839054800570011,-0.01990511082112789,0.014143964275717735
1780100639071730000,7.89172998046875,0.005110264755785465,-0.01560694444924593,0.01934012770652771
1780100639081721900,7.901721923828125,0.004882032983005047,-0.006090936716645956,0.0235615037381649
1780100639091713800,7.9117138671875,0.004064599983394146,0.004093690775334835,0.0234496109187603
1780100639101705700,7.921705810546875,0.001092778518795967,0.01595834083855152,0.02332311123609543
1780100639111698000,7.931697998046875,-0.0005993545055389404,0.024259066209197044,0.019202012568712234
1780100639121689900,7.94168994140625,-0.004747494589537382,0.025391176342964172,0.014920181594789028
1780100639131681800,7.951681884765625,-0.009298988617956638,0.020048705860972404,0.012344684451818466
1780100639141673700,7.961673828125,-0.008483262732625008,0.008126530796289444,0.01128661073744297
1780100639151665000,7.971664794921875,-0.012004747986793518,-0.01016086433082819,0.008550487458705902
1780100639161656800,7.98165673828125,-0.010781025514006615,-0.027897782623767853,0.007164844777435064
1780100639171649000,7.99164892578125,-0.01515360176563263,-0.04446033388376236,0.005805198568850756
1780100639181641000,8.001640869140624,-0.012617207132279873,-0.05295395478606224,0.003440577769652009
1780100639191633000,8.0116328125,-0.011133802123367786,-0.051788292825222015,0.0010496082250028849
1780100639201624800,8.021624755859374,-0.010517280548810959,-0.04484276846051216,-0.0012726681306958199
1780100639211617000,8.031616943359374,-0.0112171471118927,-0.030610837042331696,-0.001154415775090456
1780100639221609000,8.04160888671875,-0.010416867211461067,-0.017615409567952156,-0.0003693158214446157
1780100639231599900,8.051599853515626,-0.011066170409321785,-0.006761160679161549,0.00037661928217858076
1780100639241591800,8.061591796875,-0.009944979101419449,-0.009828057140111923,0.00019126327242702246
1780100639251583700,8.071583740234376,-0.007019703276455402,-0.019105983898043633,0.0009910506196320057
1780100639261576000,8.081575927734375,-0.00501940306276083,-0.03827408701181412,-0.00300635420717299
1780100639271568000,8.09156787109375,-0.0003053080290555954,-0.05870194360613823,-0.006429707631468773
1780100639281563000,8.10156298828125,0.008670344017446041,-0.07339753210544586,-0.010303274728357792
1780100639291554800,8.111554931640624,0.0206979438662529,-0.07379160076379776,-0.013950347900390625
1780100639301546800,8.121546630859376,0.028314318507909775,-0.05604589357972145,-0.019723815843462944
1780100639311538700,8.13153857421875,0.03136853128671646,-0.02343299239873886,-0.028046954423189163
1780100639321529600,8.141529541015625,0.029948800802230835,0.012015013955533504,-0.03772088885307312
1780100639331521800,8.151521728515625,0.02219814993441105,0.03429616987705231,-0.04805197939276695
1780100639341513700,8.161513671875,0.013277890160679817,0.034581124782562256,-0.056727759540081024
1780100639351505700,8.171505615234375,0.007915671914815903,0.008684730157256126,-0.06404303759336472
1780100639361497600,8.18149755859375,0.007306605577468872,-0.03341638296842575,-0.06427419930696487
1780100639371489800,8.19148974609375,0.010607724077999592,-0.07390903681516647,-0.06326918303966522
1780100639381481700,8.201481689453125,0.014584622345864773,-0.10132734477519989,-0.05837429687380791
1780100639391473700,8.2114736328125,0.01992766000330448,-0.10974080115556717,-0.05316200107336044
1780100639401464600,8.221464599609375,0.023673128336668015,-0.09903676062822342,-0.045403413474559784
1780100639411456800,8.231456787109375,0.02807454764842987,-0.07218623906373978,-0.033402666449546814
1780100639421448700,8.24144873046875,0.028466299176216125,-0.03753717988729477,-0.017504926770925522
1780100639431441000,8.25144091796875,0.025582611560821533,-0.00320842070505023,-0.0004855939478147775
1780100639441432800,8.261432861328124,0.021548986434936523,0.030819853767752647,0.017595138400793076
1780100639451424800,8.2714248046875,0.01215850654989481,0.05889534205198288,0.034590281546115875
1780100639461416700,8.281416748046874,0.003322404809296131,0.08206004649400711,0.05061398819088936
1780100639471409000,8.291408935546874,-0.00711885467171669,0.0997999832034111,0.06347396224737167
1780100639481399800,8.30139990234375,-0.019493497908115387,0.11438558250665665,0.07221951335668564
1780100639491391700,8.311391845703126,-0.0282492283731699,0.12846192717552185,0.07731475681066513
1780100639501383700,8.3213837890625,-0.036721277981996536,0.14093536138534546,0.07461085170507431
1780100639511375600,8.331375732421876,-0.0438527837395668,0.1533282846212387,0.06847382336854935
1780100639521367800,8.341367919921876,-0.04701875150203705,0.16049404442310333,0.05491860583424568
1780100639531359700,8.35135986328125,-0.04908725246787071,0.1631002277135849,0.03933563455939293
1780100639541351700,8.3613515625,-0.046762313693761826,0.16013053059577942,0.020546765998005867
1780100639551343600,8.371343505859375,-0.04294479638338089,0.14413337409496307,0.003394623752683401
1780100639561335800,8.381335693359375,-0.03861077129840851,0.11148726940155029,-0.013573706150054932
1780100639571326700,8.39132666015625,-0.03190968930721283,0.05914842709898949,-0.03030312992632389
1780100639581318700,8.401318603515625,-0.023449093103408813,-0.0012763002887368202,-0.042655136436223984
1780100639591310800,8.411310791015625,-0.012532439082860947,-0.06356514245271683,-0.0519988089799881
1780100639601302500,8.421302490234375,-0.002188987098634243,-0.11975384503602982,-0.060040488839149475
1780100639611294700,8.431294677734375,0.011017213575541973,-0.16239941120147705,-0.062490928918123245
1780100639621286700,8.44128662109375,0.021449614316225052,-0.18594521284103394,-0.06066879630088806
1780100639631278800,8.45127880859375,0.03406716138124466,-0.1877220720052719,-0.05145850405097008
1780100639641270500,8.4612705078125,0.04261884093284607,-0.1688983142375946,-0.040059108287096024
1780100639651261700,8.47126171875,0.05049169808626175,-0.13750417530536652,-0.02874865010380745
1780100639661253600,8.481253662109374,0.05379561334848404,-0.09955812990665436,-0.01301256287842989
1780100639671245800,8.491245849609374,0.056463781744241714,-0.06764253228902817,-0.0003822955768555403
1780100639681237800,8.50123779296875,0.05270339921116829,-0.04399605840444565,0.011497799307107925
1780100639691229700,8.511229736328126,0.044984109699726105,-0.03094400092959404,0.018077891319990158
1780100639701221600,8.5212216796875,0.037267331033945084,-0.022387530654668808,0.01988804340362549
1780100639711213800,8.5312138671875,0.02704387530684471,-0.01284879632294178,0.014842488802969456
1780100639721205800,8.541205810546876,0.015529964119195938,0.0008787341648712754,0.007170187309384346
1780100639731196700,8.55119677734375,0.0006556147709488869,0.02116137556731701,-0.0005413031321950257
1780100639741188900,8.56118896484375,-0.014173931442201138,0.03824901580810547,-0.005720885004848242
1780100639751180500,8.5711806640625,-0.02806122414767742,0.0502910315990448,-0.007044991943985224
1780100639761172700,8.5811728515625,-0.037519440054893494,0.05670605227351189,-0.0024353263434022665
1780100639771164700,8.59116455078125,-0.04454096034169197,0.05922895297408104,-0.0009958019945770502
1780100639781156900,8.601156982421875,-0.045534051954746246,0.058588992804288864,-0.0036973124369978905
1780100639791148500,8.6111484375,-0.04648939147591591,0.052239228039979935,-0.008459886536002159
1780100639801140700,8.621140625,-0.04379400610923767,0.038281332701444626,-0.013604314997792244
1780100639811131600,8.631131591796875,-0.03621674329042435,0.021495692431926727,-0.017620068043470383
1780100639821123800,8.641123779296874,-0.02775241807103157,0.0013539377832785249,-0.01669488660991192
1780100639831115800,8.65111572265625,-0.015726713463664055,-0.015410574153065681,-0.012065410614013672
1780100639841108000,8.66110791015625,-0.005460761021822691,-0.0264725461602211,-0.008788391016423702
1780100639851099600,8.671099609375,0.003995591774582863,-0.031797003000974655,-0.005320689175277948
1780100639861091600,8.681091552734374,0.013089220970869064,-0.029621202498674393,-0.00045243106433190405
1780100639871083800,8.691083740234374,0.020212698727846146,-0.025510432198643684,0.004128627013415098
1780100639881075700,8.70107568359375,0.025267377495765686,-0.016730789095163345,0.009951628744602203
1780100639891067000,8.71106689453125,0.025368832051753998,-0.005329795181751251,0.016217771917581558
1780100639901058600,8.72105859375,0.025527290999889374,0.0019129376159980893,0.020725704729557037
1780100639911050800,8.73105078125,0.02328452095389366,0.01443494576960802,0.02198864333331585
1780100639921042700,8.741042724609375,0.020662106573581696,0.023035624995827675,0.018171535804867744
1780100639931035000,8.751034912109375,0.014421708881855011,0.02810210920870304,0.012174989096820354
1780100639941026600,8.761026611328125,0.006302796304225922,0.03153892233967781,0.005256895907223225
1780100639951018800,8.771018798828125,0.0011702924966812134,0.028171252459287643,-0.0020790572743862867
1780100639961010700,8.7810107421875,-0.0055145081132650375,0.01870797574520111,-0.007193924393504858
1780100639971001600,8.791001708984375,-0.008890325203537941,0.00899880938231945,-0.00884229876101017
1780100639980993800,8.800993896484375,-0.009861313737928867,-0.006618766114115715,-0.007752533536404371
1780100639990985700,8.81098583984375,-0.011610223911702633,-0.02096707746386528,-0.0075948829762637615
1780100640000977700,8.820977783203125,-0.014359671622514725,-0.028524596244096756,-0.004917873535305262
1780100640010969600,8.830969482421875,-0.011976235546171665,-0.03180765360593796,-0.0016397027065977454
1780100640020961800,8.8409619140625,-0.010195113718509674,-0.025600889697670937,0.001991251250728965
1780100640030953700,8.85095361328125,-0.006445357576012611,-0.017903823405504227,0.0041425698436796665
1780100640040945700,8.860945556640624,-0.0019020047038793564,-0.008314313367009163,0.006340476684272289
1780100640050936600,8.8709365234375,0.0017440896481275558,-0.003066551173105836,0.007638209033757448
1780100640060928800,8.8809287109375,0.0029747365042567253,0.001922348514199257,0.010599643923342228
1780100640070920700,8.890920654296876,0.00784346740692854,0.0013358204159885645,0.00896152388304472
1780100640080913000,8.900912841796876,0.010561223141849041,-0.0032900902442634106,0.008395335637032986
1780100640090904800,8.91090478515625,0.010871914215385914,-0.010766372084617615,0.0031192803289741278
1780100640100896800,8.920896728515626,0.010015708394348621,-0.020034706220030785,-0.0015636221505701542
1780100640110888700,8.930888671875,0.010029192082583904,-0.028941212221980095,-0.007155230268836021
1780100640120881000,8.940880859375,0.009296289645135403,-0.04038481414318085,-0.013863200321793556
1780100640130871800,8.950871826171875,0.004435663111507893,-0.045568834990262985,-0.018344681710004807
1780100640140863700,8.96086376953125,0.001448928378522396,-0.04656139761209488,-0.020818226039409637
1780100640150855700,8.970855712890625,-0.0011863075196743011,-0.041948527097702026,-0.020866720005869865
1780100640160847600,8.98084765625,-0.0010358383879065514,-0.035501282662153244,-0.019725289195775986
1780100640170839800,8.99083984375,-0.0018612835556268692,-0.024517782032489777,-0.014894255436956882
1780100640180831700,9.000831787109375,-0.002209358848631382,-0.010878401808440685,-0.011045721359550953
1780100640190823700,9.01082373046875,-0.002636132761836052,0.0005908588645979762,-0.004506004508584738
1780100640200815600,9.020815673828125,-0.0023666201159358025,0.009996611624956131,0.0002719729673117399
1780100640210806500,9.030806640625,-0.00267240684479475,0.017342044040560722,0.004832095932215452
1780100640220798700,9.040798828125,-0.001751752570271492,0.017712488770484924,0.008616448380053043
1780100640230790700,9.050790771484374,-0.004320553969591856,0.013008111156523228,0.01230228878557682
1780100640240782800,9.060782958984374,-0.004608175251632929,0.00571105070412159,0.012091100215911865
1780100640250774500,9.0707744140625,-0.0031786435283720493,-0.0019105637911707163,0.01065896451473236
1780100640260766700,9.0807666015625,-0.00172349251806736,-0.00993307027965784,0.009396359324455261
1780100640270758700,9.090758544921876,-0.0004343762993812561,-0.012833161279559135,0.007297590374946594
1780100640280747800,9.100747802734375,-0.0012668799608945847,-0.01706705614924431,0.004906870890408754
1780100640290738700,9.11073876953125,0.0007688403129577637,-0.015897395089268684,0.004405397456139326
1780100640300730600,9.120730712890625,0.002328387461602688,-0.011423284187912941,0.003831752808764577
1780100640310722600,9.13072265625,0.0032530510798096657,-0.0036127662751823664,0.003564380342140794
1780100640320714800,9.14071484375,0.0030107032507658005,0.004047816619277,0.004114855546504259
1780100640330706700,9.150706787109375,-0.0008086962625384331,0.01252057310193777,0.005887911189347506
1780100640340698600,9.16069873046875,-0.0015485221520066261,0.01627882570028305,0.00442663487046957
1780100640350690600,9.170690673828124,-0.001294456422328949,0.01946689561009407,0.005182173568755388
1780100640360682500,9.1806826171875,-0.0036241901107132435,0.023349784314632416,0.0008073989301919937
1780100640370673700,9.190673583984376,-0.004987316206097603,0.022073421627283096,-0.00399767467752099
1780100640380665600,9.20066552734375,-0.006740208715200424,0.02028750628232956,-0.008920261636376381
1780100640390657500,9.210657470703126,-0.007350259926170111,0.01651585102081299,-0.01074835006147623
1780100640400649500,9.2206494140625,-0.006438659969717264,0.007612369954586029,-0.012555837631225586
1780100640410641700,9.2306416015625,-0.0063280975446105,-0.0021497157867997885,-0.013134249486029148
1780100640420633600,9.240633544921875,-0.0036372398026287556,-0.01779312454164028,-0.01275155320763588
1780100640430625800,9.250625732421875,-0.00032733939588069916,-0.028421791270375252,-0.013158576563000679
1780100640440616700,9.26061669921875,0.0023057274520397186,-0.03425571322441101,-0.008855973370373249
1780100640450608400,9.2706083984375,0.003754216246306896,-0.03434590622782707,-0.004792912397533655
1780100640460600600,9.2806005859375,0.004336649551987648,-0.026302630081772804,-0.0008604888571426272
1780100640470592500,9.290592529296875,0.00466227438300848,-0.011454885825514793,0.00471014017239213
1780100640480584700,9.300584716796875,0.003964260220527649,0.0019168457947671413,0.010766168124973774
1780100640490576400,9.310576416015625,0.0031077591702342033,0.017826572060585022,0.0148804672062397
1780100640500568600,9.320568603515625,0.002431849017739296,0.02498355135321617,0.017385438084602356
1780100640510560500,9.330560546875,-0.0007047289982438087,0.02673981711268425,0.014165322296321392
1780100640520551700,9.3405517578125,-0.0033788089640438557,0.021901652216911316,0.011400428600609303
1780100640530543600,9.350543701171874,-0.007353310473263264,0.013490856625139713,0.007887719199061394
1780100640540535800,9.360535888671874,-0.007733609993010759,0.0012725397245958447,0.003253286937251687
1780100640550527500,9.370527587890624,-0.008379025384783745,-0.008288832381367683,-0.0005484339781105518
1780100640560519700,9.380519775390624,-0.0068362560123205185,-0.014406912960112095,-0.0015377984382212162
1780100640570511600,9.39051171875,-0.004927461035549641,-0.013492739759385586,-0.004454835318028927
1780100640580503800,9.40050390625,-0.006992742419242859,-0.004615890793502331,-0.005943542346358299
1780100640590495500,9.41049560546875,-0.007117872126400471,0.008283044211566448,-0.005697588436305523
1780100640600486400,9.420486328125,-0.007673407904803753,0.019185759127140045,-0.005813169293105602
1780100640610478600,9.430478515625,-0.006231970619410276,0.025693368166685104,-0.006204446777701378
1780100640620470500,9.440470458984375,-0.00563409086316824,0.025217993184924126,-0.004930656868964434
1780100640630462700,9.450462646484375,-0.003868069499731064,0.01623612828552723,-0.007390180602669716
1780100640640454700,9.46045458984375,-0.0025780340656638145,0.004362957552075386,-0.00903494842350483
1780100640650446600,9.470446533203125,-0.0001392606645822525,-0.011314180679619312,-0.008086814545094967
1780100640660438500,9.4804384765625,-0.000219687819480896,-0.01879686303436756,-0.01138780266046524
1780100640670429700,9.4904296875,0.0015230979770421982,-0.014533144421875477,-0.012028816156089306
1780100640680421600,9.500421630859375,-0.000009284354746341705,-0.003737487830221653,-0.01120749767869711
1780100640690413800,9.510413818359375,-0.0009174179285764694,0.009059182368218899,-0.005834180396050215
1780100640700405500,9.520405517578125,-0.0008718781173229218,0.01891287788748741,0.0014050905592739582
1780100640710397700,9.530397705078125,-0.00016785971820354462,0.023508688434958458,0.009118231013417244
1780100640720389600,9.5403896484375,0.0022356435656547546,0.02429991215467453,0.014614995568990707
1780100640730381600,9.550381591796874,0.00020553916692733765,0.024419138208031654,0.016191989183425903
1780100640740373500,9.56037353515625,-0.0016892999410629272,0.020086707547307014,0.013311779126524925
1780100640750364400,9.570364501953126,-0.0020181071013212204,0.017340898513793945,0.009262623265385628
1780100640760356600,9.580356689453126,-0.003407477866858244,0.008660059422254562,0.003573046764358878
1780100640770348500,9.5903486328125,-0.003489797469228506,0.0017510222969576716,-0.00003315841604489833
1780100640780340700,9.6003408203125,-0.005219254642724991,-0.004460800904780626,-0.0030039146076887846
1780100640790332700,9.610332763671876,-0.004910625051707029,-0.004841099493205547,-0.005265490151941776
1780100640800324600,9.62032470703125,-0.0048323278315365314,-0.005226192530244589,-0.004715813789516687
1780100640810316500,9.630316650390625,-0.003848856780678034,-0.003112088656052947,-0.004903709050267935
1780100640820307500,9.640307373046875,-0.0025391140952706337,0.001583064440637827,-0.005288802087306976
1780100640830299600,9.650299560546875,-0.002907121554017067,0.003201731014996767,-0.003028816543519497
1780100640840291600,9.66029150390625,-0.0009193373844027519,0.006018823012709618,-0.005744708236306906
1780100640850283500,9.670283447265625,-0.0008282717317342758,0.005107223987579346,-0.0049135442823171616
1780100640860275500,9.680275390625,-0.0005614226683974266,0.004524790681898594,-0.004422191064804792
1780100640870267600,9.690267578125,-0.000482434406876564,0.0010886036325246096,-0.002215153072029352
1780100640880259600,9.700259521484375,-0.0010334420949220657,0.0001383877533953637,-0.0013906385283917189
1780100640890250800,9.710250732421875,-0.0032412968575954437,-0.0007243874133564532,0.0032494727056473494
1780100640900242700,9.72024267578125,-0.002135019749403,-0.0020908555015921593,0.006991746835410595
1780100640910234600,9.730234619140624,0.00029865745455026627,-0.0047841984778642654,0.008814851753413677
1780100640920226600,9.7402265625,-0.000775129534304142,-0.00785162765532732,0.009657475166022778
1780100640930218800,9.75021875,-0.0001286594197154045,-0.013417724519968033,0.010523201897740364
1780100640940210700,9.760210693359374,-0.0004668803885579109,-0.014371935278177261,0.00938842911273241
1780100640950202600,9.77020263671875,-0.0018557319417595863,-0.010252290405333042,0.006912213284522295
1780100640960194600,9.780194580078126,-0.002329242415726185,-0.005314523354172707,0.0036940493155270815
1780100640970185500,9.790185546875,-0.00018672458827495575,-0.0003837662225123495,0.001136206672526896
1780100640980177700,9.800177734375,-0.00117502361536026,0.00021118397125974298,0.0009375348454341292
1780100640990169600,9.810169677734375,0.0005697663873434067,0.0009905999759212136,0.0008794307359494269
1780100641000161500,9.82016162109375,0.0008078534156084061,-0.002199600450694561,0.00048022286500781775
1780100641010153500,9.830153564453125,0.0033138729631900787,-0.005265430547297001,0.0007561169913969934
1780100641020145700,9.840145751953125,0.002471514977514744,-0.011534778401255608,-0.0021808170713484287
1780100641030137600,9.8501376953125,0.004808017984032631,-0.018050111830234528,-0.004133932292461395
1780100641040128800,9.860128662109375,0.004011467099189758,-0.019977707415819168,-0.007227726746350527
1780100641050120700,9.87012060546875,0.004409092478454113,-0.017427731305360794,-0.009611512534320354
1780100641060112600,9.880112548828125,0.005738008767366409,-0.011976240202784538,-0.01055027637630701
1780100641070104600,9.8901044921875,0.0032210415229201317,-0.005166803486645222,-0.008935346268117428
1780100641080096500,9.900096435546875,0.0026838816702365875,0.004256526008248329,-0.006641564890742302
1780100641090088700,9.910088623046875,0.0021954094991087914,0.010912652127444744,-0.004755133297294378
1780100641100080400,9.920080322265624,0.0006390586495399475,0.01422748900949955,-0.0004711723595391959
1780100641110071600,9.930071533203124,0.0008739316835999489,0.013578122481703758,0.0009609199478290975
1780100641120063500,9.9400634765625,0.00003956351429224014,0.007201450411230326,0.0023891732562333345
1780100641130055700,9.9500556640625,-0.002373994328081608,0.0010801738826557994,0.002419041469693184
1780100641140047600,9.960047607421876,-0.004163904581218958,-0.005883992649614811,0.001071481965482235
1780100641150039600,9.97003955078125,-0.0018968665972352028,-0.008438141085207462,0.00014264667697716504
1780100641160031500,9.980031494140626,-0.0016891397535800934,-0.00996067002415657,0.0011980574345216155
1780100641170023700,9.990023681640626,-0.0022799232974648476,-0.004716464318335056,0.000045937464165035635
1780100641180014600,10.0000146484375,-0.002152091823518276,0.0029819351620972157,0.002022535540163517
1780100641190006500,10.010006591796875,-0.0003134133294224739,0.009556394070386887,0.0037207091227173805
1780100641199998700,10.019998779296875,0.0015223035588860512,0.013738356530666351,0.006026740185916424
1780100641209990400,10.029990478515625,0.0013980735093355179,0.01645761914551258,0.007493020035326481
1780100641219982600,10.039982666015625,0.0016015386208891869,0.016017399728298187,0.0068330890499055386
1780100641229974500,10.049974609375,0.003040853887796402,0.011077058501541615,0.00488691683858633
1780100641239966700,10.059966796875,0.00363260880112648,0.005051123909652233,0.003275438444688916
1780100641249957600,10.06995751953125,0.004031425341963768,-0.00006711564492434263,0.0005822491366416216
1780100641259949600,10.079949462890625,0.0027840007096529007,-0.004216320812702179,-0.001790627371519804
1780100641269941500,10.08994140625,0.001399328000843525,-0.005007989704608917,-0.0024720446672290564
1780100641279933700,10.09993359375,0.002992963418364525,-0.004563508089631796,-0.003063532756641507
1780100641289926000,10.10992578125,0.0012749116867780685,0.0005506480811163783,-0.0036802056711167097
1780100641299917800,10.119917724609374,0.0001574493944644928,0.0038154174108058214,-0.0012908176286146045
1780100641309909800,10.12990966796875,-0.001590353436768055,0.005520638544112444,0.000051967581384815276
1780100641319900700,10.139900634765626,-0.00005237758159637451,0.005745941773056984,0.0014754271833226085
1780100641329892600,10.149892578125,-0.0035134516656398773,0.0017445430858060718,0.0019941916689276695
1780100641339884800,10.159884765625,-0.0026705609634518623,-0.004867286887019873,0.00022798316786065698
1780100641349876700,10.169876708984376,-0.0006244396790862083,-0.011413337662816048,-0.0016556609189137816
1780100641359868700,10.17986865234375,0.00038569793105125427,-0.0154605433344841,-0.0035507662687450647
1780100641369860600,10.189860595703125,0.002129863016307354,-0.020863473415374756,-0.004470341373234987
1780100641379852800,10.199852783203125,0.0025280052796006203,-0.02322676219046116,-0.006472771987318993
1780100641389843700,10.20984375,0.004197889007627964,-0.02084003947675228,-0.005613851360976696
1780100641399836000,10.2198359375,0.003023434430360794,-0.018345722928643227,-0.001665182295255363
1780100641409827600,10.22982763671875,0.0025463514029979706,-0.012487211264669895,-0.0007500449428334832
1780100641419819800,10.23981982421875,0.002941031940281391,-0.007511361036449671,0.0008686244254931808
1780100641429811700,10.249811767578125,0.0031178658828139305,-0.0027251276187598705,0.0014984619338065386
1780100641439804000,10.259803955078125,0.0041285352781414986,-0.0016840981552377343,0.0016433378914371133
1780100641449795800,10.2697958984375,0.0037638861685991287,-0.00048691907431930304,-0.0004037284816149622
1780100641459786800,10.279786865234374,0.00491383858025074,-0.0009652227745391428,-0.004093538038432598
1780100641469778700,10.28977880859375,0.0021132593974471092,-0.002124230610206723,-0.006013943813741207
1780100641479770600,10.2997705078125,0.00015876535326242447,-0.003402281552553177,-0.007279211655259132
1780100641489762800,10.3097626953125,-0.000163947232067585,-0.00145107158459723,-0.006767190992832184
1780100641499754800,10.319754638671874,-0.0007767407223582268,0.002961253747344017,-0.004147173371165991
1780100641509746700,10.32974658203125,-0.0025770533829927444,0.006404454819858074,-0.0035234710667282343
1780100641519738600,10.339738525390626,-0.00048380903899669647,0.011395484209060669,-0.0003601682838052511
1780100641529729800,10.349729736328126,-0.0013049282133579254,0.013032264076173306,-0.00014342890062835068
1780100641539721700,10.3597216796875,-0.001337151974439621,0.01723339967429638,-0.000041163515561493114
1780100641549713700,10.369713623046875,-0.0017812559381127357,0.01726021058857441,-0.00012193185102660209
1780100641559705900,10.379705810546875,-0.00159536674618721,0.02015080489218235,-0.0006987725500948727
1780100641569697500,10.389697509765625,-0.004302671179175377,0.02671043574810028,-0.003045508870854974
1780100641579689700,10.399689697265625,-0.0036557894200086594,0.03671193867921829,-0.0032018362544476986
1780100641589681700,10.409681640625,-0.0033683115616440773,0.04216405004262924,-0.0014198607532307506
1780100641599672800,10.4196728515625,-0.0038205161690711975,0.04114432632923126,0.0009436946711502969
1780100641609664800,10.429664794921875,-0.002045266330242157,0.035306498408317566,0.006301844958215952
1780100641619656700,10.43965673828125,0.0022344328463077545,0.021896416321396828,0.007949276827275753
1780100641629648600,10.449648681640625,0.0038145948201417923,0.010130926966667175,0.00963377021253109
1780100641639640800,10.459640869140625,0.0026129763573408127,0.004107123706489801,0.005975386127829552
1780100641649632800,10.4696328125,0.0005958369001746178,-0.0024846442975103855,0.0020838147029280663
1780100641659624700,10.479624755859374,0.0011753402650356293,-0.005797084420919418,-0.00018226912652608007
1780100641669615900,10.489615966796874,0.0009488780051469803,-0.004900841508060694,-0.0007315938710235059
1780100641679607600,10.499607666015624,0.0016479576006531715,-0.006475568749010563,-0.002403259975835681
1780100641689599700,10.509599853515626,0.0017493143677711487,-0.0061401003040373325,-0.00011245424684602767
1780100641699591700,10.519591796875,0.001438523642718792,-0.007395248394459486,0.0012787810992449522
1780100641709584000,10.529583984375,0.002967381849884987,-0.008565706200897694,0.00056261703139171
1780100641719575600,10.539575439453126,0.0017961235716938972,-0.014065134339034557,-0.00027334922924637794
1780100641729567700,10.549567626953126,0.0008148699998855591,-0.018900014460086823,-0.0026568244211375713
1780100641739558700,10.55955859375,0.002222617156803608,-0.022471312433481216,-0.004269368480890989
1780100641749550800,10.56955078125,0.00218065083026886,-0.02572844736278057,-0.00576667208224535
1780100641759542800,10.579542724609375,0.0022453656420111656,-0.026657626032829285,-0.006570414174348116
1780100641769534700,10.58953466796875,0.002911127172410488,-0.025158708915114403,-0.006003034301102161
1780100641779526700,10.599526611328125,-0.0006372686475515366,-0.022756271064281464,-0.0051492247730493546
1780100641789518800,10.609518798828125,0.0021852897480130196,-0.01732546277344227,-0.003995212260633707
1780100641799509800,10.619509765625,-0.0002445792779326439,-0.013155486434698105,-0.0016819906886667013
1780100641809501700,10.629501708984375,0.0005937842652201653,-0.00906859990209341,0.002105823252350092
1780100641819494000,10.639493896484375,-0.0002416493371129036,-0.008903483860194683,0.0051298425532877445
1780100641829485600,10.649485595703124,0.0007403967902064323,-0.00782667938619852,0.006892120465636253
1780100641839477800,10.659477783203124,-0.0006007710471749306,-0.006353950593620539,0.006928339600563049
1780100641849469700,10.6694697265625,-0.0001924913376569748,-0.0075632925145328045,0.005956030450761318
1780100641859462000,10.6794619140625,-0.000022848136723041534,-0.009567320346832275,0.004383699968457222
1780100641869452800,10.689452880859376,0.00027967337518930435,-0.008705699816346169,0.002740665804594755
1780100641879444700,10.69944482421875,-0.0009251413866877556,-0.0066856928169727325,0.000589097966440022
1780100641889436700,10.709436767578126,0.0017461664974689484,-0.0018849894404411316,0.0016821345780044794
1780100641899428900,10.719428955078126,0.0010505486279726028,0.0020993659272789955,0.003451805328950286
1780100641909420800,10.7294208984375,0.002072559669613838,0.0074998121708631516,0.004860426299273968
1780100641919412700,10.739412841796875,-0.00007607880979776382,0.007457202300429344,0.00672277482226491
1780100641929404700,10.74940478515625,0.0012405794113874435,0.007399849593639374,0.007965958677232265
1780100641939395600,10.7593955078125,0.00016785785555839539,0.003742796601727605,0.0052090538665652275
1780100641949387800,10.7693876953125,0.001248217187821865,-0.0014443248510360718,0.0009187670075334609
1780100641959379700,10.779379638671875,0.0009685847908258438,-0.005911245010793209,-0.004358552861958742
1780100641969372000,10.789371826171875,-0.0007244972512125969,-0.009196964092552662,-0.008372660726308823
1780100641979363600,10.799363525390625,-0.0029447749257087708,-0.013210614211857319,-0.009540989995002747
1780100641989355800,10.809355712890625,-0.002977498807013035,-0.014262562617659569,-0.008136949501931667
1780100641999346700,10.8193466796875,-0.0019604377448558807,-0.013678265735507011,-0.006994454190135002
1780100642009338600,10.829338623046874,-0.0029862336814403534,-0.011338857002556324,-0.00304231233894825
1780100642019330800,10.839330810546874,-0.002248271368443966,-0.007274606265127659,0.0015812015626579523
1780100642029322800,10.84932275390625,-0.0036424733698368073,-0.002052502240985632,0.005111487116664648
1780100642039314700,10.859314697265624,-0.0038227695040404797,0.002823479473590851,0.0050371852703392506
1780100642049306600,10.869306640625,-0.0029601268470287323,0.0037730741314589977,0.0031299793627113104
1780100642059298800,10.879298828125,-0.002797408029437065,0.001653198036365211,0.00036615069257095456
1780100642069289700,10.889289794921876,-0.003434657584875822,-0.001256127841770649,-0.0014052345650270581
1780100642079282000,10.899281982421876,-0.0017392896115779877,-0.005340085364878178,-0.0024329484440386295
1780100642089273600,10.909273681640625,-0.001598280854523182,-0.008775119669735432,-0.003913729917258024
1780100642099265800,10.919265869140625,-0.0011388855054974556,-0.011443872936069965,-0.0037169225979596376
1780100642109257700,10.9292578125,-0.002567242830991745,-0.013602632097899914,-0.003448008093982935
1780100642119250000,10.93925,-0.0026655131950974464,-0.015794681385159492,-0.0023068434093147516
1780100642129240800,10.94924072265625,-0.00114342849701643,-0.019789420068264008,-0.0004761322634294629
1780100642139232500,10.959232421875,0.0004009390249848366,-0.02305259183049202,0.0007150996825657785
1780100642149224700,10.969224609375,0.0003370717167854309,-0.02515329420566559,0.0008613382815383375
1780100642159216600,10.979216552734375,0.003163217566907406,-0.022924762219190598,0.0009132699342444539
1780100642169208800,10.989208740234375,0.0045774346217513084,-0.015347889624536037,0.0019025387009605765
1780100642179200800,10.99920068359375,0.002550768665969372,-0.008274800144135952,0.0020042716059833765
1780100642189192700,11.009192626953125,0.000984642654657364,0.0010887854732573032,0.0019144272664561868
1780100642199183600,11.01918359375,-0.0004955427721142769,0.009935540147125721,0.003089946461841464
1780100642209175800,11.02917578125,-0.00001905299723148346,0.014936777763068676,0.0029536024667322636
1780100642219167700,11.039167724609374,-0.0015295986086130142,0.014196685515344143,0.0026912810280919075
1780100642229160000,11.049159912109374,-0.00031476467847824097,0.011949689127504826,0.0013300981372594833
1780100642239151600,11.059151611328126,-0.0012252992019057274,0.00649873074144125,0.00025870840181596577
1780100642249143800,11.069143798828126,0.00008126441389322281,0.006147193722426891,-0.0005349028506316245
1780100642259134700,11.079134765625,-0.002125963568687439,0.0053208149038255215,-0.0026651653461158276
1780100642269126700,11.089126708984375,-0.0017553186044096947,0.007485340349376202,-0.0014698574086651206
1780100642279118800,11.099118896484375,-0.00251059141010046,0.01117568276822567,-0.00021098113211337477
1780100642289110500,11.109110595703125,-0.003634164109826088,0.01423494704067707,0.0017487254226580262
1780100642299102200,11.119102294921875,-0.0048347171396017075,0.015040021389722824,0.0027548677753657103
1780100642309094400,11.129094482421875,-0.006417818833142519,0.013636446557939053,0.004055502824485302
1780100642319086300,11.13908642578125,-0.0033346773125231266,0.008772449567914009,0.002995031885802746
1780100642329077500,11.149077392578125,-0.004460542928427458,0.0032717781141400337,0.002420907374471426
1780100642339069400,11.1590693359375,-0.0042600068263709545,-0.0046423375606536865,0.002935430034995079
1780100642349061400,11.169061279296875,-0.003626332152634859,-0.011122429743409157,0.0015558382729068398
1780100642359053300,11.17905322265625,-0.003938188310712576,-0.013723006471991539,0.0012152199633419514
1780100642369045500,11.18904541015625,-0.0033226897940039635,-0.012494312599301338,-0.00005815523400087841
1780100642379037400,11.199037353515624,-0.001376984640955925,-0.008844983763992786,0.0016468004323542118
1780100642389028400,11.2090283203125,-0.0018542967736721039,-0.005152779631316662,0.0024893791414797306
1780100642399020500,11.2190205078125,-0.0012119421735405922,0.0014278916642069817,0.001414527534507215
1780100642409012200,11.22901220703125,-0.0016200784593820572,0.004127274267375469,-0.0018006288446485996
1780100642419004400,11.23900439453125,0.0018313778564333916,0.003963756375014782,-0.004685364663600922
1780100642428996400,11.248996337890626,0.001459411345422268,-0.0014854264445602894,-0.005228745751082897
1780100642438988500,11.258988525390626,0.0023723430931568146,-0.008173689246177673,-0.008845585398375988
1780100642448980200,11.268980224609376,0.0013617342337965965,-0.013766416348516941,-0.010814833454787731
1780100642458971400,11.278971435546875,0.004102393053472042,-0.019418442621827126,-0.014159497804939747
1780100642468963300,11.28896337890625,0.005161454901099205,-0.021915068849921227,-0.014410536736249924
1780100642478955500,11.29895556640625,0.005043476819992065,-0.02296089194715023,-0.01309786457568407
1780100642488947500,11.308947509765625,0.004857780411839485,-0.019720889627933502,-0.01125313714146614
1780100642498939400,11.318939453125,0.00807647779583931,-0.014672337099909782,-0.0066495975479483604
1780100642508931300,11.328931396484375,0.008605265989899635,-0.00921906903386116,-0.002508699893951416
1780100642518922200,11.338922119140625,0.007223084568977356,-0.0015667418483644724,-0.000151269807247445
1780100642528914400,11.34891455078125,0.007789401337504387,0.00913135427981615,0.0006611972930841148
1780100642538906400,11.35890625,0.005845826119184494,0.026943108066916466,0.0006830351776443422
1780100642548898600,11.368898681640625,0.0009125927463173866,0.046450939029455185,-0.0014084853464737535
1780100642558890200,11.37889013671875,-0.0025495169684290886,0.061489809304475784,-0.0007839740719646215
1780100642568882400,11.38888232421875,-0.006549927406013012,0.06688813120126724,0.002773839049041271
1780100642578873300,11.398873291015626,-0.009150504134595394,0.05806134268641472,0.007801087573170662
1780100642588865300,11.408865234375,-0.007084868848323822,0.04220036044716835,0.009948981925845146
1780100642598857500,11.418857421875,-0.005577785894274712,0.029397210106253624,0.01180387381464243
1780100642608849400,11.428849365234376,-0.007320368196815252,0.017650363966822624,0.00868008192628622
1780100642618841300,11.43884130859375,-0.007815716788172722,0.013515273109078407,0.0032605489250272512
1780100642628833300,11.448833251953126,-0.006458337418735027,0.01045743003487587,-0.0007957329507917166
1780100642638824400,11.458824462890625,-0.005837820935994387,0.012161054648458958,-0.0019289079355075955
1780100642648816400,11.46881640625,-0.006236514076590538,0.012467850930988789,0.0006591411656700075
1780100642658808600,11.47880859375,-0.0055435593239963055,0.014111286960542202,0.0029681017622351646
1780100642668800300,11.48880029296875,-0.0051971739158034325,0.014103295281529427,0.005560899619013071
1780100642678792400,11.49879248046875,-0.0043699960224330425,0.009260070510208607,0.005643191281706095
1780100642688784400,11.508784423828125,-0.0017787208780646324,0.00044687307672575116,0.003920670133084059
1780100642698776600,11.518776611328125,0.002569422125816345,-0.012215126305818558,0.0033534166868776083
1780100642708767500,11.528767578125,0.003175881691277027,-0.023801032453775406,-0.0006664666580036283
1780100642718759400,11.538759521484375,0.00505900289863348,-0.034763403236866,-0.0054204752668738365
1780100642728751400,11.54875146484375,0.004972826689481735,-0.042865004390478134,-0.00801192969083786
1780100642738743300,11.558743408203124,0.0057909488677978516,-0.045106321573257446,-0.01083647832274437
1780100642748735500,11.568735595703124,0.004307969473302364,-0.04238554462790489,-0.01145932823419571
1780100642758727400,11.5787275390625,0.006472586654126644,-0.035308726131916046,-0.008822533302009106
1780100642768718600,11.588718505859376,0.006617463193833828,-0.026024416089057922,-0.00627788295969367
1780100642778710300,11.598710205078126,0.004956449382007122,-0.016882315278053284,-0.000838642765302211
1780100642788702500,11.608702392578126,0.007120193913578987,-0.011978904716670513,0.004378178156912327
1780100642798694400,11.6186943359375,0.006770787760615349,-0.010916037485003471,0.007688753306865692
1780100642808686600,11.6286865234375,0.004641740582883358,-0.012944388203322887,0.009335068985819817
1780100642818678300,11.63867822265625,0.00637039914727211,-0.017157508060336113,0.0061272913590073586
1780100642828669200,11.648669189453125,0.0031661968678236008,-0.020388809964060783,0.0027202353812754154
1780100642838661400,11.658661376953125,0.0020154453814029694,-0.01982555165886879,-0.0020159301348030567
1780100642848653300,11.6686533203125,0.0030389148741960526,-0.018178652971982956,-0.005764318630099297
1780100642858645500,11.6786455078125,0.00014512427151203156,-0.010403287597000599,-0.005497203208506107
1780100642868637400,11.688637451171875,0.001334608532488346,-0.0018864111043512821,-0.004776233807206154
1780100642878629400,11.69862939453125,-0.0005873944610357285,0.006492160260677338,0.00010720454156398773
1780100642888620300,11.708620361328125,-0.0038744001649320126,0.01231551542878151,0.00346498005092144
1780100642898612500,11.718612548828125,-0.0019990019500255585,0.016663657501339912,0.00794415082782507
1780100642908604400,11.7286044921875,-0.0013862838968634605,0.017939135432243347,0.008685404434800148
1780100642918596600,11.7385966796875,-0.0012366147711873055,0.015746021643280983,0.0061950827948749065
1780100642928588300,11.74858837890625,-0.0023669498041272163,0.011875120922923088,0.0035312322434037924
1780100642938580500,11.75858056640625,-0.003876696340739727,0.008218067698180676,-0.0009724393021315336
1780100642948571400,11.7685712890625,-0.0033722808584570885,0.004108896944671869,-0.0042761038057506084
1780100642958563300,11.778563232421876,-0.002219398505985737,0.0016470702830702066,-0.006018077488988638
1780100642968555500,11.788555419921876,-0.0007223021239042282,0.0028892559930682182,-0.0037343548610806465
1780100642978547500,11.79854736328125,-0.0009912820532917976,0.0054874359630048275,-0.0024019754491746426
1780100642988539400,11.808539306640625,0.0003864085301756859,0.005507851019501686,-0.0015738527290523052
1780100642998531300,11.81853125,0.0016330340877175331,0.008983276784420013,0.001979070482775569
1780100643008522500,11.8285224609375,0.001475146971642971,0.008332493714988232,0.0030258591286838055
1780100643018514400,11.838514404296875,0.0017228210344910622,0.006611292250454426,0.003361151088029146
1780100643028506400,11.84850634765625,0.0012018317356705666,0.003939697984606028,0.002802249975502491
1780100643038498300,11.858498291015625,-0.0005332175642251968,0.0008613504469394684,0.0011074141366407275
1780100643048490200,11.868490234375,-0.0001454455778002739,-0.006161589175462723,0.0010895623126998544
1780100643058482400,11.878482421875,-0.002143348567187786,-0.008301705121994019,-0.0010044812224805355
1780100643068473300,11.888473388671875,-0.0005786065012216568,-0.010422999039292336,0.0002735091547947377
1780100643078465500,11.898465576171875,-0.0011716922745108604,-0.01084164809435606,0.0002426164865028113
1780100643088457500,11.90845751953125,0.0003392910584807396,-0.00770053593441844,-0.0005430543096736073
1780100643098449400,11.918449462890624,0.0007278462871909142,-0.00681343674659729,-0.0002162844903068617
1780100643108441300,11.92844140625,0.0009005898609757423,-0.003929943777620792,-0.0016447191592305899
1780100643118433500,11.93843359375,0.00030803680419921875,-0.003899317467585206,-0.001082792179659009
1780100643128425500,11.948425537109374,0.0008000731468200684,-0.004831244703382254,-0.001375791267491877
1780100643138416400,11.95841650390625,0.00040272995829582214,-0.007233682554215193,-0.003195529105141759
