time,seconds_elapsed,z,y,x
1779909790899857000,0.08085693359375,-1.452296257019043,2.644843578338623,0.13936734199523926
1779909790916171500,0.097171630859375,-2.3435492515563965,0.5933754444122314,0.5424119830131531
1779909790932506000,0.113506103515625,-4.262578010559082,-1.691422939300537,-0.6323715448379517
1779909790948842800,0.1298427734375,-4.195511817932129,-1.7420973777770996,0.10855245590209961
1779909790965171200,0.146171142578125,-3.239060401916504,-0.5116159915924072,0.9560258984565735
1779909790981515300,0.162515380859375,-3.5165276527404785,0.6542153358459473,1.7658768892288208
1779909790997839000,0.178839111328125,-3.707927703857422,2.725114345550537,0.05110490322113037
1779909791014184400,0.195184326171875,-3.1559572219848633,2.731874704360962,-0.12281107902526855
1779909791030517200,0.211517333984375,-0.2670927047729492,-0.667008638381958,2.804157257080078
1779909791046851300,0.227851318359375,4.749863624572754,-2.5424740314483643,-8.744285583496094
1779909791063186200,0.244186279296875,0.3784637451171875,-5.943090915679932,2.6079800128936768
1779909791079517200,0.26051708984375,-3.8878321647644043,-3.036970615386963,4.792115211486816
1779909791095852000,0.27685205078125,-5.167292594909668,1.4358453750610352,0.03287243843078613
1779909791112184000,0.29318408203125,-9.293871879577637,2.762958526611328,-4.965671539306641
1779909791128519000,0.309518798828125,-8.965187072753906,-4.528343200683594,-3.465467929840088
1779909791144853000,0.32585302734375,-8.479347229003906,-6.976778984069824,-6.745357513427734
1779909791161193700,0.34219384765625,-6.061348915100098,-8.358001708984375,-6.78122615814209
1779909791177521400,0.358521484375,-4.040435314178467,-10.917600631713867,-6.025301456451416
1779909791193844500,0.374844482421875,-3.7099437713623047,-12.83044719696045,-3.192498207092285
1779909791210185200,0.391185302734375,-2.390528917312622,-11.623884201049805,-1.5424084663391113
1779909791226517200,0.407517333984375,-0.7461424469947815,-10.915428161621094,-0.056962013244628906
1779909791242848500,0.4238486328125,2.61427903175354,-9.572091102600098,1.7593269348144531
1779909791259183900,0.440183837890625,7.1445746421813965,-9.446796417236328,4.858635902404785
1779909791275508200,0.45650830078125,9.859078407287598,-8.596206665039062,8.37193489074707
1779909791291851800,0.472851806640625,7.815006256103516,-3.8895936012268066,12.193960189819336
1779909791308180500,0.489180419921875,5.346007823944092,-3.505009651184082,15.589540481567383
1779909791324518400,0.505518310546875,2.5599589347839355,-1.8726552724838257,16.741287231445312
1779909791340851000,0.521850830078125,0.5259550213813782,-1.1822409629821777,15.236830711364746
1779909791357199000,0.53819921875,0.3108724355697632,0.016315937042236328,15.581929206848145
1779909791373528000,0.554528076171875,-0.24179059267044067,2.517812728881836,15.2627592086792
1779909791389864200,0.5708642578125,-1.2229645252227783,4.324655532836914,14.707033157348633
1779909791406179300,0.587179443359375,-1.9113633632659912,5.301384925842285,15.594971656799316
1779909791422517000,0.60351708984375,-1.0708990097045898,4.545753002166748,12.178399085998535
1779909791438849800,0.619849853515625,-0.7474682927131653,2.412125825881958,8.059674263000488
1779909791455174700,0.636174560546875,1.321079134941101,0.7374210357666016,6.1430816650390625
1779909791471516700,0.6525166015625,-1.7824642658233643,0.8414530754089355,4.096346855163574
1779909791487850200,0.668850341796875,-3.8539505004882812,-0.8048181533813477,3.901320457458496
1779909791504183000,0.68518310546875,-2.5153181552886963,-1.1159172058105469,2.4474382400512695
1779909791520534000,0.701533935546875,-0.9406763315200806,-0.9049878120422363,2.257059097290039
1779909791536854000,0.71785400390625,-2.4919281005859375,0.08018827438354492,1.2873411178588867
1779909791553188900,0.73418896484375,-1.8731776475906372,-0.6073641777038574,1.3203582763671875
1779909791569513700,0.750513671875,-0.5756331086158752,0.8564047813415527,-0.6534342765808105
1779909791585853200,0.766853271484375,-1.1389317512512207,1.915661334991455,-0.7980790138244629
1779909791602184200,0.78318408203125,-0.20096909999847412,2.6025052070617676,-0.019377708435058594
1779909791618523000,0.79952294921875,-1.2709224224090576,2.6538379192352295,-0.1607975959777832
1779909791634849000,0.81584912109375,-1.1089681386947632,2.4201555252075195,-0.9627490043640137
1779909791651176000,0.832176025390625,-2.2456231117248535,2.996122360229492,-2.1009764671325684
1779909791667531800,0.84853173828125,-1.9593381881713867,3.9916882514953613,-3.152312755584717
1779909791683856100,0.864856201171875,1.586230993270874,4.364310264587402,-2.4971656799316406
1779909791700178200,0.88117822265625,-2.1095495223999023,7.342306613922119,-3.2378129959106445
1779909791716517000,0.89751708984375,-2.3815255165100098,10.348691940307617,-2.0320334434509277
1779909791732849200,0.91384912109375,-1.4454141855239868,10.83288860321045,-0.4424290657043457
1779909791749180700,0.9301806640625,-1.3880378007888794,8.328271865844727,-0.6709237098693848
1779909791765519400,0.946519287109375,-2.1139466762542725,6.143754959106445,-0.9554414749145508
1779909791781850400,0.962850341796875,-2.084390878677368,4.316609859466553,-0.3656339645385742
1779909791798199800,0.97919970703125,-2.806999683380127,1.0046443939208984,-0.8296632766723633
1779909791814514000,0.995513916015625,-1.9226361513137817,-1.5491104125976562,-1.8204307556152344
1779909791830861800,1.01186181640625,0.7487356662750244,-4.332383155822754,0.18353557586669922
1779909791847194400,1.0281943359375,0.9010307192802429,-1.36403226852417,7.563255310058594
1779909791863516000,1.044515869140625,-1.271066427230835,-3.4000964164733887,8.287564277648926
1779909791879863000,1.060863037109375,-0.6971921920776367,-8.424688339233398,4.466827392578125
1779909791896164600,1.07716455078125,2.029677391052246,-5.759008407592773,5.693886756896973
1779909791912517600,1.093517578125,1.1709868907928467,-5.008601188659668,4.258351802825928
1779909791928848000,1.109847900390625,3.078291416168213,-0.12420654296875,2.591191291809082
1779909791945163000,1.1261630859375,1.458947777748108,4.606663703918457,2.5923209190368652
1779909791961513000,1.142512939453125,-1.0505354404449463,6.866392135620117,2.2793898582458496
1779909791977850000,1.15885009765625,2.6943962574005127,6.453866004943848,1.838996410369873
1779909791994179000,1.175178955078125,-4.682926654815674,2.841407299041748,0.40856504440307617
1779909792010515500,1.191515380859375,0.24940037727355957,5.532956123352051,1.7762980461120605
1779909792026848500,1.2078486328125,4.5134172439575195,3.1571288108825684,3.0443358421325684
1779909792043184400,1.224184326171875,2.925478935241699,-0.5234365463256836,3.4425015449523926
1779909792059514000,1.24051416015625,0.5544173717498779,0.8518266677856445,2.338132858276367
1779909792084003800,1.26500390625,-0.048566341400146484,-0.39711952209472656,-0.3610241413116455
1779909792100338200,1.281338134765625,-0.5536689758300781,-0.5698394775390625,-3.1917636394500732
1779909792116669200,1.297669189453125,3.799440860748291,1.6213712692260742,-4.141640663146973
1779909792133015600,1.314015625,5.905956268310547,1.6462197303771973,-3.1411170959472656
1779909792149333500,1.33033349609375,7.721752643585205,1.9420599937438965,-1.0989573001861572
1779909792165671400,1.34667138671875,4.5702924728393555,2.616395950317383,-2.110255002975464
1779909792182005200,1.363005126953125,1.1550657749176025,3.8869266510009766,-4.392411708831787
1779909792198348500,1.3793486328125,3.2300467491149902,4.275877952575684,-7.579697132110596
1779909792214682000,1.39568212890625,0.32271718978881836,1.6846871376037598,-7.301977634429932
1779909792231013600,1.412013671875,-1.0127203464508057,0.027161598205566406,-2.57269549369812
1779909792247349500,1.428349609375,-0.8929793834686279,0.18540000915527344,0.1643838882446289
1779909792263681800,1.444681884765625,-1.301494836807251,-0.5428619384765625,1.2169526815414429
1779909792280016400,1.461016357421875,-2.338007926940918,-1.1129732131958008,1.3906362056732178
1779909792296345300,1.477345458984375,-4.091587066650391,-2.205050468444824,1.7447168827056885
1779909792312681200,1.49368115234375,-6.880365371704102,-3.1639442443847656,2.678572654724121
1779909792329039600,1.51003955078125,-8.063789367675781,-7.31733512878418,2.1046142578125
1779909792345358000,1.526358154296875,-4.434084892272949,-4.536109924316406,2.396785259246826
1779909792361683200,1.54268310546875,-2.3501193523406982,2.9417357444763184,2.35477352142334
1779909792378018600,1.5590185546875,-0.08923697471618652,3.4247889518737793,2.7639594078063965
1779909792394345500,1.575345458984375,-0.7018673419952393,0.2521648406982422,2.44352388381958
1779909792410677200,1.59167724609375,4.185590744018555,-2.349236488342285,2.3558552265167236
1779909792427004200,1.608004150390625,11.384660720825195,-4.858944892883301,1.0046708583831787
1779909792443336400,1.62433642578125,3.2034759521484375,-6.15993595123291,-0.673180878162384
1779909792459669500,1.64066943359375,-8.812211990356445,-4.822359085083008,-4.001518249511719
1779909792476002800,1.6570029296875,-5.8328857421875,-1.7396965026855469,-5.614878177642822
1779909792492335600,1.673335693359375,2.3107364177703857,1.9753246307373047,-5.47995138168335
1779909792508671500,1.68967138671875,8.878604888916016,4.102742671966553,-3.7066822052001953
1779909792525003000,1.7060029296875,11.035642623901367,4.3051066398620605,-1.102514386177063
1779909792541336600,1.722336669921875,9.819682121276855,4.759030818939209,0.44446682929992676
1779909792557668900,1.7386689453125,5.102371692657471,5.19786262512207,2.3969054222106934
1779909792574003200,1.755003173828125,3.2535696029663086,3.825040340423584,1.5513240098953247
1779909792590335000,1.7713349609375,-3.843877077102661,-0.3297462463378906,3.1574673652648926
1779909792606669300,1.78766943359375,-1.2831122875213623,-22.310523986816406,5.226027965545654
1779909792623003100,1.804003173828125,4.7906999588012695,-7.392870903015137,2.577877998352051
1779909792639333000,1.8203330078125,2.4833970069885254,2.0037264823913574,1.5053064823150635
1779909792655670800,1.8366708984375,1.7497740983963013,3.9839019775390625,-0.9325342178344727
1779909792672003000,1.853003173828125,0.5913178324699402,3.870330810546875,-2.5820579528808594
1779909792688334800,1.8693349609375,-0.6261911392211914,2.1911721229553223,-2.1505932807922363
1779909792704670200,1.885670166015625,-0.3116854131221771,0.4298410415649414,-2.0565690994262695
1779909792721000400,1.90200048828125,-0.8304435014724731,0.4019889831542969,-1.7367972135543823
1779909792737337300,1.91833740234375,-2.8645734786987305,0.7962322235107422,-1.2174488306045532
1779909792753671700,1.934671630859375,-3.5429859161376953,1.066030502319336,-0.32009071111679077
1779909792770006500,1.951006591796875,-1.1831953525543213,1.3993864059448242,1.5860188007354736
1779909792786336500,1.96733642578125,0.8844327926635742,1.305262565612793,3.158781051635742
1779909792802671600,1.983671630859375,0.2836325168609619,1.3324861526489258,2.966215133666992
1779909792819015000,2.000014892578125,-1.826977252960205,0.48146915435791016,2.063154697418213
1779909792835348500,2.016348388671875,-3.628237724304199,-0.4089069366455078,0.929215669631958
1779909792851681800,2.032681884765625,-3.4250259399414062,-0.6632976531982422,0.5693627595901489
1779909792868015000,2.04901513671875,-2.0743632316589355,-1.5648012161254883,2.7141706943511963
1779909792884348000,2.065347900390625,-1.2073965072631836,-1.5680160522460938,4.778388977050781
1779909792900680200,2.08168017578125,-2.46413516998291,-0.5896997451782227,5.9918975830078125
1779909792917014300,2.09801416015625,-3.7382705211639404,0.4167327880859375,6.081305503845215
1779909792933348400,2.114348388671875,-3.744107723236084,-0.036749839782714844,6.358876705169678
1779909792949681000,2.130680908203125,-3.4638118743896484,-1.419839859008789,7.1678361892700195
1779909792966015700,2.147015625,-2.8372113704681396,-2.631253242492676,6.072355270385742
1779909792982347800,2.16334765625,-1.7666029930114746,-3.3786840438842773,4.826669216156006
1779909792998694100,2.179694091796875,-0.44785815477371216,-2.690524101257324,4.241967678070068
1779909793015030300,2.1960302734375,0.13756924867630005,-2.2826366424560547,2.9615318775177
1779909793031345000,2.212344970703125,1.072816014289856,-4.438542366027832,0.6718103885650635
1779909793047680300,2.22868017578125,-0.048526376485824585,-7.243503570556641,-2.6465816497802734
1779909793064009200,2.24500927734375,0.7944290041923523,-8.372954368591309,-4.471519947052002
1779909793080341000,2.261341064453125,3.5202715396881104,-5.725081443786621,-4.217147350311279
1779909793096681500,2.277681396484375,3.3238449096679688,-3.064175605773926,-3.205981731414795
1779909793113014500,2.2940146484375,1.8987966775894165,-2.0460777282714844,-2.6831774711608887
1779909793129348900,2.310348876953125,0.3519545793533325,-2.168375015258789,-2.4638314247131348
1779909793145682200,2.32668212890625,-0.44020509719848633,-1.6292762756347656,-1.6764551401138306
1779909793162033000,2.343032958984375,-0.18982839584350586,-0.9427709579467773,-0.2311115860939026
1779909793178362400,2.3593623046875,1.6709771156311035,-0.045955657958984375,1.134267807006836
1779909793194678000,2.375677978515625,2.733652353286743,1.2709217071533203,1.317992925643921
1779909793211001900,2.392001953125,2.3457651138305664,0.6452569961547852,0.8605271577835083
1779909793227348500,2.408348388671875,3.247990846633911,0.4658641815185547,-0.0802345871925354
1779909793243681300,2.424681396484375,4.515061855316162,1.83628511428833,-0.9967272281646729
1779909793260016000,2.44101611328125,4.57636833190918,3.248493194580078,-0.7596966028213501
1779909793276347600,2.45734765625,4.8938422203063965,4.064361095428467,-1.0726979970932007
1779909793292681700,2.473681640625,4.296406269073486,4.769443988800049,-1.2533867359161377
1779909793309014300,2.49001416015625,4.572198390960693,5.162036895751953,-1.2184157371520996
1779909793325349000,2.50634912109375,4.631656646728516,5.220121383666992,-1.0653609037399292
1779909793341688300,2.522688232421875,4.640510559082031,5.336428165435791,-1.3116775751113892
1779909793358019300,2.539019287109375,4.170462131500244,5.666535377502441,-1.6171151399612427
1779909793374344700,2.5553447265625,2.945695400238037,6.432261943817139,-2.0538101196289062
1779909793390668300,2.571668212890625,1.5285069942474365,6.679360389709473,-1.942435383796692
1779909793407014700,2.5880146484375,-0.901364803314209,5.23574686050415,-1.3871748447418213
1779909793423327000,2.604326904296875,-7.5785322189331055,-0.454254150390625,-0.7868189215660095
1779909793439681800,2.620681884765625,-13.792643547058105,-16.707944869995117,1.604180932044983
1779909793456004000,2.637004150390625,-8.51695442199707,-19.176427841186523,5.079047679901123
1779909793472364800,2.65336474609375,-5.343422889709473,-8.778573036193848,-0.24668757617473602
1779909793488693800,2.66969384765625,-5.832827091217041,4.103102207183838,-3.990797758102417
1779909793505028600,2.686028564453125,-2.4635825157165527,8.532134056091309,-4.356759548187256
1779909793521344800,2.7023447265625,-1.520216703414917,4.994414806365967,-4.24837589263916
1779909793537681700,2.718681640625,-0.16414594650268555,-2.1528873443603516,1.813961148262024
1779909793554015000,2.735014892578125,11.465721130371094,-13.33480167388916,5.209619522094727
1779909793570335200,2.751335205078125,9.671836853027344,-20.115394592285156,0.9057604074478149
1779909793586684000,2.767683837890625,3.6663615703582764,-1.3261232376098633,-4.747565746307373
1779909793603012400,2.784012451171875,1.0429832935333252,5.033762454986572,-4.201901435852051
1779909793619348700,2.8003486328125,5.856116771697998,7.832374095916748,-2.1746749877929688
1779909793635698400,2.816698486328125,8.512667655944824,5.609450340270996,0.05134245753288269
1779909793652010800,2.8330107421875,8.809093475341797,1.5017242431640625,-0.06422507762908936
1779909793668364500,2.849364501953125,7.58903169631958,-1.619649887084961,-0.23044231534004211
1779909793684696300,2.8656962890625,4.922957420349121,-6.7367963790893555,-0.25156041979789734
1779909793701010000,2.882010009765625,-4.935459136962891,-11.472491264343262,1.7980661392211914
1779909793717343500,2.898343505859375,-1.0842102766036987,-2.4145545959472656,4.572361946105957
1779909793733674500,2.914674560546875,2.7340657711029053,2.4811530113220215,3.769780158996582
1779909793750016000,2.93101611328125,2.2553586959838867,3.65090274810791,1.1357635259628296
1779909793766345700,2.947345703125,0.3839961290359497,2.539318084716797,-1.0939397811889648
1779909793782684200,2.96368408203125,0.47651809453964233,1.9927473068237305,-1.809189796447754
1779909793799016200,2.98001611328125,2.24499773979187,1.9544482231140137,-2.1076390743255615
1779909793815348500,2.996348388671875,1.515998125076294,2.6621031761169434,-1.3993996381759644
1779909793831682000,3.01268212890625,0.06657294929027557,2.4729504585266113,0.13725820183753967
1779909793848015000,3.02901513671875,-0.5170279741287231,2.6459665298461914,0.5724287033081055
1779909793864348700,3.0453486328125,-2.8637001514434814,1.8209080696105957,0.5973765254020691
1779909793880683800,3.061683837890625,-4.34735107421875,0.864593505859375,0.4562612771987915
1779909793897015300,3.078015380859375,-2.8604085445404053,0.7564115524291992,0.9799688458442688
1779909793913348400,3.094348388671875,-0.3114140033721924,1.251108169555664,2.0347864627838135
1779909793929682200,3.11068212890625,0.1764892339706421,1.326380729675293,2.730358600616455
1779909793946015700,3.127015625,-1.3111448287963867,0.08901214599609375,2.92116117477417
1779909793962361600,3.143361572265625,-2.7210330963134766,-0.7230358123779297,3.0977892875671387
1779909793978679600,3.159679443359375,-3.109140634536743,-1.2283124923706055,2.4869863986968994
1779909793995025400,3.176025390625,-2.5162088871002197,-1.475234031677246,1.8433691263198853
1779909794011339800,3.19233984375,-2.0946075916290283,-1.4617242813110352,3.283247470855713
1779909794027681800,3.208681884765625,-1.9400081634521484,-0.7654323577880859,5.770290851593018
1779909794044015600,3.225015625,-3.2732200622558594,-0.97357177734375,6.785265922546387
1779909794060335400,3.24133544921875,-3.076754093170166,-1.8470220565795898,5.677731990814209
1779909794076682200,3.25768212890625,-2.935164213180542,-1.956583023071289,4.6409382820129395
1779909794093013500,3.274013427734375,-2.3294148445129395,-2.525069236755371,5.039553642272949
1779909794109364000,3.290364013671875,-1.310842514038086,-2.9822235107421875,4.233133316040039
1779909794125666000,3.306666015625,-1.9693446159362793,-4.334598541259766,4.439659595489502
1779909794142001700,3.323001708984375,-1.3827824592590332,-3.143986701965332,2.8598430156707764
1779909794158351400,3.339351318359375,-0.9996389746665955,-2.320779800415039,0.8108706474304199
1779909794174663200,3.3556630859375,-1.6924396753311157,-2.4152584075927734,-1.2590594291687012
1779909794191015700,3.372015625,-1.2545989751815796,-5.075991630554199,-3.115187406539917
1779909794207349000,3.388348876953125,2.445127248764038,-6.334710121154785,-3.989177942276001
1779909794223682600,3.4046826171875,3.811418056488037,-5.3499250411987305,-3.8403499126434326
1779909794240015000,3.42101513671875,2.5774452686309814,-3.9186811447143555,-3.510542154312134
1779909794256345900,3.437345947265625,1.0462276935577393,-3.1460304260253906,-3.3356499671936035
1779909794272699000,3.453698974609375,-0.5197936296463013,-2.3925695419311523,-3.02191424369812
1779909794289015600,3.470015625,-1.3808574676513672,-0.4675321578979492,-1.2793326377868652
1779909794305344800,3.4863447265625,0.6508808135986328,0.4539604187011719,1.7684321403503418
1779909794321686800,3.502686767578125,2.173234224319458,0.6215553283691406,3.501378059387207
1779909794338015500,3.519015380859375,3.2659878730773926,1.1664199829101562,2.0225472450256348
1779909794354348800,3.535348876953125,2.415147542953491,1.4398927688598633,0.8485032320022583
1779909794370681000,3.55168115234375,2.7833447456359863,1.5412993431091309,-0.17703655362129211
1779909794387015400,3.568015380859375,3.6307125091552734,2.6029391288757324,-0.9341467022895813
1779909794403349500,3.584349609375,4.358449459075928,3.022075653076172,-0.8971903920173645
1779909794419681800,3.600681884765625,4.983397483825684,3.831623077392578,-0.9814896583557129
1779909794436006400,3.61700634765625,4.8872575759887695,4.348928928375244,-0.9263160228729248
1779909794452332300,3.633332275390625,4.747190952301025,4.546725749969482,-0.801585853099823
1779909794468670700,3.649670654296875,4.757887840270996,4.587183475494385,-0.7409525513648987
1779909794485004500,3.666004638671875,4.5694122314453125,4.861356258392334,-0.930234968662262
1779909794501337600,3.682337646484375,3.9546141624450684,5.656912803649902,-1.3795039653778076
1779909794517671000,3.6986708984375,2.626987934112549,6.471334457397461,-2.1132583618164062
1779909794534005500,3.715005615234375,0.7888009548187256,5.903642177581787,-1.932412028312683
1779909794550336000,3.7313359375,-0.834113597869873,4.6683030128479,-1.1771329641342163
1779909794566672400,3.74767236328125,-5.895934104919434,-0.37227344512939453,-0.6163975596427917
1779909794583002000,3.764002197265625,-11.470733642578125,-14.529542922973633,0.9035006165504456
1779909794599340500,3.780340576171875,-9.247215270996094,-21.16181182861328,3.339384078979492
1779909794615671800,3.796671875,-6.5869035720825195,-9.461181640625,-0.7945795059204102
1779909794632004600,3.813004638671875,-8.013174057006836,3.004920482635498,-3.753718614578247
1779909794648351200,3.829351318359375,-3.3672285079956055,7.048685073852539,-5.0018744468688965
1779909794664684300,3.845684326171875,-2.44245982170105,-2.425079345703125,-3.2679319381713867
1779909794681015000,3.86201513671875,2.9648404121398926,-11.344463348388672,2.2636992931365967
1779909794697348600,3.8783486328125,10.624128341674805,-16.248294830322266,5.709970474243164
1779909794713683000,3.894682861328125,11.77602767944336,-1.2621078491210938,-0.9458751678466797
1779909794730015000,3.911014892578125,3.7154691219329834,7.818594455718994,-4.649875164031982
1779909794746347000,3.927346923828125,0.6726975440979004,9.464971542358398,-3.927391767501831
1779909794762686000,3.94368603515625,7.864815711975098,7.608731269836426,-1.605269432067871
1779909794779017000,3.960016845703125,9.414899826049805,3.082819938659668,-0.7742910385131836
1779909794795349800,3.976349853515625,8.224546432495117,-0.698246955871582,-0.9211535453796387
1779909794811683600,3.99268359375,3.4369001388549805,-4.558424949645996,-0.038807034492492676
1779909794828017700,4.009017578125,-4.600107192993164,-12.739293098449707,0.15596738457679749
1779909794844346600,4.0253466796875,-4.477762222290039,-6.525483131408691,5.634803295135498
1779909794860682000,4.041681884765625,0.7696946859359741,0.37410449981689453,6.92951774597168
1779909794877016600,4.0580166015625,6.253978252410889,3.155898094177246,3.49554705619812
1779909794893350400,4.074350341796875,7.0181565284729,3.9219603538513184,-0.4005110263824463
1779909794909683500,4.090683349609375,2.822568416595459,2.6669130325317383,-1.2644370794296265
1779909794926017800,4.107017822265625,-1.703538179397583,0.9850978851318359,-3.1614484786987305
1779909794942367000,4.123366943359375,-1.5406453609466553,1.8749160766601562,-2.962141752243042
1779909794958697500,4.139697509765625,0.9803863763809204,2.544363498687744,-1.96612548828125
1779909794975029000,4.156029052734375,1.4152966737747192,2.2670512199401855,-0.45515763759613037
1779909794991343600,4.172343505859375,0.12049555778503418,2.070805072784424,-0.3507009744644165
1779909795007684000,4.18868408203125,-3.918367624282837,1.315469741821289,-0.7138122320175171
1779909795024004600,4.205004638671875,-5.700364589691162,0.8882150650024414,-0.5697364211082458
1779909795040337200,4.221337158203125,-1.7533247470855713,0.7748775482177734,0.8035337328910828
1779909795056684500,4.2376845703125,1.529637336730957,0.4897336959838867,2.79606032371521
1779909795073015800,4.254015869140625,0.3367084264755249,0.5085039138793945,3.581387996673584
1779909795089350700,4.2703505859375,-3.786187171936035,0.7090425491333008,2.8001320362091064
1779909795105684200,4.286684326171875,-4.436645984649658,0.5849246978759766,2.2489469051361084
1779909795122010400,4.30301025390625,-2.901963710784912,-0.898554801940918,2.9290127754211426
1779909795138367200,4.3193671875,-1.6096457242965698,-2.171741485595703,3.8138418197631836
1779909795154667500,4.33566748046875,-1.485117793083191,-1.9127492904663086,5.198182106018066
1779909795171024400,4.3520244140625,-3.2741777896881104,-1.0483713150024414,6.0192670822143555
1779909795187335400,4.36833544921875,-4.014726638793945,-1.8199739456176758,5.2228569984436035
1779909795203686400,4.384686279296875,-3.0893261432647705,-2.5600452423095703,3.691493034362793
1779909795220013000,4.401012939453125,-2.400644063949585,-3.401935577392578,3.481027126312256
1779909795236353800,4.417353759765625,-1.711021065711975,-3.368288040161133,3.7425174713134766
1779909795252686300,4.433686279296875,-1.8754029273986816,-4.600472450256348,3.91430926322937
1779909795269004500,4.450004638671875,-2.23215651512146,-5.381630897521973,4.3534979820251465
1779909795285351200,4.46635107421875,-1.0022943019866943,-3.525729179382324,1.705232858657837
1779909795301683200,4.48268310546875,-1.252663493156433,-1.5518646240234375,-1.7770321369171143
1779909795318024000,4.49902392578125,-2.6306777000427246,-3.1165733337402344,-4.14259147644043
1779909795334345200,4.51534521484375,0.19994476437568665,-5.272366523742676,-5.445795059204102
1779909795350664200,4.531664306640625,4.30784273147583,-4.7823638916015625,-5.249753952026367
1779909795367018000,4.54801806640625,4.445621490478516,-2.9244604110717773,-4.659783840179443
1779909795383352300,4.564352294921875,2.36763072013855,-1.9823627471923828,-4.063531875610352
1779909795399684600,4.5806845703125,0.42077839374542236,-1.6909656524658203,-3.127690315246582
1779909795416018200,4.59701806640625,-0.0929574966430664,1.0203886032104492,-0.743201732635498
1779909795432351000,4.61335107421875,-1.1705529689788818,-0.5877628326416016,2.4320271015167236
1779909795448699000,4.629698974609375,1.8942487239837646,-0.5387430191040039,4.977891445159912
1779909795465031700,4.64603173828125,4.877640247344971,-0.1416330337524414,2.86789608001709
1779909795481348600,4.6623486328125,-0.6528265476226807,0.12452507019042969,-0.46770769357681274
1779909795497675000,4.678675048828125,0.4223062992095947,0.8387298583984375,-1.3239295482635498
1779909795514020600,4.6950205078125,2.5195388793945312,1.6327099800109863,-1.6394637823104858
1779909795530338800,4.7113388671875,3.5846333503723145,2.679988384246826,-0.9004653692245483
1779909795546685000,4.727684814453125,3.8120198249816895,4.072876453399658,-0.5896814465522766
1779909795563019300,4.744019287109375,3.966993808746338,4.777283191680908,-0.1896314024925232
1779909795579352300,4.760352294921875,4.9355692863464355,5.041147708892822,-0.04949235916137695
1779909795595703000,4.776703125,4.4521942138671875,5.970200538635254,-0.43180757761001587
1779909795612033000,4.793032958984375,4.292587757110596,6.146657943725586,-0.7728991508483887
1779909795628353300,4.809353271484375,4.427554607391357,7.6787800788879395,-1.2383328676223755
1779909795644698600,4.82569873046875,3.2573938369750977,6.726310729980469,-0.9879764914512634
1779909795661001000,4.8420009765625,1.4129338264465332,6.670808792114258,-1.4022399187088013
1779909795677340200,4.858340087890625,-0.30230212211608887,5.433011531829834,-1.417731523513794
1779909795693674800,4.8746748046875,-4.643162727355957,1.5252685546875,-1.3402795791625977
1779909795710009000,4.891009033203125,-12.464729309082031,-11.973492622375488,-0.8193514347076416
1779909795726349300,4.907349365234375,-7.23124885559082,-26.965682983398438,2.7696335315704346
1779909795742689500,4.923689453125,-9.895079612731934,-9.17376708984375,-0.4079820513725281
1779909795759019000,4.94001904296875,-9.36314582824707,5.1421217918396,-1.4912543296813965
1779909795775352800,4.956352783203125,-2.908477783203125,9.810375213623047,-1.7738054990768433
1779909795791686100,4.97268603515625,-2.8577523231506348,6.062276363372803,-2.52805757522583
1779909795808019500,4.98901953125,0.8200440406799316,-1.6663446426391602,2.2536637783050537
1779909795824353000,5.00535302734375,13.401859283447266,-14.028092384338379,6.377062797546387
1779909795840684800,5.021684814453125,12.800451278686523,-21.399520874023438,1.1546809673309326
1779909795857018000,5.03801806640625,1.9153457880020142,-4.800132751464844,-4.055599212646484
1779909795873352700,5.054352783203125,-6.892103672027588,5.051020622253418,-6.454751968383789
1779909795889686300,5.070686279296875,0.5866646766662598,7.988256931304932,-4.54094934463501
1779909795906021600,5.087021728515625,9.817520141601562,6.962515830993652,-2.3403873443603516
1779909795922351400,5.103351318359375,11.885537147521973,3.90669584274292,-2.1693661212921143
1779909795938686200,5.119686279296875,8.81171989440918,0.8263359069824219,-2.338860273361206
1779909795955003600,5.136003662109375,4.527827739715576,-3.774388313293457,-2.8610403537750244
1779909795971340500,5.152340576171875,-1.8839430809020996,-9.407514572143555,-3.314812421798706
1779909795987674400,5.16867431640625,-2.946136236190796,-3.8765182495117188,3.215754508972168
1779909796004008000,5.185008056640625,3.419813394546509,-0.3105945587158203,5.029713153839111
1779909796020332800,5.201332763671875,6.187816619873047,2.526242733001709,3.6687285900115967
1779909796036674000,5.217674072265625,4.583034038543701,3.0158772468566895,1.9642144441604614
1779909796053006800,5.2340068359375,2.0426032543182373,2.670095443725586,-0.6210751533508301
1779909796069342500,5.250342529296875,-0.48666349053382874,1.7241744995117188,-2.3698816299438477
1779909796085675000,5.266675048828125,-1.956412434577942,1.3840293884277344,-3.0103635787963867
1779909796102008800,5.2830087890625,-2.9460160732269287,2.235898017883301,-2.1504688262939453
1779909796118341600,5.299341552734375,-2.0645289421081543,2.8313093185424805,0.048186078667640686
1779909796134675500,5.315675537109375,-1.5749797821044922,2.3101277351379395,2.072331666946411
1779909796151007500,5.332007568359375,-0.9495387077331543,1.246260643005371,2.9996769428253174
1779909796167342300,5.34834228515625,-0.6843041181564331,0.5316200256347656,2.8616445064544678
1779909796183689700,5.364689697265625,-1.4733235836029053,0.5635910034179688,2.4573726654052734
1779909796200015000,5.38101513671875,-2.3193893432617188,0.49877357482910156,2.3539791107177734
1779909796216368000,5.3973681640625,-2.8764681816101074,0.021894454956054688,2.9616174697875977
1779909796232687900,5.41368798828125,-2.753478527069092,-0.6320400238037109,3.7233493328094482
1779909796249018600,5.4300185546875,-2.4202957153320312,-1.2069320678710938,4.130794048309326
1779909796265356300,5.446356201171875,-2.4641916751861572,-1.036910057067871,4.19527006149292
1779909796281674800,5.4626748046875,-2.6040945053100586,-0.6669158935546875,4.59190559387207
1779909796298020000,5.47902001953125,-3.3199210166931152,-1.1622076034545898,4.807913303375244
1779909796314354200,5.495354248046875,-3.5590686798095703,-2.040755271911621,4.5632171630859375
1779909796330686500,5.5116865234375,-2.888186454772949,-1.772780418395996,3.5362634658813477
1779909796347021300,5.528021240234375,-3.2064287662506104,-1.3529491424560547,3.2109928131103516
1779909796363354600,5.544354736328125,-3.1141161918640137,-2.025650978088379,3.5378522872924805
1779909796379675100,5.560675048828125,-1.8276350498199463,-2.770660400390625,3.8120837211608887
1779909796396025900,5.57702587890625,-2.1338295936584473,-4.577851295471191,4.761385440826416
1779909796412364300,5.5933642578125,-1.8520431518554688,-5.103043556213379,4.700267791748047
1779909796428710100,5.609710205078125,-0.8934455513954163,-3.54073429107666,2.226797580718994
1779909796445036000,5.6260361328125,-0.9811537265777588,-1.8862218856811523,-1.4660801887512207
1779909796461366800,5.64236669921875,-1.67879319190979,-4.895242691040039,-4.183099269866943
1779909796477698300,5.6586982421875,1.8218990564346313,-7.119317054748535,-5.745598793029785
1779909796494022700,5.675022705078125,4.691399097442627,-6.109546661376953,-5.475777626037598
1779909796510342100,5.691342041015625,4.192352294921875,-4.0048980712890625,-4.6251678466796875
1779909796526688500,5.7076884765625,1.9996232986450195,-2.8661651611328125,-3.835705280303955
1779909796543022000,5.72402197265625,-0.21123480796813965,-1.3754549026489258,-2.5470352172851562
1779909796559352000,5.74035205078125,-1.6567864418029785,0.2633695602416992,0.46895256638526917
1779909796575690500,5.7566904296875,-0.6315906047821045,0.6047964096069336,3.27508544921875
1779909796592009700,5.773009765625,1.74492347240448,-0.13843250274658203,4.202250957489014
1779909796608369200,5.789369140625,3.7699100971221924,-0.30652809143066406,1.821601390838623
1779909796624701400,5.805701416015625,2.57788348197937,1.2104411125183105,0.42191508412361145
1779909796641036800,5.822036865234375,2.6517133712768555,2.7320122718811035,-0.7593027353286743
1779909796657355000,5.83835498046875,2.9226861000061035,2.917726993560791,-0.8833375573158264
1779909796673704200,5.8547041015625,3.8235087394714355,3.6405649185180664,-0.4606234133243561
1779909796690038300,5.871038330078125,4.506246089935303,4.787820816040039,0.035149432718753815
1779909796706366200,5.8873662109375,5.449423789978027,5.3080244064331055,0.5646136403083801
1779909796722708000,5.9037080078125,4.9190473556518555,5.477612495422363,0.7221209406852722
1779909796739031300,5.92003125,4.835855484008789,5.557868003845215,0.07195571064949036
1779909796755356000,5.93635595703125,4.365818977355957,5.827378273010254,-0.3839297294616699
1779909796771689700,5.952689697265625,3.80208158493042,6.497300148010254,-0.989899218082428
1779909796788023000,5.96902294921875,1.8382213115692139,6.746571063995361,-1.5309576988220215
1779909796804356400,5.9853564453125,-0.2639906406402588,6.379810333251953,-1.7463966608047485
1779909796820690000,6.00168994140625,-3.630655527114868,3.382324695587158,-1.744626522064209
1779909796837023200,6.018023193359375,-12.760478973388672,-6.731851577758789,-1.394336223602295
1779909796853356000,6.03435595703125,-9.93076229095459,-21.25359344482422,1.9847428798675537
1779909796869690000,6.050690185546875,-5.179811477661133,-16.888530731201172,0.7104031443595886
1779909796886024000,6.06702392578125,-6.081867218017578,-2.074796676635742,-2.9746620655059814
1779909796902371600,6.08337158203125,-4.684807777404785,6.537585258483887,-3.3752293586730957
1779909796918680300,6.099680419921875,-0.5414528846740723,8.594735145568848,-3.3492558002471924
1779909796935036700,6.11603662109375,0.30061960220336914,2.306147575378418,-1.7590045928955078
1779909796951351300,6.132351318359375,4.855429649353027,-5.938020706176758,1.6377489566802979
1779909796967703600,6.14870361328125,10.25898551940918,-15.316108703613281,-0.43686091899871826
1779909796984019200,6.165019287109375,2.2035727500915527,-13.174713134765625,-3.912436008453369
1779909797000362200,6.1813623046875,4.005685806274414,0.5187482833862305,-3.3546786308288574
1779909797016687400,6.197687255859375,4.468987941741943,4.161101818084717,0.35642868280410767
1779909797033013500,6.214013427734375,5.784055709838867,6.249433517456055,1.472132682800293
1779909797049356800,6.230356689453125,7.088029861450195,4.439016819000244,1.8889331817626953
1779909797065691000,6.24669091796875,7.985866069793701,2.083148956298828,1.0789282321929932
1779909797082027300,6.26302734375,6.9718732833862305,-2.0433645248413086,0.6490938663482666
1779909797098370800,6.279370849609375,3.932499885559082,-7.150461196899414,0.2835277318954468
1779909797114674200,6.295674072265625,-6.104676246643066,-3.7772216796875,2.2094099521636963
1779909797131024100,6.312024169921875,-0.608245849609375,1.0069694519042969,2.6421077251434326
1779909797147356400,6.3283564453125,3.428687334060669,3.138533592224121,1.1084389686584473
1779909797163692500,6.344692626953125,1.8289787769317627,2.5289621353149414,-0.5901458263397217
1779909797180015000,6.36101513671875,1.844718098640442,2.398414134979248,-1.5863054990768433
1779909797196344300,6.37734423828125,2.406661033630371,1.8191614151000977,-1.879481315612793
1779909797212698000,6.393697998046875,0.6999351978302002,1.9278483390808105,-0.7923740148544312
1779909797229020000,6.41002001953125,-0.20517583191394806,2.0638089179992676,0.10698926448822021
1779909797245354500,6.4263544921875,-1.0365417003631592,2.0235514640808105,0.6776527166366577
1779909797261692000,6.44269189453125,-3.202122688293457,1.1318883895874023,0.3371843993663788
1779909797278025000,6.45902490234375,-3.9231386184692383,0.09921836853027344,-0.026892080903053284
1779909797294358300,6.475358154296875,-2.1368002891540527,0.23865032196044922,1.081059217453003
1779909797310690000,6.49168994140625,-0.06055271625518799,0.6290321350097656,2.5162343978881836
1779909797327018200,6.508018310546875,-0.37319737672805786,0.5886545181274414,3.1571505069732666
1779909797343349200,6.524349365234375,-2.343367576599121,0.08337974548339844,3.017777442932129
1779909797359678500,6.540678466796875,-3.503174066543579,0.07476329803466797,2.635815143585205
1779909797376026400,6.5570263671875,-2.867628812789917,-0.20284557342529297,2.6952462196350098
1779909797392357400,6.573357421875,-1.904670238494873,-1.2479000091552734,3.561600685119629
1779909797408690400,6.5896904296875,-1.3356132507324219,-1.181396484375,4.930269718170166
1779909797425044200,6.606044189453125,-2.495853900909424,-0.6131620407104492,5.874056816101074
1779909797441337900,6.622337890625,-3.811279296875,-1.3527812957763672,5.981010437011719
1779909797457689000,6.638689208984375,-2.8056046962738037,-1.7437868118286133,4.932525634765625
1779909797474022400,6.6550224609375,-2.5008983612060547,-1.3494758605957031,4.480165481567383
1779909797490348800,6.671348876953125,-2.692380428314209,-1.4267454147338867,4.4947309494018555
1779909797506690800,6.68769091796875,-2.655590534210205,-2.781404495239258,3.8656105995178223
1779909797523026400,6.7040263671875,-1.938492774963379,-3.648798942565918,3.5046815872192383
1779909797539358700,6.720358642578125,-2.109656572341919,-3.872830390930176,3.501098871231079
1779909797555693000,6.736693115234375,-0.800316333770752,-2.7424306869506836,1.574195384979248
1779909797572033000,6.753032958984375,-1.2326269149780273,-2.1558761596679688,-0.6221867799758911
1779909797588370000,6.769369873046875,-1.869971513748169,-4.938165664672852,-3.328030586242676
1779909797604685000,6.78568505859375,2.642681837081909,-6.897123336791992,-5.287426471710205
1779909797621037800,6.802037841796875,5.049432754516602,-5.760613441467285,-5.178397178649902
1779909797637386800,6.81838671875,3.5474348068237305,-3.127610206604004,-4.306387901306152
1779909797653689600,6.834689697265625,1.4560588598251343,-1.7328729629516602,-3.8324899673461914
1779909797670015200,6.85101513671875,-0.4985353946685791,-1.0748233795166016,-3.1163198947906494
1779909797686361300,6.867361328125,-1.3067305088043213,0.16458511352539062,-0.9668734073638916
1779909797702691600,6.883691650390625,0.005089998245239258,1.0297460556030273,1.9632833003997803
1779909797719026700,6.900026611328125,1.646112084388733,0.5992555618286133,3.5119824409484863
1779909797735360000,6.916360107421875,2.616291046142578,0.521697998046875,2.821272611618042
1779909797751693300,6.932693359375,2.3258447647094727,0.8673791885375977,1.1849123239517212
1779909797768027000,6.94902685546875,2.462425708770752,1.535881519317627,-0.11336120963096619
1779909797784359000,6.96535888671875,3.4020845890045166,2.4151926040649414,-0.8504592776298523
1779909797800692200,6.981692138671875,3.8315587043762207,2.5957937240600586,-0.8046667575836182
1779909797817027300,6.99802734375,3.9403514862060547,3.3710789680480957,-0.5765644311904907
1779909797833360400,7.0143603515625,4.737677097320557,4.249507904052734,-0.42497941851615906
1779909797849693700,7.030693603515625,4.145520210266113,4.984586715698242,-0.30595892667770386
1779909797866028300,7.0470283203125,4.362870693206787,5.196574687957764,-0.6175001263618469
1779909797882377500,7.06337744140625,4.0077314376831055,5.4503912925720215,-0.7596217393875122
1779909797898708000,7.0797080078125,3.4343748092651367,5.993353366851807,-1.0776947736740112
1779909797915041000,7.096041015625,2.341297149658203,6.1985979080200195,-1.6268726587295532
1779909797931351000,7.11235107421875,0.6918280124664307,5.813968181610107,-1.556281328201294
1779909797947681500,7.128681640625,-2.0026917457580566,3.6900367736816406,-1.0949498414993286
1779909797964015400,7.145015380859375,-8.240942001342773,-4.0633344650268555,-0.42295950651168823
1779909797980348200,7.16134814453125,-8.595685958862305,-20.750782012939453,1.8466072082519531
1779909797996682000,7.177681884765625,-9.880334854125977,-17.238645553588867,2.1017112731933594
1779909798013010200,7.19401025390625,-6.043719291687012,-3.945455551147461,-2.370877504348755
1779909798029350400,7.210350341796875,-9.073783874511719,6.263845443725586,-3.959721565246582
1779909798045682400,7.226682373046875,-2.439112901687622,9.465580940246582,-2.421447992324829
1779909798062016800,7.243016845703125,0.5113301277160645,4.440201759338379,-1.8233773708343506
1779909798078348500,7.2593486328125,7.963944911956787,-3.5272321701049805,3.3950157165527344
1779909798094682600,7.2756826171875,15.789201736450195,-14.754216194152832,2.7190423011779785
1779909798111019800,7.292019775390625,2.472599744796753,-16.164094924926758,-3.842712879180908
1779909798127362000,7.308362060546875,-3.9014596939086914,-0.4755239486694336,-4.930605888366699
1779909798143694800,7.32469482421875,1.0545318126678467,4.085237503051758,-2.5376667976379395
1779909798160015400,7.341015380859375,3.4719340801239014,6.6954851150512695,-0.8799309134483337
1779909798176361200,7.357361328125,8.598209381103516,4.145076274871826,0.2623181641101837
1779909798192696000,7.373696044921875,8.51640510559082,1.8303585052490234,-0.6069605350494385
1779909798209025500,7.390025634765625,7.353336334228516,-0.8021869659423828,-0.9306520223617554
1779909798225361000,7.40636083984375,4.4462809562683105,-6.779775619506836,-1.8669465780258179
1779909798241692200,7.422692138671875,-3.5224204063415527,-6.0259246826171875,2.5137076377868652
1779909798258031900,7.439031982421875,-1.3158011436462402,-1.0396480560302734,4.275920391082764
1779909798274371300,7.455371337890625,2.3372116088867188,2.0809860229492188,3.2388551235198975
1779909798290694400,7.4716943359375,3.0498926639556885,2.542457103729248,1.6859378814697266
1779909798307026400,7.4880263671875,2.8718032836914062,2.0834527015686035,0.49199795722961426
1779909798323366000,7.504365966796875,2.829099178314209,2.6908068656921387,-1.4142858982086182
1779909798339696400,7.5206962890625,-0.15347804129123688,2.386735439300537,-2.3494110107421875
1779909798356031000,7.537031005859375,-2.406134605407715,2.308070659637451,-2.204814910888672
1779909798372375300,7.553375244140625,-1.97053861618042,2.133662700653076,-1.499828815460205
1779909798388732700,7.569732666015625,-1.6326990127563477,2.021596908569336,-0.15242163836956024
1779909798405048000,7.586048095703125,-2.275158643722534,1.2192983627319336,1.1848803758621216
1779909798421372000,7.602371826171875,-2.021636962890625,0.5307455062866211,2.3516666889190674
1779909798437710000,7.6187099609375,-0.8163014054298401,0.3312692642211914,3.164839267730713
1779909798454041300,7.635041259765625,-1.3111381530761719,0.11804866790771484,2.945059299468994
1779909798470347300,7.65134716796875,-2.675670623779297,-0.4101285934448242,2.4075064659118652
1779909798486696400,7.667696533203125,-2.8286046981811523,-0.4811983108520508,2.1450533866882324
1779909798503030500,7.684030517578125,-2.1447436809539795,-0.5005435943603516,2.4994328022003174
1779909798519363300,7.70036328125,-1.8436623811721802,-0.9118881225585938,3.246823310852051
1779909798535680000,7.716679931640625,-1.7928955554962158,-0.840428352355957,4.129899501800537
1779909798552028700,7.733028564453125,-2.04254150390625,-0.10947227478027344,5.039769172668457
1779909798568386000,7.749385986328125,-2.715515613555908,-0.5079612731933594,5.539546489715576
1779909798584703700,7.765703857421875,-2.8091166019439697,-1.7644157409667969,5.20235013961792
1779909798601045000,7.782044921875,-2.153013229370117,-1.5712509155273438,3.6145496368408203
1779909798617377500,7.79837744140625,-3.3369994163513184,-1.8040695190429688,3.0857033729553223
1779909798633711400,7.81471142578125,-2.9747395515441895,-3.1785755157470703,2.8871865272521973
1779909798650045200,7.831045166015625,-1.4406359195709229,-4.630000114440918,3.5641024112701416
1779909798666374000,7.847373779296875,-1.4794386625289917,-4.692960739135742,4.343178749084473
1779909798682715400,7.86371533203125,-1.828073263168335,-4.450486183166504,3.8160033226013184
1779909798699044900,7.880044921875,-1.1459993124008179,-1.6955842971801758,0.3671172559261322
1779909798715361300,7.896361328125,-2.3408315181732178,-1.0434341430664062,-2.217881679534912
1779909798731712800,7.912712646484375,-2.1067357063293457,-3.786691665649414,-4.631382942199707
1779909798748027100,7.929027099609375,1.907749891281128,-5.30985164642334,-5.765470027923584
1779909798764364500,7.945364501953125,4.398332595825195,-5.096711158752441,-5.709063529968262
1779909798780696600,7.961696533203125,3.208568572998047,-3.330601692199707,-4.772924900054932
1779909798797031400,7.978031494140625,1.1809368133544922,-2.1028976440429688,-3.5250847339630127
1779909798813351400,7.994351318359375,-0.20934581756591797,-1.36981201171875,-1.371596336364746
1779909798829696800,8.01069677734375,-0.2130448818206787,-0.12569904327392578,1.028497576713562
1779909798846021000,8.027021240234374,-1.2459027767181396,-0.23708057403564453,2.980584144592285
1779909798862379500,8.043379638671874,1.3775278329849243,-0.08822345733642578,3.5153093338012695
1779909798878712300,8.05971240234375,3.192671537399292,0.6939077377319336,2.403782844543457
1779909798895044600,8.076044677734375,3.1612772941589355,0.8112707138061523,1.4433753490447998
1779909798911359500,8.092359375,3.194596290588379,2.0640788078308105,0.39873433113098145
1779909798927713000,8.108713134765624,3.5675415992736816,2.787156105041504,-0.06663735955953598
1779909798944029000,8.12502880859375,3.5869674682617188,3.2847580909729004,-0.22034934163093567
1779909798960349000,8.141348876953124,4.594041347503662,4.29330587387085,-0.24114763736724854
1779909798976698600,8.15769873046875,5.588141918182373,5.404185771942139,-0.3692242205142975
1779909798993031000,8.174031005859375,5.167047023773193,5.950722694396973,-0.4467068612575531
1779909799009360000,8.19035986328125,4.398240566253662,6.247547149658203,-0.7689259648323059
1779909799025699300,8.20669921875,3.4683799743652344,6.805265426635742,-0.9789062738418579
1779909799042032400,8.223032470703124,2.2167930603027344,7.271446704864502,-1.2885026931762695
1779909799058369300,8.239369384765626,0.4203450679779053,6.679815769195557,-1.326101303100586
1779909799074697000,8.255697021484375,-1.573132038116455,5.160947799682617,-1.0188270807266235
1779909799091042300,8.272042236328126,-6.004274845123291,-0.2921428680419922,-0.03603211045265198
1779909799107368200,8.2883681640625,-9.715414047241211,-14.905067443847656,2.2441861629486084
1779909799123714000,8.304714111328124,-9.730484008789062,-23.500930786132812,2.5524768829345703
1779909799140054300,8.32105419921875,-4.973504066467285,-9.172983169555664,-1.1189931631088257
1779909799156381000,8.337380859375,-8.920604705810547,3.439570903778076,-2.9490842819213867
1779909799172684800,8.353684814453125,-3.728576898574829,9.037740707397461,-2.5521507263183594
1779909799189020200,8.370020263671876,0.006796360015869141,7.0807952880859375,-3.135220527648926
1779909799205357600,8.386357666015625,2.0018796920776367,-0.8037166595458984,0.014088034629821777
1779909799221683500,8.402683349609376,12.886743545532227,-9.794654846191406,2.4485979080200195
1779909799238038500,8.41903857421875,10.622137069702148,-16.994766235351562,-0.803005039691925
1779909799254366700,8.43536669921875,-2.888730049133301,-6.450623512268066,-5.008399486541748
1779909799270703000,8.451703125,-0.44025540351867676,2.891336441040039,-3.94714093208313
1779909799287020000,8.46802001953125,3.071897029876709,5.963491916656494,-2.0547001361846924
1779909799303366700,8.48436669921875,5.581329345703125,6.54448127746582,-0.4840131998062134
1779909799319696400,8.5006962890625,9.286731719970703,3.5625367164611816,0.23955890536308289
1779909799336039400,8.517039306640624,8.842841148376465,1.8660635948181152,-0.41856980323791504
1779909799352383000,8.533383056640625,6.873373985290527,-2.710102081298828,-1.1165845394134521
1779909799368714500,8.549714599609375,2.8640756607055664,-8.887805938720703,-1.488538384437561
1779909799385044200,8.566044189453125,-6.448064804077148,-6.136725425720215,4.161253929138184
1779909799401397000,8.58239697265625,-0.009887456893920898,-0.042128562927246094,4.486323833465576
1779909799417715000,8.59871484375,3.8131093978881836,2.6574063301086426,3.1215732097625732
1779909799434046700,8.615046630859375,2.204249620437622,2.53487491607666,1.4326822757720947
1779909799450389500,8.631389404296876,0.20458093285560608,3.1689252853393555,0.09947656840085983
1779909799466700800,8.64770068359375,0.8740701079368591,2.772383213043213,-1.0365777015686035
1779909799483019000,8.66401904296875,0.5405042171478271,2.3499183654785156,-0.39223015308380127
1779909799499356400,8.6803564453125,0.41478878259658813,1.8013486862182617,0.797964334487915
1779909799515689500,8.696689453125,-1.1154322624206543,1.5547657012939453,1.5091303586959839
1779909799532022300,8.713022216796874,-3.452235460281372,1.3793621063232422,1.2613717317581177
1779909799548356000,8.729356201171875,-4.3926544189453125,0.6565332412719727,0.22086386382579803
1779909799564690000,8.74568994140625,-3.2268004417419434,0.27405548095703125,0.4164271950721741
1779909799581022200,8.762022216796876,-1.4536316394805908,0.08882999420166016,2.364071846008301
1779909799597357300,8.778357421875,0.09640121459960938,0.2771291732788086,3.496526002883911
1779909799613689600,8.794689697265625,-1.7608691453933716,0.5532426834106445,3.3942573070526123
1779909799630023200,8.811023193359375,-3.875091075897217,0.24260520935058594,2.717074155807495
1779909799646356500,8.8273564453125,-2.6572370529174805,-0.4771747589111328,2.1516172885894775
1779909799662690800,8.84369091796875,-1.3077411651611328,-1.474050521850586,2.793623924255371
1779909799679025000,8.86002490234375,-1.1580836772918701,-0.633941650390625,4.426385879516602
1779909799695356400,8.8763564453125,-2.6932458877563477,0.07915782928466797,6.079788684844971
1779909799711690800,8.892690673828126,-3.7951173782348633,-0.5941066741943359,7.338929176330566
1779909799728022500,8.9090224609375,-3.39992618560791,-1.9197654724121094,6.894556522369385
1779909799744372500,8.92537255859375,-3.0259969234466553,-1.7922286987304688,5.1459455490112305
1779909799760689700,8.941689697265625,-3.5831785202026367,-2.6752405166625977,3.3740057945251465
1779909799777036300,8.958036376953125,-2.647625207901001,-3.444070816040039,3.333054304122925
1779909799793369300,8.974369384765625,-1.8451907634735107,-3.3386545181274414,3.1871047019958496
1779909799809703200,8.990703125,-1.0990209579467773,-2.4144411087036133,0.9170352220535278
1779909799826027000,9.007027099609376,-2.619767904281616,-3.18039608001709,-1.5110076665878296
1779909799842359800,9.02335986328125,-2.209120750427246,-6.567122459411621,-4.354517459869385
1779909799858686000,9.03968603515625,4.87007474899292,-8.083288192749023,-5.456442832946777
1779909799875020300,9.056020263671876,6.067599296569824,-5.42210578918457,-3.6998965740203857
1779909799891369200,9.072369140625,2.5335888862609863,-2.877650260925293,-2.927173137664795
1779909799907703300,9.088703369140624,-0.2426762580871582,-1.6699457168579102,-2.986422061920166
1779909799924036600,9.10503662109375,-1.2402963638305664,-0.9309024810791016,-2.5857882499694824
1779909799940356600,9.121356689453124,-0.17243337631225586,-0.3756752014160156,-0.9191008806228638
1779909799956702500,9.137702392578126,1.1960406303405762,0.17306232452392578,0.9814079999923706
1779909799973037000,9.154037109375,1.8464925289154053,1.1111860275268555,1.640276551246643
1779909799989370000,9.1703701171875,2.643245220184326,1.414475440979004,1.5907809734344482
1779909800005704400,9.186704345703125,3.1504714488983154,1.806647777557373,0.6745617389678955
1779909800022037000,9.203037109375,2.7258968353271484,1.8466553688049316,-0.20583130419254303
1779909800038370300,9.219370361328124,3.026122570037842,2.8870692253112793,-0.8025907278060913
1779909800054687700,9.235687744140625,3.4380218982696533,3.79592227935791,-0.5410159230232239
1779909800071049200,9.25204931640625,4.523526191711426,3.8406872749328613,-0.1236543282866478
1779909800087379500,9.26837939453125,4.158541202545166,4.083922863006592,0.3841768801212311
1779909800103722800,9.28472265625,4.194534778594971,4.836999416351318,-0.07706891000270844
1779909800120048400,9.30104833984375,3.905029296875,5.512940406799316,-0.7352259755134583
1779909800136380700,9.317380615234375,3.3712117671966553,5.99123477935791,-1.3321270942687988
1779909800152719400,9.33371923828125,2.770566463470459,6.158064842224121,-1.8302910327911377
1779909800169055200,9.35005517578125,2.204329013824463,5.597586154937744,-1.4605399370193481
1779909800185385700,9.3663857421875,0.1961345672607422,3.2617955207824707,-0.318783164024353
1779909800201717500,9.382717529296874,-3.4451510906219482,-1.5463333129882812,0.5622022747993469
1779909800218051000,9.399051025390625,-7.553131580352783,-13.26707935333252,0.7682603001594543
1779909800234358300,9.415358154296875,-15.157648086547852,-18.61095428466797,0.14919883012771606
1779909800250692000,9.431692138671876,-6.36043643951416,-6.179495811462402,-1.7520668506622314
1779909800267035100,9.44803515625,-8.448616027832031,3.4248204231262207,-2.2827534675598145
1779909800283375400,9.464375244140625,-3.2401702404022217,7.698370456695557,-0.6378431916236877
1779909800299705900,9.480705810546874,1.6455522775650024,8.515938758850098,0.05386149883270264
1779909800316043300,9.497043212890626,3.0711989402770996,5.391698837280273,0.3529103696346283
1779909800332371700,9.513371826171875,8.003629684448242,0.017142295837402344,2.035977363586426
1779909800348709400,9.52970947265625,14.01460075378418,-8.77842903137207,-0.2690908908843994
1779909800365053700,9.5460537109375,-1.0544562339782715,-24.939476013183594,-3.9077932834625244
1779909800381385500,9.562385498046876,-10.975656509399414,-14.470855712890625,-4.5958075523376465
1779909800397720800,9.578720947265625,6.816046714782715,2.3117971420288086,-3.623807668685913
1779909800414053000,9.59505322265625,7.078067779541016,7.381727695465088,-0.6777819395065308
1779909800430363400,9.61136328125,6.253595352172852,6.8886308670043945,1.1040443181991577
1779909800446709200,9.627709228515625,8.267945289611816,5.779587745666504,0.5265750885009766
1779909800463039500,9.64403955078125,7.834135055541992,4.1772565841674805,-0.08542144298553467
1779909800479372800,9.660372802734376,5.759688377380371,-1.1941213607788086,-1.199465274810791
1779909800495707100,9.67670703125,3.624600887298584,-5.670660972595215,-1.5121078491210938
1779909800512024300,9.6930244140625,-9.654045104980469,-5.931187629699707,2.8294901847839355
1779909800528362500,9.709362548828125,-2.213204860687256,-1.3076343536376953,3.8645212650299072
1779909800544706800,9.725706787109376,2.9665138721466064,2.3488502502441406,3.4416258335113525
1779909800561040000,9.742039794921874,4.2496018409729,3.3745808601379395,2.6416585445404053
1779909800577373200,9.758373291015625,2.3985135555267334,3.333418369293213,1.0116935968399048
1779909800593706800,9.774706787109375,0.22928191721439362,2.607974052429199,-0.8108388185501099
1779909800610027500,9.791027587890625,-1.6292942762374878,2.2583608627319336,-1.0896869897842407
1779909800626373000,9.807373046875,-1.6436080932617188,1.2180509567260742,-0.5987714529037476
1779909800642723300,9.823723388671874,-1.9769622087478638,0.8119583129882812,0.2503732442855835
1779909800659053800,9.8400537109375,-2.563969612121582,0.5745487213134766,0.7697501182556152
1779909800675387600,9.8563876953125,-2.941459894180298,0.4000263214111328,0.8907749652862549
1779909800691721500,9.872721435546875,-2.5408036708831787,-0.04804420471191406,1.3803353309631348
1779909800708053800,9.8890537109375,-1.657428503036499,0.006230354309082031,2.3838140964508057
1779909800724371500,9.905371337890625,-1.3747913837432861,0.1072702407836914,3.1498606204986572
1779909800740706300,9.921706298828125,-2.7805213928222656,0.3008699417114258,3.2218146324157715
1779909800757039400,9.938039306640626,-3.621513843536377,0.24445438385009766,2.941646099090576
1779909800773374500,9.95437451171875,-2.781667470932007,-0.5186634063720703,3.2334325313568115
1779909800789707800,9.970707763671875,-1.5791689157485962,-1.234811782836914,3.778191089630127
1779909800806054400,9.987054443359375,-1.6900182962417603,-0.7602262496948242,4.688508033752441
1779909800822374400,10.00337451171875,-2.910764694213867,-0.6081066131591797,5.376481056213379
1779909800838709000,10.019708984375,-3.2587647438049316,-1.486159324645996,5.588553428649902
1779909800855041000,10.036041015625,-2.7961630821228027,-2.362177848815918,5.276381015777588
1779909800871375000,10.052375,-2.0463449954986572,-2.642057418823242,5.069158554077148
1779909800887722500,10.068722412109375,-1.8941898345947266,-2.959336280822754,4.541532516479492
1779909800904050400,10.085050537109375,-1.8414273262023926,-5.311842918395996,4.1394500732421875
1779909800920376300,10.101376220703125,-1.811800241470337,-5.451564788818359,3.391442060470581
1779909800936692000,10.11769189453125,-0.9581686854362488,-3.3905887603759766,0.6147321462631226
1779909800953042000,10.1340419921875,-1.904946208000183,-1.7574281692504883,-1.7191625833511353
1779909800969370400,10.150370361328125,-2.504401206970215,-3.0610008239746094,-3.7843074798583984
1779909800985709300,10.166709228515625,1.1968456506729126,-4.290493965148926,-4.899189472198486
1779909801002042600,10.183042724609376,3.838855266571045,-4.042390823364258,-4.5027079582214355
1779909801018375400,10.19937548828125,3.5883193016052246,-2.803373336791992,-3.552030324935913
1779909801034712800,10.215712890625,1.9020557403564453,-2.0010271072387695,-2.416114330291748
1779909801051057200,10.23205712890625,-0.4984022378921509,-1.646143913269043,-0.8614717125892639
1779909801067386000,10.24838623046875,-0.8047451972961426,-0.23052406311035156,1.3781588077545166
1779909801083725800,10.264725830078126,-0.45337462425231934,-0.5697746276855469,5.074134826660156
1779909801100056300,10.281056396484376,1.451718807220459,-0.8231821060180664,5.422611713409424
1779909801116389600,10.2973896484375,3.097602367401123,-0.15027523040771484,3.756381034851074
1779909801132714800,10.31371484375,3.070067882537842,0.2508363723754883,2.2014832496643066
1779909801149056000,10.330055908203125,2.954455614089966,0.6747503280639648,0.48892420530319214
1779909801165387300,10.34638720703125,3.57214617729187,1.8033380508422852,-0.9623720645904541
1779909801181728300,10.362728271484375,4.222248077392578,2.716486930847168,-1.4484586715698242
1779909801198055200,10.37905517578125,5.055080890655518,4.146259784698486,-1.752977967262268
1779909801214379800,10.3953798828125,5.464895725250244,4.9263596534729,-0.9016990661621094
1779909801230709500,10.41170947265625,5.432572841644287,5.8834452629089355,-0.5167939066886902
1779909801247039500,10.42803955078125,4.638062000274658,6.517490386962891,-0.35680443048477173
1779909801263374800,10.444374755859375,3.5944254398345947,7.384434700012207,-0.7196876406669617
1779909801279716400,10.46071630859375,2.607550859451294,7.594407081604004,-1.262812852859497
1779909801296044000,10.4770439453125,1.458554983139038,6.992696762084961,-1.5128848552703857
1779909801312376600,10.49337646484375,-0.15354108810424805,4.901621341705322,-1.1657235622406006
1779909801328711200,10.509711181640625,-3.4031264781951904,0.04526710510253906,-0.2808474898338318
1779909801345043700,10.526043701171876,-7.392719268798828,-11.691762924194336,0.03827345371246338
1779909801361393200,10.54239306640625,-17.173215866088867,-25.346973419189453,-0.1492244005203247
1779909801377724700,10.558724609375,-7.440110683441162,-10.447151184082031,-1.1354362964630127
1779909801394055400,10.575055419921876,-7.585752487182617,3.587831974029541,-0.27736717462539673
1779909801410377000,10.591376953125,-2.458760976791382,9.256559371948242,0.6498496532440186
1779909801426721500,10.607721435546875,0.47565579414367676,9.111912727355957,-0.3165096640586853
1779909801443029500,10.624029541015625,1.8938639163970947,1.1279449462890625,1.6951484680175781
1779909801459365600,10.64036572265625,13.463944435119629,-6.8126115798950195,4.048210620880127
1779909801475700500,10.656700439453125,14.871567726135254,-15.997968673706055,-0.2677686810493469
1779909801492032000,10.673031982421875,-6.5555901527404785,-14.614826202392578,-4.183106899261475
1779909801508365600,10.689365478515626,-4.454736709594727,-1.0133657455444336,-5.680355548858643
1779909801524699600,10.70569970703125,2.6734118461608887,6.102280616760254,-3.4456334114074707
1779909801541033200,10.722033203125,8.786877632141113,6.6358137130737305,0.3415095806121826
1779909801557366800,10.73836669921875,9.644220352172852,4.270798206329346,0.6198792457580566
1779909801573700000,10.7547001953125,8.2023286819458,2.8848280906677246,0.18195432424545288
1779909801590038800,10.771038818359376,5.877446174621582,-2.4817543029785156,-0.8578609824180603
1779909801606375700,10.787375732421875,4.872847557067871,-6.818592071533203,-0.7690640687942505
1779909801622713300,10.80371337890625,-8.056318283081055,-4.691991806030273,3.225609064102173
1779909801639043800,10.8200439453125,-1.2751142978668213,0.035254478454589844,4.0166449546813965
1779909801655378700,10.836378662109375,4.756424903869629,3.0115323066711426,3.1246283054351807
1779909801671713300,10.85271337890625,4.8930463790893555,3.2871718406677246,2.116586923599243
1779909801688045000,10.869045166015624,2.87184476852417,2.0064330101013184,0.19679182767868042
1779909801704378600,10.885378662109375,-0.24146002531051636,1.544968605041504,-1.6151139736175537
1779909801720712200,10.901712158203125,-3.5827903747558594,1.4296913146972656,-1.930063009262085
1779909801737045800,10.918045654296876,-3.7582314014434814,2.1053504943847656,-1.7543725967407227
1779909801753366300,10.9343662109375,-3.0291061401367188,2.6292471885681152,-0.569237232208252
1779909801769713200,10.950713134765625,-2.5785207748413086,1.64080810546875,1.124332308769226
1779909801786046200,10.967046142578125,-1.3162744045257568,0.670527458190918,2.5591065883636475
1779909801802383400,10.98338330078125,-0.5348068475723267,0.3673820495605469,3.3389229774475098
1779909801818700500,10.999700439453125,-2.063405990600586,0.09671974182128906,3.23256254196167
1779909801835045600,11.016045654296875,-2.767940044403076,0.21636199951171875,2.1653618812561035
1779909801851383800,11.0323837890625,-2.6931798458099365,-0.1315011978149414,1.3737668991088867
1779909801867713000,11.048713134765626,-2.386035919189453,-1.1931724548339844,2.082181453704834
1779909801884061400,11.0650615234375,-1.9216914176940918,-1.7391529083251953,3.6486005783081055
1779909801900373200,11.081373291015625,-1.598998785018921,-0.6450510025024414,5.421419143676758
1779909801916728600,11.097728515625,-2.6095476150512695,-0.2731294631958008,6.389531135559082
1779909801933047600,11.114047607421876,-3.828589916229248,-1.7300119400024414,6.110032558441162
1779909801949380000,11.130380126953124,-3.110762119293213,-2.733367919921875,5.516386985778809
1779909801965704700,11.14670458984375,-1.2230581045150757,-1.4715003967285156,4.749948978424072
1779909801982046500,11.16304638671875,-2.8357324600219727,-1.741872787475586,4.705529689788818
1779909801998382800,11.1793828125,-4.474719047546387,-3.002422332763672,3.9277777671813965
1779909802014713600,11.195713623046874,-3.8457069396972656,-3.271646499633789,3.2809813022613525
1779909802031050000,11.212050048828125,-1.5563207864761353,-2.4429855346679688,2.370814085006714
1779909802047395000,11.22839501953125,0.2838016152381897,-2.8165035247802734,1.6806062459945679
1779909802063729000,11.24472900390625,1.6284008026123047,-5.668168067932129,0.5768475532531738
1779909802080058400,11.261058349609375,2.910085439682007,-6.315799713134766,-1.8404361009597778
1779909802096390100,11.27739013671875,2.884296417236328,-5.206695556640625,-2.264920949935913
1779909802112733400,11.2937333984375,1.3681365251541138,-3.1345396041870117,-1.9945487976074219
1779909802129062000,11.310061767578125,0.08919024467468262,-1.9771289825439453,-1.6463059186935425
1779909802153539800,11.334539794921875,0.3448113203048706,-1.9723806381225586,-0.8041526079177856
1779909802169869000,11.350869140625,-0.20403599739074707,-1.6730537414550781,0.3983725905418396
1779909802194370000,11.3753701171875,1.1424906253814697,-0.5699520111083984,3.2462852001190186
1779909802210705700,11.39170556640625,1.9042208194732666,0.5626411437988281,3.03947114944458
1779909802227047700,11.408047607421874,1.7945548295974731,0.5151004791259766,1.8218704462051392
1779909802243382000,11.424382080078125,3.7621071338653564,0.5125484466552734,0.3857051134109497
1779909802259720400,11.440720458984375,5.197994709014893,1.9563589096069336,-0.4131503105163574
1779909802276045600,11.457045654296875,6.783522605895996,3.2551069259643555,-0.8307108283042908
1779909802292390100,11.47339013671875,5.259524345397949,3.924130439758301,-0.4560592472553253
1779909802308715800,11.4897158203125,4.9014434814453125,4.434681415557861,-0.236021488904953
1779909802325049000,11.506049072265625,4.706970691680908,4.905179977416992,-0.15238550305366516
1779909802341383000,11.5223828125,4.979439735412598,4.943295955657959,-0.2670421004295349
1779909802357725000,11.538724853515625,4.35069465637207,5.145914077758789,-0.8425405621528625
1779909802374072000,11.555072021484374,2.913466453552246,5.508601188659668,-1.6070793867111206
1779909802390395400,11.5713955078125,1.919622778892517,5.886469841003418,-1.9579589366912842
1779909802406728000,11.58772802734375,1.0286123752593994,5.913305282592773,-1.6446993350982666
1779909802423046400,11.60404638671875,-0.5353488922119141,3.5257058143615723,-1.120945692062378
1779909802439383000,11.620383056640625,-3.357907772064209,-2.099013328552246,-0.7235487103462219
1779909802455717600,11.636717529296876,-7.61106538772583,-15.977422714233398,-0.7139972448348999
1779909802472048600,11.653048583984376,-14.100601196289062,-18.552553176879883,-0.6636227965354919
1779909802488381400,11.66938134765625,-7.117430686950684,-6.374239921569824,-0.6741438508033752
1779909802504720600,11.685720703125,-7.508813381195068,3.660508155822754,-1.0497757196426392
1779909802521064700,11.702064697265625,-2.9683401584625244,8.042670249938965,-0.9644380807876587
1779909802537410000,11.71841015625,0.555037260055542,4.19401741027832,0.45804882049560547
1779909802553713700,11.734713623046876,2.2461533546447754,-3.894571304321289,4.066771984100342
1779909802570049300,11.75104931640625,14.920111656188965,-13.032142639160156,4.372503280639648
1779909802586384000,11.7673837890625,7.937621593475342,-16.37441062927246,-1.4073123931884766
1779909802602706000,11.783705810546875,-0.6188027858734131,-0.14563465118408203,-5.2330522537231445
1779909802619049200,11.80004931640625,-2.009528398513794,5.183470726013184,-3.7794651985168457
1779909802635369000,11.816368896484375,2.1720662117004395,7.808387279510498,-1.1662334203720093
1779909802651735800,11.83273583984375,8.551440238952637,6.714184761047363,0.5962817668914795
1779909802668063500,11.8490634765625,8.611733436584473,3.5665111541748047,0.7326982021331787
1779909802684365000,11.865364990234376,7.555441856384277,0.3022603988647461,-0.1887109875679016
1779909802700705500,11.88170556640625,5.199563980102539,-7.933833122253418,-1.439832329750061
1779909802717038800,11.898038818359375,-1.5307458639144897,-9.860955238342285,2.117961883544922
1779909802733374500,11.91437451171875,-5.210413455963135,-2.0489397048950195,4.374936103820801
1779909802749717800,11.9307177734375,1.1769338846206665,2.661618709564209,3.4041199684143066
1779909802766053000,11.94705322265625,3.5020477771759033,2.706876277923584,2.0956850051879883
1779909802782389800,11.9633896484375,1.355393886566162,2.0535387992858887,1.2817330360412598
1779909802798719200,11.97971923828125,1.0074996948242188,0.8536300659179688,-0.08397185802459717
1779909802815032800,11.99603271484375,1.1254596710205078,1.6205968856811523,-0.582305371761322
1779909802831376600,12.012376708984375,-0.16978028416633606,1.6547012329101562,-0.34542274475097656
1779909802847720000,12.028719970703126,-0.7146571278572083,1.6393413543701172,-0.46716606616973877
1779909802864050400,12.045050537109375,-2.5262610912323,1.8801631927490234,-0.9452145099639893
1779909802880383700,12.0613837890625,-4.833742141723633,1.2576913833618164,-1.4424633979797363
1779909802896706800,12.077706787109374,-4.2917094230651855,0.7886104583740234,-0.9035342335700989
1779909802913052000,12.094052001953125,-2.2939114570617676,0.6950006484985352,1.0957272052764893
1779909802929385700,12.1103857421875,-0.2560306787490845,0.6989040374755859,2.881265640258789
1779909802945720300,12.12672021484375,0.020943880081176758,0.4705829620361328,3.3299989700317383
1779909802962049500,12.143049560546874,-2.387510061264038,-0.1615581512451172,2.911250352859497
1779909802978373000,12.159373046875,-4.339318752288818,-1.4536018371582031,2.666692018508911
1779909802994725600,12.1757255859375,-2.4233713150024414,-2.4819231033325195,2.9574356079101562
1779909803011053600,12.192053466796875,-0.9335706830024719,-2.2429447174072266,5.05757474899292
1779909803027367700,12.20836767578125,-2.797145366668701,-1.514211654663086,6.814668655395508
1779909803043707400,12.224707275390625,-5.732531547546387,-2.0584707260131836,7.184239387512207
1779909803060040400,12.24104052734375,-4.016902923583984,-2.2015295028686523,6.0980916023254395
1779909803076373000,12.257373046875,-2.8293919563293457,-2.2801990509033203,6.41395378112793
1779909803092706600,12.27370654296875,-1.941298484802246,-1.44232177734375,5.229805946350098
1779909803109042200,12.290042236328125,-1.5684548616409302,-2.0305356979370117,4.533452033996582
1779909803125374500,12.30637451171875,-1.0670181512832642,-1.2489128112792969,4.4584197998046875
1779909803141707500,12.32270751953125,-0.9063109755516052,-0.6372308731079102,3.3296561241149902
1779909803158047500,12.339047607421875,-0.6875264644622803,-2.5970468521118164,1.155442237854004
1779909803174375000,12.355375,-1.7509092092514038,-5.324455261230469,-1.6925009489059448
1779909803190707700,12.371707763671875,0.3380349576473236,-7.526956558227539,-3.2788262367248535
1779909803207042800,12.388042724609376,5.190672874450684,-6.360236167907715,-3.256685256958008
1779909803223375000,12.404375,5.1796746253967285,-3.6532068252563477,-2.671161651611328
1779909803239708400,12.42070849609375,2.673856019973755,-2.065784454345703,-2.3729634284973145
1779909803256045300,12.43704541015625,0.8200703859329224,-1.532242774963379,-1.9541982412338257
1779909803272372500,12.45337255859375,-1.4377820491790771,-0.7049055099487305,-0.7106748819351196
1779909803288709000,12.469709228515624,-1.2603976726531982,0.4288330078125,1.428561806678772
1779909803305057000,12.48605712890625,-0.6874988079071045,0.6867618560791016,4.758619785308838
1779909803321387800,12.5023876953125,2.397707939147949,-0.40332984924316406,4.9218316078186035
1779909803337722600,12.51872265625,2.6251485347747803,-0.44375038146972656,3.281660556793213
1779909803354049300,12.53504931640625,2.2363367080688477,-1.1268959045410156,1.7546429634094238
1779909803370389800,12.5513896484375,3.4220056533813477,0.5359067916870117,0.549150824546814
1779909803386721000,12.567720947265625,5.234752655029297,2.7059779167175293,-0.159423828125
1779909803403053600,12.584053466796876,6.794348239898682,4.243703365325928,-0.7754040956497192
1779909803419388000,12.600387939453125,6.566538333892822,5.511142730712891,-1.0875874757766724
1779909803435722800,12.61672265625,5.948319435119629,5.690095901489258,-1.0889487266540527
1779909803452052200,12.63305224609375,5.096525192260742,5.646480560302734,-1.5748919248580933
1779909803468384500,12.649384521484375,4.19630241394043,5.922318458557129,-2.3270423412323
1779909803484726800,12.665726806640626,2.5016894340515137,6.490923881530762,-3.238051176071167
1779909803501057300,12.682057373046876,1.7844995260238647,5.986270904541016,-3.267375946044922
1779909803517401900,12.69840185546875,0.4559049606323242,3.9159889221191406,-2.432450294494629
1779909803533719800,12.7147197265625,-2.8818235397338867,-0.895573616027832,-0.9809138774871826
1779909803550057500,12.731057373046875,-7.027379989624023,-10.464984893798828,-0.8907906413078308
1779909803566387200,12.74738720703125,-12.268426895141602,-19.80527114868164,-1.4090800285339355
1779909803582737000,12.76373681640625,-8.431371688842773,-9.55170726776123,-0.8329015970230103
1779909803599054600,12.7800546875,-6.053969383239746,1.0415945053100586,-0.5058103799819946
1779909803615388700,12.796388671875,-4.806542873382568,7.7286376953125,0.3274613618850708
1779909803631739000,12.81273876953125,-0.953998327255249,10.327878952026367,1.6759991645812988
1779909803648064000,12.82906396484375,0.3359718322753906,6.967358112335205,4.0147809982299805
1779909803664390100,12.84539013671875,9.819425582885742,-1.2021379470825195,5.43943977355957
1779909803680722400,12.861722412109375,20.444652557373047,-12.876924514770508,2.1532559394836426
1779909803697041000,12.878041015625,-1.4716861248016357,-27.41997528076172,-3.9970438480377197
1779909803713375000,12.894375,-11.305517196655273,-9.035154342651367,-6.580801486968994
1779909803729707800,12.910707763671875,3.3658552169799805,5.130377769470215,-5.632891654968262
1779909803746048500,12.927048583984375,6.674878120422363,8.63303279876709,-1.2125468254089355
1779909803762391300,12.943391357421875,8.119794845581055,8.91746997833252,1.3533365726470947
1779909803778710500,12.95971044921875,8.52877140045166,7.294179439544678,1.2655999660491943
1779909803795055400,12.976055419921876,7.517180442810059,3.158477783203125,0.23426872491836548
1779909803811387400,12.992387451171876,5.7830071449279785,-7.407675743103027,-2.3484039306640625
1779909803827723500,13.0087236328125,-0.6978065967559814,-9.492488861083984,0.4749940037727356
1779909803844056000,13.02505615234375,-5.36575984954834,-3.2995548248291016,4.096686840057373
1779909803860392200,13.04139208984375,2.0303831100463867,2.780771255493164,3.166266918182373
1779909803876719900,13.057719970703126,6.217525005340576,4.504885196685791,1.485836386680603
1779909803893069800,13.07406982421875,4.351666450500488,2.715060234069824,0.3488631844520569
1779909803909386500,13.090386474609375,2.218806266784668,1.5976905822753906,-1.3966741561889648
1779909803925724400,13.106724365234374,-2.4862987995147705,2.0081143379211426,-1.168099284172058
1779909803942056700,13.123056640625,-3.4789628982543945,1.8131074905395508,-1.2571723461151123
1779909803958385700,13.1393857421875,-2.6837170124053955,2.2752699851989746,-1.2209593057632446
1779909803974715400,13.15571533203125,-3.1400465965270996,1.7693758010864258,-0.5580604076385498
1779909803991057000,13.172056884765626,-2.476320266723633,0.4260072708129883,0.8817987442016602
1779909804007402000,13.188402099609375,-1.7209900617599487,-0.1611490249633789,2.2680118083953857
1779909804023735600,13.204735595703125,-1.2936023473739624,-0.05801677703857422,3.078026294708252
1779909804040074800,13.22107470703125,-2.5563340187072754,0.0020799636840820312,3.329069137573242
1779909804056401700,13.237401611328124,-4.0193986892700195,-0.3817586898803711,3.086219549179077
1779909804072713500,13.25371337890625,-3.338754415512085,-1.5866193771362305,3.1471104621887207
1779909804089071000,13.270071044921876,-2.1346654891967773,-2.878826141357422,3.671816825866699
1779909804105403600,13.286403564453124,-1.9088506698608398,-2.4263429641723633,4.769505977630615
1779909804121741000,13.302740966796875,-3.687861919403076,-1.3385820388793945,6.052796363830566
1779909804138072000,13.319072021484375,-4.582545757293701,-1.9191255569458008,6.333982944488525
1779909804154393300,13.335393310546875,-3.3428659439086914,-3.119635581970215,6.151475429534912
1779909804170724000,13.35172412109375,-2.0205421447753906,-3.386988639831543,5.598867893218994
1779909804187055000,13.36805517578125,-1.4904437065124512,-2.588629722595215,3.5205748081207275
1779909804203394000,13.38439404296875,-2.2615058422088623,-2.938241958618164,2.413763999938965
1779909804219725800,13.400725830078125,-1.611841082572937,-3.2488651275634766,2.5518531799316406
1779909804236060200,13.41706005859375,-1.3494927883148193,-1.5380268096923828,1.747403860092163
1779909804252392000,13.433391845703126,-1.4957337379455566,-1.2901496887207031,0.18952655792236328
1779909804268717000,13.449717041015624,-1.900628924369812,-2.6895837783813477,-1.1162179708480835
1779909804285063400,13.4660634765625,-0.33395320177078247,-3.6686906814575195,-2.2422406673431396
1779909804301392400,13.482392333984375,3.430626392364502,-3.582042694091797,-1.9112496376037598
1779909804317726000,13.498725830078126,4.262856960296631,-3.091437339782715,-1.4427211284637451
1779909804334058500,13.51505859375,3.29807710647583,-3.5033512115478516,-1.2916030883789062
1779909804350390800,13.531390869140624,1.6603198051452637,-3.618053436279297,-1.6455998420715332
1779909804366742500,13.547742431640625,-2.7560696601867676,-3.320359230041504,-1.1287089586257935
1779909804383073800,13.56407373046875,-2.352699041366577,-1.5688896179199219,1.3191765546798706
1779909804399386000,13.58038623046875,2.818106174468994,-0.6628561019897461,3.758175849914551
1779909804415729200,13.596729248046875,3.358635902404785,0.4109983444213867,3.312363624572754
1779909804432059000,13.613058837890625,3.636483907699585,0.5484228134155273,2.23661732673645
1779909804448386000,13.629385986328124,2.6500494480133057,0.013312339782714844,1.1375846862792969
1779909804464731600,13.645731689453125,2.869917154312134,1.2340140342712402,-0.016305938363075256
1779909804481059000,13.66205908203125,4.6607666015625,2.7015981674194336,-0.6312006115913391
1779909804497408500,13.678408447265625,5.319514751434326,3.9463601112365723,-1.0075944662094116
1779909804513740500,13.694740478515625,5.200235366821289,5.032968997955322,-0.9236948490142822
1779909804530071800,13.71107177734375,4.667145729064941,5.421196937561035,-0.4674922227859497
1779909804546390000,13.72739013671875,4.79937219619751,5.577226638793945,-0.6636158227920532
1779909804562724600,13.743724609375,4.667143821716309,5.651878833770752,-1.0464047193527222
1779909804579073000,13.760072998046875,3.6118836402893066,5.9154558181762695,-1.6125342845916748
1779909804595402500,13.776402587890624,2.336331844329834,5.65703821182251,-1.9695676565170288
1779909804611744000,13.792743896484374,1.4014520645141602,4.0604047775268555,-1.7820048332214355
1779909804628056300,13.809056396484374,-0.5407280921936035,0.8406381607055664,-0.8276350498199463
1779909804644393000,13.82539306640625,-3.150423049926758,-3.9687957763671875,-0.8676343560218811
1779909804660715500,13.841715576171875,-9.115079879760742,-12.890938758850098,-1.9543683528900146
1779909804677060000,13.85806005859375,-12.826770782470703,-13.015604019165039,-2.0152227878570557
1779909804693393400,13.874393310546875,-7.760367393493652,-3.617569923400879,0.4343944787979126
1779909804709727500,13.8907275390625,-7.210516929626465,3.8746323585510254,1.3413883447647095
1779909804726046200,13.907046142578125,-1.598073959350586,8.18722152709961,2.710339069366455
1779909804742392300,13.923392333984374,0.289259672164917,9.14711856842041,3.194850444793701
1779909804758737400,13.9397373046875,4.908668518066406,4.442709445953369,3.995831251144409
1779909804775061000,13.95606103515625,13.127975463867188,-3.256826400756836,2.5060391426086426
1779909804791394000,13.97239404296875,18.243797302246094,-16.94170379638672,-0.14738473296165466
1779909804807727400,13.988727294921874,-15.736015319824219,-27.870237350463867,-6.8349289894104
1779909804824069000,14.005069091796875,-5.800286293029785,-3.1352462768554688,-9.878857612609863
1779909804840393200,14.021393310546875,4.475706100463867,6.481834888458252,-3.0146384239196777
1779909804856724500,14.037724365234375,6.718587875366211,8.414885520935059,1.045668125152588
1779909804873081900,14.054081787109375,8.914306640625,10.053399085998535,1.5324769020080566
1779909804889377300,14.070377197265625,8.879687309265137,8.112553596496582,0.8747203350067139
1779909804905727700,14.086727783203125,7.696106910705566,1.311894416809082,-1.0545270442962646
1779909804922061000,14.10306103515625,5.323482036590576,-12.585601806640625,-3.713578701019287
1779909804938381600,14.119381591796875,-12.79891586303711,-11.353537559509277,2.201542377471924
1779909804954716700,14.135716552734374,-1.180846929550171,-1.0468597412109375,3.8882715702056885
1779909804971048000,14.1520478515625,6.52553653717041,4.01819372177124,3.3116931915283203
1779909804987383000,14.168383056640625,6.167332172393799,4.5121660232543945,2.111826181411743
1779909805003716000,14.184716064453125,3.6408112049102783,2.4941940307617188,-0.21210519969463348
1779909805020050400,14.201050537109374,-0.9434463381767273,2.053290367126465,-2.2578721046447754
1779909805036383700,14.2173837890625,-4.601361274719238,1.3791427612304688,-2.722914695739746
1779909805052715000,14.233715087890625,-2.8699090480804443,1.875887393951416,-2.659731149673462
1779909805069048800,14.250048828125,-1.6517572402954102,2.074136257171631,-1.4316012859344482
1779909805085382700,14.266382568359376,-2.8127851486206055,1.2374210357666016,-0.27989980578422546
1779909805101718300,14.28271826171875,-2.785888433456421,0.43434906005859375,0.8853327631950378
1779909805118056200,14.29905615234375,-1.416287899017334,0.19449710845947266,1.8601558208465576
1779909805134393600,14.3153935546875,-1.1904430389404297,0.12842464447021484,2.1140170097351074
1779909805150728000,14.33172802734375,-2.8316845893859863,-0.0403900146484375,1.9010423421859741
1779909805167062000,14.34806201171875,-3.099879264831543,-0.34081077575683594,2.3330819606781006
1779909805183395800,14.364395751953126,-2.8484745025634766,-1.068857192993164,3.539886236190796
1779909805199726300,14.380726318359375,-2.6043148040771484,-1.5668907165527344,4.332615375518799
1779909805216069400,14.3970693359375,-2.5011672973632812,-1.0533857345581055,5.182766914367676
1779909805232391400,14.413391357421874,-3.6585683822631836,-1.022146224975586,5.416636943817139
1779909805248739300,14.4297392578125,-4.024803638458252,-2.0842628479003906,4.718810081481934
1779909805265063400,14.4460634765625,-3.164327621459961,-2.8435916900634766,3.681206703186035
1779909805281394400,14.46239453125,-2.918666124343872,-3.3068408966064453,3.8507726192474365
1779909805297731000,14.47873095703125,-2.5892558097839355,-2.6512632369995117,2.4004337787628174
1779909805314062800,14.495062744140625,-1.663400411605835,-4.646100997924805,2.205005407333374
1779909805330388200,14.51138818359375,-0.27259528636932373,-3.2337751388549805,2.361806631088257
1779909805346729700,14.527729736328125,-0.9025003910064697,-1.7295446395874023,2.2447690963745117
1779909805363063300,14.544063232421875,-2.430244207382202,-1.9973526000976562,1.0408262014389038
1779909805379397400,14.5603974609375,-2.5119447708129883,-2.9456987380981445,-1.6354044675827026
1779909805395730000,14.57672998046875,-2.1448147296905518,-4.207879066467285,-3.5146963596343994
1779909805412063000,14.59306298828125,0.7648256421089172,-5.234485626220703,-4.346282482147217
1779909805428394800,14.609394775390625,3.3032922744750977,-4.997123718261719,-4.650093078613281
1779909805444732400,14.625732421875,2.9538862705230713,-3.573025703430176,-4.427133083343506
1779909805461062000,14.642061767578125,1.8718681335449219,-2.4737472534179688,-3.953794479370117
1779909805477396200,14.658396240234374,0.3742814064025879,-1.6411170959472656,-2.683013439178467
1779909805493747200,14.674747314453125,-0.08645391464233398,-0.14139747619628906,0.0071382224559783936
1779909805510076000,14.691075927734374,0.3279867172241211,0.42563533782958984,2.0170745849609375
1779909805526392800,14.707392822265625,2.9328129291534424,-0.3580646514892578,2.9548721313476562
1779909805542743300,14.723743408203125,3.587092399597168,-0.3557138442993164,2.187182664871216
1779909805559061500,14.7400615234375,2.7453765869140625,0.6872653961181641,0.7415910363197327
1779909805575398000,14.75639794921875,2.889125347137451,1.6789193153381348,0.2960068881511688
1779909805591731200,14.772731201171876,3.0969109535217285,2.8744864463806152,-0.3819691240787506
1779909805608063700,14.789063720703124,4.522500038146973,4.176812648773193,-0.5412908792495728
1779909805624397000,14.80539697265625,5.44597053527832,5.109218120574951,-0.6068179607391357
1779909805640729300,14.821729248046875,5.216791152954102,5.466695308685303,-0.5649641752243042
1779909805657065200,14.838065185546874,5.251884937286377,5.934050559997559,-0.7907971143722534
1779909805673394400,14.85439453125,4.328238010406494,6.711250305175781,-1.6744637489318848
1779909805689734700,14.870734619140626,2.270583152770996,7.346437454223633,-2.3244879245758057
1779909805706068500,14.887068359375,1.7079777717590332,7.162667274475098,-1.913354754447937
1779909805722397700,14.903397705078126,0.3351290225982666,5.548163890838623,-1.151833415031433
1779909805738741200,14.9197412109375,-3.1426663398742676,0.2064533233642578,-0.1051848828792572
1779909805755082200,14.936082275390625,-7.981962203979492,-9.781631469726562,-0.14965856075286865
1779909805771395300,14.952395263671875,-15.088044166564941,-22.082870483398438,0.28481608629226685
1779909805787731500,14.9687314453125,-7.214468002319336,-10.506081581115723,-1.5697555541992188
1779909805804064300,14.985064208984374,-6.250169277191162,2.0151162147521973,-1.9823843240737915
1779909805820389600,15.0013896484375,-2.058434009552002,8.826225280761719,-1.319216251373291
1779909805836731600,15.017731689453125,2.2553906440734863,8.911516189575195,-1.9707682132720947
1779909805853059300,15.034059326171874,1.9191120862960815,2.9878320693969727,-0.44682884216308594
1779909805869421000,15.050421142578125,8.721527099609375,-2.146866798400879,0.6669322848320007
1779909805885721300,15.066721435546874,15.298074722290039,-10.79428768157959,-1.1178436279296875
1779909805902066700,15.083066650390625,-3.17033052444458,-18.426334381103516,-4.375929355621338
1779909805918396400,15.099396484375,-3.6140265464782715,-4.530403137207031,-5.261582374572754
1779909805934729700,15.115729736328126,5.269225597381592,3.1543240547180176,-2.3896915912628174
1779909805951067000,15.13206689453125,6.0808234214782715,5.941009521484375,0.8946585655212402
1779909805967398400,15.1483984375,6.91910457611084,6.631082534790039,1.9157450199127197
1779909805983743500,15.164743408203124,7.372318267822266,5.567525863647461,1.2264413833618164
1779909806000079000,15.1810791015625,6.1567463874816895,-0.8957843780517578,-0.31003889441490173
1779909806016409600,15.19740966796875,6.776810646057129,-8.584856033325195,-0.025710582733154297
1779909806032734500,15.213734375,-3.677001476287842,-8.34388256072998,2.674105405807495
1779909806049064200,15.230064208984375,-4.824384689331055,-0.9040966033935547,2.421353340148926
1779909806065399300,15.2463994140625,1.3602126836776733,3.5873923301696777,0.6746809482574463
1779909806081732600,15.262732666015625,4.652613162994385,3.340984344482422,-0.9694002270698547
1779909806098061000,15.27906103515625,2.3735110759735107,2.145267963409424,-1.5646679401397705
1779909806114402800,15.29540283203125,1.6558820009231567,2.1361241340637207,-1.5872726440429688
1779909806130731300,15.311731201171876,-0.423633873462677,2.391188144683838,-0.9378275275230408
1779909806147065300,15.3280654296875,-0.9750591516494751,2.720212936401367,-0.5817245244979858
1779909806163400000,15.34439990234375,-1.119222640991211,2.3448686599731445,-0.21489141881465912
1779909806179730400,15.36073046875,-3.210160255432129,1.5751934051513672,-0.21873295307159424
1779909806196053000,15.377052978515625,-4.294567108154297,0.5588550567626953,-0.258372962474823
1779909806212387000,15.393386962890625,-3.349978446960449,0.20631027221679688,0.5141000151634216
1779909806228720400,15.409720458984374,-1.4777545928955078,-0.035063743591308594,1.6914312839508057
1779909806245057800,15.426057861328125,-0.7896099090576172,-0.2310924530029297,2.4934918880462646
1779909806261395200,15.442395263671875,-1.6839216947555542,-0.3651456832885742,2.3798797130584717
1779909806277736700,15.45873681640625,-2.782923460006714,-1.0537548065185547,1.980879306793213
1779909806294066200,15.475066162109375,-2.484941005706787,-1.9000272750854492,1.8798437118530273
1779909806310398500,15.4913984375,-1.6149729490280151,-2.057100296020508,3.291170120239258
1779909806326733000,15.507733154296876,-1.7346724271774292,-1.572737693786621,4.93706750869751
1779909806343067100,15.524067138671874,-3.859894275665283,-2.0982437133789062,6.024934768676758
1779909806359400000,15.54039990234375,-3.9590368270874023,-2.9587020874023438,6.086955547332764
1779909806375733800,15.556733642578125,-2.419217824935913,-2.0768089294433594,4.466099739074707
1779909806392066800,15.57306689453125,-2.7162506580352783,-1.467391014099121,3.069185733795166
1779909806408384000,15.589384033203125,-2.7049386501312256,-3.119565963745117,2.603091239929199
1779909806424736800,15.60573681640625,-1.4799541234970093,-3.8808021545410156,3.6675870418548584
1779909806441066500,15.62206640625,-0.8998677134513855,-2.698330879211426,3.4257378578186035
1779909806457400300,15.638400390625,-1.3313977718353271,-1.289870262145996,1.2137483358383179
1779909806473751000,15.6547509765625,-1.670757532119751,-1.1302995681762695,-1.1589574813842773
1779909806490079700,15.671079833984376,-2.2840044498443604,-3.0471811294555664,-4.093338489532471
1779909806506414600,15.68741455078125,-1.239959478378296,-5.254836082458496,-5.623160362243652
1779909806522734300,15.703734375,2.172534942626953,-5.948692321777344,-6.137961387634277
1779909806539074600,15.720074462890626,3.5257034301757812,-4.351835250854492,-5.516727924346924
1779909806555385300,15.73638525390625,2.488718032836914,-2.626654624938965,-4.6320929527282715
1779909806571721500,15.752721435546874,1.6917515993118286,-1.863591194152832,-3.811547040939331
1779909806588056300,15.769056396484375,0.2763240337371826,-0.7850456237792969,-2.040668487548828
1779909806604387800,15.785387939453125,-1.8880786895751953,1.5533504486083984,-0.04960659146308899
1779909806620721700,15.8017216796875,-1.6837129592895508,1.0925207138061523,1.8691413402557373
1779909806637054200,15.81805419921875,1.6506084203720093,0.8834056854248047,1.9782068729400635
1779909806653388800,15.834388916015625,2.5826666355133057,0.3524923324584961,2.408862829208374
1779909806669722600,15.85072265625,3.3432557582855225,-0.11880111694335938,2.0287628173828125
1779909806686055200,15.86705517578125,2.0537827014923096,0.8490943908691406,0.8630527257919312
1779909806702388500,15.883388427734374,2.166597604751587,2.073831558227539,-0.13705025613307953
1779909806718726100,15.89972607421875,4.116044998168945,3.728193759918213,-0.8038908243179321
1779909806735055600,15.9160556640625,4.9058146476745605,5.49036979675293,-1.5904688835144043
1779909806751389200,15.93238916015625,4.83879280090332,6.444966793060303,-2.0745949745178223
1779909806767722000,15.948721923828124,4.755791187286377,6.375148296356201,-1.9609248638153076
1779909806784057600,15.9650576171875,4.137970447540283,5.980833053588867,-1.8487414121627808
1779909806800400000,15.98139990234375,3.3391144275665283,6.076244354248047,-1.9319027662277222
1779909806816721700,15.9977216796875,2.3157505989074707,5.895987033843994,-1.600610613822937
1779909806833068300,16.014068359375,1.2465887069702148,4.994876384735107,-1.3891661167144775
1779909806849401600,16.030401611328124,-1.104320764541626,2.7719898223876953,-1.3300762176513672
1779909806865735400,16.0467353515625,-5.679253578186035,-2.6439123153686523,-1.224839448928833
1779909806882063600,16.063063720703123,-9.250807762145996,-12.490378379821777,-0.3057383596897125
1779909806898398700,16.079398681640626,-10.572479248046875,-16.941509246826172,2.1188747882843018
1779909806914722600,16.09572265625,-8.178548812866211,-7.191462516784668,0.7714070081710815
1779909806931058700,16.11205859375,-7.3333635330200195,2.773477077484131,-1.0076000690460205
1779909806947402000,16.128402099609374,-2.004743814468384,6.604536056518555,-2.402332067489624
1779909806963733800,16.144733642578124,-0.0832357406616211,1.6940550804138184,-2.8291540145874023
1779909806980059600,16.1610595703125,4.768411159515381,-5.4284210205078125,0.20449887216091156
1779909806996401700,16.177401611328126,12.80670166015625,-12.031683921813965,0.3327782154083252
1779909807012742100,16.1937421875,5.8110761642456055,-10.19337272644043,-3.6436262130737305
1779909807029087200,16.210087158203127,-1.1365318298339844,1.929910659790039,-5.227323055267334
1779909807045415700,16.226415771484376,-2.8945517539978027,4.8717570304870605,-4.201935291290283
1779909807061750300,16.242750244140623,-0.5956242084503174,7.407683849334717,-3.8421437740325928
1779909807078079000,16.259078857421876,7.968286514282227,6.692030906677246,-2.2146456241607666
1779909807094403000,16.275403076171877,12.025650978088379,4.570619583129883,-0.3421129584312439
1779909807110734000,16.291734130859375,8.684234619140625,1.9659433364868164,-0.46267417073249817
1779909807127068700,16.308068603515625,6.072594165802002,-2.1884212493896484,-0.8878660202026367
1779909807143403500,16.324403564453124,0.8662214279174805,-9.325716972351074,-2.1294431686401367
1779909807159735600,16.340735595703126,-7.0784687995910645,-8.909162521362305,3.745651960372925
1779909807176071400,16.357071533203126,-1.741592288017273,-1.6004676818847656,4.871142387390137
1779909807192404000,16.373404052734376,2.5749764442443848,2.5082783699035645,3.5783774852752686
1779909807208746200,16.389746337890625,2.8704001903533936,2.9437031745910645,1.8937127590179443
1779909807225087200,16.406087158203125,0.9378427267074585,2.751089096069336,0.4629565179347992
1779909807241415000,16.422414794921874,-0.48564255237579346,2.4186625480651855,-1.2584128379821777
1779909807257749000,16.4387490234375,0.4004155397415161,1.7419710159301758,-2.229999542236328
1779909807274069800,16.45506982421875,0.3791745603084564,1.563741683959961,-1.695489525794983
1779909807290398000,16.47139794921875,-0.7946034669876099,1.3949518203735352,-0.7228630185127258
1779909807306736400,16.487736328125,-1.878058671951294,1.5475025177001953,-0.35072773694992065
1779909807323069700,16.504069580078124,-3.9974746704101562,1.353959083557129,-0.5198562145233154
1779909807339403300,16.5204033203125,-3.824887752532959,0.7104778289794922,-0.02857750654220581
1779909807355731500,16.5367314453125,-2.5345191955566406,-0.1427755355834961,1.322512149810791
1779909807372075000,16.553074951171876,-0.9305155277252197,-0.7420673370361328,2.349172830581665
1779909807388399900,16.56939990234375,-1.3312690258026123,-0.12145709991455078,2.3599579334259033
1779909807404739800,16.58573974609375,-2.9896836280822754,0.35625267028808594,1.7659502029418945
1779909807421068800,16.60206884765625,-3.0386576652526855,-0.5653419494628906,1.9254117012023926
1779909807437403100,16.618403076171877,-1.6723034381866455,-1.4700918197631836,3.0160486698150635
1779909807453740000,16.634739990234376,-1.5347837209701538,-0.8737421035766602,4.932320594787598
1779909807470083000,16.6510830078125,-3.287156581878662,-0.7646827697753906,6.4148993492126465
1779909807486417400,16.66741748046875,-3.8118386268615723,-2.174419403076172,6.37302303314209
1779909807502734600,16.683734619140626,-2.694472312927246,-3.068075180053711,5.274236679077148
1779909807519054800,16.700054931640626,-2.3087551593780518,-3.03853702545166,4.542186260223389
1779909807535413800,16.716413818359374,-3.0824952125549316,-3.4342966079711914,4.162137031555176
1779909807551746800,16.732746826171876,-1.852938175201416,-4.537078857421875,3.446345806121826
1779909807568084000,16.749083984375,-1.6350075006484985,-4.426259994506836,2.6228654384613037
1779909807584400600,16.765400634765626,-1.8368556499481201,-2.7925548553466797,-0.44711530208587646
1779909807600736800,16.78173681640625,-3.103499412536621,-2.4370241165161133,-2.6837193965911865
1779909807617049600,16.798049560546875,-3.173236846923828,-4.361677169799805,-5.001516819000244
1779909807633404400,16.814404296875,2.598275899887085,-5.173772811889648,-5.615217208862305
1779909807649723400,16.830723388671874,4.430667877197266,-4.070549011230469,-4.804325103759766
1779909807666073900,16.847073974609376,2.6740469932556152,-2.845454216003418,-4.262043476104736
1779909807682401000,16.863401123046874,0.295452356338501,-2.4243955612182617,-3.6323018074035645
1779909807698736600,16.879736572265625,-0.5671936273574829,-1.806839942932129,-2.4858670234680176
1779909807715072300,16.896072265625,-0.22525882720947266,-0.783900260925293,-0.8192165493965149
1779909807731404300,16.912404296875,-0.23144102096557617,0.008664131164550781,0.9601365923881531
1779909807747737300,16.9287373046875,1.1068828105926514,0.4746084213256836,1.7945976257324219
1779909807764059600,16.9450595703125,2.4802370071411133,0.8848495483398438,1.313187599182129
1779909807780401000,16.96140087890625,2.7115964889526367,1.097386360168457,0.8120300769805908
1779909807796725500,16.9777255859375,3.280181407928467,1.2858161926269531,0.12745238840579987
1779909807813069000,16.994069091796874,4.042708873748779,2.2620339393615723,-0.45942267775535583
1779909807829404000,17.01040380859375,4.181041240692139,3.6305127143859863,-0.5052406191825867
1779909807845740300,17.026740234375,3.88954758644104,4.644806385040283,-0.6766578555107117
1779909807862067200,17.043067138671876,4.025643825531006,5.222219467163086,-0.7766112685203552
1779909807878402000,17.059402099609375,4.6817307472229,5.717308044433594,-0.7991054058074951
1779909807894739500,17.075739501953127,4.004377841949463,6.050939083099365,-0.78129643201828
1779909807911072300,17.092072265625,3.467534303665161,6.139413833618164,-0.9907025694847107
1779909807927402000,17.108402099609375,2.922173023223877,6.327736854553223,-1.3614113330841064
1779909807943737900,17.12473779296875,1.632033348083496,5.984195709228516,-1.3000322580337524
1779909807960075300,17.1410751953125,0.8233966827392578,4.743796348571777,-1.0277348756790161
1779909807976410000,17.15741015625,-2.039520263671875,1.615429401397705,-0.5499179363250732
1779909807992737800,17.17373779296875,-7.399141311645508,-5.166879653930664,-0.35920804738998413
1779909808009068500,17.190068603515623,-10.46517276763916,-17.158475875854492,0.40634483098983765
1779909808025408300,17.206408203125,-11.17898941040039,-15.013096809387207,0.06926387548446655
1779909808041738000,17.222738037109377,-6.5867204666137695,-1.072361946105957,-0.7960349917411804
1779909808058089500,17.23908935546875,-5.02018404006958,4.497076034545898,-0.6504244208335876
1779909808074398500,17.2553984375,0.6939177513122559,7.278122901916504,-1.938498854637146
1779909808090740000,17.271739990234376,0.22931718826293945,3.439854621887207,-2.556049108505249
1779909808107072000,17.288072021484375,2.096740484237671,-0.5832080841064453,0.16197575628757477
1779909808123405800,17.30440576171875,12.217392921447754,-8.536764144897461,0.5385128855705261
1779909808139737600,17.320737548828124,8.1284761428833,-16.250328063964844,-2.400996208190918
1779909808156074500,17.337074462890627,-7.976566314697266,-9.58752727508545,-5.001876354217529
1779909808172412200,17.353412109375,-2.6745948791503906,1.3753938674926758,-5.831338405609131
1779909808188748300,17.369748291015625,1.1428695917129517,6.863124847412109,-4.526637554168701
1779909808205081900,17.386081787109376,6.036197662353516,7.441937446594238,-2.5495405197143555
1779909808221403100,17.402403076171876,12.02817440032959,6.297194004058838,-1.0735994577407837
1779909808237751800,17.418751708984374,9.748729705810547,4.872988224029541,-0.05118899047374725
1779909808254089000,17.4350888671875,7.6426215171813965,1.5497760772705078,-1.0612438917160034
1779909808270458000,17.4514580078125,4.463116645812988,-5.229056358337402,-3.303865432739258
1779909808286735400,17.4677353515625,-1.1493617296218872,-9.839442253112793,-1.2885913848876953
1779909808303071000,17.484071044921876,-5.88306188583374,-4.855605125427246,4.220530986785889
1779909808319405300,17.5004052734375,1.917342185974121,0.5644598007202148,4.236011981964111
1779909808335738400,17.51673828125,5.6220808029174805,2.1496076583862305,3.481837034225464
1779909808352072400,17.533072509765624,3.2764651775360107,2.269608497619629,2.1279239654541016
1779909808368400600,17.549400634765625,1.0515351295471191,3.3173656463623047,0.8823851346969604
1779909808384743200,17.5657431640625,-2.1644959449768066,2.088904857635498,-1.3879802227020264
1779909808401072600,17.58207275390625,-0.7444053888320923,0.9794788360595703,-2.129746675491333
1779909808417405200,17.5984052734375,-1.2316396236419678,0.663299560546875,-1.119887351989746
1779909808433724000,17.614723876953125,-1.9615525007247925,0.8089618682861328,0.43591371178627014
1779909808450063000,17.63106298828125,-2.5155696868896484,0.7750921249389648,1.4294779300689697
1779909808466394600,17.64739453125,-2.718907594680786,0.7746734619140625,1.900038719177246
1779909808482726400,17.663726318359377,-2.230257987976074,0.44022083282470703,2.121703624725342
1779909808499061800,17.680061767578124,-2.129669666290283,0.4835844039916992,2.1374592781066895
1779909808515392800,17.696392822265626,-2.758697271347046,0.4196643829345703,2.064800977706909
1779909808531727000,17.71272705078125,-2.9144110679626465,0.6354188919067383,2.0115511417388916
1779909808548054800,17.7290546875,-2.741184711456299,0.06415939331054688,2.698223114013672
1779909808564395300,17.745395263671874,-2.0433602333068848,-1.512263298034668,3.6335201263427734
1779909808580726000,17.76172607421875,-1.5858029127120972,-1.2284278869628906,3.971928596496582
1779909808597060000,17.77806005859375,-2.828770637512207,-0.43500328063964844,4.141170501708984
1779909808613393200,17.79439306640625,-3.7560629844665527,-0.8073806762695312,3.77654767036438
1779909808629741600,17.810741455078126,-3.0674190521240234,-1.3123102188110352,3.3210208415985107
1779909808646075100,17.8270751953125,-3.0334222316741943,-1.7450122833251953,3.5330002307891846
1779909808662403800,17.84340380859375,-4.1595659255981445,-2.6279239654541016,4.01094388961792
1779909808678739000,17.859739013671874,-3.818897247314453,-3.114964485168457,3.669238328933716
1779909808695072500,17.876072509765624,-2.48268985748291,-3.5287609100341797,3.1167051792144775
1779909808711380500,17.89238037109375,-1.630505084991455,-3.5542755126953125,2.8168704509735107
1779909808727759400,17.90875927734375,-1.788123607635498,-2.4730710983276367,2.125502586364746
1779909808744069600,17.925069580078127,-2.061023712158203,-2.368372917175293,0.5075232982635498
1779909808760457500,17.94145751953125,-2.551370859146118,-3.2704029083251953,-2.656468629837036
1779909808776736300,17.957736328125,0.0826655775308609,-4.554762840270996,-4.481171607971191
1779909808793069800,17.97406982421875,2.6685452461242676,-5.067983627319336,-4.882575511932373
1779909808809406000,17.990406005859374,3.0123484134674072,-3.878355026245117,-4.044890880584717
1779909808825739300,18.0067392578125,2.6359570026397705,-3.0795068740844727,-2.9802918434143066
1779909808842058200,18.023058349609375,1.6884191036224365,-3.20797061920166,-1.4726142883300781
1779909808858406000,18.039406005859377,-0.7978436946868896,-1.8183269500732422,0.31928524374961853
1779909808874724900,18.055724853515624,-1.1124906539916992,-0.20335865020751953,2.7169764041900635
1779909808891073000,18.072072998046874,0.7491223812103271,0.37861061096191406,3.55753231048584
1779909808907404000,18.088404052734376,2.5468764305114746,0.7285690307617188,2.1420795917510986
1779909808923740400,18.104740478515627,2.0962765216827393,1.1072311401367188,0.9474133253097534
1779909808940080400,18.121080322265627,1.8529249429702759,1.3622140884399414,0.17757558822631836
1779909808956413400,18.137413330078125,2.9646666049957275,1.7900819778442383,-0.3847549557685852
1779909808972733200,18.153733154296877,4.193782806396484,2.956198215484619,-0.6248440742492676
1779909808989090300,18.17009033203125,4.935389518737793,4.127706050872803,-0.4346974492073059
1779909809005426700,18.1864267578125,5.497395992279053,4.9801836013793945,-0.24047508835792542
1779909809021748200,18.202748291015624,5.432687759399414,5.333990097045898,-0.007751524448394775
1779909809038087700,18.219087646484375,4.972090244293213,5.699491500854492,-0.5163345336914062
1779909809054403300,18.2354033203125,4.2535400390625,5.780921459197998,-1.2131259441375732
1779909809070735000,18.251735107421876,2.8787026405334473,6.197439670562744,-1.8154041767120361
1779909809087076900,18.268076904296876,1.911839485168457,6.088616371154785,-1.7643518447875977
1779909809103407600,18.28440771484375,0.37273144721984863,5.168828010559082,-1.1365022659301758
1779909809119739600,18.30073974609375,-2.804248809814453,1.677459716796875,-0.6548094749450684
1779909809136073200,18.3170732421875,-7.256047248840332,-7.130523681640625,-0.035420238971710205
1779909809152410000,18.33341015625,-8.54845905303955,-20.262134552001953,1.070216417312622
1779909809168749800,18.349749755859374,-9.439279556274414,-14.622337341308594,-0.5649020075798035
1779909809185089500,18.366089599609374,-4.879166603088379,-1.5958709716796875,-3.05930233001709
1779909809201421000,18.382421142578124,-6.4382452964782715,5.633638381958008,-3.9582395553588867
1779909809217720300,18.39872021484375,-0.2665369510650635,9.047511100769043,-2.658252239227295
1779909809234077000,18.415076904296875,0.9460961818695068,5.9730224609375,-1.3349533081054688
1779909809250405400,18.4314052734375,0.9267363548278809,2.125026226043701,1.4613699913024902
1779909809266739700,18.44773974609375,9.611306190490723,-3.7804603576660156,2.228592872619629
1779909809283074000,18.464073974609374,12.217109680175781,-12.61630630493164,-1.3554885387420654
1779909809299406300,18.48040625,-7.977717399597168,-17.06711196899414,-4.568944931030273
1779909809315740200,18.496740234375,-0.7801682949066162,-2.1177539825439453,-3.8325722217559814
1779909809332074000,18.513073974609377,4.614205360412598,4.166130065917969,-1.8003511428833008
1779909809348413400,18.529413330078125,6.170986175537109,5.681771278381348,0.7379087209701538
1779909809364742700,18.54574267578125,7.55387020111084,4.90204381942749,1.10330331325531
1779909809381074200,18.56207421875,7.604682922363281,4.541200160980225,0.7861373424530029
1779909809397407200,18.5784072265625,6.523947715759277,1.6556081771850586,-0.11846190690994263
1779909809413739800,18.59473974609375,5.06680965423584,-3.0939550399780273,-1.3331669569015503
1779909809430080000,18.611080078125,-4.452898025512695,-5.566281318664551,-0.09621119499206543
1779909809446412300,18.627412353515624,-3.878087043762207,-1.9852533340454102,1.6378874778747559
1779909809462737700,18.643737548828124,2.053121566772461,1.1611032485961914,1.7039215564727783
1779909809479091700,18.660091796875,4.710089206695557,2.3170032501220703,1.6926710605621338
1779909809495421200,18.676421142578125,2.992624282836914,2.4705042839050293,1.0229644775390625
1779909809511739600,18.69273974609375,0.7857954502105713,1.4715452194213867,-0.18996217846870422
1779909809528087000,18.709087158203126,-0.7859483957290649,1.1701889038085938,-0.8572984337806702
1779909809544403500,18.725403564453124,-1.5428673028945923,0.9154062271118164,-0.3810391128063202
1779909809560739000,18.741739013671875,-1.7707507610321045,1.5002498626708984,0.44351616501808167
1779909809577073700,18.75807373046875,-2.0271167755126953,1.6656970977783203,0.9712204933166504
1779909809593408000,18.774407958984376,-2.5590200424194336,0.91168212890625,1.1937583684921265
1779909809609740000,18.790739990234375,-2.2777769565582275,0.13861656188964844,1.2944828271865845
1779909809626075400,18.807075439453126,-2.083387851715088,-0.15287303924560547,1.941147804260254
1779909809642404600,18.823404541015623,-1.7840690612792969,-0.30649566650390625,2.784209728240967
1779909809658718200,18.83971826171875,-1.8815629482269287,0.014014244079589844,3.430943012237549
1779909809675091200,18.85609130859375,-2.409975051879883,0.2599830627441406,3.6748740673065186
1779909809691421000,18.8724208984375,-2.989309787750244,-0.41882991790771484,3.741837978363037
1779909809707721000,18.888720947265625,-2.400731325149536,-1.6182622909545898,3.6019673347473145
1779909809724061200,18.905061279296874,-1.5048335790634155,-1.3905649185180664,4.269702434539795
1779909809740394500,18.92139453125,-2.8050947189331055,-0.9054231643676758,4.9638447761535645
1779909809756743700,18.93774365234375,-3.9192042350769043,-1.653916358947754,5.003780364990234
1779909809773064400,18.954064453125,-3.3191161155700684,-2.134410858154297,4.126256465911865
1779909809789405700,18.97040576171875,-3.146688938140869,-2.54964542388916,3.871431827545166
1779909809805740800,18.98674072265625,-3.1457271575927734,-2.9000043869018555,3.6536920070648193
1779909809822074600,19.00307470703125,-2.6021223068237305,-2.927840232849121,2.3433284759521484
1779909809838404900,19.01940478515625,-2.1699066162109375,-3.9841346740722656,2.6533966064453125
1779909809854743000,19.035742919921876,-1.3693064451217651,-3.0860280990600586,2.8497395515441895
1779909809871061200,19.052061279296876,-0.6293586492538452,-1.9576225280761719,2.1748123168945312
1779909809887407600,19.06840771484375,-1.0145057439804077,-1.0743608474731445,0.8320291638374329
1779909809903752200,19.084752197265626,-2.0190582275390625,-1.6835803985595703,-2.2896809577941895
1779909809920081000,19.101080810546875,-0.31768524646759033,-3.490610122680664,-4.02487850189209
1779909809936424400,19.117424560546876,2.217641830444336,-4.947768211364746,-4.6848649978637695
1779909809952738000,19.133738037109374,2.5952603816986084,-4.092315673828125,-4.309406280517578
1779909809969086500,19.15008642578125,1.7845215797424316,-2.586841583251953,-3.523422956466675
1779909809985423600,19.166423583984376,1.6512682437896729,-1.642364501953125,-2.6461100578308105
1779909810001753000,19.182753173828125,-0.06720232963562012,-0.7652702331542969,0.11469478905200958
1779909810018088200,19.199088134765624,0.06335043907165527,-0.1138906478881836,2.352417469024658
1779909810034404900,19.21540478515625,0.9546623229980469,-0.21323108673095703,3.6837158203125
1779909810050739200,19.2317392578125,2.970468282699585,-0.1946430206298828,2.3140499591827393
1779909810067071200,19.2480712890625,2.4343297481536865,0.19721412658691406,0.9654040336608887
1779909810083409000,19.264408935546875,2.2821226119995117,0.7171039581298828,0.029632925987243652
1779909810099727600,19.2807275390625,2.431912422180176,1.841893196105957,-0.38626086711883545
1779909810116054000,19.297053955078123,4.05794620513916,3.2398509979248047,-0.39445987343788147
1779909810132394500,19.31339453125,4.115578651428223,3.718046188354492,-0.07331961393356323
1779909810148728800,19.329728759765626,5.432605743408203,4.550843238830566,-0.008995532989501953
1779909810165061600,19.3460615234375,4.479564189910889,4.929393768310547,0.2564925253391266
1779909810181395000,19.36239501953125,5.030784606933594,4.798134803771973,-0.11505204439163208
1779909810197728300,19.378728271484373,3.8862452507019043,5.206541061401367,-0.8268373608589172
1779909810214061800,19.395061767578124,2.60148286819458,6.373895645141602,-1.555220603942871
1779909810230396000,19.41139599609375,1.2153937816619873,6.403882026672363,-1.6864732503890991
1779909810246729200,19.427729248046877,-0.23786616325378418,5.559353828430176,-1.3431010246276855
1779909810263061500,19.4440615234375,-2.745002031326294,2.648893356323242,-0.7603679299354553
1779909810279395000,19.46039501953125,-6.333545207977295,-3.7432260513305664,0.2990145981311798
1779909810295730200,19.476730224609376,-8.20115852355957,-17.02627182006836,0.9720563888549805
1779909810312062200,19.493062255859375,-8.537691116333008,-17.015811920166016,-1.4818837642669678
1779909810328395500,19.5093955078125,-5.1718549728393555,-3.1375246047973633,-2.1391613483428955
1779909810344730000,19.525730224609376,-6.583199501037598,4.301539421081543,-2.103022575378418
1779909810361060600,19.542060546875,-2.3524012565612793,7.8928728103637695,-1.6896547079086304
1779909810377395700,19.558395751953125,-0.6646184921264648,4.840779781341553,-1.2553377151489258
1779909810393728500,19.574728515625,1.0663294792175293,0.22029590606689453,1.5335633754730225
1779909810410081800,19.591081787109374,12.053946495056152,-6.584739685058594,2.3797547817230225
1779909810426404900,19.60740478515625,11.898530960083008,-14.472295761108398,-0.26929157972335815
1779909810442743800,19.623743896484374,-3.3890652656555176,-9.00294017791748,-4.221186637878418
1779909810459073000,19.640072998046875,-3.773665189743042,2.2823238372802734,-4.593337059020996
1779909810475397000,19.656397216796876,2.6444923877716064,5.690625190734863,-1.6869475841522217
1779909810491741200,19.6727412109375,7.733452320098877,5.845506191253662,0.8349106907844543
1779909810508074800,19.68907470703125,8.603142738342285,4.463617324829102,0.8466461300849915
1779909810524407600,19.705407470703125,7.73014497756958,3.0234880447387695,0.013908177614212036
1779909810540739300,19.7217392578125,5.7855448722839355,-1.966221809387207,-1.0423786640167236
1779909810557075200,19.7380751953125,2.917146682739258,-5.875038146972656,-1.2574447393417358
1779909810573408500,19.754408447265625,-8.009085655212402,-3.2493343353271484,1.6782009601593018
1779909810589741000,19.770740966796875,0.17664575576782227,0.6351003646850586,2.4810969829559326
1779909810606077200,19.7870771484375,4.981827735900879,2.72709321975708,2.5980892181396484
1779909810622405600,19.803405517578124,4.95330286026001,2.843520164489746,2.7919723987579346
1779909810638741000,19.819740966796875,3.182467460632324,2.1212077140808105,1.498925805091858
1779909810655091700,19.836091796875,-0.40486422181129456,1.2223072052001953,-0.5055311918258667
1779909810671419600,19.852419677734375,-2.957812786102295,0.7792854309082031,-1.2901942729949951
1779909810687755000,19.868755126953126,-3.1058027744293213,1.0704765319824219,-1.3646974563598633
1779909810704084700,19.885084716796875,-2.459237575531006,1.4453487396240234,-0.8648958206176758
1779909810720410400,19.901410400390624,-2.8353042602539062,0.9532632827758789,0.04576137661933899
1779909810736754000,19.91775390625,-2.282191753387451,-0.032257080078125,0.9520049095153809
1779909810753072400,19.934072265625,-1.6599568128585815,-0.6416072845458984,1.9493900537490845
1779909810769407500,19.950407470703126,-1.77274751663208,-0.755711555480957,2.682553768157959
1779909810785741300,19.9667412109375,-2.4131178855895996,-0.17281818389892578,2.6917755603790283
1779909810802075100,19.9830751953125,-2.6118383407592773,0.24476146697998047,2.3666858673095703
1779909810818398700,19.999398681640624,-2.5827717781066895,-0.25027942657470703,2.676327705383301
1779909810834742500,20.015742431640625,-1.8617298603057861,-1.2331886291503906,3.420736789703369
1779909810851089000,20.0320888671875,-1.0485236644744873,-0.8347291946411133,4.436662673950195
1779909810867407600,20.04840771484375,-2.4647934436798096,-0.13840675354003906,5.468405723571777
1779909810883741000,20.064740966796876,-3.7767105102539062,-1.1757535934448242,5.415004253387451
1779909810900078800,20.081078857421875,-2.9250197410583496,-1.7603511810302734,4.075224876403809
1779909810916408000,20.097407958984373,-2.6750876903533936,-2.2235755920410156,3.7552804946899414
1779909810932741000,20.1137412109375,-2.6204519271850586,-3.141415596008301,3.775280475616455
1779909810949075000,20.130074951171874,-2.2753963470458984,-3.5481977462768555,3.392641305923462
1779909810965407700,20.14640771484375,-2.0914723873138428,-4.542313575744629,3.1715035438537598
1779909810981741000,20.162740966796875,-1.7742924690246582,-4.445223808288574,3.1479759216308594
1779909810998092000,20.179092041015625,-1.595977783203125,-2.188836097717285,1.7028261423110962
1779909811014404600,20.195404541015623,-2.238611936569214,-0.7597494125366211,-0.716887891292572
1779909811030739500,20.211739501953126,-2.850093126296997,-2.1187429428100586,-3.5005366802215576
1779909811047071700,20.22807177734375,0.29648205637931824,-3.631049156188965,-4.869946002960205
1779909811063411700,20.24441162109375,3.140986442565918,-4.490528106689453,-5.249098777770996
1779909811079741400,20.260741455078126,2.839914083480835,-3.77506160736084,-4.5870137214660645
1779909811096076800,20.277076904296877,1.682731032371521,-2.450082778930664,-3.4740326404571533
1779909811112401700,20.293401611328125,0.8923162221908569,-1.9847192764282227,-1.5998984575271606
1779909811128730000,20.309730224609375,-0.37041544914245605,-1.20159912109375,0.8881423473358154
1779909811145075700,20.32607568359375,-1.5746965408325195,-0.4678077697753906,3.2439541816711426
1779909811161394700,20.342394775390623,1.433270812034607,-0.8126745223999023,5.050903797149658
1779909811177741000,20.358740966796876,3.792079448699951,-0.22634220123291016,2.7393832206726074
1779909811194051600,20.375051513671874,2.502100944519043,0.8406600952148438,0.8412493467330933
1779909811210410000,20.391409912109374,2.0506839752197266,1.4844989776611328,-0.1879207342863083
1779909811226758100,20.407758056640624,2.371367931365967,2.25355863571167,-0.7890030145645142
1779909811243096000,20.424095947265624,4.107658386230469,3.2078018188476562,-1.1969883441925049
1779909811259415300,20.440415283203127,4.232467174530029,3.863403797149658,-1.1675556898117065
1779909811275753700,20.456753662109374,4.403761863708496,4.5513153076171875,-0.6135708093643188
1779909811292089000,20.473089111328125,5.095730304718018,5.023628234863281,0.1422169804573059
1779909811308414500,20.48941455078125,4.86725378036499,5.288973808288574,0.19128037989139557
1779909811324744400,20.505744384765624,4.213809967041016,5.549888610839844,-0.33725762367248535
1779909811341073200,20.5220732421875,3.3393006324768066,6.097596168518066,-1.0305498838424683
1779909811357408000,20.538407958984376,2.115751266479492,6.343776702880859,-1.4247504472732544
1779909811373727700,20.554727783203123,0.6196954250335693,5.980146408081055,-1.2901628017425537
1779909811390073900,20.571073974609376,-2.219494581222534,3.6713767051696777,-1.2673413753509521
1779909811406412000,20.587412109375,-7.774419784545898,-3.362912178039551,-0.9292637705802917
1779909811422741800,20.60374169921875,-8.504371643066406,-18.024917602539062,0.4490942656993866
1779909811439072300,20.620072265625,-9.141101837158203,-19.773317337036133,-1.2805156707763672
1779909811455402500,20.636402587890625,-4.9332475662231445,-4.4682111740112305,-3.331035852432251
1779909811471743700,20.65274365234375,-7.177844047546387,4.83188533782959,-3.66567325592041
1779909811488088800,20.6690888671875,-2.057663679122925,8.470702171325684,-3.601433753967285
1779909811504413200,20.6854130859375,0.21021795272827148,4.750489711761475,-2.6530888080596924
1779909811520739300,20.7017392578125,2.865966558456421,-2.084620475769043,0.406995564699173
1779909811537074400,20.718074462890623,11.204687118530273,-8.484567642211914,2.683635711669922
1779909811553408300,20.734408203125,7.18989372253418,-14.818779945373535,-0.3013123571872711
