time,seconds_elapsed,z,y,x
1779909991797394400,0.11239453125,-1.2831392288208008,-1.6298233270645142,1.1569838523864746
1779909991813712400,0.12871240234375,-0.22092247009277344,0.035400390625,1.5940639972686768
1779909991830053600,0.1450537109375,-1.2277956008911133,-0.3150535821914673,2.162932872772217
1779909991846398500,0.1613984375,-0.8987026214599609,-1.4645904302597046,3.262974977493286
1779909991862728700,0.177728759765625,-0.8297719955444336,-0.8668683171272278,2.778522253036499
1779909991879062000,0.19406201171875,-1.2845449447631836,0.4065554141998291,0.693423867225647
1779909991895395300,0.210395263671875,-0.8727655410766602,2.487143039703369,-2.8516342639923096
1779909991911731000,0.22673095703125,-2.1107420921325684,1.7893791198730469,-1.5081030130386353
1779909991928057300,0.243057373046875,-2.1319408416748047,1.3553916215896606,0.2638358473777771
1779909991944407800,0.25940771484375,-3.2605018615722656,2.647019863128662,0.16152989864349365
1779909991960724500,0.275724365234375,-5.083160400390625,2.3857061862945557,-0.8135396838188171
1779909991977073400,0.292073486328125,-7.6905670166015625,0.14816713333129883,0.203760027885437
1779909991993406200,0.30840625,-8.21433162689209,-0.5813348293304443,0.6984069347381592
1779909992009735700,0.324735595703125,-9.32420825958252,-1.0231152772903442,0.9126749038696289
1779909992026063400,0.3410634765625,-8.83347225189209,-2.641573667526245,0.19746923446655273
1779909992042382800,0.3573828125,-6.3350443840026855,-4.128362655639648,-1.0132102966308594
1779909992058727000,0.373726806640625,-7.6854753494262695,-4.3539228439331055,-1.2048003673553467
1779909992075056600,0.390056640625,-7.453078269958496,-5.856159210205078,-1.0916485786437988
1779909992091391000,0.406390869140625,-7.496648788452148,-6.217994689941406,-1.4741435050964355
1779909992107709400,0.42270947265625,-7.993459224700928,-6.168571472167969,-0.46707630157470703
1779909992124037000,0.439037109375,-2.617248773574829,-3.467867851257324,1.5276203155517578
1779909992140387300,0.45538720703125,3.1644105911254883,-2.3829996585845947,3.261404037475586
1779909992156721700,0.4717216796875,4.917697906494141,-4.168646335601807,5.907054901123047
1779909992173055200,0.48805517578125,6.03452730178833,0.9153552651405334,7.7603912353515625
1779909992189405700,0.50440576171875,5.948766708374023,3.8966503143310547,6.68624210357666
1779909992205716000,0.520716064453125,3.8273706436157227,1.3683431148529053,5.644548416137695
1779909992222054000,0.537053955078125,1.2337415218353271,-0.12294626235961914,5.7358856201171875
1779909992238386200,0.55338623046875,0.33216214179992676,0.02573072910308838,6.732643127441406
1779909992254720000,0.569719970703125,0.9956731796264648,1.0783697366714478,7.717774391174316
1779909992271052000,0.586052001953125,2.585206985473633,1.98556649684906,9.356764793395996
1779909992287385900,0.6023857421875,4.124975681304932,1.917911410331726,11.969663619995117
1779909992303718400,0.618718505859375,3.682725667953491,4.368344783782959,12.342559814453125
1779909992320054300,0.63505419921875,5.731813907623291,8.020035743713379,11.973962783813477
1779909992336370700,0.65137060546875,4.577175617218018,5.483542442321777,10.480709075927734
1779909992352720600,0.667720703125,3.283071756362915,3.6513869762420654,7.616774559020996
1779909992369047600,0.684047607421875,1.3951650857925415,1.9664151668548584,5.3887176513671875
1779909992385383200,0.700383056640625,0.9831174612045288,-0.6144189834594727,2.5763425827026367
1779909992401716500,0.716716552734375,1.1746909618377686,-2.8784921169281006,0.6297416687011719
1779909992418054000,0.733053955078125,3.383465528488159,-3.324758768081665,1.8771438598632812
1779909992434375200,0.749375244140625,1.894660234451294,0.4171304702758789,2.022491455078125
1779909992450716200,0.765716064453125,2.009983539581299,1.4554126262664795,0.5435876846313477
1779909992467046700,0.782046630859375,1.459460973739624,0.9632349014282227,0.6368427276611328
1779909992483379500,0.79837939453125,0.8046383261680603,-0.7032327651977539,0.6935272216796875
1779909992499713000,0.814713134765625,1.7803194522857666,0.6934313774108887,-1.2649469375610352
1779909992516048100,0.831048095703125,-1.897550344467163,1.221555471420288,-1.1475162506103516
1779909992532377600,0.847377685546875,2.840394973754883,-1.170276165008545,1.4387950897216797
1779909992548713200,0.863713134765625,2.1290292739868164,0.4821300506591797,-0.15931034088134766
1779909992565045000,0.880044921875,-2.140169620513916,2.6277716159820557,-1.1489243507385254
1779909992581378300,0.89637841796875,-3.6884145736694336,1.8573849201202393,-0.9708375930786133
1779909992597698800,0.91269873046875,4.586246013641357,2.7746853828430176,-0.3296051025390625
1779909992614045000,0.929044921875,-3.7578630447387695,2.735323190689087,-2.1577539443969727
1779909992630375700,0.945375732421875,-1.3110840320587158,3.395124912261963,-2.6874046325683594
1779909992646710800,0.961710693359375,-1.5256824493408203,1.8578712940216064,-1.0893511772155762
1779909992663036700,0.97803662109375,0.9087929725646973,0.8075075149536133,-1.5811576843261719
1779909992679381000,0.994381103515625,1.9479174613952637,0.8811349868774414,-2.2882914543151855
1779909992695710700,1.010710693359375,0.9582266807556152,1.635838508605957,-2.324934482574463
1779909992712040700,1.027040771484375,-0.37435173988342285,3.382483720779419,-1.9082307815551758
1779909992728374000,1.0433740234375,-1.078876256942749,3.650357723236084,-1.643259048461914
1779909992744694800,1.05969482421875,-0.09358048439025879,1.0413355827331543,-2.194265365600586
1779909992761039600,1.07603955078125,-0.46233677864074707,0.6829004287719727,-1.9389209747314453
1779909992777370000,1.0923701171875,-0.5621516704559326,3.212938070297241,-0.2846064567565918
1779909992793707800,1.108707763671875,-1.3548073768615723,4.245118141174316,1.8477420806884766
1779909992810026000,1.12502587890625,-1.2393872737884521,3.084820508956909,2.099343776702881
1779909992826372400,1.141372314453125,-0.6034204959869385,1.3321051597595215,0.4405508041381836
1779909992842707500,1.15770751953125,-1.0019173622131348,1.6618247032165527,-1.6913552284240723
1779909992859037200,1.174037109375,-1.7187259197235107,1.5640678405761719,-1.2858052253723145
1779909992875372000,1.1903720703125,0.21942353248596191,0.9149026870727539,-0.6708641052246094
1779909992891708400,1.20670849609375,1.933269739151001,2.0548882484436035,0.8396673202514648
1779909992908034000,1.223033935546875,2.9081263542175293,3.2308850288391113,1.799147605895996
1779909992924384300,1.23938427734375,3.770686149597168,2.9781899452209473,3.308866500854492
1779909992940716000,1.255716064453125,3.3830201625823975,2.2778782844543457,5.328385829925537
1779909992957048300,1.27204833984375,1.4498291015625,-0.7818365097045898,3.560563087463379
1779909992973376300,1.288376220703125,-1.2886366844177246,-2.9147520065307617,-0.15592384338378906
1779909992989703200,1.304703125,-1.6866130828857422,-3.9307212829589844,-1.342611312866211
1779909993006048300,1.32104833984375,0.3766341209411621,-5.680001258850098,-0.8316748142242432
1779909993022365000,1.337364990234375,3.0845329761505127,-3.657846450805664,2.237166166305542
1779909993038687200,1.353687255859375,2.6145012378692627,-1.5399131774902344,6.5808000564575195
1779909993055026400,1.3700263671875,1.9227616786956787,-1.8307056427001953,6.121211051940918
1779909993071367700,1.38636767578125,0.01799166202545166,-1.1735725402832031,5.343038558959961
1779909993087686700,1.402686767578125,-0.8345499038696289,0.2784433364868164,5.691895484924316
1779909993104032500,1.419032470703125,-1.273332118988037,1.9454989433288574,7.543675422668457
1779909993120360000,1.43535986328125,-2.943267345428467,1.2178664207458496,7.406032085418701
1779909993136698600,1.45169873046875,-1.3675857782363892,0.47614192962646484,5.834932327270508
1779909993153031400,1.468031494140625,4.017953395843506,-2.7206993103027344,5.702437877655029
1779909993169364700,1.48436474609375,5.820427894592285,-4.340181350708008,5.149681091308594
1779909993185698300,1.5006982421875,2.332613229751587,-2.1896419525146484,2.771358013153076
1779909993202030600,1.517030517578125,-4.148500442504883,-3.13803768157959,-1.1918210983276367
1779909993218363100,1.533363037109375,-3.534663200378418,-2.9759597778320312,-4.439439296722412
1779909993234696200,1.5496962890625,-0.32090461254119873,-5.6398234367370605,-5.067245960235596
1779909993251028000,1.566028076171875,1.561211109161377,-4.5578436851501465,-6.580721855163574
1779909993267362600,1.582362548828125,0.2834993600845337,-1.3574447631835938,-7.250119686126709
1779909993283699000,1.598698974609375,-0.46614938974380493,1.3131885528564453,-6.147550582885742
1779909993300022500,1.6150224609375,-0.06306862831115723,0.8160028457641602,-6.264883995056152
1779909993316355800,1.63135595703125,0.11662709712982178,0.9718766212463379,-5.929142475128174
1779909993332699600,1.64769970703125,-1.2557828426361084,1.9022531509399414,-6.282702445983887
1779909993349026300,1.6640263671875,-0.30848389863967896,3.380767583847046,-6.134421348571777
1779909993365359900,1.68035986328125,-0.14659589529037476,3.797914743423462,-6.004385948181152
1779909993381709800,1.696709716796875,-1.518465280532837,5.05003547668457,-6.514052391052246
1779909993398006300,1.71300634765625,-2.293983221054077,6.174352169036865,-5.440163612365723
1779909993414370300,1.729370361328125,-2.5085606575012207,5.048479080200195,-2.5048441886901855
1779909993430690300,1.745690185546875,-1.9105165004730225,3.277456760406494,-0.25887250900268555
1779909993447038200,1.7620380859375,-0.854354202747345,0.9997653961181641,-0.03227806091308594
1779909993463372500,1.77837255859375,-0.1795537918806076,-0.5424933433532715,0.4723978042602539
1779909993479703600,1.79470361328125,0.712824821472168,-1.5147299766540527,2.2443432807922363
1779909993496037000,1.811037109375,-0.4083402752876282,-1.1721692085266113,2.2792110443115234
1779909993512370400,1.827370361328125,-2.305222272872925,-1.2264885902404785,1.4250307083129883
1779909993528685000,1.84368505859375,-1.0045979022979736,-2.7558674812316895,1.1874303817749023
1779909993545021700,1.860021728515625,1.7979211807250977,-4.828100681304932,2.6516261100769043
1779909993561355000,1.87635498046875,0.6274884343147278,-5.455864429473877,2.3563971519470215
1779909993577675000,1.892675048828125,-1.870877981185913,-7.19846248626709,0.10099077224731445
1779909993594019600,1.90901953125,-3.76302433013916,-7.538122177124023,-5.73756742477417
1779909993610352600,1.9253525390625,-2.4887661933898926,0.1062626838684082,-1.1395387649536133
1779909993626696400,1.941696533203125,1.1522858142852783,-1.4936637878417969,-2.1057724952697754
1779909993643012400,1.958012451171875,0.4140254259109497,1.201866626739502,-0.6266984939575195
1779909993659356400,1.9743564453125,0.849428117275238,0.2194051742553711,1.0043244361877441
1779909993675685600,1.990685546875,0.5809804797172546,-2.891683578491211,1.0295166969299316
1779909993692017200,2.00701708984375,-1.7963017225265503,-3.67495059967041,0.6773481369018555
1779909993708351500,2.0233515625,-1.273240327835083,-1.2035140991210938,2.8411412239074707
1779909993724685000,2.03968505859375,1.76627779006958,0.9144611358642578,6.738376617431641
1779909993741007000,2.056007080078125,5.192384243011475,0.4380931854248047,8.887093544006348
1779909993757336800,2.0723369140625,8.30797290802002,-0.1194772720336914,8.84732723236084
1779909993773670400,2.08867041015625,9.890043258666992,-0.48534584045410156,9.423303604125977
1779909993790015200,2.10501513671875,7.550907135009766,-1.6086273193359375,7.459636688232422
1779909993806348500,2.1213486328125,1.2281900644302368,-2.310993194580078,3.6322851181030273
1779909993822683000,2.137682861328125,-3.6722805500030518,-0.6950836181640625,0.3904867172241211
1779909993839015200,2.15401513671875,-5.766456127166748,-1.6148920059204102,-2.1134936809539795
1779909993855348200,2.17034814453125,-4.808924674987793,-2.3917665481567383,-4.795313835144043
1779909993871697700,2.18669775390625,0.44202864170074463,-1.6889748573303223,-3.860182762145996
1779909993888011000,2.203010986328125,3.5429844856262207,1.9812288284301758,-2.720027446746826
1779909993904357400,2.219357421875,2.472989797592163,4.147228240966797,-3.0780093669891357
1779909993920679400,2.235679443359375,0.2035282850265503,3.7261576652526855,-4.659148216247559
1779909993937009400,2.252009521484375,-0.14447951316833496,2.605515480041504,-6.147571563720703
1779909993953348900,2.268348876953125,-5.37625789642334,-0.33885955810546875,-11.849554061889648
1779909993969678300,2.28467822265625,-2.049194812774658,0.9092397689819336,-9.203752517700195
1779909993986013200,2.30101318359375,0.013274908065795898,4.464105606079102,-3.376857280731201
1779909994002340600,2.317340576171875,-0.7831002473831177,4.208039283752441,-1.4999914169311523
1779909994018686000,2.33368603515625,-1.0300259590148926,2.688605785369873,-0.29656028747558594
1779909994035006200,2.350006103515625,-2.607450246810913,1.9198203086853027,-0.5485601425170898
1779909994051344000,2.36634375,-1.7160453796386719,1.7683606147766113,-1.5199337005615234
1779909994067666000,2.382666015625,0.5896246433258057,1.4319028854370117,-1.6164822578430176
1779909994083999700,2.398999755859375,3.0019898414611816,0.19856500625610352,-0.7211618423461914
1779909994100337400,2.41533740234375,2.871920585632324,0.7056169509887695,2.0142316818237305
1779909994116675000,2.431675048828125,1.0668220520019531,0.03627300262451172,5.135046482086182
1779909994133023700,2.448023681640625,-1.2585349082946777,-1.6695261001586914,5.889455318450928
1779909994149354800,2.464354736328125,-1.4415346384048462,-3.050704002380371,5.8614606857299805
1779909994165688000,2.48068798828125,-0.8901996612548828,-3.2906198501586914,2.647627353668213
1779909994182019000,2.49701904296875,-1.1610300540924072,-4.868040561676025,0.12493610382080078
1779909994198353200,2.513353271484375,3.4502761363983154,-7.360173225402832,-0.14627695083618164
1779909994214683400,2.529683349609375,3.9820778369903564,-2.536372184753418,0.47516489028930664
1779909994231003600,2.546003662109375,3.8753151893615723,2.073690414428711,5.837034702301025
1779909994247338800,2.5623388671875,2.0744454860687256,-0.1064767837524414,4.60324239730835
1779909994263671300,2.57867138671875,-0.9343421459197998,-2.2126684188842773,3.249105453491211
1779909994280004400,2.59500439453125,-2.7746739387512207,-2.8225011825561523,1.385946273803711
1779909994296336100,2.611336181640625,-3.9348320960998535,1.6502704620361328,3.5520248413085938
1779909994312667600,2.627667724609375,-3.069392204284668,2.2124757766723633,4.605730056762695
1779909994328993300,2.6439931640625,-2.9757654666900635,2.256246566772461,2.5037009716033936
1779909994345336000,2.660336181640625,-0.9753618240356445,2.946382522583008,1.6644089221954346
1779909994361656000,2.676656005859375,3.694467544555664,2.542499542236328,1.9692018032073975
1779909994377989400,2.6929892578125,3.7310686111450195,4.330961227416992,2.2878715991973877
1779909994394346800,2.7093466796875,2.2807250022888184,3.205559253692627,2.255840301513672
1779909994410680600,2.7256806640625,0.8780261874198914,-4.586158752441406,4.587277889251709
1779909994427011000,2.742010986328125,7.60853910446167,-3.288381576538086,4.504279613494873
1779909994443352600,2.7583525390625,-0.16154944896697998,-3.5415258407592773,4.04020881652832
1779909994459678700,2.7746787109375,-9.422350883483887,-2.462198257446289,4.329127311706543
1779909994476013300,2.791013427734375,4.688042163848877,0.2021188735961914,1.6209750175476074
1779909994492346600,2.8073466796875,3.8902082443237305,0.12743568420410156,-0.9379920959472656
1779909994508663600,2.82366357421875,3.4044718742370605,-0.5053176879882812,-3.4138059616088867
1779909994525006000,2.840006103515625,1.6507686376571655,2.024655818939209,-3.6659810543060303
1779909994541334800,2.856334716796875,2.1090128421783447,3.574700355529785,-4.453701972961426
1779909994557666300,2.872666259765625,4.190263271331787,-1.6561956405639648,-7.595277786254883
1779909994573996300,2.888996337890625,7.656714916229248,-1.5981121063232422,-11.136119842529297
1779909994590327800,2.905327880859375,4.217512607574463,3.670231342315674,-7.348787307739258
1779909994606663700,2.92166357421875,4.150182723999023,4.869904518127441,-1.3909974098205566
1779909994622993000,2.937992919921875,2.4536657333374023,4.103227138519287,-0.01222074031829834
1779909994639318800,2.95431884765625,-0.4813659191131592,3.509273052215576,0.4294009208679199
1779909994655662800,2.970662841796875,0.5854597091674805,2.7926621437072754,-1.8566006422042847
1779909994671976700,2.986976806640625,2.707822799682617,7.740499973297119,-4.075669765472412
1779909994688328000,3.003327880859375,-5.547873020172119,5.490102291107178,-0.41204822063446045
1779909994704648000,3.01964794921875,-0.2323322296142578,1.4480586051940918,2.6415600776672363
1779909994720995600,3.03599560546875,-1.5766279697418213,-2.4145641326904297,3.261580467224121
1779909994737326800,3.052326904296875,-1.1330971717834473,-3.5008506774902344,3.5531492233276367
1779909994753660200,3.06866015625,-3.7504687309265137,-3.4812192916870117,3.7486281394958496
1779909994769991200,3.0849912109375,-5.507769584655762,-1.7822704315185547,1.1149336099624634
1779909994786325000,3.101324951171875,-5.848543643951416,-1.4654865264892578,0.08556926250457764
1779909994802658800,3.117658935546875,-4.597990989685059,-2.8994216918945312,-0.5850929617881775
1779909994818978000,3.13397802734375,-5.838149070739746,-5.488631248474121,2.0222437381744385
1779909994835324700,3.15032470703125,-2.5199978351593018,0.8115129470825195,-0.0676146149635315
1779909994851639800,3.166639892578125,2.5802152156829834,-2.8015823364257812,-0.3433564305305481
1779909994867961600,3.182961669921875,9.020720481872559,-8.101167678833008,-0.30313020944595337
1779909994884328400,3.199328369140625,5.330483436584473,-4.719549179077148,-0.51542067527771
1779909994900657000,3.215656982421875,-2.527564287185669,3.226757049560547,-1.5105587244033813
1779909994916988400,3.231988525390625,-0.15014171600341797,-0.20099163055419922,-1.1292214393615723
1779909994933322000,3.248322021484375,5.624861717224121,-1.653097152709961,-1.4777443408966064
1779909994949656000,3.264656005859375,6.003039360046387,-0.3189554214477539,-2.2684051990509033
1779909994965985300,3.2809853515625,8.553009033203125,1.6449952125549316,-2.0552754402160645
1779909994982317600,3.297317626953125,9.752946853637695,1.9605207443237305,-0.4399679899215698
1779909994998636800,3.31363671875,7.911550521850586,2.203601360321045,1.1180226802825928
1779909995014977500,3.3299775390625,5.83216667175293,3.4502763748168945,2.1268794536590576
1779909995031310600,3.346310546875,-5.764396667480469,2.4571447372436523,2.856104850769043
1779909995047658500,3.362658447265625,-4.368514060974121,0.6662187576293945,2.3804738521575928
1779909995063983400,3.3789833984375,4.477232933044434,-0.4867067337036133,3.1094610691070557
1779909995080317200,3.395317138671875,7.694246292114258,-4.454537391662598,2.8754160404205322
1779909995096651800,3.41165185546875,7.198091506958008,-14.57353687286377,0.7291667461395264
1779909995112984300,3.427984375,2.0025691986083984,-0.9133901596069336,-2.7751989364624023
1779909995129317400,3.4443173828125,-2.518643617630005,-0.1264934539794922,-1.6537251472473145
1779909995145667300,3.460667236328125,-3.9554505348205566,1.6679582595825195,-1.557690978050232
1779909995161979600,3.476979736328125,-1.7313930988311768,2.5862221717834473,-1.1722043752670288
1779909995178327800,3.493327880859375,-0.8386706113815308,1.807657241821289,0.06862728297710419
1779909995194659300,3.509659423828125,-2.230278491973877,0.8778791427612305,0.9963433742523193
1779909995210996000,3.525995849609375,-1.6804132461547852,0.9874563217163086,1.6933594942092896
1779909995227313700,3.542313720703125,-0.9997938871383667,0.8288002014160156,2.0326738357543945
1779909995243644000,3.558643798828125,-1.1281744241714478,0.5575094223022461,1.9302053451538086
1779909995259982300,3.574982421875,-1.7020151615142822,0.6457071304321289,1.6669481992721558
1779909995276313300,3.591313232421875,-2.3952016830444336,0.7578878402709961,1.530118703842163
1779909995292638200,3.60763818359375,-2.737576961517334,-0.39833736419677734,1.9663686752319336
1779909995308979200,3.623979248046875,-1.3127366304397583,-1.6675128936767578,3.205378532409668
1779909995325306400,3.640306396484375,-0.7180454134941101,-1.2337312698364258,5.188972473144531
1779909995341660200,3.65666015625,-2.1622707843780518,0.2238607406616211,6.340609550476074
1779909995357992200,3.6729921875,-4.050479888916016,-0.05063915252685547,5.722275257110596
1779909995374325000,3.689324951171875,-2.821690082550049,-1.2707653045654297,4.813326835632324
1779909995390649600,3.705649658203125,-2.060359001159668,-2.150223731994629,5.665376663208008
1779909995406979600,3.7219794921875,-0.8964353799819946,-1.6690874099731445,4.319457530975342
1779909995423310600,3.738310546875,-1.6055032014846802,-2.5261011123657227,3.9384195804595947
1779909995439642000,3.75464208984375,-0.12063854932785034,-2.1623611450195312,2.565044641494751
1779909995455975000,3.770974853515625,-0.10794125497341156,-3.9112653732299805,0.706190288066864
1779909995472308200,3.78730810546875,-1.3231534957885742,-5.964661598205566,-1.7314631938934326
1779909995488642000,3.80364208984375,-0.2856128215789795,-6.862434387207031,-3.825836420059204
1779909995504991500,3.819991455078125,2.220515489578247,-7.387768745422363,-3.9093658924102783
1779909995521324800,3.83632470703125,3.8920841217041016,-6.387775421142578,-3.1987221240997314
1779909995537643000,3.85264306640625,3.274026393890381,-4.96231746673584,-2.8750295639038086
1779909995553970400,3.868970458984375,1.7798570394515991,-4.294525146484375,-2.8301708698272705
1779909995570307600,3.8853076171875,1.0486537218093872,-3.2759857177734375,-2.4180405139923096
1779909995586636300,3.90163623046875,-0.49789857864379883,-0.95928955078125,-0.3355640172958374
1779909995602962000,3.9179619140625,0.5700011253356934,0.6020126342773438,2.0698580741882324
1779909995619305200,3.93430517578125,2.5006909370422363,1.1554946899414062,2.800849437713623
1779909995635637000,3.950636962890625,3.3843600749969482,0.9356184005737305,1.4132575988769531
1779909995651970800,3.966970703125,3.2964301109313965,1.261655330657959,0.2597340941429138
1779909995668291600,3.98329150390625,3.2206387519836426,2.3840432167053223,-0.5073713064193726
1779909995684636700,3.99963671875,4.096584796905518,3.3432021141052246,-0.21990200877189636
1779909995700968200,4.01596826171875,5.382838249206543,4.277496337890625,0.19867348670959473
1779909995717305900,4.032305908203125,6.710352897644043,5.884350776672363,0.03496311977505684
1779909995733632800,4.0486328125,6.321801662445068,6.938654899597168,-0.4530600309371948
1779909995749970200,4.06497021484375,5.151874542236328,7.07396936416626,-0.8996009826660156
1779909995766301000,4.081301025390625,4.605119228363037,6.30259370803833,-0.9057004451751709
1779909995782636300,4.09763623046875,4.162120342254639,5.9549360275268555,-1.0443992614746094
1779909995798967000,4.113967041015625,3.3599581718444824,6.015052795410156,-1.3642699718475342
1779909995815300400,4.13030029296875,1.9547991752624512,5.013261795043945,-1.2607237100601196
1779909995831645700,4.146645751953125,-0.34953737258911133,2.9536709785461426,-0.8737918734550476
1779909995847984600,4.162984619140625,-4.940992832183838,-1.9707822799682617,-0.654270589351654
1779909995864305000,4.179304931640625,-10.964853286743164,-13.283106803894043,0.9096615314483643
1779909995880637000,4.195636962890625,-9.807344436645508,-19.068117141723633,3.4264936447143555
1779909995896979500,4.2119794921875,-4.68714714050293,-6.716937065124512,1.426643967628479
1779909995913291000,4.228291015625,-6.817128658294678,2.3994269371032715,-1.021223545074463
1779909995929644800,4.244644775390625,-4.90278434753418,6.372040748596191,-1.5824278593063354
1779909995945976600,4.2609765625,-0.46772122383117676,6.364134788513184,-1.7188506126403809
1779909995962309600,4.2773095703125,0.21270370483398438,2.960728168487549,-1.9379749298095703
1779909995978644700,4.293644775390625,2.545332193374634,-0.6601419448852539,-0.2802921533584595
1779909995994976500,4.3099765625,11.913922309875488,-7.929290771484375,-0.23184806108474731
1779909996011309300,4.326309326171875,8.967517852783203,-18.231487274169922,-2.265700101852417
1779909996027642000,4.34264208984375,-8.632974624633789,-13.195979118347168,-3.9341747760772705
1779909996043954400,4.358954345703125,2.1929931640625,1.6598644256591797,-2.849865436553955
1779909996060295700,4.375295654296875,5.589340686798096,5.524198532104492,-0.3975352942943573
1779909996076626400,4.39162646484375,5.507664203643799,7.599833011627197,0.592108964920044
1779909996092959700,4.407959716796875,8.18045425415039,7.263919830322266,0.5792667865753174
1779909996109292800,4.424292724609375,9.59273910522461,5.544320106506348,0.20676809549331665
1779909996125625300,4.440625244140625,8.423986434936523,0.9970836639404297,-0.22575828433036804
1779909996141972000,4.456971923828125,4.734503269195557,-6.478968620300293,-0.3865669369697571
1779909996158309000,4.47330908203125,-4.007923603057861,-10.329349517822266,2.1889328956604004
1779909996174633500,4.489633544921875,-3.6178314685821533,-3.2576026916503906,4.864565372467041
1779909996190974500,4.505974365234375,3.1667587757110596,1.474843978881836,3.4949734210968018
1779909996207297800,4.5222978515625,4.606030464172363,3.483395576477051,0.9446462392807007
1779909996223610600,4.538610595703125,3.0729002952575684,3.3114728927612305,-0.7707485556602478
1779909996239958000,4.5549580078125,2.4106314182281494,2.044743537902832,-2.4513635635375977
1779909996256293600,4.571293701171875,0.1941819041967392,1.4929304122924805,-1.936171293258667
1779909996272622300,4.587622314453125,-1.4031341075897217,1.4709272384643555,-1.2629998922348022
1779909996288953900,4.603953857421875,-1.9446864128112793,1.808547019958496,-0.5626371502876282
1779909996305288200,4.6202880859375,-3.774022102355957,1.8728976249694824,0.3902379870414734
1779909996321637400,4.636637451171875,-3.9530770778656006,0.7030868530273438,1.5703904628753662
1779909996337959400,4.65295947265625,-1.9424760341644287,-0.3017845153808594,3.144883155822754
1779909996354300700,4.66930078125,0.1849764585494995,-0.6414718627929688,4.156852722167969
1779909996370631200,4.685631103515625,-0.8550200462341309,-0.3840770721435547,3.6195898056030273
1779909996386972000,4.701971923828125,-3.2730231285095215,0.10711002349853516,2.20493745803833
1779909996403299300,4.71829931640625,-3.0818514823913574,0.04152107238769531,2.1389739513397217
1779909996419632000,4.734632080078125,-1.5780606269836426,-1.3994417190551758,3.0488240718841553
1779909996435965200,4.750965087890625,-1.2493857145309448,-1.8504467010498047,3.6896133422851562
1779909996452294100,4.767294189453125,-2.0787527561187744,-0.6450376510620117,4.940345287322998
1779909996468618800,4.78361865234375,-3.8518571853637695,-0.24133968353271484,6.351428031921387
1779909996484968000,4.799968017578125,-3.7327890396118164,-1.306624412536621,6.46334981918335
1779909996501276000,4.81627587890625,-2.171811580657959,-1.3719120025634766,5.317381381988525
1779909996517626600,4.832626708984375,-2.5395541191101074,-1.4009857177734375,5.185000419616699
1779909996533945300,4.8489453125,-2.592400312423706,-1.675924301147461,4.036592483520508
1779909996550280700,4.86528076171875,-1.0350861549377441,-2.7671728134155273,3.9194226264953613
1779909996566609000,4.88160888671875,-0.3267321288585663,-1.9199028015136719,3.349569082260132
1779909996582947600,4.897947509765625,-0.521425187587738,-1.5634422302246094,1.1330981254577637
1779909996599267000,4.91426708984375,-1.719193935394287,-3.2620410919189453,-1.135617971420288
1779909996615613200,4.93061328125,-1.7596031427383423,-6.020223617553711,-3.402745485305786
1779909996631946000,4.946946044921875,2.0237865447998047,-8.09775447845459,-4.257848739624023
1779909996648296700,4.963296630859375,4.8819260597229,-6.363620758056641,-3.3168232440948486
1779909996664623900,4.979623779296875,4.3935441970825195,-3.8882369995117188,-2.2540173530578613
1779909996680957000,4.99595703125,2.460315227508545,-2.929403305053711,-1.972124695777893
1779909996697285000,5.01228515625,0.8649523258209229,-2.707362174987793,-1.620992660522461
1779909996713610800,5.02861083984375,-1.0064020156860352,-1.9099359512329102,-0.37085074186325073
1779909996729948000,5.044947998046875,-0.23102307319641113,0.32996177673339844,2.2411348819732666
1779909996746276400,5.0612763671875,2.0657739639282227,0.5133485794067383,3.7318787574768066
1779909996762609400,5.077609375,3.074136734008789,0.8821859359741211,2.4956657886505127
1779909996778941000,5.09394091796875,2.2595651149749756,0.8735980987548828,1.03675377368927
1779909996795270100,5.110270263671875,2.859907865524292,1.5435099601745605,-0.038810864090919495
1779909996811630300,5.12663037109375,3.5435268878936768,2.578800678253174,-0.7049351334571838
1779909996827939800,5.14293994140625,4.6573405265808105,3.0599327087402344,-0.2254728078842163
1779909996844275500,5.159275390625,6.294049263000488,4.214345455169678,0.3625113368034363
1779909996860614700,5.17561474609375,7.4432525634765625,5.6044135093688965,0.08990012109279633
1779909996876930600,5.1919306640625,6.359100341796875,6.37615966796875,-0.41505753993988037
1779909996893287000,5.208286865234375,5.805328369140625,6.234426498413086,-1.0721734762191772
1779909996909602600,5.2246025390625,4.761163711547852,6.117132186889648,-1.8113617897033691
1779909996925954000,5.2409541015625,3.9153895378112793,6.272086143493652,-2.6160473823547363
1779909996942270200,5.257270263671875,2.4048023223876953,5.680715560913086,-2.661005973815918
1779909996958618400,5.273618408203125,0.41927003860473633,4.0787553787231445,-1.7155373096466064
1779909996974952200,5.2899521484375,-3.1077051162719727,-0.010281562805175781,-0.8677973747253418
1779909996991264000,5.306263916015625,-9.663989067077637,-10.675153732299805,-0.833786129951477
1779909997007606000,5.32260595703125,-11.931747436523438,-21.74574089050293,1.3960776329040527
1779909997023934000,5.338933837890625,-8.03161334991455,-11.661810874938965,-0.25917649269104004
1779909997040270000,5.35527001953125,-6.909366130828857,1.096200942993164,-1.0451451539993286
1779909997056602000,5.37160205078125,-5.1826491355896,7.181772232055664,-1.1602089405059814
1779909997072934100,5.38793408203125,0.07140040397644043,7.683432102203369,-1.307862639427185
1779909997089267500,5.404267333984375,-1.8547687530517578,1.0453004837036133,0.2302776575088501
1779909997105600500,5.4206005859375,8.36641788482666,-3.772035598754883,2.6809983253479004
1779909997121933800,5.436933837890625,17.608837127685547,-10.501836776733398,1.0422636270523071
1779909997138269000,5.45326904296875,1.0326859951019287,-14.109514236450195,-4.088244915008545
1779909997154610700,5.469610595703125,-6.438889980316162,-0.9611749649047852,-5.358016490936279
1779909997170944000,5.485944091796875,1.6631202697753906,3.6379261016845703,-2.19228196144104
1779909997187262700,5.5022626953125,5.403072834014893,5.721397399902344,-0.2475770115852356
1779909997203591200,5.518591064453125,8.563496589660645,4.733158588409424,0.9452099800109863
1779909997219935200,5.534935302734375,9.54334545135498,3.3510355949401855,0.9244135618209839
1779909997236263400,5.551263427734375,8.083002090454102,1.0118141174316406,-0.07916589081287384
1779909997252597000,5.567596923828125,4.814676761627197,-2.7484350204467773,-0.625987708568573
1779909997268929500,5.583929443359375,-2.8725504875183105,-8.561052322387695,-0.8202282190322876
1779909997285262800,5.600262939453125,-4.20318078994751,-3.722524642944336,3.0835583209991455
1779909997301599000,5.616598876953125,3.136385917663574,0.9584207534790039,3.076521635055542
1779909997317907500,5.632907470703125,4.162265777587891,2.2643399238586426,2.1975975036621094
1779909997334274000,5.649274169921875,2.7704973220825195,2.6751456260681152,1.1216375827789307
1779909997350598400,5.665598388671875,1.5978329181671143,2.5482001304626465,-0.31414392590522766
1779909997366930200,5.68193017578125,1.1630793809890747,1.272374153137207,-1.8099923133850098
1779909997383259400,5.69825927734375,-0.5374141931533813,1.1514806747436523,-1.439903974533081
1779909997399592200,5.71459228515625,-1.2907774448394775,1.5833024978637695,-0.6274724006652832
1779909997415925200,5.73092529296875,-1.7294270992279053,2.0708580017089844,0.2612907290458679
1779909997432259000,5.747259033203125,-3.6887056827545166,1.6533098220825195,0.8734114766120911
1779909997448593000,5.763593017578125,-3.570979356765747,0.6936798095703125,1.5200544595718384
1779909997464938000,5.77993798828125,-1.9936764240264893,-0.20592784881591797,2.77789044380188
1779909997481270500,5.7962705078125,-0.5739028453826904,-0.6555032730102539,3.7863166332244873
1779909997497607000,5.81260693359375,-1.0863399505615234,-0.4784879684448242,4.154050827026367
1779909997513934600,5.8289345703125,-3.2930564880371094,-0.1348733901977539,3.8012523651123047
1779909997530276000,5.845276123046875,-3.814107894897461,-0.5517339706420898,3.54890775680542
1779909997546585000,5.861585205078125,-2.3507039546966553,-1.8230905532836914,3.927877187728882
1779909997562919700,5.877919677734375,-1.141421914100647,-1.2106037139892578,4.368314266204834
1779909997587417900,5.90241796875,-3.248884916305542,0.13836383819580078,5.704575538635254
1779909997603744300,5.918744140625,-3.412099838256836,-0.5944099426269531,4.633627891540527
1779909997620090400,5.93509033203125,-2.4713027477264404,-1.0952882766723633,3.037449836730957
1779909997636418000,5.95141796875,-2.96207857131958,-1.8464536666870117,3.453070640563965
1779909997652756000,5.967755859375,-2.8669705390930176,-2.2889366149902344,2.12253737449646
1779909997669087000,5.9840869140625,-2.0393919944763184,-4.1830339431762695,1.9968783855438232
1779909997685433600,6.00043359375,-0.871232271194458,-2.7628793716430664,2.52585506439209
1779909997701735700,6.016735595703125,-0.6663424372673035,-1.5246973037719727,2.3786919116973877
1779909997718063000,6.03306298828125,-1.5687685012817383,-1.956294059753418,1.4742822647094727
1779909997734419000,6.0494189453125,-2.6487996578216553,-3.654942512512207,-0.5012333393096924
1779909997750750500,6.06575048828125,-1.1350605487823486,-5.046797752380371,-2.5515055656433105
1779909997767080400,6.08208056640625,2.3011505603790283,-6.40474796295166,-3.3351659774780273
1779909997783406800,6.09840673828125,3.7729992866516113,-5.951692581176758,-3.3780393600463867
1779909997799767300,6.114767333984375,2.8770956993103027,-4.297279357910156,-3.0930891036987305
1779909997816092400,6.131092529296875,1.72980535030365,-2.686595916748047,-2.40761399269104
1779909997832434400,6.147434326171875,0.23511719703674316,-1.3875980377197266,-0.607994556427002
1779909997848749600,6.16374951171875,-0.24266266822814941,-0.3331022262573242,1.3988527059555054
1779909997865055700,6.1800556640625,1.1377079486846924,0.4422731399536133,3.094799280166626
1779909997881397800,6.196397705078125,2.6510438919067383,0.37168216705322266,3.4469196796417236
1779909997897750300,6.212750244140625,1.5874179601669312,1.2087030410766602,1.641174554824829
1779909997914077200,6.2290771484375,1.7591536045074463,1.76460599899292,0.5510233044624329
1779909997930413800,6.245413818359375,3.210170269012451,2.2993416786193848,-0.25737816095352173
1779909997946727700,6.261727783203125,4.194397926330566,2.980558395385742,0.10316972434520721
1779909997963096000,6.278095947265625,5.867584228515625,4.018167018890381,0.3334142565727234
1779909997979421700,6.294421630859375,6.7068705558776855,4.909110069274902,0.2225036919116974
1779909997995762200,6.31076220703125,6.348389625549316,5.441163539886475,-0.28546345233917236
1779909998012089900,6.32708984375,5.657566070556641,5.817816734313965,-0.7979228496551514
1779909998028404700,6.34340478515625,4.665028095245361,6.012201309204102,-1.573814868927002
1779909998044731000,6.35973095703125,3.5458760261535645,6.639039993286133,-2.235529661178589
1779909998061054500,6.376054443359375,2.5186784267425537,6.402959823608398,-2.500284194946289
1779909998077408500,6.392408447265625,0.6347053050994873,5.25558614730835,-1.9989776611328125
1779909998093742300,6.408742431640625,-2.218275308609009,1.3997859954833984,-1.2421648502349854
1779909998110062000,6.42506201171875,-8.664644241333008,-7.728896141052246,-0.4722316265106201
1779909998126406400,6.441406494140625,-10.533636093139648,-21.000972747802734,2.039989948272705
1779909998142740000,6.457739990234375,-12.130573272705078,-15.12342357635498,1.3305336236953735
1779909998159074600,6.474074462890625,-6.521385669708252,-0.6903114318847656,-0.8200953602790833
1779909998175405800,6.49040576171875,-7.856417655944824,6.862977981567383,-1.0935500860214233
1779909998191740000,6.506739990234375,-0.5184550285339355,8.976503372192383,-0.030720531940460205
1779909998208061200,6.523061279296875,-0.936650276184082,2.7719273567199707,0.967942476272583
1779909998224396300,6.539396240234375,7.0146379470825195,-2.832887649536133,3.6050941944122314
1779909998240733400,6.5557333984375,18.909061431884766,-10.252306938171387,2.380268096923828
1779909998257066500,6.57206640625,5.104730606079102,-15.435295104980469,-3.617971658706665
1779909998273408300,6.588408203125,-8.047701835632324,-2.993718147277832,-6.1560516357421875
1779909998289737000,6.604737060546875,-1.1414053440093994,4.247217178344727,-4.358121871948242
1779909998306069800,6.62106982421875,6.4568562507629395,6.139504432678223,-1.290844202041626
1779909998322420000,6.637419921875,10.941069602966309,5.578927993774414,1.2007873058319092
1779909998338745000,6.6537451171875,9.952339172363281,2.79433012008667,0.8008407950401306
1779909998355086300,6.67008642578125,7.99111270904541,-0.36786460876464844,-0.41639307141304016
1779909998371398100,6.686398193359375,3.9550132751464844,-6.527117729187012,-1.9371412992477417
1779909998387747800,6.702747802734375,-8.913053512573242,-10.445928573608398,0.6840102672576904
1779909998404081000,6.719080810546875,-2.880861759185791,-2.555863380432129,4.087241172790527
1779909998420465700,6.735465576171875,3.4182333946228027,1.7817182540893555,3.4915218353271484
1779909998436749800,6.751749755859375,4.910275459289551,3.09580659866333,1.7018686532974243
1779909998453078300,6.768078369140625,2.730776786804199,2.2285900115966797,0.6890743970870972
1779909998469383000,6.7843828125,2.0430116653442383,2.382138729095459,-0.3028518855571747
1779909998485746000,6.800745849609375,-0.736662745475769,1.6371469497680664,-0.8519755005836487
1779909998502044400,6.81704443359375,-2.3964905738830566,1.3040275573730469,-0.8614346981048584
1779909998518389500,6.833389404296875,-2.063856840133667,1.9745798110961914,-0.38069599866867065
1779909998534712300,6.84971240234375,-0.6016005277633667,2.0152978897094727,0.6778795123100281
1779909998551042300,6.866042236328125,-1.093156099319458,1.3221445083618164,1.325888752937317
1779909998567389000,6.882388916015625,-2.84039306640625,0.42864990234375,1.5129908323287964
1779909998583718400,6.898718505859375,-2.931138515472412,0.47864532470703125,1.3686234951019287
1779909998600050000,6.9150498046875,-1.8704488277435303,1.0596685409545898,1.8279683589935303
1779909998616379600,6.931379638671875,-1.4153244495391846,1.620645523071289,2.77337908744812
1779909998632715300,6.94771533203125,-1.751434564590454,1.7661924362182617,3.6470818519592285
1779909998649049300,6.96404931640625,-2.176510810852051,0.46912574768066406,3.786135196685791
1779909998665379600,6.980379638671875,-2.1693954467773438,-1.3703937530517578,3.1034176349639893
1779909998681714000,6.9967138671875,-1.8478140830993652,-1.2013816833496094,3.6765806674957275
1779909998698045400,7.01304541015625,-3.207956314086914,-0.9971733093261719,4.645207405090332
1779909998714381600,7.029381591796875,-3.7441978454589844,-1.7079572677612305,4.950645923614502
1779909998730711600,7.045711669921875,-3.095634698867798,-1.855926513671875,4.5010786056518555
1779909998747045000,7.062045166015625,-3.5677032470703125,-1.182565689086914,4.139173984527588
1779909998763378400,7.07837841796875,-4.1305437088012695,-1.2614059448242188,4.279360294342041
1779909998779710700,7.094710693359375,-2.8203368186950684,-3.712259292602539,3.2998828887939453
1779909998796045300,7.11104541015625,-1.1904869079589844,-2.5555620193481445,2.551088333129883
1779909998812377000,7.127377197265625,-0.3490305542945862,-1.4727964401245117,2.196458578109741
1779909998828708000,7.1437080078125,0.2909223139286041,-2.768622398376465,1.6417250633239746
1779909998845043200,7.160043212890625,-1.2348506450653076,-6.158511161804199,0.7703514099121094
1779909998861374700,7.176374755859375,0.3174176812171936,-7.593453407287598,-2.0265345573425293
1779909998877710000,7.1927099609375,1.9330220222473145,-7.285477638244629,-3.0626423358917236
1779909998894041000,7.209041015625,2.3876843452453613,-5.292390823364258,-2.8678927421569824
1779909998910374700,7.225374755859375,2.8635923862457275,-2.829120635986328,-2.921461343765259
1779909998926708200,7.241708251953125,1.4277234077453613,-1.8362007141113281,-2.5473947525024414
1779909998943032300,7.2580322265625,-0.787163257598877,-1.8513450622558594,-1.4591933488845825
1779909998959373600,7.27437353515625,-0.10353517532348633,-0.5466442108154297,-0.42528486251831055
1779909998975720700,7.290720703125,1.5438987016677856,0.6583366394042969,0.5181298851966858
1779909998992051700,7.3070517578125,1.5837116241455078,0.6624755859375,2.2025203704833984
1779909999008383200,7.32338330078125,2.296698808670044,1.1721410751342773,1.7548154592514038
1779909999024716500,7.339716552734375,2.1309423446655273,1.7153129577636719,0.7375234365463257
1779909999041048600,7.356048583984375,3.3384172916412354,2.390568256378174,0.9168320894241333
1779909999057379000,7.372379150390625,4.4846110343933105,2.534024238586426,1.026658058166504
1779909999073719800,7.3887197265625,5.786099433898926,3.1412434577941895,1.2832871675491333
1779909999090053600,7.4050537109375,6.355440616607666,3.603302478790283,0.9198009967803955
1779909999106381600,7.421381591796875,6.2344512939453125,4.483508110046387,-0.41604432463645935
1779909999122714400,7.43771435546875,4.937801361083984,4.380645751953125,-1.5931850671768188
1779909999139043800,7.4540439453125,4.0734782218933105,4.578617095947266,-2.0600006580352783
1779909999155382500,7.470382568359375,3.013321876525879,6.196621894836426,-2.1705551147460938
1779909999171713000,7.486713134765625,2.201374053955078,7.14372444152832,-1.9734585285186768
1779909999188044000,7.5030439453125,0.46242332458496094,6.5667572021484375,-1.4356693029403687
1779909999204379000,7.51937890625,-1.2813875675201416,4.767994403839111,-0.9685734510421753
1779909999220707300,7.535707275390625,-5.2158660888671875,-1.172560691833496,-0.3373146653175354
1779909999237044500,7.55204443359375,-11.182421684265137,-15.221318244934082,-0.07779824733734131
1779909999253379300,7.56837939453125,-12.425609588623047,-22.52560806274414,2.2509021759033203
1779909999269712000,7.5847119140625,-6.618477821350098,-8.643808364868164,0.47949859499931335
1779909999286058800,7.601058837890625,-6.206080436706543,3.6443395614624023,0.3736872375011444
1779909999302391000,7.61739111328125,0.38469815254211426,9.978553771972656,0.6567758917808533
1779909999318722800,7.633722900390625,2.0452942848205566,8.771368026733398,-1.1153572797775269
1779909999335053300,7.65005322265625,3.9978768825531006,2.490421772003174,-0.06878101825714111
1779909999351370800,7.666370849609375,15.760564804077148,-7.258513450622559,2.173130989074707
1779909999367722800,7.68272265625,11.340664863586426,-21.09656524658203,-0.7266643047332764
1779909999384050000,7.6990498046875,-10.049450874328613,-11.871700286865234,-4.028058052062988
1779909999400385800,7.7153857421875,1.0037219524383545,1.7128562927246094,-2.718297004699707
1779909999416696300,7.7316962890625,3.7014780044555664,6.88242769241333,-1.2952039241790771
1779909999433054000,7.748053955078125,4.857383728027344,8.57357120513916,0.22924047708511353
1779909999449383000,7.7643828125,9.56025505065918,7.56344747543335,0.003963962197303772
1779909999465694500,7.780694580078125,8.519762992858887,3.85467529296875,-1.123941421508789
1779909999482036500,7.797036376953125,6.567385673522949,-0.24274444580078125,-1.4618021249771118
1779909999498370800,7.813370849609375,0.6998542547225952,-7.541186332702637,-3.505397081375122
1779909999514687200,7.829687255859375,-10.570170402526855,-11.7803316116333,0.34038564562797546
1779909999531047700,7.846047607421875,0.18948638439178467,-2.3034181594848633,4.797060012817383
1779909999547368700,7.86236865234375,6.034073829650879,0.5845956802368164,5.591853618621826
1779909999563703000,7.878703125,5.986598968505859,3.159086227416992,3.0774648189544678
1779909999580035000,7.89503515625,2.2884459495544434,3.270791530609131,1.3875409364700317
1779909999596367600,7.91136767578125,0.5099095106124878,2.8045406341552734,-0.31759774684906006
1779909999612681500,7.927681396484375,-0.9398398399353027,1.796330451965332,-1.4029426574707031
1779909999629033200,7.944033203125,-1.6210509538650513,1.7002363204956055,-1.1097016334533691
1779909999645365500,7.960365478515625,-1.2279475927352905,1.8919587135314941,-0.44794413447380066
1779909999661699800,7.976699951171875,-0.7127008438110352,1.7947769165039062,0.002363532781600952
1779909999678031000,7.993031005859375,-3.211843490600586,0.8846826553344727,0.5193765759468079
1779909999694366000,8.009365966796874,-3.354586124420166,0.3070859909057617,0.8626363277435303
1779909999710696000,8.025696044921874,-1.6341763734817505,0.1797046661376953,1.9290364980697632
1779909999727027200,8.042027099609374,-0.9420233964920044,-0.0045032501220703125,2.9156479835510254
1779909999743367200,8.0583671875,-1.8248533010482788,-0.21533966064453125,2.9479408264160156
1779909999759697000,8.07469677734375,-2.736154794692993,-0.5578012466430664,2.392000198364258
1779909999776030200,8.0910302734375,-2.447580575942993,-1.3423051834106445,2.1094868183135986
1779909999792377600,8.107377685546876,-1.3241581916809082,-1.7281417846679688,2.676523208618164
1779909999808705300,8.123705322265625,-0.9960565567016602,-0.5164527893066406,4.682249069213867
1779909999825044000,8.1400439453125,-3.291501522064209,0.09763431549072266,6.329442977905273
1779909999841360000,8.15635986328125,-4.044557094573975,-1.4157142639160156,6.233872413635254
1779909999857708800,8.172708740234375,-2.678623914718628,-2.0701656341552734,5.079323768615723
1779909999874034200,8.1890341796875,-2.2115650177001953,-2.873929977416992,4.875202655792236
1779909999890361000,8.205361083984375,-2.045541524887085,-3.2507896423339844,4.460855484008789
1779909999906691600,8.221691650390625,-1.957964301109314,-4.3928327560424805,4.067265033721924
1779909999923025700,8.238025634765625,-1.478419542312622,-4.551740646362305,3.6140964031219482
1779909999939339800,8.25433984375,-0.9723147749900818,-2.4339218139648438,2.0040695667266846
1779909999955691800,8.27069189453125,-1.3322091102600098,-1.0276784896850586,-0.690235435962677
1779909999972019000,8.28701904296875,-2.658024787902832,-1.9662866592407227,-3.4314515590667725
1779909999988380000,8.3033798828125,-1.1423604488372803,-4.056532859802246,-4.894994258880615
1779910000004702700,8.31970263671875,2.6826794147491455,-5.368827819824219,-5.127481460571289
1779910000021020400,8.3360205078125,3.827059507369995,-4.906593322753906,-4.306125164031982
1779910000037368600,8.35236865234375,2.6366543769836426,-3.683816909790039,-3.1767079830169678
1779910000053685500,8.368685546875,1.3386003971099854,-3.015774726867676,-1.6349314451217651
1779910000070019800,8.385019775390624,0.4635127782821655,-2.0533828735351562,-0.2265647053718567
1779910000086354400,8.4013544921875,0.10643792152404785,-0.6205377578735352,1.1543456315994263
1779910000102687000,8.41768701171875,0.09052491188049316,0.22250938415527344,2.213209629058838
1779910000119020000,8.43402001953125,2.406205892562866,0.8367729187011719,1.717799425125122
1779910000135348700,8.4503486328125,2.48689603805542,1.034463882446289,1.6643630266189575
1779910000151689700,8.466689697265625,2.3987274169921875,1.053593635559082,1.223578691482544
1779910000168018200,8.48301806640625,2.605767250061035,1.759744644165039,0.7290566563606262
1779910000184351500,8.4993515625,3.106708526611328,2.64754056930542,0.8337600827217102
1779910000200682200,8.51568212890625,3.791485548019409,3.5723533630371094,0.9201734066009521
1779910000217015600,8.532015625,5.884244441986084,4.9313883781433105,0.6622058153152466
1779910000233350700,8.5483505859375,5.787586212158203,5.630500793457031,0.26293042302131653
1779910000249683200,8.56468310546875,4.6213297843933105,5.665111541748047,-0.3328091502189636
1779910000266015000,8.581014892578125,3.9941318035125732,5.391803741455078,-0.8046214580535889
1779910000282366200,8.5973662109375,4.177540302276611,5.334442615509033,-1.0726202726364136
1779910000298696000,8.613696044921875,3.5574283599853516,5.834523677825928,-1.413161039352417
1779910000315010600,8.630010498046875,1.7214934825897217,5.400355339050293,-1.4586560726165771
1779910000331338200,8.646338134765625,0.1151275634765625,4.250131607055664,-1.3537440299987793
1779910000347680800,8.6626806640625,-3.4619462490081787,0.8778209686279297,-0.7525377869606018
1779910000364012500,8.679012451171875,-8.836912155151367,-6.866722106933594,-0.3298124074935913
1779910000380344800,8.6953447265625,-10.07040023803711,-18.59576988220215,1.1985056400299072
1779910000396677600,8.711677734375,-8.392352104187012,-13.345924377441406,0.39256322383880615
1779910000413017600,8.728017578125,-6.270963668823242,-0.6138229370117188,0.3157508373260498
1779910000429357600,8.744357666015626,-4.767148017883301,5.121759414672852,-0.046725690364837646
1779910000445691000,8.76069091796875,-0.1475510597229004,8.005523681640625,-0.03226679563522339
1779910000462024200,8.777024169921875,1.272770643234253,4.452315330505371,-0.890845000743866
1779910000478352100,8.79335205078125,3.45062518119812,-0.7505102157592773,0.5863015651702881
1779910000494691800,8.80969189453125,12.945585250854492,-8.655298233032227,1.1225608587265015
1779910000511020500,8.8260205078125,8.442102432250977,-18.62013816833496,-1.2286936044692993
1779910000527340300,8.84234033203125,-10.075783729553223,-9.062585830688477,-4.214353561401367
1779910000543691500,8.85869140625,-0.6572079658508301,2.1371822357177734,-3.26383376121521
1779910000560020200,8.875020263671875,2.317969560623169,6.247221946716309,-2.510946273803711
1779910000576339700,8.891339599609376,3.4614171981811523,7.573379993438721,-1.4158297777175903
1779910000592672800,8.9076728515625,9.96058464050293,5.948864459991455,-1.5226023197174072
1779910000609006000,8.924006103515625,10.161177635192871,4.018138885498047,-1.5086323022842407
1779910000625338000,8.940338134765625,7.730502128601074,1.594008445739746,-1.7427926063537598
1779910000641662200,8.956662109375,3.931785821914673,-3.5874099731445312,-2.9545814990997314
1779910000658002700,8.973002685546875,-6.546128273010254,-10.047942161560059,-2.5355069637298584
1779910000674337500,8.989337646484374,-3.7498862743377686,-4.522382736206055,3.606321096420288
1779910000690668000,9.00566796875,3.9027373790740967,-0.5992431640625,4.8954362869262695
1779910000707000800,9.022000732421875,5.130466938018799,1.9448318481445312,4.469149589538574
1779910000723338000,9.038337890625,2.625959634780884,3.374826431274414,3.0774407386779785
1779910000739666700,9.054666748046875,1.35117506980896,3.861794948577881,1.1274757385253906
1779910000756005000,9.071005126953125,-1.0696039199829102,2.350052833557129,-0.7677901983261108
1779910000772347400,9.087347412109375,-1.4945869445800781,0.8601274490356445,-1.736479640007019
1779910000788681000,9.103680908203126,-3.364135265350342,0.8737316131591797,-1.4669442176818848
1779910000805022000,9.12002197265625,-3.101732015609741,1.3109912872314453,-0.4902406334877014
1779910000821319200,9.136319091796874,-1.5494095087051392,1.2836856842041016,0.7735120058059692
1779910000837684700,9.152684814453124,-1.2161084413528442,0.29066944122314453,2.2617902755737305
1779910000854011600,9.16901171875,-1.0006510019302368,-0.3324460983276367,3.070157051086426
1779910000870349000,9.18534912109375,-1.9451605081558228,-0.16031742095947266,3.0116188526153564
1779910000886672000,9.201671875,-3.5893077850341797,-0.37337493896484375,2.2099101543426514
1779910000903012400,9.218012451171875,-3.7214980125427246,-0.18143463134765625,1.7353702783584595
1779910000919343600,9.234343505859375,-2.1770975589752197,-0.03708171844482422,2.9835591316223145
1779910000935678500,9.250678466796876,-1.356357216835022,-1.0373210906982422,4.760143756866455
1779910000952009500,9.267009521484376,-1.7091801166534424,-0.9820423126220703,5.234975814819336
1779910000968343600,9.283343505859374,-2.5485525131225586,0.16639232635498047,5.7019124031066895
1779910000984668700,9.299668701171875,-3.7614870071411133,-0.17972564697265625,5.532258987426758
1779910001001017000,9.31601708984375,-3.4948835372924805,-1.7446718215942383,4.138278484344482
1779910001017343200,9.33234326171875,-2.8132591247558594,-2.339326858520508,3.3534188270568848
1779910001033636600,9.34863671875,-3.3630309104919434,-2.96160888671875,3.995163917541504
1779910001050016500,9.3650166015625,-2.713831663131714,-3.3316993713378906,3.9889776706695557
1779910001066346200,9.38134619140625,-0.2729912996292114,-3.504484176635742,3.443333148956299
1779910001082649600,9.397649658203125,-0.48797595500946045,-3.426189422607422,3.4377827644348145
1779910001098987500,9.413987548828125,-0.9576470851898193,-3.226839065551758,2.021453619003296
1779910001115327200,9.4303271484375,-1.8671643733978271,-2.638251304626465,-0.9181933403015137
1779910001131658200,9.446658203125,-2.0843119621276855,-3.56125545501709,-3.476661443710327
1779910001147989800,9.46298974609375,0.7187358736991882,-4.757992744445801,-4.798745155334473
1779910001164323000,9.479322998046875,2.984039068222046,-4.837946891784668,-4.899927139282227
1779910001180655900,9.49565576171875,3.2906951904296875,-3.4070262908935547,-4.126832485198975
1779910001196984800,9.51198486328125,2.7744994163513184,-2.4083375930786133,-3.12227463722229
1779910001213326000,9.528326171875,1.747077465057373,-1.832758903503418,-1.1318315267562866
1779910001229654800,9.54465478515625,0.0533452033996582,-1.1936607360839844,1.1114784479141235
1779910001245988600,9.560988525390625,-0.21272516250610352,-0.8850612640380859,2.742729663848877
1779910001262335000,9.5773349609375,0.8041868209838867,-0.7215824127197266,4.121925354003906
1779910001278633200,9.59363330078125,2.3185653686523438,0.026067733764648438,3.3673744201660156
1779910001294999800,9.609999755859375,1.0818850994110107,0.6730976104736328,2.0010316371917725
1779910001311315500,9.6263154296875,1.4851508140563965,1.004476547241211,1.2898626327514648
1779910001327666200,9.642666259765624,2.3818206787109375,1.982776165008545,1.4548063278198242
1779910001343992300,9.658992431640625,4.5940842628479,3.117422103881836,1.2497544288635254
1779910001360333800,9.675333740234375,7.611207962036133,4.702594757080078,0.7071771621704102
1779910001376663600,9.69166357421875,6.521553993225098,5.409872055053711,0.3326519727706909
1779910001392964400,9.70796435546875,6.361515045166016,5.541123390197754,-0.5345219373703003
1779910001409304000,9.724303955078126,5.3306884765625,5.732374668121338,-1.3806493282318115
1779910001425648000,9.740648193359375,3.931499481201172,6.659515380859375,-2.104890823364258
1779910001441972700,9.75697265625,3.188688278198242,7.048789978027344,-2.1796092987060547
1779910001458312400,9.7733125,1.52555513381958,6.345635414123535,-1.6059672832489014
1779910001474630100,9.789630126953124,-1.4044151306152344,5.2046966552734375,-0.9932956695556641
1779910001490980600,9.805980712890625,-4.540830612182617,1.0790252685546875,-0.3191734552383423
1779910001507310300,9.822310302734374,-8.567559242248535,-6.776573181152344,0.2044907510280609
1779910001523662300,9.838662353515625,-9.783332824707031,-19.859682083129883,1.7743780612945557
1779910001539976000,9.854975830078125,-8.334399223327637,-14.16707706451416,-0.26742076873779297
1779910001556326100,9.871326171875,-6.388935089111328,-0.8294229507446289,1.1696710586547852
1779910001572658400,9.887658447265625,-4.087579250335693,5.148684501647949,0.0646059513092041
1779910001588974600,9.903974609375,-0.6047897338867188,4.584038734436035,-1.5018181800842285
1779910001605309400,9.920309326171875,0.23305416107177734,-2.4260683059692383,0.6507426500320435
1779910001621643800,9.936643798828126,8.195270538330078,-8.349379539489746,1.6017014980316162
1779910001637975800,9.952975830078126,10.401391983032227,-13.47928237915039,0.6867000460624695
1779910001654296000,9.969296142578125,-2.5202322006225586,-3.442209243774414,-3.8508827686309814
1779910001670639900,9.985639892578124,-0.2711963653564453,5.877015113830566,-4.1294779777526855
1779910001686960000,10.001960205078126,0.2866489887237549,8.496461868286133,-3.8787524700164795
1779910001703305000,10.018304931640625,4.671028137207031,7.892467021942139,-1.4335612058639526
1779910001719644000,10.034643798828125,9.70860481262207,6.320183753967285,-0.21306636929512024
1779910001735973600,10.0509736328125,11.176868438720703,1.9945402145385742,-0.08901873975992203
1779910001752305200,10.06730517578125,9.030168533325195,-2.4292850494384766,-0.3854973316192627
1779910001768635600,10.0836357421875,4.312629699707031,-6.821239471435547,-1.2999259233474731
1779910001784965400,10.09996533203125,-10.386285781860352,-13.643693923950195,-1.847177505493164
1779910001801301200,10.11630126953125,-4.921273708343506,-3.291571617126465,3.9988865852355957
1779910001817622500,10.13262255859375,5.351231575012207,2.4866251945495605,3.893369197845459
1779910001833984000,10.14898388671875,6.884224891662598,2.4365177154541016,2.9202399253845215
1779910001850325200,10.1653251953125,3.7480697631835938,2.4092764854431152,2.116238594055176
1779910001866646800,10.181646728515625,2.2126271724700928,2.8012804985046387,1.2126842737197876
1779910001882984200,10.197984130859375,-0.14967156946659088,1.3367385864257812,-0.49813491106033325
1779910001899315000,10.21431494140625,-1.673372745513916,0.686187744140625,-0.9843794107437134
1779910001915627800,10.230627685546875,-1.9391841888427734,1.0117340087890625,-0.9862381219863892
1779910001931971600,10.2469716796875,-1.1829893589019775,1.3550329208374023,-0.43797120451927185
1779910001948299300,10.26329931640625,-2.2656285762786865,1.197749137878418,0.1982029527425766
1779910001964632300,10.27963232421875,-3.3607304096221924,0.8179254531860352,1.006149172782898
1779910001980964900,10.29596484375,-2.036379337310791,0.3069896697998047,2.1626038551330566
1779910001997298000,10.3122978515625,-0.9239474534988403,0.1275615692138672,3.1065568923950195
1779910002013617200,10.3286171875,-1.6166197061538696,0.1764965057373047,2.922365427017212
1779910002029965800,10.3449658203125,-3.30833101272583,0.6386528015136719,1.789151906967163
1779910002046294800,10.361294677734374,-3.362567663192749,0.61724853515625,2.060704469680786
1779910002062615800,10.37761572265625,-2.209547996520996,-0.5798015594482422,3.2538275718688965
1779910002078951200,10.393951171875,-1.8694372177124023,-0.870783805847168,4.53765869140625
1779910002095286300,10.410286376953126,-2.8721251487731934,-0.2869691848754883,6.348811149597168
1779910002111618600,10.42661865234375,-3.9918205738067627,-0.8558540344238281,7.420671463012695
1779910002127945000,10.442945068359375,-3.2743778228759766,-1.9659147262573242,7.0201416015625
1779910002144283400,10.459283447265625,-1.9653518199920654,-2.3899173736572266,6.334461212158203
1779910002160614000,10.47561376953125,-1.837001085281372,-2.63431453704834,5.549765586853027
1779910002176949000,10.491948974609375,-1.7453805208206177,-3.1684656143188477,4.606068134307861
1779910002193278000,10.50827783203125,-1.5036967992782593,-4.498481750488281,3.5450477600097656
1779910002209613600,10.524613525390626,-0.6039759516716003,-3.6827688217163086,1.1442632675170898
1779910002225945900,10.54094580078125,-1.2366647720336914,-2.425570487976074,-1.7532737255096436
1779910002242279400,10.557279541015625,-2.571065902709961,-3.256711006164551,-4.01551628112793
1779910002258611500,10.573611572265625,-1.142833948135376,-4.778080940246582,-5.280250072479248
1779910002274945000,10.589945068359375,2.2383711338043213,-5.307129859924316,-5.380537509918213
1779910002291276300,10.6062763671875,3.569406032562256,-4.545049667358398,-4.7226762771606445
1779910002307611400,10.622611328125,2.7702419757843018,-3.583005905151367,-3.5750536918640137
1779910002323942700,10.638942626953124,1.708550214767456,-3.0865907669067383,-1.9597804546356201
1779910002340277200,10.65527734375,0.1195443868637085,-2.7412948608398438,-0.21956190466880798
1779910002356607700,10.671607666015625,-1.5725669860839844,-1.6459083557128906,1.8662428855895996
1779910002372941800,10.68794189453125,0.5649187564849854,-0.7787628173828125,2.3813133239746094
1779910002389273900,10.70427392578125,3.040903329849243,-0.5999727249145508,2.118870496749878
1779910002405609500,10.720609375,2.8301141262054443,0.042695045471191406,1.2405476570129395
1779910002421940000,10.73693994140625,1.8522462844848633,0.6695003509521484,0.4727429449558258
1779910002438278400,10.7532783203125,2.9866011142730713,1.8522100448608398,-0.07978492975234985
1779910002454605300,10.769605224609375,3.5608952045440674,3.1317591667175293,0.10918673872947693
1779910002470938000,10.785938232421875,4.569448947906494,4.6996684074401855,0.23925063014030457
1779910002487272000,10.80227197265625,5.709027290344238,6.127732276916504,0.2280736118555069
1779910002503604200,10.818604248046874,6.113893508911133,6.59403133392334,0.004359021782875061
1779910002519937300,10.834937255859375,4.5148162841796875,6.6327362060546875,-0.4248776435852051
1779910002536270000,10.85127001953125,5.009446620941162,6.066867828369141,-1.0949167013168335
1779910002552617700,10.86761767578125,3.900912046432495,6.070242881774902,-1.4038238525390625
1779910002568948700,10.88394873046875,2.886218547821045,6.761370658874512,-1.5480302572250366
1779910002585280000,10.900280029296875,0.8485019207000732,5.950860023498535,-1.163740634918213
1779910002601614000,10.916614013671875,-1.674584150314331,4.222292423248291,-0.7883026003837585
1779910002617945900,10.93294580078125,-6.264230728149414,-0.7861862182617188,-0.29801106452941895
1779910002634279700,10.94927978515625,-11.51302719116211,-12.400106430053711,0.9752971529960632
1779910002650610000,10.96560986328125,-10.732288360595703,-24.050172805786133,2.97377610206604
1779910002666942000,10.98194189453125,-5.8125505447387695,-9.813838958740234,0.3339448869228363
1779910002683279000,10.998279052734375,-6.127391815185547,1.4531440734863281,-0.8561179637908936
1779910002699605000,11.01460498046875,-2.6955902576446533,5.515761375427246,-3.1784377098083496
1779910002715944200,11.030944091796876,-1.4784674644470215,0.4455575942993164,-1.9539759159088135
1779910002732277500,11.047277587890624,1.7752540111541748,-9.455626487731934,1.654331922531128
1779910002748595000,11.063594970703125,10.744768142700195,-11.768071174621582,4.69001579284668
1779910002764942600,11.079942626953125,6.373598098754883,-2.3687562942504883,-0.22395959496498108
1779910002781275000,11.09627490234375,3.049945592880249,6.723741054534912,-4.968806266784668
1779910002797591800,11.112591796875,-0.5559988021850586,8.390048027038574,-6.518290996551514
1779910002813939700,11.128939697265626,-2.2001278400421143,7.615805625915527,-4.59556770324707
1779910002830272800,11.145272705078124,7.736630439758301,5.902849197387695,-1.8063608407974243
1779910002846595800,11.161595947265624,10.449254989624023,2.5443968772888184,-0.1210201233625412
1779910002862938000,11.177938232421875,9.306503295898438,-0.5816774368286133,-0.2531414330005646
1779910002879271400,11.194271484375,5.905464172363281,-4.8933563232421875,-0.4924582242965698
1779910002895604700,11.210604736328126,-0.7603123188018799,-9.790771484375,-0.7437207698822021
1779910002911937000,11.22693701171875,-6.910113334655762,-7.487288475036621,2.745496988296509
1779910002928270600,11.2432705078125,-0.599616289138794,-0.5861949920654297,3.426989793777466
1779910002944602600,11.2596025390625,1.8740705251693726,1.9274544715881348,2.269043207168579
1779910002960937000,11.27593701171875,3.571643829345703,2.968806266784668,1.3886021375656128
1779910002977278200,11.2922783203125,3.638575315475464,1.928304672241211,1.529995083808899
1779910002993618200,11.3086181640625,2.1115527153015137,1.2867975234985352,1.5756020545959473
1779910003009948200,11.3249482421875,-0.5408281087875366,0.9580650329589844,0.5383644104003906
1779910003026280000,11.341280029296875,-1.075619101524353,1.2386407852172852,-0.6641150712966919
1779910003042613000,11.357613037109376,-0.9116314053535461,1.4504098892211914,-0.9756826162338257
1779910003058916400,11.373916259765625,-0.8120718598365784,1.5176916122436523,-0.08416231721639633
1779910003075279000,11.390279052734375,-0.0754583328962326,1.2620429992675781,0.3014230728149414
1779910003091582000,11.40658203125,-1.3415777683258057,1.4661378860473633,0.6459664106369019
1779910003107931400,11.422931396484374,-3.047384738922119,1.5562820434570312,0.9940723180770874
1779910003124252200,11.439252197265626,-3.084428310394287,0.9540061950683594,0.901802659034729
1779910003140595500,11.455595458984375,-1.980412244796753,0.4193134307861328,1.267061471939087
1779910003156926200,11.47192626953125,-0.9500447511672974,0.2737894058227539,2.2825851440429688
1779910003173266400,11.488266357421875,-1.708777666091919,0.3118247985839844,2.892542839050293
1779910003189595600,11.504595703125,-2.593771457672119,0.14149951934814453,3.0356297492980957
1779910003205928000,11.520927978515624,-2.165283203125,-1.117548942565918,2.658895969390869
1779910003222262000,11.537261962890625,-1.284568190574646,-1.6280107498168945,2.4395670890808105
1779910003238583600,11.55358349609375,-1.6619350910186768,-0.6481418609619141,3.874711036682129
1779910003254941000,11.56994091796875,-3.5068812370300293,-0.5521678924560547,5.211509704589844
1779910003271270000,11.586269775390624,-3.5399718284606934,-1.4447736740112305,4.487473964691162
1779910003287612700,11.60261279296875,-3.166531562805176,-1.7406129837036133,2.8164052963256836
1779910003303916000,11.618916015625,-4.469160079956055,-1.6800251007080078,2.421938180923462
1779910003320268000,11.63526806640625,-4.740984916687012,-2.002634048461914,3.5847625732421875
1779910003336607700,11.651607666015625,-2.6111867427825928,-3.138795852661133,3.998797655105591
1779910003352934000,11.667933837890626,-0.9332548975944519,-2.587752342224121,3.991002321243286
1779910003369256000,11.684255859375,-1.1262123584747314,-2.3313989639282227,4.2406415939331055
1779910003385604000,11.70060400390625,-1.1370017528533936,-2.496889114379883,3.047855854034424
1779910003401919500,11.71691943359375,-1.9933314323425293,-2.72310733795166,0.06757285445928574
1779910003418269200,11.733269287109374,-1.9958056211471558,-3.6685791015625,-2.958055257797241
1779910003434600400,11.749600341796874,1.213841199874878,-4.97603702545166,-3.922511577606201
1779910003450908200,11.765908203125,3.2009806632995605,-5.762899398803711,-4.376497745513916
1779910003467251700,11.782251708984376,3.348292350769043,-4.195187568664551,-3.814988136291504
1779910003483587000,11.798587158203125,2.560783863067627,-3.11962890625,-2.861154556274414
1779910003499919000,11.814919189453125,1.1323912143707275,-2.369694709777832,-1.0853984355926514
1779910003516252000,11.831251953125,-1.6449146270751953,-1.0569782257080078,0.6675642132759094
1779910003532584200,11.847584228515625,-0.8210170269012451,-0.7176313400268555,2.1257922649383545
1779910003548923600,11.863923583984375,1.0212628841400146,-0.5729408264160156,3.0320544242858887
1779910003565261000,11.880260986328125,1.3365833759307861,-0.30341339111328125,2.5480470657348633
1779910003581580000,11.896580078125,2.6578824520111084,0.503199577331543,1.2482588291168213
1779910003597910800,11.912910888671876,2.647125482559204,0.8391656875610352,0.827246904373169
1779910003614254000,11.929254150390625,3.183866500854492,2.143644332885742,0.6256189346313477
1779910003630579200,11.9455791015625,5.251060485839844,3.1837363243103027,0.7811110615730286
1779910003646914600,11.96191455078125,6.605452537536621,4.688500881195068,0.5803806185722351
1779910003663248100,11.978248046875,6.324905872344971,5.405378341674805,-0.10590669512748718
1779910003679568000,11.99456787109375,5.500189304351807,5.71429443359375,-1.030431866645813
1779910003695912000,12.010911865234375,4.547092914581299,6.2537994384765625,-1.725844383239746
1779910003712235000,12.027235107421875,3.383699417114258,6.92454719543457,-1.8658950328826904
1779910003728578300,12.043578369140626,3.199514865875244,7.403290748596191,-1.4388656616210938
1779910003744914000,12.059913818359375,1.456479549407959,6.782315254211426,-1.3959474563598633
1779910003761240800,12.07624072265625,-1.2151329517364502,5.573483467102051,-1.141364336013794
1779910003777591800,12.092591796875,-5.49362850189209,1.0832624435424805,-0.4243619441986084
1779910003793920800,12.108920654296876,-8.790081977844238,-6.849950790405273,1.1417922973632812
1779910003810259500,12.125259521484375,-10.093025207519531,-19.42623519897461,3.733992099761963
1779910003826588000,12.141587890625,-5.997704982757568,-14.7316255569458,-0.4435921311378479
1779910003842924000,12.157924072265626,-7.879180431365967,-6.848515510559082,-5.390501022338867
1779910003859253800,12.174253662109376,-4.8070268630981445,-8.424560546875,-4.067189693450928
1779910003875588900,12.1905888671875,10.144210815429688,-11.810750961303711,-0.7643576860427856
1779910003891920400,12.20692041015625,4.008274078369141,-8.269176483154297,-1.9737082719802856
1779910003908231700,12.223231689453126,0.6385800838470459,5.290257453918457,1.1554254293441772
1779910003924575000,12.239574951171875,5.367162704467773,12.41382122039795,-0.3550605773925781
1779910003940897500,12.2558974609375,6.733486175537109,12.64582633972168,-1.7272357940673828
1779910003957233700,12.272233642578126,6.794472694396973,9.708559036254883,-1.8001420497894287
1779910003973571000,12.288571044921875,6.7000508308410645,7.534403324127197,0.294367253780365
1779910003989917700,12.304917724609375,7.910621643066406,2.7740654945373535,1.1123814582824707
1779910004006257200,12.321257080078125,6.4335479736328125,-2.2824745178222656,0.5260130763053894
1779910004022558500,12.337558349609376,2.7599031925201416,-8.233912467956543,0.0639791488647461
1779910004038917400,12.35391748046875,-4.649714469909668,-17.97405433654785,-0.3450016975402832
1779910004055239700,12.37023974609375,-6.0575666427612305,-6.335533142089844,3.55496883392334
1779910004071567400,12.3865673828125,0.97459477186203,2.2006378173828125,1.7443702220916748
1779910004087889000,12.402888916015625,4.378901958465576,5.331533908843994,0.5593189001083374
1779910004104234000,12.41923388671875,3.263550281524658,3.460646629333496,0.7813712954521179
1779910004120564500,12.435564453125,2.2407073974609375,1.4557609558105469,0.7861400842666626
1779910004136899000,12.451899169921875,1.1558506488800049,0.5841999053955078,1.0106940269470215
1779910004153231600,12.468231689453125,0.279045969247818,0.4144411087036133,1.1764848232269287
1779910004169565000,12.48456494140625,0.14109066128730774,0.6085586547851562,1.430413842201233
1779910004185894700,12.500894775390625,-0.2937653958797455,0.41583824157714844,1.6655150651931763
1779910004202231300,12.517231201171874,-0.8129940629005432,0.6597776412963867,1.6291964054107666
1779910004218562000,12.53356201171875,-1.424126148223877,0.735260009765625,0.7874886989593506
1779910004234897000,12.54989697265625,-2.019221067428589,0.8483438491821289,-0.07497653365135193
1779910004251218200,12.56621826171875,-1.8241750001907349,1.0598840713500977,-0.21308505535125732
1779910004267582700,12.582582763671875,-1.6665880680084229,1.1079559326171875,0.5140938758850098
1779910004283903700,12.59890380859375,-1.9074976444244385,0.5194406509399414,1.438964605331421
1779910004300245500,12.61524560546875,-1.8124439716339111,-0.13370895385742188,2.038362503051758
1779910004316558800,12.631558837890625,-2.6066319942474365,-0.08887386322021484,1.9874660968780518
1779910004332892700,12.647892578125,-3.798922538757324,0.028453826904296875,2.0810647010803223
1779910004349237200,12.6642373046875,-2.9873008728027344,-0.5018939971923828,3.082642078399658
1779910004365592800,12.6805927734375,-1.2990647554397583,-1.2448883056640625,4.084094524383545
1779910004381905000,12.69690478515625,-1.5012624263763428,-1.0533638000488281,5.123937606811523
1779910004398250000,12.71325,-3.514423370361328,-0.6745100021362305,6.3579325675964355
1779910004414569500,12.729569580078126,-4.465893745422363,-1.2142791748046875,6.019384384155273
1779910004430899500,12.7458994140625,-3.8756935596466064,-1.3846206665039062,4.531398773193359
1779910004447231000,12.76223095703125,-3.615692377090454,-1.8050403594970703,5.048901557922363
1779910004463575000,12.778574951171874,-2.63496470451355,-2.1622495651245117,5.10260009765625
1779910004479881000,12.794880859375,-1.9916436672210693,-2.3733386993408203,3.5745863914489746
1779910004496240600,12.81124072265625,-1.3865355253219604,-2.0600833892822266,3.4506170749664307
1779910004512544800,12.827544677734375,-0.31446221470832825,-1.072824478149414,2.2271642684936523
1779910004528896800,12.843896728515626,-1.3538837432861328,-2.0557289123535156,0.04200039803981781
1779910004545236500,12.860236572265626,-2.866564989089966,-4.452912330627441,-2.755896806716919
1779910004561546500,12.87654638671875,-0.644512414932251,-6.898440361022949,-4.3506903648376465
1779910004577886000,12.892885986328125,3.0349783897399902,-7.607176780700684,-4.535555362701416
1779910004594202400,12.909202392578125,4.735822677612305,-5.817466735839844,-4.179703712463379
1779910004610552600,12.925552490234375,4.51132869720459,-4.0860795974731445,-3.9413626194000244
1779910004626886000,12.941885986328124,2.036877393722534,-2.45163631439209,-2.617506504058838
1779910004643206000,12.958205810546875,-1.1854557991027832,-0.8533077239990234,-0.7951352000236511
1779910004659549000,12.974548828125,-1.4385783672332764,0.35455894470214844,1.6988890171051025
1779910004675859700,12.990859619140625,0.31308722496032715,0.16795063018798828,3.3566641807556152
1779910004692214800,13.00721484375,2.1965653896331787,0.3862323760986328,2.0558226108551025
1779910004708541700,13.023541748046876,2.122647762298584,0.8796815872192383,1.067184329032898
1779910004724896800,13.039896728515625,1.9491755962371826,1.0202054977416992,0.5887070894241333
1779910004741208800,13.056208740234375,2.5660715103149414,1.6317973136901855,0.6147703528404236
1779910004757560600,13.072560546875,3.505849599838257,2.8061203956604004,0.6217166185379028
1779910004773890800,13.088890869140625,5.789087295532227,4.455045223236084,0.4954913258552551
1779910004790223400,13.105223388671876,6.585826873779297,5.99583625793457,0.04317915439605713
1779910004806557700,13.1215576171875,5.775535583496094,6.284278869628906,-0.532409131526947
1779910004822889700,13.1378896484375,4.534901142120361,6.183077812194824,-1.3577206134796143
1779910004839223300,13.154223388671875,4.2684783935546875,6.445941925048828,-2.0575056076049805
1779910004855548000,13.1705478515625,3.4043161869049072,6.961252689361572,-2.0143301486968994
1779910004871892200,13.186892333984375,2.3884201049804688,6.834867477416992,-1.7397526502609253
1779910004888226600,13.2032265625,0.6946601867675781,5.84004020690918,-1.2523632049560547
1779910004904552700,13.219552734375,-1.729656457901001,3.6581525802612305,-0.7568198442459106
1779910004920900400,13.235900390625,-7.2619829177856445,-2.8777952194213867,0.26002103090286255
1779910004937215500,13.252215576171874,-11.613994598388672,-18.488304138183594,3.064845085144043
1779910004953540600,13.26854052734375,-10.917926788330078,-21.623870849609375,4.412138938903809
1779910004969883400,13.28488330078125,-3.7244181632995605,-5.670965194702148,0.444607138633728
1779910004986204000,13.301203857421875,-8.057466506958008,4.32724142074585,-2.2075228691101074
1779910005002550500,13.317550537109375,-3.5428402423858643,9.136622428894043,-3.013740301132202
1779910005018867000,13.333866943359375,0.7565851211547852,4.104814052581787,-1.5399565696716309
1779910005035199700,13.35019970703125,3.4555630683898926,-1.0957021713256836,0.11256605386734009
1779910005051536400,13.366536376953125,11.563563346862793,-7.509401321411133,0.44676491618156433
1779910005067855600,13.382855712890626,5.554513931274414,-13.833003044128418,-2.7878971099853516
1779910005084202200,13.3992021484375,-6.9301676750183105,-3.977184295654297,-3.7798542976379395
1779910005100533800,13.41553369140625,1.3679981231689453,2.7095794677734375,-0.9185489416122437
1779910005116869400,13.431869384765625,3.0257787704467773,5.444746017456055,-1.0515111684799194
1779910005133199000,13.44819921875,4.7578840255737305,6.4771881103515625,-0.5920681953430176
1779910005149533200,13.464533203125,7.099547386169434,4.906683921813965,-0.5483654141426086
1779910005165866800,13.48086669921875,8.162429809570312,3.164722442626953,-0.9788028001785278
1779910005182198300,13.4971982421875,6.739162921905518,0.5416030883789062,-0.8874969482421875
1779910005198517800,13.513517822265625,4.234000205993652,-3.4408655166625977,-1.5981488227844238
1779910005214862800,13.52986279296875,-3.617278575897217,-9.190825462341309,-1.2426260709762573
1779910005231199700,13.54619970703125,-3.5637030601501465,-4.947470664978027,3.060274124145508
1779910005247540000,13.5625400390625,2.304332733154297,0.050599098205566406,3.2895469665527344
1779910005263868000,13.578867919921874,4.219735145568848,2.1941938400268555,2.718156337738037
1779910005280204000,13.5952041015625,3.2542550563812256,1.8285021781921387,2.207866907119751
1779910005296518700,13.6115185546875,1.6513242721557617,1.711599349975586,0.7748343348503113
1779910005312874200,13.627874267578125,0.38458898663520813,0.9783735275268555,-1.3087621927261353
1779910005329190000,13.64418994140625,-0.6947746276855469,1.1033802032470703,-2.132941961288452
1779910005345539600,13.66053955078125,-1.6373863220214844,1.5470209121704102,-1.702038049697876
1779910005361838800,13.6768388671875,-0.9580785036087036,1.8786749839782715,-0.7584335803985596
1779910005378205400,13.693205322265625,-1.440239667892456,1.7439002990722656,0.04784977436065674
1779910005394535700,13.70953564453125,-2.795231819152832,1.5957050323486328,1.0585250854492188
1779910005410839300,13.72583935546875,-2.152306079864502,1.1395759582519531,2.4781415462493896
1779910005427221500,13.742221435546876,-1.6189271211624146,0.676966667175293,3.702627658843994
1779910005443539200,13.758539306640625,-3.046652317047119,-0.0016012191772460938,3.860307455062866
1779910005459883500,13.774883544921876,-4.1335039138793945,-0.41542911529541016,2.98835825920105
1779910005476203800,13.791203857421875,-2.381317615509033,-0.2679777145385742,2.2275285720825195
1779910005492530400,13.807530517578124,-2.2468059062957764,-1.4331178665161133,2.624422073364258
1779910005508839700,13.823839599609375,-2.9429807662963867,-2.4851274490356445,2.9567058086395264
1779910005525189000,13.840189208984375,-3.037909984588623,-1.3692445755004883,4.129939079284668
1779910005541520000,13.856519775390625,-3.5597727298736572,-0.29806995391845703,6.256343841552734
1779910005557848300,13.872848388671875,-4.7154154777526855,-0.9329891204833984,6.779738426208496
1779910005574190300,13.8891904296875,-3.8411169052124023,-1.4108314514160156,4.200872421264648
1779910005590517800,13.905517822265624,-3.783393621444702,-1.6499738693237305,3.033259868621826
1779910005606852900,13.921852783203125,-3.962277412414551,-2.1713247299194336,3.519007444381714
1779910005623166500,13.93816650390625,-1.9901516437530518,-2.771519660949707,2.6725921630859375
1779910005639504000,13.95450390625,-1.4123222827911377,-1.337392807006836,2.618105888366699
1779910005655836400,13.97083642578125,-1.0319591760635376,-0.8182296752929688,3.1323864459991455
1779910005672169500,13.98716943359375,-0.44225382804870605,-2.034409523010254,2.348939895629883
1779910005688501200,14.003501220703125,-1.56722092628479,-3.94586181640625,0.08858880400657654
1779910005704835600,14.019835693359376,-0.6547160148620605,-5.601663589477539,-2.3312950134277344
1779910005721166800,14.036166748046876,2.11944842338562,-7.337700843811035,-3.3635413646698
1779910005737500400,14.05250048828125,3.0891337394714355,-6.762218475341797,-3.306365966796875
1779910005753832400,14.06883251953125,3.2320027351379395,-5.265750885009766,-2.9794087409973145
1779910005770166300,14.085166259765625,2.912771224975586,-3.6649169921875,-1.8107481002807617
1779910005786513700,14.101513671875,0.5283681154251099,-1.4302759170532227,-0.2360185831785202
1779910005802845400,14.117845458984375,-1.8092427253723145,0.05094337463378906,1.4790875911712646
1779910005819175700,14.13417578125,0.2137460708618164,-0.42867088317871094,2.150705575942993
1779910005835509800,14.150509765625,1.6975882053375244,-0.5158281326293945,3.386946439743042
1779910005851841800,14.166841796875,1.329500675201416,1.2072710990905762,3.2320759296417236
1779910005868170800,14.183170654296875,1.2584125995635986,1.4198617935180664,3.405853509902954
1779910005884530400,14.199530517578125,2.7214553356170654,2.0051698684692383,3.4311208724975586
1779910005900835300,14.21583544921875,5.947482109069824,2.925909996032715,3.1463987827301025
1779910005917188400,14.232188232421874,8.834141731262207,4.727775573730469,1.7086950540542603
1779910005933521400,14.248521484375,7.434604644775391,5.796438217163086,-0.6763496398925781
1779910005949850600,14.2648505859375,6.539708137512207,5.965087890625,-2.602717399597168
1779910005966187500,14.2811875,4.916085243225098,6.580155849456787,-3.2327351570129395
1779910005982518500,14.2975185546875,3.4727861881256104,7.1565728187561035,-3.2396559715270996
1779910005998833400,14.31383349609375,3.0954995155334473,7.238667011260986,-2.3274857997894287
1779910006015169800,14.330169677734375,1.0620570182800293,6.981108665466309,-1.3393077850341797
1779910006031503600,14.346503662109376,-0.486771821975708,5.547519683837891,-0.4961012601852417
1779910006047834400,14.36283447265625,-2.9684245586395264,0.826420783996582,0.5152730345726013
1779910006064165600,14.37916552734375,-6.411971092224121,-8.80985164642334,1.072902798652649
1779910006080504600,14.395504638671875,-8.160627365112305,-24.582721710205078,2.7264158725738525
1779910006096830200,14.411830322265626,-11.375348091125488,-14.11625862121582,0.5800263285636902
1779910006113170000,14.428169921875,-7.593862056732178,-0.04652214050292969,1.4997141361236572
1779910006129500200,14.444500244140626,-5.2711076736450195,6.723245620727539,1.065931797027588
1779910006145831400,14.46083154296875,0.9706470966339111,8.880227088928223,1.0605992078781128
1779910006162143200,14.477143310546875,1.8030160665512085,0.6767463684082031,1.4203300476074219
1779910006178497300,14.493497314453125,13.092490196228027,-7.890291213989258,2.857889175415039
1779910006194824200,14.50982421875,13.490076065063477,-18.108253479003906,-0.0773436427116394
1779910006211150000,14.526150146484374,-3.970449209213257,-7.78422737121582,-6.16616678237915
1779910006227514000,14.54251416015625,-5.820838928222656,3.0419206619262695,-5.5094780921936035
1779910006243840500,14.558840576171875,-2.4520721435546875,7.317165374755859,-4.368693828582764
1779910006260169700,14.575169677734374,6.605133533477783,8.610800743103027,-1.8250060081481934
1779910006276492300,14.5914921875,13.57841968536377,6.9764556884765625,-0.6235270500183105
1779910006292819500,14.6078193359375,10.747638702392578,3.6659655570983887,-0.5676429271697998
1779910006309171500,14.62417138671875,7.664863586425781,-0.6533489227294922,-0.6584097146987915
1779910006325505500,14.640505615234375,2.4139232635498047,-7.377992630004883,-3.077355146408081
1779910006341837300,14.65683740234375,-11.475345611572266,-12.992729187011719,-0.25579237937927246
1779910006358160400,14.673160400390625,-1.4876500368118286,-2.7062768936157227,5.439095497131348
1779910006374505200,14.689505126953126,5.428726673126221,1.4957599639892578,6.235768795013428
1779910006390836700,14.705836669921876,6.335695266723633,2.788576126098633,5.203874588012695
1779910006407166000,14.722166015625,2.96901273727417,3.3321237564086914,2.895965337753296
1779910006423492900,14.738492919921875,0.6698009371757507,3.1956734657287598,0.29407623410224915
1779910006439815000,14.75481494140625,-2.925906181335449,1.4056005477905273,-1.3977636098861694
1779910006456152800,14.77115283203125,-2.8657894134521484,0.7608757019042969,-2.328033208847046
1779910006472498400,14.78749853515625,-1.9700901508331299,1.1158580780029297,-1.998572587966919
1779910006488834000,14.803833984375,-1.3654885292053223,1.7386322021484375,-0.8115845918655396
1779910006505166300,14.820166259765625,-2.1846859455108643,1.6187448501586914,0.1921815723180771
1779910006521484000,14.836484130859375,-2.685241460800171,0.9058017730712891,1.4408446550369263
1779910006537817300,14.8528173828125,-2.3104724884033203,0.1405029296875,2.5362651348114014
1779910006554153000,14.869153076171875,-2.0199785232543945,-0.25577735900878906,2.805501699447632
1779910006570484500,14.885484375,-2.469888210296631,0.12867069244384766,2.7002222537994385
1779910006586813400,14.9018134765625,-2.4067776203155518,0.43856048583984375,2.172168016433716
1779910006603139800,14.918139892578125,-1.6684978008270264,-0.1835956573486328,2.2839179039001465
1779910006619470300,14.93447021484375,-1.2277672290802002,-1.5378398895263672,2.544433116912842
1779910006635816000,14.95081591796875,-1.042248249053955,-1.012552261352539,3.4190728664398193
1779910006652143600,14.9671435546875,-2.7834768295288086,-0.3936481475830078,4.706928253173828
1779910006668487700,14.98348779296875,-3.5094456672668457,-1.2801055908203125,4.90711784362793
1779910006684813800,14.999813720703125,-2.356388807296753,-1.7449750900268555,4.489361763000488
1779910006701133300,15.01613330078125,-2.4153645038604736,-1.5780439376831055,3.8055996894836426
1779910006717478000,15.032477783203126,-4.663331508636475,-2.6257781982421875,3.935479164123535
1779910006733830700,15.04883056640625,-3.745913505554199,-3.9611406326293945,4.008854866027832
1779910006750158300,15.065158447265626,-0.6480107307434082,-3.7420730590820312,3.978172779083252
1779910006766489600,15.081489501953126,-1.428459644317627,-3.061725616455078,4.420109748840332
1779910006782826200,15.097826171875,-2.6268184185028076,-2.4095382690429688,2.8347315788269043
1779910006799156500,15.114156494140625,-2.9031829833984375,-1.988936424255371,-1.1363718509674072
1779910006815487500,15.130487548828125,-2.8670976161956787,-3.6778955459594727,-3.1612393856048584
1779910006831827500,15.146827392578125,-0.23924699425697327,-4.670924186706543,-3.776441812515259
1779910006848157200,15.1631572265625,2.756350040435791,-5.047597885131836,-4.293965816497803
1779910006864488400,15.179488525390624,2.6700775623321533,-4.033848762512207,-3.963717222213745
1779910006880821000,15.195821044921875,1.582417607307434,-3.2022666931152344,-3.1112823486328125
1779910006897148700,15.212148681640626,0.004449963569641113,-2.677374839782715,-1.5793925523757935
1779910006913492200,15.2284921875,-0.9366512298583984,-2.1659317016601562,0.2589462995529175
1779910006929820400,15.2448203125,-0.9639029502868652,-0.34830379486083984,2.159162759780884
1779910006946153500,15.261153564453124,1.4415665864944458,0.6247310638427734,2.8622007369995117
1779910006962485200,15.2774853515625,2.7347702980041504,0.3935565948486328,2.0041253566741943
1779910006978819600,15.293819580078125,2.6047322750091553,0.13634586334228516,0.9095985889434814
1779910006995131000,15.310130859375,2.5592129230499268,0.5511045455932617,0.18082839250564575
1779910007011470800,15.326470947265625,3.814018726348877,1.8993287086486816,-0.23910731077194214
1779910007027803400,15.342803466796875,4.183138370513916,2.983112335205078,-0.2608218789100647
1779910007044136000,15.359135986328125,4.867931365966797,4.6840105056762695,-0.25244152545928955
1779910007060468000,15.375468017578125,5.441701412200928,6.087000370025635,-0.018794715404510498
1779910007076799500,15.391799560546875,5.1139631271362305,6.313695430755615,-0.07483875751495361
1779910007093132300,15.40813232421875,4.806372165679932,6.211220741271973,-0.33932602405548096
1779910007109467600,15.424467529296875,4.336645126342773,6.133020401000977,-0.5614416599273682
1779910007125801000,15.440801025390625,3.0866470336914062,6.475739479064941,-0.6029660701751709
1779910007142131500,15.45713134765625,1.6370363235473633,6.785714149475098,-0.5937954187393188
1779910007158462700,15.473462646484375,-0.3916909694671631,6.151369094848633,-0.49892061948776245
1779910007174800100,15.489800048828124,-3.012589693069458,3.8016185760498047,-0.5011921525001526
1779910007191116500,15.506116455078125,-8.743246078491211,-2.930403709411621,0.3388449251651764
1779910007207464000,15.5224638671875,-10.88694953918457,-16.181365966796875,2.77591609954834
1779910007223793700,15.538793701171874,-7.745059013366699,-21.040283203125,2.2725777626037598
1779910007240144600,15.55514453125,-4.789857864379883,-6.205841064453125,-1.150019884109497
1779910007256472300,15.571472412109374,-7.346173286437988,4.09531307220459,-3.014596939086914
1779910007272800000,15.587800048828125,-1.9385459423065186,5.964069366455078,-5.585979461669922
1779910007289133000,15.604133056640626,-1.4035859107971191,-3.7611093521118164,-4.439670562744141
1779910007305482200,15.620482177734376,5.245233535766602,-15.435785293579102,-2.132204532623291
1779910007321804800,15.6368046875,11.25891399383545,-11.950419425964355,1.2573076486587524
1779910007338140000,15.653139892578125,6.316088676452637,1.650540828704834,-2.1017045974731445
1779910007354437600,15.669437744140625,4.185738563537598,7.751009941101074,-3.792135715484619
1779910007370809900,15.685809814453124,3.9816701412200928,7.357114315032959,-3.841695785522461
1779910007387133200,15.70213330078125,7.625714302062988,5.8021955490112305,-1.0868014097213745
1779910007403457000,15.71845703125,10.544567108154297,3.499340057373047,0.7017141580581665
1779910007419793000,15.73479296875,8.746868133544922,0.7276220321655273,0.09901365637779236
1779910007436121900,15.751121826171875,6.516364097595215,-3.0434532165527344,0.35436010360717773
1779910007452454700,15.76745458984375,-0.11689257621765137,-9.989765167236328,0.44957298040390015
1779910007468797400,15.78379736328125,-6.8675971031188965,-10.56663703918457,4.382536888122559
1779910007485115000,15.800114990234375,-0.36131155490875244,-1.1142244338989258,5.989604473114014
1779910007501451800,15.81645166015625,2.842768669128418,3.2921142578125,3.6757102012634277
1779910007517801000,15.832801025390625,1.8012852668762207,3.3468356132507324,1.5655028820037842
1779910007534119000,15.849118896484375,0.7000740766525269,2.7610549926757812,0.054162800312042236
1779910007550447900,15.86544775390625,0.5356253385543823,2.4863767623901367,-0.6359497308731079
1779910007566787800,15.881787841796875,1.3079121112823486,2.140446662902832,-0.6253261566162109
1779910007583119000,15.898119140625,1.0149157047271729,1.9140138626098633,0.7716784477233887
1779910007599449900,15.914449951171875,-0.9964072704315186,1.7748842239379883,1.6614094972610474
1779910007615783700,15.93078369140625,-2.428351640701294,2.007007598876953,1.237842321395874
1779910007632077800,15.947077880859375,-3.4300169944763184,1.1136131286621094,0.19118469953536987
1779910007648445400,15.963445556640625,-3.4418575763702393,0.1430225372314453,0.012234270572662354
1779910007664787500,15.979787353515626,-2.807755470275879,-0.04033184051513672,1.2056396007537842
1779910007681106200,15.996106201171875,-1.4384839534759521,0.5113315582275391,2.834390640258789
1779910007697447200,16.012447265625,-0.4642552137374878,0.6547012329101562,3.887320041656494
1779910007713780000,16.028780029296875,-2.522251844406128,0.4278116226196289,3.932534694671631
1779910007730114600,16.045114501953126,-3.9081690311431885,-0.2635068893432617,3.5730714797973633
1779910007746461000,16.0614609375,-1.7131295204162598,-1.178955078125,3.544851779937744
1779910007762774300,16.077774169921874,-0.3794515132904053,-1.792917251586914,3.8269095420837402
1779910007779094300,16.09409423828125,-1.4371660947799683,-1.4489202499389648,4.691921710968018
1779910007795432700,16.1104326171875,-2.623278856277466,-1.564493179321289,5.948230743408203
1779910007811777000,16.126777099609374,-1.723832130432129,-3.132044792175293,7.0974507331848145
1779910007828108500,16.143108642578124,-0.2435295581817627,-3.745753288269043,7.113728046417236
1779910007844441600,16.159441650390626,-0.4467478394508362,-3.683852195739746,6.379028797149658
1779910007860776000,16.17577587890625,-3.2531208992004395,-4.273029327392578,3.4062604904174805
1779910007877102800,16.192102783203126,-2.925511121749878,-7.466083526611328,0.7410076856613159
1779910007893459000,16.208458984375,-2.7555336952209473,-3.229368209838867,-1.4816207885742188
1779910007909786400,16.224786376953126,-2.4342546463012695,-0.10088253021240234,-1.8676931858062744
1779910007926118100,16.2411181640625,-2.8916866779327393,0.7652101516723633,-3.0880467891693115
1779910007942452500,16.257452392578124,-1.3622784614562988,-1.2622451782226562,-4.353911399841309
1779910007958785500,16.27378564453125,2.1856489181518555,-3.2331972122192383,-4.317507743835449
1779910007975113700,16.29011376953125,4.372421741485596,-3.6232309341430664,-3.4145731925964355
1779910007991437800,16.306437744140624,2.1672775745391846,-2.8489084243774414,-1.937023401260376
1779910008007769300,16.322769287109374,-0.5671877861022949,-2.7669143676757812,-0.5624325275421143
1779910008024099300,16.339099365234375,-1.5971635580062866,-2.78433895111084,0.3361895680427551
1779910008040438000,16.35543798828125,0.009881019592285156,-1.92889404296875,0.24896883964538574
1779910008056769800,16.371769775390625,1.6601433753967285,-1.0587339401245117,0.09173357486724854
1779910008073098000,16.388097900390626,2.2270543575286865,-0.42748165130615234,0.40965795516967773
1779910008089433900,16.404433837890625,2.69050931930542,0.22228527069091797,0.5419471263885498
1779910008105765600,16.420765625,2.5095324516296387,0.8631963729858398,0.6590847969055176
1779910008122098700,16.4370986328125,2.3595924377441406,1.7016949653625488,0.7655757069587708
1779910008138431500,16.453431396484376,2.6358389854431152,2.632582187652588,1.1565828323364258
1779910008154764500,16.4697646484375,2.8050734996795654,3.3083624839782715,1.4326519966125488
1779910008171105500,16.48610546875,3.2257790565490723,4.390635967254639,1.1126703023910522
1779910008187435300,16.502435302734376,4.0346245765686035,5.698461532592773,0.6728212237358093
1779910008203761200,16.51876123046875,4.275933742523193,6.615311622619629,0.7099654674530029
1779910008220102000,16.535101806640625,4.01115083694458,6.822223663330078,0.6050816178321838
1779910008236427500,16.551427490234374,3.189192056655884,6.858475685119629,0.27228492498397827
1779910008252761900,16.567761962890625,2.6554341316223145,6.94349479675293,0.13000881671905518
1779910008269107000,16.58410693359375,1.4990296363830566,6.7368364334106445,-0.12512266635894775
1779910008285437700,16.600437744140624,-0.22566986083984375,5.891847133636475,-0.03506338596343994
1779910008301781200,16.61678125,-3.295473575592041,2.720492362976074,-0.26124656200408936
1779910008318072000,16.633072021484374,-9.69599723815918,-5.011537551879883,-0.1771554946899414
1779910008334438100,16.649438232421875,-10.79411506652832,-18.88919448852539,0.9791024923324585
1779910008350751500,16.66575146484375,-6.207762718200684,-18.68677520751953,-0.6441636085510254
1779910008367103000,16.68210302734375,-4.711757659912109,-2.759638786315918,-2.8378002643585205
1779910008383433200,16.69843310546875,-4.921391487121582,7.190809726715088,-3.5988659858703613
1779910008399777000,16.714777099609375,-1.5703010559082031,8.075565338134766,-5.298618793487549
1779910008416089900,16.73108984375,-3.263645887374878,-2.012326240539551,-5.038012981414795
1779910008432434400,16.747434326171874,0.98345947265625,-10.751324653625488,-1.1306759119033813
1779910008448761000,16.763760986328126,13.32047176361084,-15.967925071716309,1.7459474802017212
1779910008465092000,16.780092041015624,5.044026851654053,-2.0551862716674805,-2.297545909881592
1779910008481404000,16.79640380859375,1.9386614561080933,6.13430118560791,-3.785884380340576
1779910008497751600,16.81275146484375,1.9566398859024048,6.372934818267822,-3.2850539684295654
1779910008514082000,16.82908203125,5.815766334533691,5.706478118896484,-0.947429895401001
1779910008530416600,16.845416748046876,9.489428520202637,3.771641254425049,1.9074429273605347
1779910008546754300,16.86175439453125,10.46035099029541,2.1546735763549805,2.5290024280548096
1779910008563081000,16.8780810546875,7.78801155090332,-0.5293025970458984,2.7428207397460938
1779910008579417000,16.8944169921875,4.358774185180664,-6.198354721069336,2.5699784755706787
1779910008595748600,16.91074853515625,-3.0534491539001465,-13.033432006835938,3.61301326751709
1779910008612083200,16.927083251953125,-3.5576131343841553,-4.498527526855469,6.153534889221191
1779910008628414500,16.94341455078125,-0.2071089744567871,1.8710002899169922,4.1788411140441895
1779910008644748500,16.95974853515625,2.449216842651367,3.8701601028442383,1.5377955436706543
1779910008661070600,16.976070556640625,1.0040831565856934,2.4609851837158203,-0.474994421005249
1779910008677414100,16.9924140625,1.2731308937072754,2.2404227256774902,-1.5866236686706543
1779910008693744000,17.008744140625,1.179198980331421,1.8880157470703125,-2.2217137813568115
1779910008710082300,17.025082275390623,2.248891830444336,2.0473718643188477,-2.1522397994995117
1779910008726414600,17.04141455078125,0.9365930557250977,1.6334505081176758,-0.7264271974563599
1779910008742761700,17.05776171875,0.5503237247467041,1.623697280883789,0.14885208010673523
1779910008759091200,17.07409130859375,-2.0627002716064453,1.719045639038086,0.28922271728515625
1779910008775424500,17.090424560546875,-5.213717937469482,1.2505903244018555,-0.16171514987945557
1779910008791756300,17.10675634765625,-3.481503486633301,0.8062248229980469,0.06803548336029053
1779910008808089000,17.123089111328124,-1.613759160041809,0.005288124084472656,2.001690626144409
1779910008824420400,17.13942041015625,0.09194552898406982,-0.996251106262207,3.8125240802764893
1779910008840756000,17.155755859375,-1.2076834440231323,-0.61846923828125,4.115331649780273
1779910008857080300,17.172080322265625,-3.6671385765075684,-0.4723491668701172,3.5427069664001465
1779910008873433000,17.18843310546875,-2.4775774478912354,-1.303689956665039,3.316206216812134
1779910008889751800,17.204751708984375,-1.4518271684646606,-2.4079885482788086,3.767800807952881
1779910008906086700,17.221086669921874,-2.078975200653076,-2.303316116333008,5.0635480880737305
1779910008922419500,17.23741943359375,-4.0215744972229,-1.7742223739624023,6.984668731689453
1779910008938751500,17.25375146484375,-4.5152587890625,-2.2206106185913086,7.335280895233154
1779910008955084500,17.27008447265625,-2.6899728775024414,-2.354914665222168,5.845239639282227
1779910008971399400,17.2863994140625,-2.2687289714813232,-3.068164825439453,5.809213638305664
1779910008987735300,17.3027353515625,-2.504080295562744,-2.5309133529663086,4.038704872131348
1779910009004054000,17.319053955078125,-2.1960198879241943,-3.898064613342285,3.2867045402526855
1779910009020406500,17.335406494140624,-1.2535816431045532,-3.23000431060791,3.5275235176086426
1779910009036735000,17.35173486328125,-0.4567873775959015,-1.7890386581420898,2.5857691764831543
1779910009053067000,17.36806689453125,-1.1315364837646484,-1.8447742462158203,0.856383204460144
1779910009069400600,17.384400634765626,-1.9681297540664673,-3.2891159057617188,-2.0649666786193848
1779910009085717200,17.40071728515625,-0.19741669297218323,-5.358846664428711,-3.7183146476745605
1779910009102069500,17.417069580078124,3.2724692821502686,-6.04945182800293,-4.151303768157959
1779910009118398500,17.4333984375,3.38051700592041,-4.706274032592773,-3.9498584270477295
1779910009134731800,17.449731689453124,1.9737080335617065,-3.2905263900756836,-3.6533420085906982
1779910009151039700,17.466039794921876,1.2996963262557983,-2.095963478088379,-3.0153236389160156
1779910009167384600,17.482384521484374,1.0516513586044312,-0.6757287979125977,-0.9390348196029663
1779910009183716600,17.498716552734376,-0.3131263256072998,-0.00763702392578125,1.403810977935791
1779910009200052000,17.515052001953126,0.4565162658691406,0.42153263092041016,3.653437614440918
1779910009216382200,17.53138232421875,2.7169246673583984,-0.5856542587280273,4.283653259277344
1779910009232716300,17.54771630859375,3.1677803993225098,-0.8501319885253906,2.726863145828247
1779910009249047600,17.564047607421877,1.74107027053833,-0.5037460327148438,1.5040180683135986
1779910009265381600,17.580381591796876,2.217365264892578,0.7939624786376953,0.9813436269760132
1779910009281713700,17.596713623046874,4.151333808898926,2.5727310180664062,0.5425374507904053
1779910009298047200,17.613047119140624,6.373510837554932,4.179866313934326,0.05322682857513428
1779910009314394400,17.629394287109374,6.899137496948242,5.7400407791137695,-0.3140936493873596
1779910009330713000,17.645713134765625,6.051857948303223,6.692106246948242,-0.7558446526527405
1779910009347055000,17.66205517578125,5.131813049316406,6.985795021057129,-0.7932910323143005
1779910009363394000,17.67839404296875,4.704354763031006,7.046453475952148,-0.9293010234832764
1779910009379720200,17.69472021484375,3.4747390747070312,7.105443954467773,-1.402446985244751
1779910009396063500,17.7110634765625,2.4073550701141357,6.872575759887695,-1.4087576866149902
1779910009412394800,17.727394775390625,0.6803512573242188,5.432610034942627,-0.9036237001419067
1779910009428736500,17.743736572265625,-3.290076971054077,1.277890682220459,0.15493261814117432
1779910009445069600,17.760069580078124,-7.025104522705078,-6.168183326721191,1.7189812660217285
1779910009461369900,17.776369873046875,-10.886396408081055,-18.870323181152344,2.8686094284057617
1779910009477706800,17.792706787109374,-10.003981590270996,-17.38048553466797,1.2743399143218994
1779910009494037500,17.80903759765625,-6.837873458862305,-2.856968879699707,-0.021506965160369873
1779910009510383900,17.8253837890625,-4.412356376647949,4.304471492767334,-0.9598718881607056
1779910009526719700,17.8417197265625,0.29741430282592773,8.596724510192871,-1.1940537691116333
1779910009543045400,17.85804541015625,0.42078423500061035,5.713509559631348,-1.6804543733596802
1779910009559390200,17.87439013671875,2.4161767959594727,0.5728931427001953,1.7369513511657715
1779910009575716900,17.890716796875,9.679051399230957,-3.3566417694091797,1.5887255668640137
1779910009592050000,17.9070498046875,13.506265640258789,-10.048504829406738,-1.8806216716766357
1779910009608380200,17.923380126953123,-6.424935340881348,-12.866205215454102,-4.456882476806641
1779910009624718300,17.93971826171875,-8.901119232177734,-3.589083671569824,-4.026035308837891
1779910009641052200,17.95605224609375,2.075110912322998,3.765841484069824,-3.154273509979248
1779910009657381600,17.972381591796875,5.615908622741699,6.759866237640381,-1.7013888359069824
1779910009673714200,17.988714111328125,9.162235260009766,6.6205220222473145,0.3754289746284485
1779910009690048800,18.005048828125,10.04462718963623,5.678102493286133,0.940361738204956
1779910009706379000,18.02137890625,8.13808536529541,2.6234278678894043,0.5955464839935303
1779910009722713900,18.0377138671875,6.341857433319092,-1.073390007019043,-0.2792610824108124
1779910009739047000,18.054046875,1.791656255722046,-8.998478889465332,-2.246729850769043
1779910009755392000,18.07039208984375,-10.223966598510742,-9.710796356201172,3.0411102771759033
1779910009771740700,18.08674072265625,0.1554889678955078,-0.39647388458251953,4.537914276123047
1779910009788056600,18.103056640625,6.200432300567627,2.9698281288146973,3.374370574951172
1779910009804389400,18.119389404296875,4.350743770599365,2.4149603843688965,2.057797431945801
1779910009820717300,18.13571728515625,1.6816610097885132,3.2360196113586426,0.5072900056838989
1779910009837057500,18.1520576171875,0.15788701176643372,2.682211399078369,-1.727143406867981
1779910009853390600,18.168390625,0.3889509439468384,1.7176799774169922,-2.3548266887664795
1779910009869722000,18.18472216796875,-0.6963120698928833,1.2251663208007812,-1.7794594764709473
1779910009886036200,18.2010361328125,-0.9405573606491089,0.7796430587768555,-0.6247929334640503
1779910009902383000,18.217383056640625,-1.7228004932403564,0.8782920837402344,0.5202284455299377
1779910009918724400,18.233724365234377,-2.6615853309631348,1.129098892211914,1.6310091018676758
1779910009935052500,18.250052490234374,-2.460999011993408,0.4849510192871094,2.4614291191101074
1779910009951368400,18.266368408203125,-1.8802247047424316,-0.4355936050415039,2.9782605171203613
1779910009967704300,18.282704345703124,-2.191528081893921,-1.2652206420898438,3.1491267681121826
1779910009984036400,18.299036376953126,-2.7870724201202393,-1.030379295349121,2.699617385864258
1779910010000369000,18.315368896484376,-2.4483556747436523,-0.5052242279052734,2.4882514476776123
1779910010016703700,18.331703857421875,-2.594540596008301,-0.8751630783081055,2.975813388824463
1779910010033034200,18.3480341796875,-2.6243977546691895,-1.6739082336425781,3.3156070709228516
1779910010049361200,18.364361083984374,-2.076894760131836,-1.3650407791137695,4.2026824951171875
1779910010065705500,18.38070556640625,-2.8518619537353516,-1.0210847854614258,5.782898902893066
1779910010082013400,18.397013427734375,-4.428786754608154,-1.7331275939941406,6.071389675140381
1779910010098366500,18.413366455078126,-2.7950923442840576,-1.9279308319091797,4.036545753479004
1779910010114700300,18.4297001953125,-3.488832473754883,-2.8577346801757812,4.2430419921875
1779910010131009500,18.446009521484374,-2.75791597366333,-2.8292856216430664,3.654539108276367
1779910010147365600,18.46236572265625,-2.10811185836792,-2.4445114135742188,2.862565517425537
1779910010163696400,18.4786962890625,-1.9810328483581543,-1.8542089462280273,3.3647007942199707
1779910010180031000,18.495031005859374,-1.3221282958984375,-1.2834892272949219,3.4627232551574707
1779910010196363000,18.511363037109376,-1.355204463005066,-1.8855228424072266,2.4118361473083496
1779910010212697000,18.527697021484375,-1.6285587549209595,-3.3659868240356445,0.2108258306980133
1779910010229028400,18.5440283203125,-0.1754084825515747,-4.385022163391113,-2.414046287536621
1779910010245379000,18.560379150390624,2.679408550262451,-5.764519691467285,-3.5037732124328613
1779910010261681400,18.576681396484375,3.2901053428649902,-5.541167259216309,-3.7250919342041016
1779910010278034000,18.593033935546874,2.8720226287841797,-4.470400810241699,-3.5256292819976807
1779910010294380000,18.609380126953123,1.7456347942352295,-3.2002763748168945,-2.6822550296783447
1779910010310708200,18.625708251953125,0.2069556713104248,-1.8878297805786133,-0.7926478981971741
1779910010327032600,18.642032470703125,-0.9993181228637695,-0.8187170028686523,1.6046310663223267
1779910010343380200,18.658380126953126,1.14111328125,-0.06615638732910156,3.3865725994110107
1779910010359701500,18.674701416015626,1.593564510345459,-0.2754688262939453,5.035820007324219
1779910010376042800,18.691042724609375,1.5649850368499756,0.5491037368774414,3.2123818397521973
1779910010392370700,18.70737060546875,0.5734004974365234,0.9185457229614258,2.127675771713257
1779910010408683300,18.723683349609374,1.7379369735717773,1.4488883018493652,1.4469289779663086
1779910010425040600,18.74004052734375,3.2933857440948486,3.276027202606201,1.0587407350540161
1779910010441350000,18.756349853515626,6.2091898918151855,4.536128520965576,1.0364158153533936
1779910010457691400,18.77269140625,7.915439605712891,6.296772003173828,0.5318679809570312
1779910010474022000,18.78902197265625,7.043811798095703,6.808490753173828,0.06486237049102783
1779910010490352600,18.8053525390625,6.156289577484131,6.880284786224365,-0.6545571684837341
1779910010506687700,18.821687744140625,5.285751819610596,6.517770767211914,-1.3440120220184326
1779910010523020800,18.838020751953124,3.2351036071777344,6.657891750335693,-1.9697849750518799
1779910010539369000,18.854368896484374,2.046790599822998,6.636983394622803,-2.2181153297424316
1779910010555679200,18.87067919921875,0.4029059410095215,5.193729400634766,-1.5791887044906616
1779910010572020200,18.887020263671875,-1.904111385345459,2.2289352416992188,-0.7213585376739502
1779910010588350500,18.9033505859375,-5.366020202636719,-3.617523193359375,-0.38589316606521606
1779910010604681700,18.919681640625,-9.338130950927734,-15.28605842590332,0.04979562759399414
1779910010621002000,18.936001953125,-10.180074691772461,-19.67034149169922,1.4500014781951904
1779910010637349600,18.952349609375,-8.84341049194336,-6.287070274353027,2.220660448074341
1779910010653669600,18.968669677734376,-6.334609031677246,1.9550528526306152,2.1282734870910645
1779910010670014200,18.98501416015625,-2.253828287124634,7.700701713562012,2.6290647983551025
1779910010686347300,19.00134716796875,0.911670446395874,7.556949615478516,2.624406337738037
1779910010702681600,19.017681640625,0.7466325759887695,2.7411670684814453,2.910101890563965
1779910010719013400,19.034013427734376,5.894720077514648,-1.4854307174682617,1.6538240909576416
1779910010735347200,19.05034716796875,14.465971946716309,-10.375706672668457,-0.23680776357650757
1779910010751682600,19.0666826171875,5.006180286407471,-16.33521270751953,-3.5661380290985107
1779910010768026400,19.0830263671875,-14.108152389526367,-10.540416717529297,-5.444571495056152
1779910010784360400,19.0993603515625,-2.8047187328338623,2.2809410095214844,-5.9347243309021
1779910010800688400,19.1156884765625,3.332901954650879,7.629523277282715,-4.157845973968506
1779910010817025000,19.13202490234375,8.055562973022461,7.5246782302856445,-1.3248956203460693
1779910010833357800,19.14835791015625,11.687469482421875,6.572290420532227,-0.3756290674209595
1779910010849690600,19.164690673828126,9.700479507446289,4.556894779205322,0.09248924255371094
1779910010866022400,19.1810224609375,8.206974029541016,1.4177818298339844,-1.058215856552124
1779910010882363100,19.197363037109376,4.337241172790527,-4.2652082443237305,-3.346230983734131
1779910010898687700,19.213687744140625,-11.39538860321045,-12.016280174255371,-2.2319886684417725
1779910010915020500,19.2300205078125,-4.052885055541992,-5.154850959777832,4.487723350524902
1779910010931337500,19.24633740234375,5.575677871704102,0.6204385757446289,5.763450622558594
1779910010947672600,19.262672607421877,7.13124418258667,2.3590598106384277,4.38918399810791
1779910010964006000,19.279005859375,2.1741113662719727,2.839247226715088,2.7994847297668457
1779910010980322300,19.295322265625,-1.0077364444732666,3.1594743728637695,0.9318852424621582
1779910010996675000,19.311675048828125,-2.1363706588745117,2.1839599609375,-1.6589000225067139
1779910011013003800,19.328003662109374,-0.3691604733467102,1.2904901504516602,-2.282892942428589
1779910011029338400,19.34433837890625,-0.5910556316375732,1.586258888244629,-1.0451581478118896
1779910011045669000,19.360669189453127,-0.9258741140365601,1.3793249130249023,0.462670236825943
1779910011062003500,19.37700341796875,-2.234658718109131,1.1843538284301758,1.5815081596374512
1779910011078338000,19.393338134765624,-3.1971781253814697,0.9601202011108398,2.4688405990600586
1779910011094672600,19.409672607421875,-2.6335620880126953,0.5156173706054688,2.514313220977783
1779910011110994700,19.42599462890625,-2.2638940811157227,0.4773721694946289,2.5941078662872314
1779910011127338000,19.442337890625,-1.9559838771820068,-0.12269401550292969,2.8397865295410156
1779910011143666700,19.458666748046873,-2.9371042251586914,-0.15778350830078125,2.653371572494507
1779910011159999200,19.474999267578124,-3.1311683654785156,0.03985595703125,2.4705655574798584
1779910011176325600,19.49132568359375,-2.5570008754730225,-0.9896183013916016,3.0096490383148193
1779910011192671500,19.50767138671875,-1.4458918571472168,-2.152891159057617,3.5767946243286133
1779910011208998000,19.523997802734375,-1.0684583187103271,-1.1133546829223633,4.060794830322266
1779910011225327000,19.5403271484375,-3.1365346908569336,-0.5560264587402344,4.485018730163574
1779910011241663200,19.556663330078123,-3.120901107788086,-1.3180475234985352,4.4403839111328125
1779910011258001700,19.573001708984375,-1.7968969345092773,-2.378891944885254,4.6911234855651855
1779910011274344200,19.58934423828125,-1.442371129989624,-3.102787971496582,4.444939613342285
1779910011290670000,19.605670166015624,-1.2640528678894043,-3.33524227142334,3.7826473712921143
1779910011306987800,19.62198779296875,-2.198258399963379,-3.777984619140625,3.530029296875
1779910011323351600,19.6383515625,-2.5508975982666016,-5.802788734436035,2.835181713104248
1779910011339669500,19.65466943359375,-1.7516461610794067,-3.3092594146728516,0.7440915107727051
1779910011356011500,19.671011474609376,-2.0917258262634277,-0.5382051467895508,-0.9351614713668823
1779910011372341500,19.687341552734374,-2.3508591651916504,0.9204893112182617,-2.6387863159179688
1779910011388658400,19.703658447265624,-1.4954242706298828,-0.28212738037109375,-4.819653511047363
1779910011405005000,19.720005126953126,0.8048373460769653,-2.5587596893310547,-5.663156032562256
1779910011421323000,19.736322998046877,3.6545443534851074,-4.266262054443359,-5.398183345794678
1779910011437659100,19.7526591796875,3.3875255584716797,-4.765507698059082,-3.914578676223755
1779910011453989000,19.768989013671874,1.7848727703094482,-4.639886856079102,-1.8388856649398804
1779910011470322200,19.785322265625,0.5614768266677856,-3.991940498352051,0.3860737383365631
1779910011486657300,19.8016572265625,-2.421372890472412,-3.0452566146850586,2.056983709335327
1779910011502986500,19.817986572265625,-1.6054468154907227,-2.1580028533935547,2.7965500354766846
1779910011519343900,19.83434375,1.8937417268753052,-0.13061141967773438,2.0698723793029785
1779910011535661800,19.850661865234375,2.41249418258667,0.9282350540161133,1.796865701675415
1779910011551992000,19.866991943359373,1.6299840211868286,1.6200246810913086,1.1856588125228882
1779910011568320500,19.883320556640626,2.051631212234497,2.409573554992676,0.4984797239303589
1779910011584654600,19.899654541015625,2.593651294708252,3.1378440856933594,-0.006078273057937622
1779910011600983800,19.91598388671875,3.314183473587036,3.948279857635498,-0.015426158905029297
1779910011617321500,19.932321533203126,4.202088832855225,4.753812313079834,0.2946896255016327
1779910011633651000,19.94865087890625,4.955994606018066,5.936075687408447,0.28410616517066956
1779910011649984800,19.96498486328125,5.076077938079834,6.807425498962402,0.1397465467453003
1779910011666318000,19.981318115234377,4.068194389343262,6.551875114440918,0.075214684009552
1779910011682651000,19.99765087890625,3.9902987480163574,6.143400192260742,-0.050345659255981445
1779910011698984000,20.01398388671875,3.402482271194458,5.731792449951172,-0.4770663380622864
1779910011715317500,20.0303173828125,2.1800498962402344,5.4840474128723145,-0.9692739248275757
1779910011731649300,20.046649169921874,0.506767749786377,4.496612071990967,-0.8772597312927246
1779910011747983400,20.0629833984375,-2.2377021312713623,2.3707566261291504,-0.6181601285934448
1779910011764330500,20.07933056640625,-7.366143226623535,-2.917154312133789,-0.544654905796051
1779910011780650800,20.095650634765626,-10.762187957763672,-12.405960083007812,1.31247878074646
1779910011796990200,20.111990234375,-7.615840435028076,-15.293731689453125,1.6548054218292236
1779910011813333000,20.1283330078125,-4.412184715270996,-5.546051979064941,0.500190019607544
1779910011829660200,20.14466015625,-8.869379997253418,1.754755973815918,-2.4271085262298584
1779910011845994200,20.160994140625,-7.756514549255371,0.9554767608642578,-4.4900946617126465
1779910011862325500,20.177325439453124,-3.3899312019348145,-8.408365249633789,-3.355313539505005
1779910011878659000,20.1936591796875,0.951906681060791,-19.507347106933594,-1.9941980838775635
1779910011894986500,20.209986572265624,7.060943603515625,-9.254352569580078,1.9929726123809814
1779910011911297800,20.2262978515625,7.471898078918457,8.232033729553223,0.23965567350387573
1779910011927643400,20.242643310546875,7.802648544311523,16.891313552856445,-4.338830471038818
1779910011943977500,20.2589775390625,5.615044116973877,9.739480018615723,-7.454320430755615
1779910011960308000,20.275307861328123,0.08071088790893555,7.381048679351807,-5.020851135253906
1779910011976642800,20.291642822265626,9.838092803955078,3.0408220291137695,-0.7259767651557922
1779910011992974600,20.307974609375,11.325270652770996,-1.83526611328125,0.8952168226242065
1779910012009306600,20.324306640625,6.736906051635742,-7.8623552322387695,1.8789496421813965
1779910012025656600,20.340656494140624,-0.5856156349182129,-12.556624412536621,3.4112987518310547
1779910012041971000,20.356970947265626,-3.2619118690490723,-9.500393867492676,5.204288482666016
1779910012058304800,20.3733046875,0.3487311601638794,-0.5803403854370117,5.040317058563232
1779910012074627000,20.389626953125,2.3214361667633057,2.5419836044311523,2.3571584224700928
1779910012090972000,20.405971923828126,2.4073662757873535,2.2314114570617676,0.5726858973503113
1779910012107303200,20.42230322265625,0.6152041554450989,1.640833854675293,-0.5934482216835022
1779910012123640600,20.438640625,0.6388554573059082,2.0520987510681152,-0.9033533930778503
1779910012139972000,20.45497216796875,0.022112548351287842,1.7172346115112305,-0.5103561878204346
1779910012156300500,20.471300537109375,0.1290365755558014,0.9286870956420898,0.010413452982902527
1779910012172612900,20.48761279296875,0.7824659943580627,0.75787353515625,0.1807544231414795
1779910012188969200,20.50396923828125,1.3777186870574951,0.7440586090087891,-0.05142602324485779
1779910012205300500,20.520300537109375,0.3446410298347473,1.3218345642089844,0.6856735944747925
1779910012221636400,20.53663623046875,-0.7085995078086853,2.142702579498291,1.3061233758926392
1779910012237960000,20.5529599609375,-0.650823712348938,2.4712228775024414,1.2985773086547852
1779910012254301000,20.569301025390626,-1.8403154611587524,2.027622699737549,1.0567830801010132
1779910012270650400,20.585650390625,-3.678962230682373,0.8500957489013672,0.4172149896621704
1779910012286960600,20.601960693359374,-3.0618810653686523,0.19521331787109375,0.5777965188026428
1779910012303291100,20.618291015625,-1.6263353824615479,0.26097774505615234,1.9643609523773193
1779910012319639300,20.634639404296873,-1.870133399963379,-0.06921195983886719,3.0140604972839355
1779910012335986700,20.650986572265627,-2.628934621810913,0.11894512176513672,3.0535244941711426
1779910012352315600,20.667315673828124,-2.078639507293701,0.1557912826538086,2.362515687942505
1779910012368641300,20.683641357421877,-1.6372770071029663,-0.9486198425292969,1.8158506155014038
1779910012384980000,20.69997998046875,-1.6074124574661255,-1.5918874740600586,2.163698434829712
1779910012401293000,20.71629296875,-1.73451566696167,-0.7726163864135742,3.9572067260742188
1779910012417629400,20.73262939453125,-2.806284189224243,-0.7462434768676758,6.186778545379639
1779910012433963000,20.748962890625,-2.675691604614258,-1.6992254257202148,6.355006694793701
1779910012450293500,20.76529345703125,-1.5390931367874146,-2.3545827865600586,5.113222122192383
1779910012466629400,20.78162939453125,-1.4995741844177246,-3.350961685180664,4.613377571105957
