time,seconds_elapsed,z,y,x
1779909991801465000,0.116465087890625,-0.21884247660636902,0.16691893339157104,0.1333213448524475
1779909991817793300,0.132793212890625,-0.230448916554451,-0.04108068719506264,-0.2021963894367218
1779909991834137900,0.149137939453125,-0.39813143014907837,-0.6730207800865173,-0.34116822481155396
1779909991850479000,0.16547900390625,-0.4147774875164032,-1.541213035583496,-0.3833179473876953
1779909991866811400,0.181811279296875,-0.39797869324684143,-2.123825788497925,-0.37140607833862305
1779909991883146200,0.198146240234375,-0.5803219676017761,-2.3516783714294434,-0.35613444447517395
1779909991899479300,0.214479248046875,-1.1701123714447021,-2.0725131034851074,-0.3793473243713379
1779909991915830300,0.230830322265625,-1.325730323791504,-1.9477438926696777,-0.39064833521842957
1779909991932155000,0.24715478515625,-0.5896376967430115,-1.7084373235702515,-0.22143864631652832
1779909991948495400,0.263495361328125,0.16844609379768372,-1.6826282739639282,0.08109235763549805
1779909991964819700,0.27981982421875,0.27611109614372253,-1.7993035316467285,0.5551238059997559
1779909991981163800,0.296163818359375,0.21914790570735931,-2.356412649154663,1.1560624837875366
1779909991997488000,0.312488037109375,0.20036379992961884,-3.221092462539673,1.7873916625976562
1779909992013806000,0.32880615234375,-0.032070424407720566,-4.112955570220947,2.252718210220337
1779909992030157000,0.345156982421875,0.17699819803237915,-4.70213508605957,2.225382089614868
1779909992046464800,0.36146484375,0.8620835542678833,-4.1610612869262695,1.6821701526641846
1779909992062807800,0.377807861328125,1.3848315477371216,-3.961461067199707,0.7889324426651001
1779909992079139600,0.3941396484375,1.7603609561920166,-4.406018257141113,0.13209961354732513
1779909992095475000,0.410474853515625,2.0508272647857666,-5.41364049911499,0.24037547409534454
1779909992111808300,0.426808349609375,2.5581510066986084,-7.133378982543945,1.189049243927002
1779909992128140000,0.44314013671875,3.193298101425171,-7.509977340698242,2.1484131813049316
1779909992144473300,0.459473388671875,3.576616048812866,-6.171876907348633,2.0360138416290283
1779909992160805400,0.475805419921875,3.9287798404693604,-4.567439556121826,1.0737483501434326
1779909992177136000,0.49213623046875,3.799276351928711,-2.590373992919922,-0.048716504126787186
1779909992201675800,0.51667578125,3.1471776962280273,-0.48227810859680176,-1.6125315427780151
1779909992217960700,0.532960693359375,2.9941558837890625,-0.20952677726745605,-1.9854648113250732
1779909992234304300,0.54930419921875,3.090672731399536,-1.1385000944137573,-1.6293302774429321
1779909992250636000,0.565635986328125,3.0505082607269287,-2.5809056758880615,-0.6446155309677124
1779909992266970400,0.581970458984375,2.6610817909240723,-3.7455203533172607,0.7683157324790955
1779909992283303400,0.598303466796875,2.3264803886413574,-4.317595481872559,2.403602123260498
1779909992299636200,0.61463623046875,2.2437081336975098,-4.161672115325928,3.888768196105957
1779909992315970000,0.630969970703125,1.571603536605835,-3.9319868087768555,4.31087589263916
1779909992332298000,0.647298095703125,0.8713992834091187,-3.0754010677337646,3.529121160507202
1779909992348638200,0.66363818359375,0.4424191415309906,-2.0085248947143555,2.431243658065796
1779909992373135000,0.688135009765625,0.18616119027137756,-0.8964447379112244,1.2851077318191528
1779909992389467000,0.704466796875,0.4867068827152252,-0.7313584089279175,0.7284567952156067
1779909992405802800,0.720802734375,1.0155634880065918,-0.5813909769058228,0.3871358633041382
1779909992422133000,0.737133056640625,1.4862351417541504,0.14019356667995453,0.3536909818649292
1779909992438457600,0.75345751953125,1.6417003870010376,0.8828529715538025,0.6490443348884583
1779909992454800600,0.769800537109375,1.0881037712097168,1.010829210281372,1.0813841819763184
1779909992471134000,0.786134033203125,0.6336199641227722,0.9657779335975647,1.1844676733016968
1779909992487465700,0.8024658203125,0.664315938949585,0.8553640842437744,1.1504119634628296
1779909992503791900,0.8187919921875,0.5169447064399719,1.129489779472351,0.9724974632263184
1779909992520139500,0.835139404296875,0.14584407210350037,0.6656904220581055,0.917672336101532
1779909992536464000,0.8514638671875,0.4541783034801483,1.228297233581543,0.8304712772369385
1779909992552800500,0.867800537109375,0.6811147332191467,2.051743745803833,0.5623014569282532
1779909992569129500,0.88412939453125,0.3778201639652252,1.528690218925476,0.5429064631462097
1779909992585459500,0.90045947265625,0.27947086095809937,0.8177958726882935,0.6887505650520325
1779909992601798100,0.916798095703125,0.3767511546611786,2.0899226665496826,0.07422012835741043
1779909992618125000,0.933125,0.19975294172763824,1.7153096199035645,-0.5427537560462952
1779909992634465300,0.94946533203125,0.12553280591964722,1.4836390018463135,-0.7825183868408203
1779909992650802400,0.965802490234375,0.38927388191223145,1.192256212234497,-0.7777841687202454
1779909992667107300,0.982107421875,0.6653849482536316,1.5673274993896484,-0.44364088773727417
1779909992683459600,0.99845947265625,0.6795876026153564,1.892765998840332,-0.304669052362442
1779909992699799800,1.0147998046875,0.8602510094642639,1.9787452220916748,-0.3101668357849121
1779909992716122600,1.03112255859375,0.856433093547821,1.9506454467773438,-0.5514585971832275
1779909992732454100,1.0474541015625,0.7037167549133301,1.788308024406433,-0.8704829812049866
1779909992748799500,1.063799560546875,0.978606104850769,1.9674441814422607,-0.9935722947120667
1779909992765123600,1.08012353515625,1.380402684211731,1.6872098445892334,-0.9699012637138367
1779909992781457700,1.096457763671875,1.3104586601257324,1.3277156352996826,-1.0302242040634155
1779909992797798400,1.11279833984375,1.1658363342285156,1.115287184715271,-1.1756101846694946
1779909992814122200,1.129122314453125,1.2377656698226929,1.1930198669433594,-1.0430524349212646
1779909992830455800,1.145455810546875,1.5616769790649414,0.9870055317878723,-0.9095783233642578
1779909992846794800,1.161794677734375,1.8277088403701782,0.265573650598526,-0.46761733293533325
1779909992863122400,1.178122314453125,2.049147367477417,-0.840397834777832,-0.10216721147298813
1779909992879456300,1.194456298828125,2.381152629852295,-1.3009902238845825,-0.08048149943351746
1779909992895808500,1.21080859375,2.4022276401519775,-1.1936306953430176,-0.22311852872371674
1779909992912132600,1.227132568359375,2.037693738937378,-0.9482156038284302,-0.24526239931583405
1779909992928468700,1.24346875,1.4651602506637573,-0.3271183371543884,-0.6146831512451172
1779909992944809000,1.25980908203125,0.9083566069602966,0.8316930532455444,-1.38849675655365
1779909992961134600,1.276134521484375,1.0348057746887207,1.8440494537353516,-2.2200369834899902
1779909992977443000,1.292443115234375,1.3351987600326538,1.887115478515625,-2.0761783123016357
1779909992993799200,1.308799072265625,1.602452278137207,0.6400340795516968,-1.6743816137313843
1779909993010135300,1.32513525390625,2.030057907104492,-0.19883663952350616,-1.3889548778533936
1779909993026449400,1.341449462890625,2.1313087940216064,0.13775011897087097,-1.4613423347473145
1779909993042773000,1.35777294921875,1.715767741203308,1.0914634466171265,-1.769829273223877
1779909993059116500,1.374116455078125,1.2651019096374512,1.6992744207382202,-1.5517504215240479
1779909993075451100,1.390451171875,0.8257371187210083,1.6059647798538208,-1.3802499771118164
1779909993091786200,1.4067861328125,0.30711251497268677,1.2365440130233765,-1.2311989068984985
1779909993108116200,1.4231162109375,-0.6575964093208313,0.5975789427757263,-0.8717046976089478
1779909993124450600,1.439450439453125,-1.6525431871414185,-0.4063780903816223,-0.3396410644054413
1779909993140783000,1.455783203125,-2.5103507041931152,-1.1507173776626587,-0.4660901725292206
1779909993157114400,1.4721142578125,-3.0027081966400146,-0.8759807348251343,-0.46532660722732544
1779909993173443600,1.488443603515625,-3.014467239379883,0.16844609379768372,-0.38606682419776917
1779909993189786000,1.5047861328125,-3.112511157989502,1.0584768056869507,-0.3455969989299774
1779909993206111500,1.521111572265625,-3.162296772003174,0.3003929853439331,-0.36163222789764404
1779909993222451200,1.537451171875,-3.1917707920074463,-0.6476698517799377,0.43539419770240784
1779909993238779600,1.553779541015625,-2.8176159858703613,-1.3927727937698364,1.0419833660125732
1779909993255114800,1.57011474609375,-2.0725131034851074,-1.2044734954833984,1.277166485786438
1779909993271444700,1.58644482421875,-1.6968309879302979,-1.254717230796814,1.2182179689407349
1779909993287798800,1.602798828125,-1.724930763244629,-1.3881912231445312,0.911410927772522
1779909993304111000,1.619111083984375,-1.549154281616211,-1.3464996814727783,0.34605515003204346
1779909993320424200,1.635424072265625,-1.2403619289398193,-1.2331842184066772,0.18509216606616974
1779909993336779500,1.651779541015625,-0.9234755635261536,-1.672243595123291,0.623235285282135
1779909993353111600,1.668111572265625,-0.5009095072746277,-1.3758212327957153,0.4996877610683441
1779909993369444400,1.6844443359375,-0.05910121276974678,-0.9356928467750549,0.2715296149253845
1779909993385790500,1.70079052734375,0.365755558013916,-0.9601274728775024,0.3000875413417816
1779909993402128600,1.717128662109375,0.6959282159805298,-1.0680978298187256,0.08002334833145142
1779909993418457000,1.73345703125,0.7742717266082764,-1.0047205686569214,-0.24465152621269226
1779909993434789000,1.7497890625,0.7476990818977356,-0.9920451641082764,-0.3770565688610077
1779909993451117800,1.766117919921875,0.8805622458457947,-0.9531024694442749,-0.3822489380836487
1779909993467460600,1.782460693359375,0.8814785480499268,-0.9902125597000122,-0.17867808043956757
1779909993483780000,1.798780029296875,0.8568912148475647,-0.921795666217804,0.01725694350898266
1779909993500125700,1.815125732421875,0.7231117486953735,-0.8425359129905701,-0.09376781433820724
1779909993516447700,1.83144775390625,0.48655417561531067,-1.135140299797058,-0.423329621553421
1779909993532778500,1.847778564453125,0.3358231782913208,-1.4130840301513672,-0.7782423496246338
1779909993549105700,1.864105712890625,0.4717406928539276,-1.056491494178772,-0.831234872341156
1779909993565439500,1.880439453125,0.9049968719482422,-0.521984338760376,-0.5422956347465515
1779909993581770200,1.896770263671875,1.7105754613876343,-0.36163222789764404,-0.34116822481155396
1779909993598108000,1.91310791015625,2.7626380920410156,-0.712574303150177,-0.2721404731273651
1779909993614438400,1.9294384765625,2.914438009262085,-0.7895433306694031,-0.37369680404663086
1779909993630754600,1.945754638671875,2.753016948699951,0.14935655891895294,-0.6717990636825562
1779909993647085000,1.9620849609375,2.495537281036377,1.1679743528366089,-0.8689557909965515
1779909993663436300,1.978436279296875,1.8839083909988403,1.8080084323883057,-0.4836525619029999
1779909993679770400,1.994770263671875,1.7174476385116577,1.875814437866211,0.3061962127685547
1779909993696101000,2.01110107421875,1.6620116233825684,0.9279043078422546,0.7646505832672119
1779909993712436500,2.0274365234375,1.5428929328918457,-0.0809396430850029,0.46547931432724
1779909993728770000,2.04377001953125,0.7192938327789307,-0.5381723046302795,0.1267545372247696
1779909993745101600,2.0601015625,-0.2454151064157486,-0.2672535479068756,0.08307767659425735
1779909993761433000,2.07643310546875,-1.1140655279159546,0.7544185519218445,0.32299500703811646
1779909993777768200,2.092768310546875,-1.9686659574508667,2.3771820068359375,0.711963415145874
1779909993794101000,2.10910107421875,-2.5584564208984375,3.6381607055664062,1.2258538007736206
1779909993810432500,2.1254326171875,-2.599384307861328,4.051716327667236,0.8432994484901428
1779909993826765600,2.141765625,-2.6065618991851807,3.2597296237945557,0.4106541574001312
1779909993843100000,2.158099853515625,-2.4659101963043213,1.9286543130874634,0.030237829312682152
1779909993859430400,2.174430419921875,-2.0112738609313965,0.4917465150356293,0.4386012554168701
1779909993875785200,2.19078515625,-1.6177239418029785,-0.2197587788105011,1.1484266519546509
1779909993892107800,2.207107666015625,-1.5363260507583618,0.599564254283905,1.1899654865264893
1779909993908429300,2.22342919921875,-1.7246253490447998,1.6911804676055908,0.8443684577941895
1779909993924765000,2.239764892578125,-1.8200730085372925,2.2174408435821533,0.5354233980178833
1779909993941084000,2.256083984375,-1.632842779159546,1.8978055715560913,1.1914926767349243
1779909993957429800,2.2724296875,-0.6659958362579346,0.3341432809829712,1.0311405658721924
1779909993973765400,2.288765380859375,0.4755585789680481,0.39584067463874817,0.5801692605018616
1779909993990096600,2.3050966796875,0.3914119005203247,0.6702718734741211,0.4729624092578888
1779909994006420500,2.32142041015625,0.26542094349861145,1.052673578262329,0.2197587788105011
1779909994022776600,2.337776611328125,0.2295326143503189,1.2539535760879517,-0.00855211354792118
1779909994039090400,2.35409033203125,0.28298333287239075,0.6262896060943604,0.08918632566928864
1779909994055428400,2.370428466796875,0.5216789245605469,-0.4740314185619354,0.23716843128204346
1779909994071761200,2.38676123046875,0.9460775256156921,-1.0366383790969849,-0.03787364438176155
1779909994088107000,2.40310693359375,1.425148606300354,-0.9161451458930969,-0.28619036078453064
1779909994104426800,2.4194267578125,1.3755158185958862,-0.694553792476654,-0.4050036668777466
1779909994120758800,2.4357587890625,0.9399688839912415,-0.355981707572937,-0.508087158203125
1779909994137106400,2.4521064453125,0.8695666790008545,-0.025503624230623245,-0.5711590051651001
1779909994153441300,2.468441162109375,0.7670940160751343,0.098502017557621,-0.22999076545238495
1779909994169765600,2.484765625,1.1201741695404053,0.12782354652881622,-0.14767667651176453
1779909994186112800,2.50111279296875,1.6378824710845947,-0.25442537665367126,-0.17867808043956757
1779909994202432500,2.5174326171875,2.4573581218719482,-0.5245805382728577,-0.2955060601234436
1779909994218758100,2.533758056640625,2.6784913539886475,-0.4856378734111786,-0.3003929853439331
1779909994235085000,2.5500849609375,1.8628336191177368,0.5297728776931763,-1.0592403411865234
1779909994251426000,2.566426025390625,1.4367550611495972,1.3669637441635132,-1.3950635194778442
1779909994267755800,2.582755859375,1.0903944969177246,1.1163562536239624,-0.8723155856132507
1779909994284093000,2.599093017578125,1.4821118116378784,0.4109596014022827,-0.6117815375328064
1779909994300420400,2.61542041015625,1.397354245185852,-0.7521278262138367,-0.5035057067871094
1779909994316741600,2.63174169921875,1.2446379661560059,-1.716989517211914,-0.5911648273468018
1779909994333088300,2.648088134765625,1.3840678930282593,-2.45369291305542,-1.0349584817886353
1779909994349419800,2.664419677734375,1.4326317310333252,-2.8351783752441406,-1.8127425909042358
1779909994365753900,2.68075390625,1.1407908201217651,-2.683225631713867,-2.3486242294311523
1779909994382087400,2.69708740234375,0.2770273983478546,-2.651460647583008,-2.3018929958343506
1779909994398436900,2.713436767578125,-0.5991060733795166,-2.953227996826172,-1.6781995296478271
1779909994414761500,2.729761474609375,-1.2053898572921753,-2.741257905960083,-1.5428929328918457
1779909994431086300,2.74608642578125,-1.5178474187850952,-0.7266241908073425,-1.4782938957214355
1779909994447427300,2.76242724609375,-1.6412421464920044,0.39843684434890747,-1.0810787677764893
1779909994463770400,2.778770263671875,-1.4941763877868652,-1.7160731554031372,-0.4415028691291809
1779909994480092700,2.7950927734375,-1.0128145217895508,-2.0473148822784424,-0.7310529947280884
1779909994496432400,2.811432373046875,-0.23854288458824158,-2.149787425994873,-1.0659598112106323
1779909994512761600,2.82776171875,0.7887797355651855,-2.6195428371429443,-1.0083857774734497
1779909994529073000,2.844072998046875,2.16964054107666,-3.8511998653411865,-0.5648976564407349
1779909994545415200,2.860415283203125,2.909092903137207,-5.578726768493652,-0.13026700913906097
1779909994561748700,2.876748779296875,3.2250630855560303,-6.014121055603027,0.1849394589662552
1779909994578082600,2.89308251953125,2.481334686279297,-4.272086143493652,0.4735732674598694
1779909994594411300,2.909411376953125,0.299018532037735,-2.3127357959747314,0.21960605680942535
1779909994610745600,2.92574560546875,-0.6809620261192322,-0.722959041595459,-0.12202033400535583
1779909994627065900,2.94206591796875,-0.6307183504104614,0.17776179313659668,-0.1287398487329483
1779909994643410700,2.95841064453125,-0.35964691638946533,-0.16951510310173035,0.41752639412879944
1779909994659746000,2.97474609375,-0.4105014503002167,-0.4564690589904785,0.9115636348724365
1779909994676079000,2.9910791015625,-1.0580185651779175,-0.01466076634824276,0.7550294399261475
1779909994692412400,3.007412353515625,-1.24647057056427,-0.789237916469574,1.3374894857406616
1779909994708745500,3.023745361328125,-0.6997461318969727,-1.024726390838623,1.268614411354065
1779909994725075500,3.040075439453125,-0.06520986557006836,-1.2484558820724487,0.7617489695549011
1779909994741414000,3.056413818359375,0.41141775250434875,-0.99250328540802,0.2793181240558624
1779909994757745200,3.0727451171875,0.5792529582977295,-0.5451972484588623,-0.34666603803634644
1779909994774078000,3.089077880859375,0.5769622325897217,-0.6453791260719299,-1.1415544748306274
1779909994790408400,3.105408447265625,0.4098905920982361,-0.4789183437824249,-1.744478464126587
1779909994806742800,3.12174267578125,0.389426589012146,-0.4992296099662781,-1.3584115505218506
1779909994823071700,3.13807177734375,-0.01466076634824276,-1.225701093673706,-0.5444336533546448
1779909994839413800,3.154413818359375,-0.3358231782913208,-1.296714186668396,-0.1281289905309677
1779909994855755800,3.170755859375,-0.8698720932006836,-0.5224425196647644,0.1670716404914856
1779909994872052200,3.18705224609375,-1.1016954183578491,1.5961909294128418,0.4772384762763977
1779909994888409300,3.203409423828125,-0.6214026808738708,2.9744555950164795,1.2067643404006958
1779909994904740400,3.219740234375,-0.3908010423183441,1.9274325370788574,1.0250319242477417
1779909994921074000,3.236073974609375,0.5904012322425842,-0.2591595947742462,-0.009468411095440388
1779909994937405400,3.252405517578125,1.1093312501907349,-0.7070765495300293,-0.28619036078453064
1779909994953739000,3.268739013671875,1.4596625566482544,-0.49785518646240234,-0.06872233748435974
1779909994970065200,3.285065185546875,1.4091134071350098,0.4804455041885376,0.024129176512360573
1779909994986419000,3.3014189453125,1.2852604389190674,2.068847894668579,0.09972374886274338
1779909995002730800,3.317730712890625,1.4407256841659546,2.8959593772888184,0.37201693654060364
1779909995019059200,3.33405908203125,1.539685845375061,2.992476224899292,0.7550294399261475
1779909995035404500,3.350404541015625,1.377501130104065,1.859321117401123,1.197601318359375
1779909995051740000,3.366739990234375,0.8365799784660339,0.00855211354792118,2.3709206581115723
1779909995068068000,3.383068115234375,0.27351492643356323,-0.5613851547241211,2.872899293899536
1779909995084399900,3.39939990234375,0.10965031385421753,-0.5916230082511902,2.512794256210327
1779909995100734500,3.415734375,0.2203696370124817,0.31810808181762695,1.5702290534973145
1779909995117068800,3.43206884765625,-0.26481008529663086,2.09083890914917,1.6630805730819702
1779909995133398500,3.4483984375,0.0630718395113945,2.657874584197998,1.9643899202346802
1779909995149755100,3.464755126953125,0.5497786998748779,1.529911994934082,1.6140587329864502
1779909995166079000,3.481078857421875,0.7163922190666199,0.574976921081543,1.2556334733963013
1779909995182418000,3.49741796875,0.716697633266449,0.4717406928539276,1.183704137802124
1779909995198726000,3.513725830078125,0.7267768979072571,0.49754974246025085,1.1853840351104736
1779909995215074600,3.530074462890625,0.6733261942863464,0.9054549932479858,1.0421360731124878
1779909995231396400,3.546396240234375,0.6359107494354248,1.4140002727508545,0.8303185701370239
1779909995247718700,3.56271875,0.6565274000167847,1.5398385524749756,0.746019184589386
1779909995264064800,3.579064697265625,0.6933320760726929,1.3466523885726929,0.6511823534965515
1779909995280397000,3.59539697265625,0.7266241908073425,1.0769554376602173,0.5074763298034668
1779909995296731400,3.6117314453125,0.6417139172554016,0.9182831645011902,0.32330042123794556
1779909995313063700,3.628063720703125,0.4847215712070465,1.0693196058273315,0.10231992602348328
1779909995329396500,3.644396484375,0.33597588539123535,1.1239920854568481,-0.038637228310108185
1779909995345745000,3.660744873046875,0.11774427443742752,0.8385652899742126,0.11316278576850891
1779909995362079700,3.677079833984375,-0.11407908797264099,0.1082758679986,0.2064724564552307
1779909995378409500,3.693409423828125,-0.28817567229270935,-0.0403171069920063,-0.1212567538022995
1779909995394711600,3.709711669921875,-0.5062545537948608,-0.18096883594989777,-0.5887213945388794
1779909995411060200,3.726060302734375,-0.8168795704841614,-0.44089198112487793,-0.8223773241043091
1779909995427394800,3.742394775390625,-1.1183415651321411,-1.1855367422103882,-1.2261592149734497
1779909995443722200,3.75872216796875,-1.5221234560012817,-1.5503759384155273,-1.715462327003479
1779909995460061400,3.7750615234375,-1.7490599155426025,-1.3552045822143555,-2.119244337081909
1779909995476398600,3.791398681640625,-1.539685845375061,-1.463022232055664,-2.325105905532837
1779909995492727300,3.807727294921875,-1.2513574361801147,-1.7197383642196655,-2.3655755519866943
1779909995509073700,3.82407373046875,-0.8211556077003479,-1.289536476135254,-2.3512203693389893
1779909995525417200,3.840417236328125,-0.38759398460388184,-0.3065016269683838,-2.355496406555176
1779909995541721300,3.856721435546875,-0.08491026610136032,0.4375322461128235,-2.5648703575134277
1779909995558045000,3.873044921875,0.1742493063211441,0.6301075220108032,-2.7841711044311523
1779909995574390800,3.889390869140625,0.39477166533470154,0.43676865100860596,-2.7685940265655518
1779909995590711000,3.9057109375,0.24648413062095642,-0.5363397002220154,-2.188424825668335
1779909995607056100,3.92205615234375,0.16279558837413788,-2.172389507293701,-1.42637038230896
1779909995623388000,3.938387939453125,0.16279558837413788,-2.6978864669799805,-1.221577763557434
1779909995639728400,3.954728271484375,-0.02519819140434265,-1.9301815032958984,-1.6575828790664673
1779909995656055800,3.971055908203125,-0.2831360399723053,-1.3571898937225342,-1.7875443696975708
1779909995672383700,3.9873837890625,-0.4990769028663635,-1.5238033533096313,-1.441794753074646
1779909995688720600,4.003720703125,-0.6133087277412415,-1.959502935409546,-1.1511754989624023
1779909995705040600,4.02004052734375,-0.5268712639808655,-2.333352565765381,-1.0506882667541504
1779909995721386200,4.03638623046875,-0.46761733293533325,-2.4437663555145264,-1.030071496963501
1779909995737708800,4.052708740234375,-0.4098905920982361,-2.3438899517059326,-0.9508117437362671
1779909995754050000,4.069050048828125,-0.3271183371543884,-2.2569942474365234,-0.6776022911071777
1779909995770387200,4.08538720703125,-0.28237244486808777,-2.0337231159210205,-0.05971207842230797
1779909995786712800,4.101712890625,-0.20845776796340942,-1.5835154056549072,0.5746715068817139
1779909995803057000,4.118056884765625,-0.21212296187877655,-1.0502300262451172,1.2084441184997559
1779909995819381800,4.1343818359375,-0.30253100395202637,-0.4586070775985718,1.8061758279800415
1779909995835722800,4.15072265625,-0.44654250144958496,-0.07819075137376785,2.2650883197784424
1779909995852061200,4.167061279296875,-0.3856086730957031,-0.11820242553949356,1.898263692855835
1779909995868364000,4.183364013671875,-0.07666359096765518,0.17287486791610718,-0.06902777403593063
1779909995884731600,4.199731689453125,-0.13866640627384186,-0.24953845143318176,-0.803135097026825
1779909995901075200,4.2160751953125,-0.2701551616191864,-0.7644978761672974,-0.9766207933425903
1779909995917394700,4.232394775390625,-0.4434881806373596,-1.087492823600769,-0.5969680547714233
1779909995933726500,4.2487265625,-0.49846604466438293,-1.50211763381958,0.11728613078594208
1779909995950064600,4.265064697265625,-0.13179416954517365,-1.0375546216964722,0.3410155177116394
1779909995966389200,4.28138916015625,0.17012597620487213,-0.3352122902870178,0.23655757308006287
1779909995982732000,4.29773193359375,-0.11957687139511108,0.6517932415008545,0.6068946123123169
1779909995999059500,4.3140595703125,-0.1238529309630394,2.8102855682373047,1.2264647483825684
1779909996015392500,4.330392578125,1.2996158599853516,4.4483208656311035,1.6140587329864502
1779909996031727600,4.3467275390625,1.3483322858810425,1.4092661142349243,0.04245513305068016
1779909996048027600,4.363027587890625,-0.18631389737129211,0.11453723162412643,-0.5539020895957947
1779909996064375600,4.37937548828125,-0.5393940210342407,1.0366383790969849,0.12140946835279465
1779909996080714500,4.395714599609375,-0.4086688458919525,1.6090190410614014,0.9544769525527954
1779909996097038300,4.412038330078125,-0.22632557153701782,1.8235855102539062,1.8445075750350952
1779909996113380600,4.428380615234375,0.18585574626922607,2.545628309249878,2.4294111728668213
1779909996129709800,4.444709716796875,1.0532844066619873,3.366936445236206,2.339155673980713
1779909996146042400,4.46104248046875,1.47844660282135,1.8124371767044067,0.9870055317878723
1779909996162389800,4.4773896484375,0.799011766910553,-1.3161091804504395,0.31932979822158813
1779909996178702600,4.49370263671875,-0.022143865004181862,-1.7753270864486694,2.404060125350952
1779909996195054000,4.51005419921875,-0.656069278717041,-0.08384125679731369,2.766761302947998
1779909996211358700,4.526358642578125,-0.9404270648956299,1.1826350688934326,2.02929425239563
1779909996227695600,4.542695556640625,-0.7163922190666199,1.7140878438949585,1.4110987186431885
1779909996244038700,4.55903857421875,-0.2715296149253845,2.5143213272094727,1.094365119934082
1779909996260372000,4.5753720703125,0.10735956579446793,2.9526171684265137,1.1276572942733765
1779909996276706800,4.591706787109375,0.4893030524253845,2.2675318717956543,1.487609624862671
1779909996293037800,4.608037841796875,0.7357872128486633,1.0193814039230347,1.6612480878829956
1779909996309371600,4.62437158203125,0.7797694802284241,-0.0403171069920063,1.5734361410140991
1779909996325722000,4.64072216796875,0.722348153591156,0.05772676691412926,1.374599575996399
1779909996342056400,4.657056396484375,0.6392704844474792,1.1087204217910767,0.9289733171463013
1779909996358379000,4.67337890625,0.6006332635879517,2.149634838104248,0.6001750826835632
1779909996374716400,4.68971630859375,0.5885686874389648,2.2592852115631104,0.566730260848999
1779909996391050000,4.706050048828125,0.636521577835083,1.2148582935333252,0.6149885654449463
1779909996407378200,4.722378173828125,0.6487388610839844,0.504574716091156,0.44425174593925476
1779909996423730000,4.73872998046875,0.5603161454200745,0.7748825550079346,0.22388210892677307
1779909996440038100,4.7550380859375,0.37522396445274353,1.2890783548355103,0.06673702597618103
1779909996456369000,4.771368896484375,0.1492038369178772,1.2137892246246338,0.030237829312682152
1779909996472716500,4.787716552734375,-0.06627888232469559,0.5010622143745422,0.18219055235385895
1779909996489066000,4.80406591796875,-0.12110403180122375,-0.18448130786418915,0.266642689704895
1779909996505380600,4.820380615234375,-0.18035796284675598,-0.15836681425571442,-0.0065668015740811825
1779909996521700600,4.83670068359375,-0.35582900047302246,-0.09957103431224823,-0.4596760869026184
1779909996538027800,4.85302783203125,-0.6114761233329773,-0.6916521787643433,-0.837496280670166
1779909996554365400,4.869365478515625,-0.9850202202796936,-1.3704761266708374,-1.3086260557174683
1779909996570697200,4.885697265625,-1.3574953079223633,-1.719585657119751,-1.726457953453064
1779909996587033000,4.902033203125,-1.5697709321975708,-1.6615535020828247,-2.12397837638855
1779909996603363300,4.91836328125,-1.4401148557662964,-1.8842138051986694,-2.373058795928955
1779909996619698000,4.934697998046875,-1.1879801750183105,-2.5896105766296387,-2.448195219039917
1779909996636038400,4.951038330078125,-0.7681630253791809,-2.300823926925659,-2.356412649154663
1779909996652375800,4.967375732421875,-0.33429601788520813,-0.6817256212234497,-2.2794437408447266
1779909996668708000,4.9837080078125,-0.22113321721553802,0.68951416015625,-2.4585797786712646
1779909996685036500,5.00003662109375,-0.20570887625217438,0.9781479835510254,-2.724153518676758
1779909996701355000,5.01635498046875,-0.10812314599752426,0.5413793325424194,-2.763554334640503
1779909996717678800,5.032678955078125,0.03680463135242462,-0.6495024561882019,-2.526386022567749
1779909996734026800,5.04902685546875,0.039706241339445114,-2.2295055389404297,-1.940413475036621
1779909996750359600,5.065359619140625,0.005497787147760391,-2.6948320865631104,-1.5080735683441162
1779909996766693000,5.081693115234375,-0.20311269164085388,-2.057088613510132,-1.4790574312210083
1779909996783023900,5.09802392578125,-0.37262779474258423,-1.6026049852371216,-1.5320500135421753
1779909996799341300,5.11434130859375,-0.543059229850769,-1.504408359527588,-1.3209960460662842
1779909996815710200,5.130710205078125,-0.7854200005531311,-1.7942639589309692,-0.9680687189102173
1779909996832025600,5.147025634765625,-0.8336783647537231,-2.3302981853485107,-0.7684684991836548
1779909996848371700,5.163371826171875,-0.790154218673706,-2.89534854888916,-0.7678576111793518
1779909996864689000,5.17968896484375,-0.73685622215271,-3.0494391918182373,-0.9297369122505188
1779909996881036500,5.19603662109375,-0.6035348773002625,-2.908634901046753,-0.8979719281196594
1779909996897364200,5.2123642578125,-0.44684791564941406,-2.6192374229431152,-0.41233405470848083
1779909996913702100,5.2287021484375,-0.299018532037735,-1.9895881414413452,0.39477166533470154
1779909996930037500,5.24503759765625,-0.24617868661880493,-1.2009611129760742,1.1749993562698364
1779909996946373600,5.26137353515625,-0.32268956303596497,-0.35323283076286316,1.8379408121109009
1779909996962702000,5.2777021484375,-0.4086688458919525,0.26893341541290283,2.4692699909210205
1779909996979035600,5.29403564453125,-0.294895201921463,0.560468852519989,2.830596923828125
1779909996995335000,5.3103349609375,0.22892175614833832,0.6910412907600403,1.4886785745620728
1779909997011686100,5.32668603515625,0.1492038369178772,0.6401867866516113,-0.7950411438941956
1779909997028013800,5.343013916015625,-0.22143864631652832,-1.1380419731140137,-1.4327844381332397
1779909997044353300,5.359353271484375,-0.23289237916469574,-1.8333593606948853,-1.2916746139526367
1779909997060688100,5.375688232421875,-0.24144448339939117,-2.3779456615448,-0.9237809777259827
1779909997077018600,5.3920185546875,-0.034666601568460464,-1.1191051006317139,-0.41233405470848083
1779909997093352000,5.40835205078125,0.4222606122493744,0.09651670604944229,0.06368270516395569
1779909997109684700,5.424684814453125,0.046273041516542435,1.9460639953613281,0.6435465216636658
1779909997126019800,5.441019775390625,0.14538592100143433,4.773606300354004,1.1129964590072632
1779909997142366700,5.45736669921875,0.7680103182792664,4.064086437225342,0.9040805697441101
1779909997158698000,5.473697998046875,-0.0780380368232727,0.05161811411380768,-0.13836097717285156
1779909997175028000,5.490028076171875,-0.43737950921058655,-0.6884451508522034,0.1082758679986
1779909997191363600,5.506363525390625,-0.3052799105644226,0.25274550914764404,0.9343183636665344
1779909997207666000,5.522666015625,-0.20051652193069458,1.595579981803894,1.707215666770935
1779909997224017700,5.539017578125,0.2054034322500229,2.769815683364868,2.2708916664123535
1779909997240343600,5.555343505859375,0.9204211831092834,3.6694674491882324,2.3819162845611572
1779909997256680400,5.571680419921875,1.5609134435653687,3.1978795528411865,1.6875152587890625
1779909997273015800,5.588015869140625,0.983340322971344,-0.13515393435955048,0.4109596014022827
1779909997289346000,5.604345947265625,0.13500121235847473,-2.00394344329834,1.4440854787826538
1779909997305693700,5.620693603515625,-0.6302602291107178,-0.2015855312347412,2.3690881729125977
1779909997322030600,5.637030517578125,-0.9621127843856812,1.3232868909835815,2.278069257736206
1779909997338357800,5.653357666015625,-1.0264062881469727,1.7001906633377075,1.9201022386550903
1779909997354661400,5.669661376953125,-0.7351763248443604,1.780824899673462,1.677894115447998
1779909997371009800,5.686009765625,-0.21624629199504852,2.2908973693847656,1.4114041328430176
1779909997387345700,5.702345703125,0.1963931769132614,2.593122959136963,1.187827467918396
1779909997403677200,5.71867724609375,0.5820018649101257,2.0343339443206787,1.2764029502868652
1779909997420008400,5.735008544921875,0.7692320346832275,1.1924089193344116,1.4092661142349243
1779909997436342800,5.7513427734375,0.8187121152877808,0.4509712755680084,1.4521794319152832
1779909997452684500,5.7676845703125,0.8023715019226074,0.4072943925857544,1.2780828475952148
1779909997469008100,5.784008056640625,0.7524332404136658,1.0586295127868652,1.0193814039230347
1779909997485340700,5.800340576171875,0.6666067242622375,1.7336355447769165,0.9477574229240417
1779909997501690600,5.816690673828125,0.6313292384147644,1.8620699644088745,0.8521569967269897
1779909997518004500,5.83300439453125,0.6998988389968872,1.2927435636520386,0.6108652353286743
1779909997534348300,5.849348388671875,0.6670648455619812,0.7011205554008484,0.3810271918773651
1779909997550674700,5.8656748046875,0.4867068827152252,0.7440338730812073,0.2834414839744568
1779909997566993000,5.881992919921875,0.24526239931583405,1.0554224252700806,0.1895209401845932
1779909997583329300,5.898329345703125,0.0029016099870204926,0.8845328688621521,0.21823160350322723
1779909997599669000,5.9146689453125,-0.08017606288194656,0.10476338863372803,0.40026944875717163
1779909997616007400,5.93100732421875,-0.13087788224220276,-0.1215621829032898,0.4109596014022827
1779909997632337200,5.947337158203125,-0.17837265133857727,0.05192354694008827,0.06887505948543549
1779909997648671000,5.9636708984375,-0.29535335302352905,-0.076052725315094,-0.37110063433647156
1779909997665004000,5.980004150390625,-0.6007859706878662,-0.3712533414363861,-0.7588473558425903
1779909997681339400,5.99633935546875,-0.8495608568191528,-0.7560984492301941,-1.388802170753479
1779909997697663200,6.012663330078125,-1.2947288751602173,-0.8402451276779175,-2.0202841758728027
1779909997714001200,6.029001220703125,-1.6560556888580322,-0.8327620625495911,-2.453234910964966
1779909997730339300,6.04533935546875,-1.584431767463684,-1.289689302444458,-2.5337162017822266
1779909997746654700,6.06165478515625,-1.327562928199768,-2.133294105529785,-2.3861923217773438
1779909997763001000,6.0780009765625,-0.9141598343849182,-2.2925772666931152,-2.2820398807525635
1779909997779331600,6.09433154296875,-0.2929098904132843,-1.317789077758789,-2.2675318717956543
1779909997795675000,6.1106748046875,0.15103642642498016,-0.1267545372247696,-2.4045183658599854
1779909997812013800,6.127013916015625,0.33047810196876526,0.5707008838653564,-2.623666286468506
1779909997828347000,6.143346923828125,0.36331209540367126,0.4607451260089874,-2.615877628326416
1779909997844675600,6.159675537109375,0.2125810980796814,-0.9589056968688965,-2.2038490772247314
1779909997860993500,6.17599365234375,0.19120082259178162,-2.269364356994629,-1.9966130256652832
1779909997877332000,6.19233203125,0.21120665967464447,-2.261575937271118,-2.183232307434082
1779909997893668000,6.208668212890625,0.09285151958465576,-1.4836390018463135,-2.2287418842315674
1779909997909996300,6.224996337890625,-0.27947086095809937,-1.5248724222183228,-1.778228759765625
1779909997926329900,6.241329833984375,-0.6893614530563354,-1.683544635772705,-1.2308934926986694
1779909997942659000,6.2576591796875,-0.8570439219474792,-1.7203491926193237,-0.9950994849205017
1779909997959016700,6.2740166015625,-0.8205447196960449,-2.0645718574523926,-0.8863654732704163
1779909997975343900,6.29034375,-0.7773260474205017,-2.417041063308716,-0.9379835724830627
1779909997991676400,6.306676513671875,-0.6805039048194885,-2.5473079681396484,-1.0083857774734497
1779909998008008000,6.323008056640625,-0.5238169431686401,-2.412306785583496,-0.7652614116668701
1779909998024337400,6.33933740234375,-0.3920227587223053,-1.9714148044586182,-0.13759739696979523
1779909998040670500,6.35567041015625,-0.2509129047393799,-1.4831807613372803,0.6638578176498413
1779909998056989700,6.37198974609375,-0.24404066801071167,-0.8944594264030457,1.4414892196655273
1779909998073331500,6.38833154296875,-0.266184538602829,-0.3176499307155609,2.124283790588379
1779909998089659400,6.404659423828125,-0.3127630054950714,0.18341228365898132,2.7569875717163086
1779909998105989600,6.42098974609375,-0.09758572280406952,0.3248275816440582,2.8878655433654785
1779909998122327800,6.437327880859375,0.23273965716362,1.1201741695404053,0.7878634333610535
1779909998138657800,6.45365771484375,-0.17409659922122955,0.20143280923366547,-1.0563386678695679
1779909998154991000,6.4699912109375,-0.2539672255516052,-1.8996381759643555,-1.534340739250183
1779909998171324400,6.486324462890625,-0.23105977475643158,-2.635578155517578,-1.3706289529800415
1779909998187657000,6.502656982421875,-0.19165897369384766,-2.559372663497925,-0.941343367099762
1779909998203975200,6.51897509765625,0.15729780495166779,-0.6284276247024536,-0.5586362481117249
1779909998220308700,6.535308837890625,0.0656680166721344,1.0780243873596191,-0.04153883829712868
1779909998236658400,6.551658447265625,-0.4715879559516907,3.4655911922454834,0.7305948138237
1779909998252987600,6.567987548828125,0.23136521875858307,5.504812240600586,1.3350459337234497
1779909998269322200,6.584322265625,0.6478226184844971,2.2400429248809814,0.580016553401947
1779909998285653500,6.600653564453125,0.04535674303770065,-1.921934723854065,-0.23396138846874237
1779909998301987300,6.6169873046875,-0.03298672288656235,-2.14428973197937,0.1088867336511612
1779909998318326000,6.633325927734375,-0.07895433157682419,0.14508049190044403,1.055269718170166
1779909998334666000,6.649666015625,-0.0019853119738399982,2.0890064239501953,2.2432498931884766
1779909998351011800,6.66601171875,0.6180428862571716,3.6299140453338623,2.6561946868896484
1779909998367328300,6.682328369140625,1.337031364440918,4.030488967895508,2.2766947746276855
1779909998383667200,6.698667236328125,0.8352054953575134,1.2924381494522095,0.6207917928695679
1779909998399997700,6.714997802734375,0.11927144229412079,-1.4008667469024658,1.2860240936279297
1779909998416333000,6.7313330078125,-0.48380526900291443,-0.18035796284675598,2.1502456665039062
1779909998432651300,6.7476513671875,-0.9500481486320496,1.3037391901016235,1.9943222999572754
1779909998448995800,6.763995849609375,-1.1160508394241333,1.711338996887207,1.8106045722961426
1779909998465348400,6.780348388671875,-0.8339837789535522,1.5167783498764038,1.6809484958648682
1779909998481656600,6.796656494140625,-0.37629300355911255,1.8249598741531372,1.4689781665802002
1779909998497964300,6.81296435546875,0.08735372871160507,2.163684606552124,1.2794572114944458
1779909998514302500,6.829302490234375,0.4427245855331421,1.9440786838531494,1.203251838684082
1779909998530634800,6.845634765625,0.6401867866516113,1.412778615951538,1.1804970502853394
1779909998546966300,6.86196630859375,0.7564038634300232,1.228450059890747,1.0919215679168701
1779909998563305500,6.878305419921875,0.851393461227417,1.2721269130706787,1.0648908615112305
1779909998579623400,6.89462353515625,0.9277516007423401,1.1233811378479004,1.0572550296783447
1779909998595970600,6.910970458984375,0.9518807530403137,1.1033753156661987,1.0086911916732788
1779909998612300300,6.92730029296875,0.9100365042686462,1.197906732559204,0.8752171993255615
1779909998628634400,6.94363427734375,0.8239045143127441,1.2034045457839966,0.6026185750961304
1779909998644964900,6.95996484375,0.6389650702476501,1.122159481048584,0.4558582007884979
1779909998661298200,6.976298095703125,0.47342056035995483,1.0086911916732788,0.48426342010498047
1779909998677630500,6.99263037109375,0.3877467215061188,0.879187822341919,0.46593746542930603
1779909998693966800,7.008966796875,0.2499966025352478,0.7331910133361816,0.4651738703250885
1779909998710297900,7.0252978515625,0.021532999351620674,0.33628132939338684,0.4917465150356293
1779909998726628600,7.041628662109375,-0.11484266817569733,0.20372356474399567,0.4248567819595337
1779909998742962000,7.0579619140625,-0.1186605766415596,0.4934264123439789,0.1745547503232956
1779909998759296800,7.074296875,-0.08216137439012527,0.4300491213798523,-0.22250767052173615
1779909998775628300,7.090628173828125,-0.18127426505088806,-0.25824329257011414,-0.6647741198539734
1779909998791962000,7.106962158203125,-0.46410486102104187,-0.826500654220581,-1.2221885919570923
1779909998808294100,7.123294189453125,-0.9983065128326416,-0.9166033267974854,-1.87611985206604
1779909998824628500,7.13962841796875,-1.5968017578125,-0.6392704844474792,-2.3718371391296387
1779909998840959500,7.15595947265625,-1.9155206680297852,-0.8283332586288452,-2.349998712539673
1779909998857293000,7.17229296875,-1.6471980810165405,-1.7654005289077759,-2.1096231937408447
1779909998873627600,7.188627685546875,-1.3112221956253052,-1.7976237535476685,-2.037999153137207
1779909998889959200,7.204959228515625,-0.8724682927131653,-1.049619197845459,-2.069153308868408
1779909998906292200,7.221292236328125,-0.5627595782279968,-0.2857322096824646,-2.255925416946411
1779909998922626600,7.23762646484375,-0.40454551577568054,0.280539870262146,-2.563037872314453
1779909998938955500,7.25395556640625,-0.17150041460990906,0.1941024363040924,-2.5193610191345215
1779909998955294000,7.2702939453125,0.03985895588994026,-1.116814374923706,-1.7967073917388916
1779909998971626500,7.28662646484375,0.16493362188339233,-1.7964019775390625,-1.6765196323394775
1779909998987968000,7.302968017578125,0.11759155988693237,-1.58259916305542,-2.0809123516082764
1779909999004292900,7.31929296875,-0.011453723534941673,-1.4314099550247192,-2.2795963287353516
1779909999020633600,7.335633544921875,-0.24755313992500305,-1.5163202285766602,-1.9570595026016235
1779909999036967000,7.351966796875,-0.5685628056526184,-2.1697933673858643,-1.3406964540481567
1779909999053313000,7.36831298828125,-0.7241807579994202,-2.908787488937378,-1.1073459386825562
1779909999069621800,7.384621826171875,-0.7082982659339905,-3.257591724395752,-1.2527319192886353
1779909999085968100,7.400968017578125,-0.6450737118721008,-3.4599406719207764,-1.4066699743270874
1779909999102297300,7.41729736328125,-0.4867068827152252,-3.2085697650909424,-1.432326316833496
1779909999118631000,7.433630859375,-0.4001167416572571,-2.724306344985962,-1.0386236906051636
1779909999134964500,7.449964599609375,-0.17501288652420044,-2.1682662963867188,-0.34605515003204346
1779909999151294000,7.4662939453125,-0.11362093687057495,-1.5416711568832397,0.5285511612892151
1779909999167629800,7.4826298828125,-0.3220787048339844,-0.6904304623603821,1.4726433753967285
1779909999183963400,7.49896337890625,-0.47250425815582275,0.15745051205158234,2.3206770420074463
1779909999200294400,7.51529443359375,-0.42500948905944824,0.7402159571647644,2.995683193206787
1779909999216629000,7.53162890625,-0.22388210892677307,0.679129421710968,3.2737796306610107
1779909999232962300,7.54796240234375,0.4021020531654358,0.4115704596042633,1.7557793855667114
1779909999249294000,7.564294189453125,0.34345898032188416,-0.2545780837535858,-0.769079327583313
1779909999265627400,7.58062744140625,-0.1508837193250656,-2.185981273651123,-1.454470157623291
1779909999281971500,7.596971435546875,-0.21930062770843506,-2.716517686843872,-1.5767959356307983
1779909999298306600,7.613306640625,-0.21334469318389893,-2.5856399536132812,-1.2887729406356812
1779909999314622500,7.62962255859375,-0.1014036312699318,-1.1113165616989136,-0.8289441466331482
1779909999330956300,7.645956298828125,-0.09514226019382477,0.4749477207660675,-0.154396191239357
1779909999347307300,7.662307373046875,-0.5157229900360107,2.4109323024749756,1.1259773969650269
1779909999363650300,7.678650390625,0.07696902006864548,5.362174987792969,2.314568519592285
1779909999379963100,7.694963134765625,0.9963212013244629,3.8478400707244873,1.5658003091812134
1779909999396288000,7.7112880859375,-0.32818734645843506,0.06811147183179855,-0.4957171380519867
1779909999412633000,7.727633056640625,-0.7635815739631653,-0.4634940028190613,-0.40454551577568054
1779909999428980000,7.74397998046875,-0.7014260292053223,-0.22846360504627228,0.3162754774093628
1779909999445285000,7.76028515625,-0.33108896017074585,0.43615779280662537,1.3741413354873657
1779909999461604000,7.77660400390625,0.22296582162380219,1.9381227493286133,2.0943515300750732
1779909999477944600,7.792944580078125,1.1355985403060913,3.4248158931732178,2.2908973693847656
1779909999494288100,7.8092880859375,1.9124664068222046,3.4179437160491943,1.871996521949768
1779909999510614800,7.82561474609375,1.1372783184051514,-0.6821837425231934,0.07727445662021637
1779909999526960400,7.84196044921875,0.34605515003204346,-2.9463558197021484,1.1007791757583618
1779909999543284000,7.858283935546875,-0.48655417561531067,-1.3645201921463013,2.233476161956787
1779909999559615500,7.874615478515625,-0.822682797908783,0.6171266436576843,2.093129873275757
1779909999575952000,7.890951904296875,-1.120632290840149,1.655444860458374,1.7050776481628418
1779909999592285000,7.907284912109375,-0.9330966472625732,1.8730655908584595,1.5574009418487549
1779909999608614000,7.92361376953125,-0.3504839241504669,2.1061105728149414,1.3978123664855957
1779909999624953300,7.939953369140625,0.11957687139511108,2.146580457687378,1.1928671598434448
1779909999641271800,7.956271728515625,0.4824308156967163,1.5537357330322266,1.2640329599380493
1779909999657617000,7.972616943359375,0.6707300543785095,0.8582656979560852,1.4433218240737915
1779909999673948700,7.98894873046875,0.7771732807159424,0.46670106053352356,1.5373951196670532
1779909999690281200,8.00528125,0.8393288254737854,0.21059578657150269,1.5080735683441162
1779909999706614500,8.021614501953126,0.7446447610855103,0.6020076870918274,1.2597568035125732
1779909999722948900,8.037948974609375,0.6024658679962158,1.4080443382263184,0.9966266751289368
1779909999739281400,8.054281494140625,0.5325217843055725,1.8574885129928589,0.7312057018280029
1779909999755613700,8.07061376953125,0.5499314665794373,1.4928019046783447,0.46105054020881653
1779909999771946200,8.0869462890625,0.5432119369506836,0.9744827747344971,0.3358231782913208
1779909999788297700,8.103297607421876,0.4564690589904785,0.9230173826217651,0.2733621895313263
1779909999804627500,8.11962744140625,0.29138273000717163,1.2034045457839966,0.09468411654233932
1779909999820943600,8.135943603515624,0.019089538604021072,1.1892019510269165,0.08460483700037003
1779909999837287700,8.15228759765625,-0.16523905098438263,0.49067750573158264,0.31932979822158813
1779909999853630000,8.1686298828125,-0.19517144560813904,-0.14935655891895294,0.2819143235683441
1779909999869960200,8.184960205078125,-0.3871358633041382,-0.16508632898330688,0.029168816283345222
1779909999886273500,8.2012734375,-0.5791002511978149,-0.2747366428375244,-0.2848159074783325
1779909999902609700,8.217609619140624,-0.7531968355178833,-0.7461718916893005,-0.6284276247024536
1779909999918942700,8.233942626953125,-1.1548407077789307,-1.2316570281982422,-1.009149432182312
1779909999935271700,8.250271728515624,-1.3486377000808716,-1.394452691078186,-1.4750868082046509
1779909999951613000,8.266613037109375,-1.2713632583618164,-1.323439598083496,-2.0305161476135254
1779909999967941000,8.282941162109376,-1.1586586236953735,-1.5132659673690796,-2.379167318344116
1779909999984302600,8.299302490234375,-0.9292787313461304,-2.1012237071990967,-2.428189277648926
1779910000000619500,8.31561962890625,-0.5710062980651855,-2.0564777851104736,-2.3680191040039062
1779910000016949200,8.33194921875,-0.19593502581119537,-0.9685268402099609,-2.325258493423462
1779910000033289200,8.348289306640625,0.0065668015740811825,0.20815233886241913,-2.4155139923095703
1779910000049601800,8.364601806640625,0.12247848510742188,0.8941540122032166,-2.579989433288574
1779910000065939200,8.380939208984374,0.28619036078453064,0.8871290683746338,-2.696359157562256
1779910000082272000,8.39727197265625,0.3507893681526184,0.22892175614833832,-2.6342036724090576
1779910000098603800,8.413603759765625,0.31459560990333557,-1.117730736732483,-2.27211332321167
1779910000114937000,8.42993701171875,0.1414152979850769,-2.0334177017211914,-1.9147571325302124
1779910000131266800,8.446266845703125,-0.058337632566690445,-1.5891659259796143,-1.863444447517395
1779910000147603200,8.462603271484374,-0.20784689486026764,-1.0395399332046509,-1.7925840616226196
1779910000163935200,8.478935302734374,-0.4265366494655609,-0.9980010986328125,-1.458898901939392
1779910000180267300,8.495267333984375,-0.718224823474884,-1.3141238689422607,-1.143081545829773
1779910000196601600,8.5116015625,-0.8294022679328918,-1.9369009733200073,-1.0494664907455444
1779910000212934100,8.52793408203125,-0.7773260474205017,-2.436588764190674,-1.0749701261520386
1779910000229267200,8.54426708984375,-0.7200574278831482,-2.4755313396453857,-1.1068878173828125
1779910000245600300,8.560600341796874,-0.5717698931694031,-2.408794403076172,-0.9590584635734558
1779910000261932300,8.576932373046875,-0.4331034719944,-2.2910501956939697,-0.5096143484115601
1779910000278266600,8.5932666015625,-0.3674354553222656,-2.1479549407958984,0.13011430203914642
1779910000294611700,8.60961181640625,-0.3211624026298523,-1.5680910348892212,0.8323038816452026
1779910000310925000,8.625925048828124,-0.34926220774650574,-0.8206974864006042,1.5037975311279297
1779910000327263000,8.642262939453126,-0.4053090810775757,-0.08170322328805923,2.1876611709594727
1779910000343599400,8.658599365234375,-0.4697553813457489,0.4990769028663635,2.726902484893799
1779910000359931000,8.674930908203125,-0.1966986060142517,0.4775438904762268,2.543337345123291
1779910000376262700,8.6912626953125,0.33887749910354614,0.7023423314094543,0.7154759168624878
1779910000392597000,8.707596923828126,0.11331550031900406,-0.019547687843441963,-0.5768095254898071
1779910000408929300,8.72392919921875,-0.3260493278503418,-1.4227051734924316,-1.2918273210525513
1779910000425276000,8.74027587890625,-0.43997567892074585,-2.437352418899536,-1.3396275043487549
1779910000441621800,8.756621826171875,-0.41462478041648865,-2.448500633239746,-0.8775079250335693
1779910000457953300,8.772953369140625,-0.21884247660636902,-0.8885034918785095,-0.23839016258716583
1779910000474257700,8.789257568359375,-0.2054034322500229,0.6954700946807861,0.5337435007095337
1779910000490604500,8.8056044921875,-0.6979135274887085,2.3718371391296387,1.6586518287658691
1779910000506940400,8.8219404296875,-0.2840523421764374,4.962669372558594,2.269669771194458
1779910000523272000,8.83827197265625,0.40164390206336975,3.774688959121704,1.367727279663086
1779910000539607800,8.85460791015625,-0.3885102868080139,0.2551889419555664,-0.23869559168815613
1779910000555918800,8.8709189453125,-0.4862487316131592,-0.5855143666267395,-0.5597052574157715
1779910000572242000,8.887241943359374,-0.15073099732398987,-0.612850546836853,-0.025961773470044136
1779910000588590600,8.903590576171876,0.1992947906255722,-0.06215553730726242,0.8770498037338257
1779910000604923100,8.919923095703124,0.608421802520752,1.9854648113250732,1.9173532724380493
1779910000621253000,8.936253173828124,1.202030062675476,3.6665658950805664,2.5497515201568604
1779910000637573400,8.952573486328125,1.796249270439148,4.271169662475586,2.6400067806243896
1779910000653924400,8.96892431640625,1.3976596593856812,1.623374342918396,1.0346530675888062
1779910000670251500,8.98525146484375,0.5366451144218445,-2.621680974960327,0.9593638777732849
1779910000686587000,9.0015869140625,-0.19058994948863983,-2.1710150241851807,2.051438093185425
1779910000702919700,9.017919677734374,-0.5493205785751343,0.36560285091400146,1.9905043840408325
1779910000719253800,9.034253662109375,-0.7309002876281738,1.9266690015792847,1.6340645551681519
1779910000735586600,9.050586669921875,-0.7846564054489136,2.3295345306396484,1.481042742729187
1779910000751917300,9.066917236328125,-0.5203045010566711,2.6025912761688232,1.514487624168396
1779910000768267800,9.083267822265626,-0.11560624837875366,2.459496259689331,1.2667818069458008
1779910000784600000,9.09960009765625,0.29016098380088806,1.9590448141098022,1.0612256526947021
1779910000800915000,9.1159150390625,0.5798638463020325,0.8506298661231995,1.0885618925094604
1779910000817259500,9.132259521484375,0.6473644375801086,0.3700316250324249,1.1864529848098755
1779910000833600300,9.148600341796875,0.5543602108955383,0.7261660695075989,1.151481032371521
1779910000849931500,9.164931640625,0.4554000496864319,1.3712397813796997,0.9976956844329834
1779910000866262000,9.181261962890625,0.4300491213798523,1.9561432600021362,0.8843801617622375
1779910000882593300,9.19759326171875,0.5476406812667847,1.9869918823242188,0.8616254329681396
1779910000898931000,9.213930908203125,0.7724391222000122,1.292285442352295,0.70692378282547
1779910000915262200,9.23026220703125,0.8810204267501831,0.8077165484428406,0.33796119689941406
1779910000931577900,9.246577880859375,0.6531676650047302,1.1136072874069214,0.15729780495166779
1779910000947928000,9.262927978515625,0.2718350291252136,1.4143058061599731,0.1615738570690155
1779910000964260000,9.279260009765625,0.01710422709584236,1.0739010572433472,0.13469578325748444
1779910000980591000,9.295591064453125,-0.1238529309630394,0.4967861473560333,0.2687807083129883
1779910000996927000,9.311927001953125,-0.14324790239334106,-0.11743884533643723,0.43799036741256714
1779910001013257200,9.32825732421875,-0.18341228365898132,-0.21533000469207764,0.3355177342891693
1779910001029581300,9.344581298828125,-0.31062498688697815,-0.03191770985722542,-0.0354301854968071
1779910001045934600,9.3609345703125,-0.4369213581085205,-0.33169981837272644,-0.47800204157829285
1779910001062260000,9.377260009765624,-0.6597344875335693,-0.8894197940826416,-1.0099129676818848
1779910001078586600,9.393586669921875,-1.1743884086608887,-1.1730140447616577,-1.5525140762329102
1779910001094909000,9.409908935546875,-1.4530956745147705,-1.3585642576217651,-1.9170478582382202
1779910001111229700,9.426229736328125,-1.3611605167388916,-1.4752395153045654,-2.2072088718414307
1779910001127575300,9.4425751953125,-1.2376129627227783,-1.9202549457550049,-2.467132091522217
1779910001143905500,9.458905517578126,-0.9608910083770752,-2.2432498931884766,-2.4659101963043213
1779910001160239400,9.4752392578125,-0.37201693654060364,-1.6939293146133423,-2.3803892135620117
1779910001176574000,9.491573974609375,0.1609629988670349,-0.6302602291107178,-2.411390542984009
1779910001192906500,9.507906494140625,0.4524984359741211,0.34895676374435425,-2.5480716228485107
1779910001209238800,9.52423876953125,0.5108360648155212,0.8611672520637512,-2.658027410507202
1779910001225572000,9.540572021484374,0.3929390609264374,0.12553280591964722,-2.3878722190856934
1779910001241892400,9.556892333984376,0.2970332205295563,-1.4738651514053345,-2.088395595550537
1779910001258258400,9.573258544921876,0.3724750876426697,-2.2563834190368652,-2.345417022705078
1779910001274560000,9.58956005859375,0.21441370248794556,-1.8176295757293701,-2.523331642150879
1779910001290909200,9.6059091796875,-0.23625212907791138,-1.2536481618881226,-2.1704041957855225
1779910001307244500,9.62224462890625,-0.7715228199958801,-1.3086260557174683,-1.7153096199035645
1779910001323599000,9.63859912109375,-1.0265589952468872,-1.697136402130127,-1.3324497938156128
1779910001339913700,9.654913818359375,-1.0112874507904053,-2.4159719944000244,-1.1516337394714355
1779910001356251100,9.671251220703125,-0.8562803864479065,-2.663677930831909,-1.250593900680542
1779910001372581000,9.6875810546875,-0.7761042714118958,-2.8910725116729736,-1.3507757186889648
1779910001388908000,9.703907958984376,-0.6348416805267334,-3.061962127685547,-1.2169963121414185
1779910001405226800,9.720226806640625,-0.4427245855331421,-2.623666286468506,-0.6771441102027893
1779910001421556500,9.736556396484374,-0.34025195240974426,-1.9593502283096313,0.17821992933750153
1779910001437896200,9.752896240234374,-0.4150829315185547,-1.1820242404937744,1.1264355182647705
1779910001454235600,9.769235595703124,-0.4691445231437683,-0.30970868468284607,1.8781051635742188
1779910001470558000,9.785557861328124,-0.5479460954666138,0.48288896679878235,2.5998425483703613
1779910001486902800,9.80190283203125,-0.5900958180427551,0.9454666972160339,3.1283936500549316
1779910001503245300,9.818245361328126,-0.2698497176170349,0.9040805697441101,2.7310256958007812
1779910001519564500,9.834564453125,0.17348572611808777,0.925308108329773,0.9485210180282593
1779910001535906800,9.85090673828125,0.14966198801994324,-0.21273382008075714,-0.33857205510139465
1779910001552230100,9.867230224609376,-0.25442537665367126,-2.0532708168029785,-1.4399621486663818
1779910001568576500,9.883576416015625,-0.35063666105270386,-3.1453452110290527,-1.662469744682312
1779910001584872000,9.899871826171875,-0.3400992155075073,-2.3162481784820557,-1.1742357015609741
1779910001601241900,9.916241943359376,-0.02321287989616394,-0.3119994103908539,-0.15546520054340363
1779910001617560300,9.932560302734375,0.0656680166721344,1.7336355447769165,0.8182539939880371
1779910001633894100,9.94889404296875,-0.18585574626922607,4.4180827140808105,0.4285219609737396
1779910001650221600,9.9652216796875,-0.44486260414123535,3.6693148612976074,-0.004734205547720194
1779910001666561500,9.9815615234375,-0.8498662710189819,0.5855143666267395,-0.1996002197265625
1779910001682889000,9.997888916015626,-0.598953366279602,-0.8145887851715088,-0.06261368840932846
1779910001699228700,10.014228759765626,-0.15851953625679016,-1.1140655279159546,0.42791110277175903
1779910001715557600,10.0305576171875,0.024129176512360573,0.05803219974040985,1.5010485649108887
1779910001731890000,10.046889892578125,0.3243694305419922,2.1201605796813965,2.442391872406006
1779910001748222200,10.06322216796875,1.2147055864334106,4.169308185577393,2.9306259155273438
1779910001764556800,10.079556884765625,2.3009767532348633,4.869970321655273,2.754849433898926
1779910001780872700,10.095872802734375,1.9978348016738892,1.3947581052780151,0.5028948187828064
1779910001797236000,10.112236083984374,0.7165449261665344,-3.4096970558166504,0.26832255721092224
1779910001813565700,10.128565673828126,-0.3419318199157715,-2.266921043395996,1.7825047969818115
1779910001829910500,10.14491064453125,-0.8333728909492493,0.7111998796463013,2.0564777851104736
1779910001846203100,10.161203125,-0.979827880859375,2.3819162845611572,1.7359262704849243
1779910001862535200,10.17753515625,-0.9459248185157776,2.4772112369537354,1.614822268486023
1779910001878899200,10.193899169921876,-0.6265950202941895,2.278374671936035,1.665065884590149
1779910001895205600,10.21020556640625,-0.1359175145626068,2.00699782371521,1.421025276184082
1779910001911547100,10.226547119140625,0.30085113644599915,1.584126353263855,1.2739595174789429
1779910001927885300,10.24288525390625,0.6139195561408997,1.0404561758041382,1.3490959405899048
1779910001944217600,10.259217529296874,0.8064948320388794,0.528245747089386,1.4425582885742188
1779910001960549400,10.27554931640625,0.917672336101532,0.08155050873756409,1.453248381614685
1779910001976883000,10.291883056640625,0.8678867816925049,0.2961169183254242,1.3393220901489258
1779910001993216000,10.308216064453125,0.6774495840072632,1.1772900819778442,1.1368201971054077
1779910002009534700,10.32453466796875,0.5390886068344116,1.911091923713684,0.8671231865882874
1779910002025885200,10.34088525390625,0.5688682794570923,1.7172949314117432,0.5363397002220154
1779910002042215000,10.35721484375,0.6046038866043091,1.0621418952941895,0.327271044254303
1779910002058543600,10.373543701171876,0.5028948187828064,0.9149234294891357,0.2974913716316223
1779910002074868000,10.389867919921874,0.34865134954452515,1.2037099599838257,0.19975294172763824
1779910002091201800,10.406201904296875,0.1889100819826126,1.250288486480713,0.07040221989154816
1779910002107533600,10.422533447265625,-0.00931569468230009,0.7380779385566711,0.17669276893138885
1779910002123866000,10.4388662109375,-0.12996158003807068,-0.06185010448098183,0.29596421122550964
1779910002140200200,10.4552001953125,-0.2996293902397156,-0.3871358633041382,0.08491026610136032
1779910002156532200,10.4715322265625,-0.5459607839584351,-0.4108068645000458,-0.29397889971733093
1779910002172864500,10.487864501953124,-0.769079327583313,-0.7954992651939392,-0.6928738951683044
1779910002189198000,10.504197998046875,-1.1102476119995117,-1.485318899154663,-1.041067123413086
1779910002205530000,10.520530029296875,-1.4828753471374512,-1.8474092483520508,-1.3906347751617432
1779910002221864200,10.5368642578125,-1.5894713401794434,-1.615127682685852,-1.9211711883544922
1779910002238205200,10.553205078125,-1.4497359991073608,-1.621999979019165,-2.4781274795532227
1779910002254528800,10.56952880859375,-1.1339186429977417,-2.0917553901672363,-2.646420955657959
1779910002270861000,10.585861083984375,-0.6620252132415771,-1.9598084688186646,-2.4963009357452393
1779910002287195100,10.602195068359375,-0.22067506611347198,-0.9188940525054932,-2.3741278648376465
1779910002303527400,10.61852734375,-0.005955935921519995,0.2964223623275757,-2.4524712562561035
1779910002319861200,10.634861328125,0.09789115190505981,1.1227703094482422,-2.6444356441497803
1779910002336194800,10.65119482421875,0.23655757308006287,1.1493430137634277,-2.8244881629943848
1779910002352526800,10.66752685546875,0.1794416606426239,-0.3923282027244568,-2.4135286808013916
1779910002368860700,10.683860595703125,0.20570887625217438,-2.5833492279052734,-1.8440494537353516
1779910002385191200,10.700191162109375,0.1508837193250656,-2.70292592048645,-1.9269744157791138
1779910002401524200,10.716524169921875,0.009010262787342072,-1.4958562850952148,-2.126880168914795
1779910002417860600,10.732860595703125,-0.2626720666885376,-1.0239628553390503,-1.8197675943374634
1779910002434190800,10.74919091796875,-0.5777258276939392,-1.2217304706573486,-1.4497359991073608
1779910002450518800,10.765518798828126,-0.7574729323387146,-1.4257594347000122,-1.2185235023498535
1779910002466857500,10.781857421875,-0.7370089292526245,-1.9004018306732178,-1.088714599609375
1779910002483189500,10.798189453125,-0.6916521787643433,-2.3151793479919434,-1.0131200551986694
1779910002499521500,10.814521484375,-0.6183483600616455,-2.3654229640960693,-0.9384417533874512
1779910002515853600,10.830853515625,-0.4291328489780426,-2.1650590896606445,-0.7102835774421692
1779910002532192500,10.847192626953126,-0.31902438402175903,-2.0509800910949707,-0.27229318022727966
1779910002548536000,10.8635361328125,-0.1927279829978943,-1.531439185142517,0.28359419107437134
1779910002564867300,10.879867431640625,-0.14416420459747314,-1.018770456314087,0.9915869832038879
1779910002581184500,10.8961845703125,-0.24663683772087097,-0.4476115107536316,1.7186694145202637
1779910002597531100,10.91253125,-0.37522396445274353,0.13866640627384186,2.4582743644714355
1779910002613863000,10.92886279296875,-0.4323398768901825,0.4841107130050659,2.9445230960845947
1779910002630195500,10.945195556640625,0.040622539818286896,0.48747047781944275,2.104888916015625
1779910002646529000,10.961529052734376,0.15317445993423462,0.8109236359596252,0.0933096632361412
1779910002662865000,10.977864990234375,-0.2142609804868698,-0.6760751008987427,-0.9514226317405701
1779910002679196000,10.99419580078125,-0.4743368625640869,-2.0616703033447266,-1.6922494173049927
1779910002695526700,11.010526611328125,-0.4973970353603363,-3.2846224308013916,-1.6769778728485107
1779910002711862800,11.02686279296875,-0.2915354371070862,-2.5725061893463135,-0.9812023043632507
1779910002728193500,11.043193603515626,0.35033121705055237,-0.12751811742782593,0.03481931984424591
1779910002744523800,11.059523681640625,0.18509216606616974,2.6306912899017334,0.0429132841527462
1779910002760860200,11.075860107421875,-0.8196284174919128,3.9597811698913574,0.21151208877563477
1779910002777204700,11.092204833984376,-1.2092077732086182,2.4572055339813232,0.3423899710178375
1779910002793520400,11.108520263671876,-0.8487972617149353,1.1551461219787598,0.48976120352745056
1779910002809862100,11.124862060546874,-0.19685132801532745,-0.6762278079986572,0.5006040930747986
1779910002826177000,11.141177001953125,0.3078760802745819,-0.9746354818344116,0.6224716901779175
1779910002842521000,11.15752099609375,0.6473644375801086,1.169806957244873,1.6035212278366089
1779910002858846000,11.173845947265624,1.1612548828125,2.888781785964966,2.7595837116241455
1779910002875190300,11.190190185546875,1.6195564270019531,3.7531561851501465,3.2536211013793945
1779910002891522000,11.20652197265625,1.8440494537353516,3.17634654045105,2.5899159908294678
1779910002907856400,11.2228564453125,1.1001683473587036,-0.03680463135242462,0.4101960062980652
1779910002924178200,11.23917822265625,0.35216382145881653,-1.4498887062072754,0.3243694305419922
1779910002940519400,11.25551953125,-0.14813482761383057,-0.3197879493236542,1.0995573997497559
1779910002956851500,11.2718515625,-0.6359107494354248,0.7571674585342407,1.5279266834259033
1779910002973203500,11.288203369140625,-1.031293272972107,1.6363552808761597,1.7884607315063477
1779910002989532200,11.3045322265625,-1.0571023225784302,1.96133553981781,1.887115478515625
1779910003005865000,11.320864990234375,-0.7571674585342407,1.5563318729400635,1.698510766029358
1779910003022198300,11.3371982421875,-0.19776763021945953,1.0841331481933594,1.2791517972946167
1779910003038530800,11.35353076171875,0.1310305893421173,1.305266261100769,0.8535314798355103
1779910003054851300,11.369851318359375,0.2600758671760559,1.6534595489501953,0.7455610036849976
1779910003071176700,11.3861767578125,0.35873061418533325,1.715462327003479,0.9825767278671265
1779910003087509200,11.40250927734375,0.4499022662639618,1.397048830986023,1.1847730875015259
1779910003103853800,11.418853759765625,0.5152648091316223,0.7055493593215942,1.302364706993103
1779910003120177200,11.43517724609375,0.5328271985054016,0.3043636083602905,1.3810136318206787
1779910003136504300,11.45150439453125,0.5141957998275757,0.6313292384147644,1.3507757186889648
1779910003152850000,11.467849853515625,0.555429220199585,1.2986994981765747,1.1287262439727783
1779910003169171200,11.484171142578125,0.6453791260719299,1.5654948949813843,0.7049384713172913
1779910003185513000,11.500512939453126,0.6635523438453674,1.1855367422103882,0.4268420934677124
1779910003201845500,11.516845458984376,0.5662720799446106,0.780380368232727,0.46410486102104187
1779910003218178600,11.533178466796874,0.4564690589904785,0.73685622215271,0.5006040930747986
1779910003234506500,11.549506591796876,0.31459560990333557,0.9263771176338196,0.34376442432403564
1779910003250846000,11.565845947265625,0.06398813426494598,0.9724974632263184,0.2597704529762268
1779910003267190300,11.582190185546875,-0.12079860270023346,0.49128836393356323,0.41462478041648865
1779910003283523600,11.598523681640625,-0.24694228172302246,0.31841349601745605,0.536797821521759
1779910003299849700,11.614849609375,-0.21471913158893585,0.4970915913581848,0.4378376603126526
1779910003316193500,11.631193603515625,-0.07147123664617538,0.29886582493782043,-0.005192354787141085
1779910003332523300,11.647523193359374,-0.18035796284675598,-0.06948592513799667,-0.6152940392494202
1779910003348864800,11.66386474609375,-0.5094616413116455,-0.24236078560352325,-1.2173017263412476
1779910003365183200,11.680183349609376,-1.0366383790969849,-0.41951170563697815,-1.8374826908111572
1779910003381508000,11.696508056640624,-1.5158621072769165,-0.8101600408554077,-2.249969482421875
1779910003397848000,11.71284814453125,-1.5946637392044067,-1.261742115020752,-2.275473117828369
1779910003414173700,11.729173583984375,-1.3972015380859375,-2.1846067905426025,-2.2956316471099854
1779910003430516700,11.745516845703126,-1.081842303276062,-2.746602773666382,-2.3904683589935303
1779910003446829800,11.761829833984375,-0.40714168548583984,-2.144595146179199,-2.3664920330047607
1779910003463173400,11.77817333984375,0.299476683139801,-1.0334312915802002,-2.3376286029815674
1779910003479491000,11.794490966796875,0.7301366925239563,0.16035212576389313,-2.4628560543060303
1779910003495822800,11.81082275390625,0.8274169564247131,0.8894197940826416,-2.529287576675415
1779910003512170500,11.82717041015625,0.6294966340065002,0.11056660860776901,-2.523178815841675
1779910003528502800,11.843502685546875,0.3191770911216736,-1.3489432334899902,-2.5503623485565186
1779910003544833500,11.85983349609375,0.12186761945486069,-1.652695894241333,-2.6876542568206787
1779910003561171500,11.87617138671875,-0.12919799983501434,-1.4335479736328125,-2.4636194705963135
1779910003577497300,11.892497314453125,-0.4915938079357147,-1.4335479736328125,-1.9398025274276733
1779910003593833200,11.908833251953125,-0.7675521969795227,-1.34115469455719,-1.5625933408737183
1779910003610164700,11.925164794921875,-0.806647539138794,-1.494939923286438,-1.3518447875976562
1779910003626498300,11.941498291015625,-0.9175195693969727,-2.2707388401031494,-1.1462886333465576
1779910003642831000,11.9578310546875,-0.8657487630844116,-2.535243511199951,-1.2194397449493408
1779910003659165200,11.974165283203124,-0.679740309715271,-2.5298984050750732,-1.2631165981292725
1779910003675492900,11.990492919921875,-0.4786129295825958,-2.3383922576904297,-0.9405797719955444
1779910003691832800,12.006832763671875,-0.2834414839744568,-1.8878790140151978,-0.33887749910354614
1779910003708160500,12.023160400390625,-0.2165517359972,-1.4086552858352661,0.5064072608947754
1779910003724499700,12.039499755859374,-0.20754146575927734,-0.837496280670166,1.3982704877853394
1779910003740835800,12.0558359375,-0.16920967400074005,-0.256868839263916,2.012190103530884
1779910003757157600,12.07215771484375,-0.18219055235385895,0.21991148591041565,2.4715607166290283
1779910003773495600,12.08849560546875,-0.36010506749153137,0.38117989897727966,2.8188376426696777
1779910003789823700,12.10482373046875,-0.14019356667995453,0.2028072625398636,2.235766887664795
1779910003806175200,12.12117529296875,0.14095716178417206,0.3686571717262268,0.8242099285125732
1779910003822491000,12.137490966796875,0.020005837082862854,-0.6414085030555725,0.10002918541431427
1779910003838838000,12.153838134765625,-0.12889257073402405,-1.597107172012329,-1.0044151544570923
1779910003855172900,12.1701728515625,-0.1033889427781105,-3.1112895011901855,-1.0651962757110596
1779910003871505400,12.18650537109375,0.43707409501075745,-1.3012956380844116,-0.3430008292198181
1779910003887835600,12.202835693359376,1.2003501653671265,2.364506721496582,-0.9263771176338196
1779910003904140000,12.21914013671875,0.029474247246980667,2.643519401550293,-1.5102115869522095
1779910003920489200,12.2354892578125,-1.2003501653671265,1.6386460065841675,-0.4050036668777466
1779910003936818400,12.251818359375,-1.1534663438796997,1.2182179689407349,0.7072292566299438
1779910003953157600,12.26815771484375,-0.7854200005531311,1.5656476020812988,1.2959506511688232
1779910003969488400,12.28448828125,-0.3410155177116394,2.29746413230896,1.4504995346069336
1779910003985823700,12.30082373046875,0.3104722499847412,2.6224443912506104,2.048536539077759
1779910004002152200,12.317152099609375,1.3283264636993408,2.939025402069092,2.771953821182251
1779910004018494500,12.333494384765626,2.342668294906616,2.864499807357788,3.001486301422119
1779910004034836700,12.349836669921874,2.275320291519165,0.6809620261192322,1.6493362188339233
1779910004051133700,12.3661337890625,1.1116219758987427,-2.0864102840423584,-0.04046982154250145
1779910004067482400,12.382482421875,0.6091853380203247,-1.7197383642196655,0.7058547735214233
1779910004083814000,12.39881396484375,0.010537425056099892,-0.01924225501716137,1.141401767730713
1779910004100146200,12.415146240234375,-0.5013676285743713,1.4679092168807983,1.3269519805908203
1779910004116483600,12.431483642578126,-0.750142514705658,1.93766450881958,1.5515977144241333
1779910004132805400,12.447805419921876,-0.764955997467041,1.7895296812057495,1.5092953443527222
1779910004149148700,12.464148681640625,-0.5299255847930908,1.2040153741836548,1.3267992734909058
1779910004165468700,12.48046875,-0.2816088795661926,0.8121453523635864,1.3310753107070923
1779910004181813800,12.496813720703125,-0.2116648107767105,1.0305296182632446,1.3271046876907349
1779910004198148000,12.513148193359376,-0.166460782289505,1.373683214187622,1.1696542501449585
1779910004214480100,12.529480224609374,0.003359758760780096,1.5606080293655396,1.0881037712097168
1779910004230824700,12.54582470703125,0.2545780837535858,1.286634922027588,1.2030991315841675
1779910004247160300,12.562160400390624,0.4360050559043884,0.718224823474884,1.3978123664855957
1779910004263485000,12.57848486328125,0.5192354321479797,0.3439171314239502,1.5183055400848389
1779910004279823400,12.5948232421875,0.5659666657447815,0.4300491213798523,1.5039502382278442
1779910004296158200,12.611158203125,0.5896376967430115,0.8515461683273315,1.3393220901489258
1779910004312472000,12.62747216796875,0.6276640295982361,1.2348641157150269,0.9578366875648499
1779910004328821800,12.64382177734375,0.665232241153717,1.111163854598999,0.4740314185619354
1779910004345143600,12.6601435546875,0.5783366560935974,0.8013024926185608,0.24358251690864563
1779910004361495600,12.67649560546875,0.3625485301017761,0.9066767692565918,0.1843285858631134
1779910004377824800,12.69282470703125,0.204487144947052,1.1122329235076904,0.03573561832308769
1779910004394158300,12.709158447265626,0.09575312584638596,0.8541423082351685,0.06475171446800232
1779910004410476300,12.725476318359375,-0.010690141469240189,0.09453139454126358,0.31642818450927734
1779910004426819800,12.74181982421875,-0.16310101747512817,-0.19425514340400696,0.328340083360672
1779910004443152600,12.758152587890624,-0.2382374405860901,-0.19058994948863983,-0.12140946835279465
1779910004459487000,12.774487060546875,-0.3501785099506378,-0.328340083360672,-0.7180721163749695
1779910004475790000,12.7907900390625,-0.7240280508995056,-0.6278167366981506,-1.1119275093078613
1779910004492157000,12.807156982421875,-1.0555751323699951,-1.2289081811904907,-1.5624406337738037
1779910004508480300,12.823480224609375,-1.4173600673675537,-1.5709927082061768,-2.014939069747925
1779910004524824000,12.839823974609375,-1.6201673746109009,-1.5735888481140137,-2.303420066833496
1779910004541138700,12.856138671875,-1.4332425594329834,-2.0448713302612305,-2.4689645767211914
1779910004557465900,12.8724658203125,-1.1064296960830688,-2.7905850410461426,-2.5784621238708496
1779910004573803800,12.8888037109375,-0.47968193888664246,-2.45980167388916,-2.484236240386963
1779910004590120400,12.905120361328125,0.206777885556221,-0.95462965965271,-2.358397960662842
1779910004606471000,12.921470947265625,0.5662720799446106,0.8213083148002625,-2.4633140563964844
1779910004622791200,12.937791259765625,0.6243042945861816,2.0424280166625977,-2.6789495944976807
1779910004639132000,12.9541318359375,0.4554000496864319,1.721112847328186,-2.629163980484009
1779910004655468000,12.970468017578124,0.0630718395113945,-0.4466952085494995,-2.02929425239563
1779910004671794400,12.98679443359375,-0.046731192618608475,-2.0987801551818848,-1.7718145847320557
1779910004688137000,13.003136962890625,0.012522737495601177,-2.1421515941619873,-1.9462167024612427
1779910004704464000,13.0194638671875,-0.25763240456581116,-1.4115568399429321,-1.93293035030365
1779910004720790500,13.03579052734375,-0.6553056836128235,-1.1016954183578491,-1.6187928915023804
1779910004737139700,13.0521396484375,-0.9497427344322205,-1.2831224203109741,-1.214400053024292
1779910004753464800,13.06846484375,-1.0224356651306152,-1.7655532360076904,-0.8985827565193176
1779910004769814000,13.08481396484375,-0.9428704977035522,-2.180025339126587,-0.7290676832199097
1779910004786147800,13.10114794921875,-0.8144360780715942,-2.11588454246521,-0.7515169382095337
1779910004802475000,13.11747509765625,-0.6624833345413208,-1.9724838733673096,-0.7284567952156067
1779910004818812200,13.133812255859375,-0.4639521539211273,-1.7817412614822388,-0.451582133769989
1779910004835142000,13.150141845703125,-0.25595253705978394,-1.4902057647705078,0.06169738993048668
1779910004851474700,13.166474609375,-0.08888089656829834,-0.9860892295837402,0.7357872128486633
1779910004867810000,13.18281005859375,-0.02367102913558483,-0.4703662395477295,1.4772248268127441
1779910004884138000,13.199137939453125,0.010842857882380486,-0.10354165732860565,2.0783162117004395
1779910004900470500,13.215470458984376,-0.07467827945947647,0.0006108652451075613,2.585487127304077
1779910004916810500,13.231810546875,-0.07177666574716568,-0.3196352422237396,2.752864122390747
1779910004933134300,13.24813427734375,0.4404338300228119,-0.23380866646766663,1.2043207883834839
1779910004949466400,13.26446630859375,0.15775595605373383,0.1485929638147354,-0.6890559792518616
1779910004965811000,13.28081103515625,-0.16630806028842926,-1.2796099185943604,-1.5259413719177246
1779910004982133000,13.297133056640625,-0.4034765064716339,-1.4711161851882935,-1.43751859664917
1779910004998472000,13.313471923828125,-0.4683809280395508,-2.5465445518493652,-0.9034696817398071
1779910005014800400,13.32980029296875,-0.1459967941045761,-1.8127425909042358,-0.30634891986846924
1779910005031127800,13.3461279296875,0.23945917189121246,-0.2588541507720947,0.3039054572582245
1779910005047453000,13.362452880859376,-0.0679587572813034,1.895362138748169,0.9970847964286804
1779910005063770000,13.37877001953125,-0.01664607785642147,4.051716327667236,1.32863187789917
1779910005080125400,13.39512548828125,-0.17104226350784302,2.668259382247925,0.720820963382721
1779910005096438800,13.411438720703124,-0.5926920175552368,0.2483167201280594,-0.14782938361167908
1779910005112772400,13.4277724609375,-0.40683624148368835,-0.0006108652451075613,-0.1014036312699318
1779910005129121800,13.444121826171875,-0.2643519341945648,0.20036379992961884,0.33628132939338684
1779910005145450000,13.460449951171874,-0.08429940044879913,0.9251554012298584,1.0122036933898926
1779910005161785000,13.47678515625,0.38728857040405273,2.090686321258545,1.7273741960525513
1779910005178115300,13.493115234375,1.0468703508377075,3.1227431297302246,2.3189971446990967
1779910005194444500,13.509444580078124,1.7464637756347656,3.288898468017578,2.5526530742645264
1779910005210785300,13.525785400390625,1.472490668296814,1.0396926403045654,1.2000447511672974
1779910005227127000,13.542126953125,0.45982882380485535,-2.1757493019104004,0.8805622458457947
1779910005243463700,13.558463623046874,-0.3471241891384125,-1.5219707489013672,1.9214766025543213
1779910005259790000,13.5747900390625,-0.8491026759147644,0.5734497308731079,2.115579128265381
1779910005276128800,13.591128662109375,-1.215927243232727,1.9695823192596436,1.89979088306427
1779910005292454000,13.607453857421875,-1.2041680812835693,2.406809091567993,1.627497673034668
1779910005308798200,13.623798095703124,-0.7276932001113892,2.4472789764404297,1.4450017213821411
1779910005325103400,13.640103271484374,-0.14767667651176453,2.6122124195098877,1.1691961288452148
1779910005341462000,13.6564619140625,0.2255619913339615,2.479196548461914,1.1137601137161255
1779910005357782500,13.672782470703124,0.5294674634933472,1.807550311088562,1.287245750427246
1779910005374132000,13.689132080078124,0.764345109462738,1.123686671257019,1.325730323791504
1779910005390453500,13.70545361328125,0.9204211831092834,0.547182559967041,1.3000739812850952
1779910005406787600,13.72178759765625,0.850782573223114,0.512210488319397,1.298241376876831
1779910005423131600,13.738131591796876,0.5691736936569214,1.2104294300079346,1.241125464439392
1779910005439437300,13.754437255859376,0.3176499307155609,1.8561140298843384,1.0523680448532104
1779910005455791900,13.7707919921875,0.3494149148464203,1.670716404914856,0.7849618196487427
1779910005472116500,13.787116455078126,0.5076290369033813,1.0949759483337402,0.49877145886421204
1779910005488451300,13.803451416015625,0.5053382515907288,1.100015640258789,0.36529740691185
1779910005504779800,13.81977978515625,0.4054618179798126,1.2615894079208374,0.38896843791007996
1779910005521110000,13.836110107421876,0.29275718331336975,1.1997393369674683,0.2528982162475586
1779910005537437200,13.852437255859375,0.166460782289505,1.0937541723251343,0.022907447069883347
1779910005553769700,13.868769775390625,-0.02580905705690384,0.7725918292999268,0.04306599870324135
1779910005570107600,13.885107666015625,-0.09758572280406952,0.17012597620487213,0.2275473028421402
1779910005586421800,13.901421875,-0.17211128771305084,0.1420261710882187,0.19028452038764954
1779910005602768400,13.917768310546874,-0.11698069423437119,-0.08002334833145142,-0.3066543638706207
1779910005619084800,13.934084716796875,-0.3344487249851227,-0.3530801236629486,-0.9017898440361023
1779910005635420700,13.950420654296876,-0.5988006591796875,-0.5705481171607971,-1.5468635559082031
1779910005651753500,13.96675341796875,-1.0141890048980713,-0.8865181803703308,-2.2032382488250732
1779910005668086500,13.98308642578125,-1.57313072681427,-1.036943793296814,-2.7116308212280273
1779910005684419800,13.999419921875,-1.7521142959594727,-1.2424999475479126,-2.7256808280944824
1779910005700752400,14.01575244140625,-1.606575608253479,-2.0619757175445557,-2.451096773147583
1779910005717084200,14.032084228515625,-1.2267701625823975,-2.3076961040496826,-2.400547742843628
1779910005733417700,14.048417724609376,-0.45402559638023376,-1.6430747509002686,-2.4414756298065186
1779910005749751000,14.0647509765625,0.23350323736667633,-0.517861008644104,-2.5161540508270264
1779910005766083800,14.081083740234375,0.6696610450744629,0.4294382631778717,-2.4640777111053467
1779910005782431500,14.097431396484374,0.8958339095115662,0.8713992834091187,-2.317164659500122
1779910005798761500,14.113761474609374,0.5338962078094482,-0.19135354459285736,-2.1571178436279297
1779910005815095000,14.130094970703125,0.05772676691412926,-1.2585351467132568,-2.6028966903686523
1779910005831426800,14.1464267578125,-0.052381694316864014,-1.2829697132110596,-2.764012575149536
1779910005847760000,14.162759765625,-0.2871066629886627,-1.3952162265777588,-2.2624921798706055
1779910005864092700,14.1790927734375,-0.8721628785133362,-1.9869918823242188,-1.5961909294128418
1779910005880448300,14.1954482421875,-1.2814425230026245,-2.680018663406372,-1.2609785795211792
1779910005896743400,14.211743408203125,-1.2898420095443726,-3.2279646396636963,-1.2805262804031372
1779910005913108500,14.2281083984375,-1.023046612739563,-3.2507193088531494,-1.5737415552139282
1779910005929435100,14.24443505859375,-0.7954992651939392,-2.9779679775238037,-1.687362551689148
1779910005945771000,14.26077099609375,-0.5936083197593689,-2.8399124145507812,-1.2695306539535522
1779910005962103600,14.277103515625,-0.40424007177352905,-2.4251351356506348,-0.42470407485961914
1779910005978435000,14.29343505859375,-0.34956762194633484,-1.833817481994629,0.5418374538421631
1779910005994748200,14.309748046875,-0.42668938636779785,-0.9346238374710083,1.5528194904327393
1779910006011075800,14.326075927734376,-0.38988474011421204,0.06643159687519073,2.3522894382476807
1779910006027420400,14.34242041015625,-0.42119157314300537,0.5910121202468872,2.9686524868011475
1779910006043752400,14.35875244140625,-0.503047525882721,0.9923505783081055,3.5162930488586426
1779910006060093000,14.375093017578125,-0.21395555138587952,1.0067058801651,3.419776439666748
1779910006076424400,14.391424560546875,0.42562034726142883,0.8645270466804504,1.5664112567901611
1779910006092751600,14.407751708984375,0.5155702829360962,-1.062447428703308,-0.8617781400680542
1779910006109084400,14.42408447265625,-0.018936822190880775,-3.2962288856506348,-2.3545801639556885
1779910006125417200,14.440417236328125,-0.20295998454093933,-3.838677167892456,-2.323273181915283
1779910006141750300,14.456750244140625,-0.3878994286060333,-2.392453670501709,-1.5183055400848389
1779910006158066200,14.473066162109374,-0.408974289894104,0.7473936080932617,0.16371189057826996
1779910006174420700,14.489420654296875,-0.48808133602142334,2.922990083694458,1.8226691484451294
1779910006190746600,14.50574658203125,-0.44516804814338684,5.69769287109375,1.8713856935501099
1779910006207078700,14.52207861328125,-0.14935655891895294,4.434576034545898,0.8452847599983215
1779910006223441400,14.53844140625,-0.5850561857223511,0.30772337317466736,-0.4334088861942291
1779910006239769000,14.55476904296875,-0.2197587788105011,-2.3710734844207764,-0.6097962260246277
1779910006256093000,14.571093017578125,0.21090123057365417,-2.8793132305145264,-0.1699732542037964
1779910006272423700,14.587423583984375,0.3292563557624817,-0.19562959671020508,1.0873401165008545
1779910006288756500,14.603756591796875,0.5868887901306152,2.9220738410949707,2.3376286029815674
1779910006305097500,14.620097412109375,1.2299771308898926,5.083773136138916,2.972623109817505
1779910006321407200,14.6364072265625,2.0561723709106445,5.535660743713379,2.886032819747925
1779910006337757400,14.65275732421875,1.4865405559539795,0.8008443117141724,0.5934556126594543
1779910006354087700,14.669087646484375,0.6174320578575134,-3.244152545928955,0.8158105611801147
1779910006370438700,14.685438720703125,-0.48166725039482117,-2.317470073699951,1.9338465929031372
1779910006386755000,14.701755126953126,-1.078635334968567,0.1111774742603302,2.1339049339294434
1779910006403089700,14.718089599609375,-1.0505355596542358,1.742034912109375,1.9101755619049072
1779910006419417300,14.734417236328126,-0.912021815776825,2.1476495265960693,1.6584991216659546
1779910006435752000,14.750751953125,-0.6722571849822998,2.4046709537506104,1.5218180418014526
1779910006452088300,14.76708837890625,-0.2275473028421402,1.9398025274276733,1.334282398223877
1779910006468423400,14.78342333984375,0.21914790570735931,1.4414892196655273,1.0751228332519531
1779910006484753200,14.799753173828124,0.5632177591323853,0.970054030418396,1.0143417119979858
1779910006501063400,14.8160634765625,0.7179193496704102,0.8776606321334839,1.078940749168396
1779910006517400600,14.832400634765625,0.7386888265609741,0.8972083330154419,1.083064079284668
1779910006533737000,14.848737060546876,0.6690501570701599,1.0010554790496826,1.0584768056869507
1779910006550074000,14.86507421875,0.5514585971832275,1.266018271446228,1.0190759897232056
1779910006566401800,14.88140185546875,0.4999932050704956,1.4419474601745605,0.8335255980491638
1779910006582734800,14.89773486328125,0.5528330206871033,1.1942415237426758,0.46822822093963623
1779910006599065600,14.914065673828125,0.5274821519851685,0.9747881889343262,0.2525927722454071
1779910006615400700,14.930400634765626,0.4147774875164032,1.0903944969177246,0.3139847218990326
1779910006631723000,14.946722900390625,0.2713768780231476,1.2107349634170532,0.3361285924911499
1779910006648065300,14.963065185546874,0.12858712673187256,1.1612548828125,0.33307427167892456
1779910006664400100,14.979400146484375,-0.006719517521560192,0.6893614530563354,0.4440990388393402
1779910006680731000,14.99573095703125,-0.06261368840932846,0.2301434874534607,0.48915034532546997
1779910006697061000,15.01206103515625,-0.1966986060142517,0.4079052805900574,0.35613444447517395
1779910006713401000,15.028401123046875,-0.4005748927593231,0.4590652287006378,0.10949759185314178
1779910006729734700,15.044734619140625,-0.34956762194633484,-0.2154827117919922,-0.34544429183006287
1779910006746076400,15.061076416015625,-0.5349652171134949,-0.617584764957428,-1.1308642625808716
1779910006762409000,15.077408935546876,-1.1293370723724365,-0.48777589201927185,-1.8115209341049194
1779910006778742800,15.09374267578125,-1.4376713037490845,-0.6356052756309509,-2.0832033157348633
1779910006795062800,15.110062744140626,-1.3779592514038086,-1.1087204217910767,-2.255467176437378
1779910006811391500,15.1263916015625,-1.2079859972000122,-1.6210836172103882,-2.4685065746307373
1779910006827740000,15.142739990234375,-0.8998045325279236,-2.0221166610717773,-2.4798073768615723
1779910006844073000,15.159072998046875,-0.475253164768219,-1.6117680072784424,-2.2684481143951416
1779910006860405000,15.175405029296876,-0.06551529467105865,-0.6817256212234497,-2.18857741355896
1779910006876738300,15.19173828125,0.19303341209888458,-0.07819075137376785,-2.3344216346740723
1779910006893055000,15.208054931640625,0.36560285091400146,0.01710422709584236,-2.5134050846099854
1779910006909404400,15.224404296875,0.46960264444351196,-0.41661009192466736,-2.604576587677002
1779910006925737500,15.240737548828125,0.5364924073219299,-1.0819950103759766,-2.660012722015381
1779910006942070500,15.257070556640626,0.4014911949634552,-1.8671096563339233,-2.5337162017822266
1779910006958385400,15.273385498046874,0.07498370856046677,-1.7383698225021362,-2.2629501819610596
1779910006974733600,15.289733642578126,-0.19715675711631775,-1.1644618511199951,-1.9685132503509521
1779910006991065000,15.306065185546874,-0.36163222789764404,-0.932485818862915,-1.6128369569778442
1779910007007387600,15.3223876953125,-0.5795583724975586,-0.9563095569610596,-1.275792121887207
1779910007023720000,15.338719970703124,-0.7226535677909851,-1.0764973163604736,-1.1317806243896484
1779910007040055300,15.35505517578125,-0.7232644557952881,-1.5370897054672241,-1.0968085527420044
1779910007056379400,15.37137939453125,-0.7162395119667053,-1.8721492290496826,-1.0714576244354248
1779910007072718800,15.38771875,-0.5948300361633301,-2.0176877975463867,-0.9462302923202515
1779910007089048000,15.404048095703125,-0.4343251883983612,-2.035555601119995,-0.6401867866516113
1779910007105385200,15.42038525390625,-0.2997821271419525,-1.8610010147094727,-0.19318613409996033
1779910007121717800,15.4367177734375,-0.26603180170059204,-1.5945110321044922,0.45433104038238525
1779910007138049000,15.453049072265625,-0.3364340364933014,-1.189354658126831,1.2296717166900635
1779910007154381300,15.46938134765625,-0.45234572887420654,-0.7408268451690674,1.9100228548049927
1779910007170716000,15.4857158203125,-0.5325217843055725,-0.3643811047077179,2.523942470550537
1779910007187044600,15.502044677734375,-0.2597704529762268,-0.34086281061172485,2.5828909873962402
1779910007203384000,15.518384033203125,0.37568211555480957,-0.20036379992961884,0.8197811841964722
1779910007219699700,15.53469970703125,0.03955352306365967,0.19165897369384766,-0.299476683139801
1779910007236063500,15.5510634765625,-0.294437050819397,-0.9526443481445312,-1.0696250200271606
1779910007252391700,15.5673916015625,-0.49586987495422363,-1.8226691484451294,-1.235169529914856
1779910007268723000,15.583722900390624,-0.48777589201927185,-2.3823745250701904,-0.9758572578430176
1779910007285060600,15.600060546875,-0.08200865983963013,-1.083369493484497,-0.6496551632881165
1779910007301381600,15.616381591796875,0.7834346890449524,0.7238753437995911,-0.247094988822937
1779910007317707300,15.632707275390626,0.7304421067237854,3.3684637546539307,-0.40393465757369995
1779910007334057200,15.64905712890625,-0.3900374472141266,3.143359899520874,0.3055853247642517
1779910007350379300,15.665379150390624,-0.7467827796936035,1.6806429624557495,0.17852537333965302
1779910007366732000,15.68173193359375,-0.3223841190338135,0.717308521270752,0.21868975460529327
1779910007383054800,15.698054931640625,0.14019356667995453,0.9526443481445312,0.9199630618095398
1779910007399370500,15.71437060546875,0.508087158203125,1.7270687818527222,2.1839959621429443
1779910007415707400,15.730707275390625,0.9005680680274963,2.587777853012085,3.118619680404663
1779910007432038700,15.74703857421875,1.5905404090881348,3.3733506202697754,3.2007811069488525
1779910007448373000,15.763373046875,2.088395595550537,2.989879846572876,2.677727699279785
1779910007464705800,15.779705810546876,1.3005321025848389,0.04795292019844055,1.0129673480987549
1779910007481051100,15.796051025390625,0.2330450862646103,-1.0227410793304443,1.0867292881011963
1779910007497371000,15.812370849609374,-0.45631635189056396,0.47051894664764404,1.602146863937378
1779910007513707500,15.82870751953125,-0.8811731338500977,2.0473148822784424,1.7070629596710205
1779910007530033700,15.84503369140625,-0.988074541091919,2.2934935092926025,1.9204076528549194
1779910007546368500,15.861368408203125,-0.8611672520637512,1.7423404455184937,1.9538525342941284
1779910007562702300,15.877702392578126,-0.41691553592681885,1.1142182350158691,1.5578590631484985
1779910007579034400,15.894034423828124,-0.02015855349600315,1.5984816551208496,1.043968677520752
1779910007595367400,15.910367431640625,0.24953845143318176,2.3206770420074463,1.085965633392334
1779910007611700000,15.926699951171875,0.355981707572937,2.127185583114624,1.3881912231445312
1779910007627999700,15.942999755859375,0.4231768846511841,1.2107349634170532,1.5004377365112305
1779910007644363000,15.959363037109375,0.6316346526145935,0.3358231782913208,1.4034628868103027
1779910007660699000,15.975698974609376,0.8411614298820496,0.16691893339157104,1.2356276512145996
1779910007677028400,15.9920283203125,0.8616254329681396,0.7414376735687256,1.0752755403518677
1779910007693353000,16.00835302734375,0.7441865801811218,1.6235270500183105,0.9439395070075989
1779910007709697500,16.024697509765623,0.6180428862571716,1.945758581161499,0.6511823534965515
1779910007726030000,16.041030029296873,0.6409503817558289,1.1281154155731201,0.37048977613449097
1779910007742378000,16.0573779296875,0.632398247718811,0.4859432876110077,0.256868839263916
1779910007758678500,16.073678466796874,0.42760565876960754,0.8559749126434326,0.2142609804868698
1779910007775025400,16.090025390625,0.17837265133857727,1.1872166395187378,0.1794416606426239
1779910007791347500,16.106347412109375,-0.060933809727430344,0.670577347278595,0.22510384023189545
1779910007807696400,16.1226962890625,-0.355981707572937,-0.375529408454895,0.23411411046981812
1779910007824026000,16.139026123046875,-0.6021603941917419,-0.9868528246879578,0.17608191072940826
1779910007840358700,16.155358642578125,-0.7924449443817139,-1.0896308422088623,0.043676864355802536
1779910007856691700,16.171691650390624,-0.9471465349197388,-1.317789077758789,0.046731192618608475
1779910007873023700,16.188023681640626,-1.2275336980819702,-1.7635679244995117,-0.030543262138962746
1779910007889357300,16.204357421875,-1.1855367422103882,-1.807550311088562,-0.703411340713501
1779910007905705500,16.22070556640625,-1.020603060722351,-1.6279559135437012,-1.6218472719192505
1779910007922036700,16.23703662109375,-0.8515461683273315,-1.5893186330795288,-2.364659309387207
1779910007938369000,16.253369140625,-0.5940664410591125,-1.820225715637207,-2.718655824661255
1779910007954669800,16.269669921875,-0.10537425428628922,-1.8165605068206787,-2.718655824661255
1779910007971019000,16.28601904296875,0.28237244486808777,-1.2426526546478271,-2.5949554443359375
1779910007987350800,16.302350830078126,0.48288896679878235,-0.5351179838180542,-2.4914138317108154
1779910008003686100,16.31868603515625,0.5988006591796875,-0.2554943859577179,-2.411390542984009
1779910008020018200,16.33501806640625,0.693637490272522,-0.7571674585342407,-2.336864948272705
1779910008036352800,16.351352783203126,0.6423248052597046,-1.1956160068511963,-2.2773056030273438
1779910008052690000,16.36768994140625,0.4792237877845764,-0.9790642857551575,-2.23591947555542
1779910008069017300,16.384017333984374,0.3617849349975586,-0.5940664410591125,-2.214081048965454
1779910008085350700,16.4003505859375,0.3637702465057373,-0.4836525619029999,-2.2098050117492676
1779910008101684200,16.416684326171875,0.37308594584465027,-0.42730024456977844,-2.1119139194488525
1779910008118016000,16.43301611328125,0.18341228365898132,-0.5273294448852539,-1.7777706384658813
1779910008134344200,16.44934423828125,-0.16890424489974976,-0.7319692969322205,-1.4567608833312988
1779910008150681900,16.465681884765626,-0.5103778839111328,-0.9929614663124084,-1.2125675678253174
1779910008167017500,16.482017578125,-0.6600399017333984,-1.3420709371566772,-0.9896016716957092
1779910008183346400,16.498346435546875,-0.6890559792518616,-1.6090190410614014,-0.759305477142334
1779910008199678000,16.514677978515625,-0.6531676650047302,-1.6450600624084473,-0.5473352670669556
1779910008216007000,16.5310068359375,-0.5187773108482361,-1.6464345455169678,-0.3481931984424591
1779910008232344800,16.5473447265625,-0.394008070230484,-1.6369661092758179,-0.0403171069920063
1779910008248691700,16.563691650390624,-0.3585779070854187,-1.563051462173462,0.4660901725292206
1779910008265028900,16.58002880859375,-0.36713001132011414,-1.3747522830963135,1.003804326057434
1779910008281341400,16.596341552734376,-0.38927388191223145,-1.1308642625808716,1.5711454153060913
1779910008297702100,16.6127021484375,-0.4674646258354187,-0.8121453523635864,2.0470094680786133
1779910008314014500,16.629014404296875,-0.3026837408542633,-0.6760751008987427,1.6543757915496826
1779910008330366000,16.645365966796874,0.13057245314121246,-0.37369680404663086,-0.2246456891298294
1779910008346685400,16.661685546875,-0.20570887625217438,-0.31612277030944824,-0.8200865983963013
1779910008363026400,16.6780263671875,-0.512210488319397,-0.7047857642173767,-0.9763153791427612
1779910008379355100,16.694355224609374,-0.5723807215690613,-1.7004960775375366,-0.8210029006004333
1779910008395686700,16.710686767578125,-0.5105306506156921,-2.1678080558776855,-0.6614143252372742
1779910008412014800,16.727014892578126,0.09040805697441101,-1.584126353263855,-0.6676757335662842
1779910008428356900,16.74335693359375,0.7797694802284241,-0.375071257352829,-0.44516804814338684
1779910008444686000,16.75968603515625,0.6695083379745483,2.035250186920166,-0.031154127791523933
1779910008461013500,16.776013427734377,0.5097670555114746,3.232088088989258,0.45005497336387634
1779910008477334800,16.792334716796876,-0.1238529309630394,1.9576704502105713,-0.009926560334861279
1779910008493674000,16.808674072265624,-0.24908030033111572,0.7461718916893005,0.16982053220272064
1779910008510001000,16.8250009765625,-0.16752979159355164,0.9370672702789307,0.902553379535675
1779910008526336000,16.8413359375,-0.07742717117071152,2.2514965534210205,1.7708983421325684
1779910008542669000,16.8576689453125,0.19074267148971558,3.3261611461639404,2.671619176864624
1779910008559001900,16.874001953125,0.6449210047721863,3.629608631134033,3.2676708698272705
1779910008575333000,16.8903330078125,1.2657127380371094,3.0695979595184326,3.118008852005005
1779910008591662300,16.906662353515625,1.337031364440918,0.9541715383529663,1.5146403312683105
1779910008607999700,16.922999755859376,0.4590652287006378,-0.6316346526145935,0.6230825781822205
1779910008624333300,16.939333251953126,-0.31001409888267517,-0.20631973445415497,1.147357702255249
1779910008640665600,16.95566552734375,-0.7964155673980713,0.817948579788208,1.4856243133544922
1779910008656995000,16.9719951171875,-1.0280861854553223,1.6916385889053345,2.0117318630218506
1779910008673333500,16.98833349609375,-1.1383473873138428,1.3084733486175537,2.4084889888763428
1779910008689663700,17.004663818359376,-0.8298604488372803,0.9472993016242981,2.104430675506592
1779910008705998300,17.020998291015626,-0.30543261766433716,1.2751811742782593,1.4359915256500244
1779910008722327600,17.03732763671875,0.08735372871160507,2.2905919551849365,1.087492823600769
1779910008738665500,17.05366552734375,0.40683624148368835,2.610379934310913,1.411251425743103
1779910008755009300,17.07000927734375,0.5929974317550659,2.0054705142974854,1.6471980810165405
1779910008771325000,17.086324951171875,0.7954992651939392,0.3735440969467163,1.6190983057022095
1779910008787658500,17.102658447265625,0.9367618560791016,-0.6362161636352539,1.554804801940918
1779910008803989500,17.118989501953124,0.8356636762619019,0.31810808181762695,1.3466523885726929
1779910008820343800,17.13534375,0.7049384713172913,1.9292651414871216,1.003498911857605
1779910008836673300,17.15167333984375,0.6362161636352539,2.6763534545898438,0.5612324476242065
1779910008852988200,17.16798828125,0.6058256030082703,1.8851301670074463,0.2871066629886627
1779910008869322200,17.184322265625,0.5068654417991638,0.8486445546150208,0.37461310625076294
1779910008885635300,17.20063525390625,0.3220787048339844,0.8345946669578552,0.4311181604862213
1779910008902003000,17.2170029296875,0.154396191239357,1.2473868131637573,0.3020728528499603
1779910008918313200,17.233313232421875,-0.010079276748001575,1.1815661191940308,0.19776763021945953
1779910008934669000,17.2496689453125,-0.08720101416110992,0.4008803069591522,0.3507893681526184
1779910008950986000,17.265986083984377,-0.007635815534740686,-0.3147483170032501,0.3758348524570465
1779910008967317200,17.282317138671875,-0.1134682223200798,-0.299476683139801,0.04505131021142006
1779910008983653600,17.298653564453126,-0.27580565214157104,-0.3767511546611786,-0.39064833521842957
1779910008999982300,17.314982421875,-0.7180721163749695,-0.7310529947280884,-0.816726803779602
1779910009016322300,17.331322265625,-1.062447428703308,-1.2664763927459717,-1.377501130104065
1779910009032651500,17.347651611328125,-1.3756685256958008,-1.497994303703308,-1.9217820167541504
1779910009048984000,17.363984130859375,-1.497688889503479,-1.4912748336791992,-2.33060359954834
1779910009065318100,17.380318115234374,-1.3371840715408325,-1.8274034261703491,-2.5644123554229736
1779910009081635000,17.396635009765625,-1.105207920074463,-2.3774874210357666,-2.657874584197998
1779910009097986800,17.41298681640625,-0.5016731023788452,-2.244471549987793,-2.560136318206787
1779910009114315500,17.4293154296875,0.20891591906547546,-1.2188289165496826,-2.4410176277160645
1779910009130649000,17.445649169921875,0.5626068711280823,-0.24068090319633484,-2.5089762210845947
1779910009146977300,17.461977294921876,0.655458390712738,0.37797287106513977,-2.6618452072143555
1779910009163304000,17.478303955078125,0.5723807215690613,0.6788240075111389,-2.7672195434570312
1779910009179634400,17.494634521484375,0.25045475363731384,0.0607810914516449,-2.5415048599243164
1779910009195967700,17.5109677734375,-0.01542434748262167,-1.6552921533584595,-2.322815179824829
1779910009212301000,17.527301025390624,-0.17150041460990906,-2.565023183822632,-2.391995668411255
1779910009228633600,17.543633544921875,-0.44837507605552673,-1.8840610980987549,-2.4271204471588135
1779910009244965400,17.55996533203125,-0.9335548281669617,-1.2489140033721924,-2.1178698539733887
1779910009261298400,17.57629833984375,-1.2342532873153687,-1.4821118116378784,-1.6643023490905762
1779910009277632000,17.592632080078126,-1.2037099599838257,-2.051438093185425,-1.4269812107086182
1779910009293964000,17.608964111328124,-1.0739010572433472,-2.4500277042388916,-1.3687963485717773
1779910009310311200,17.625311279296874,-0.941343367099762,-2.4274258613586426,-1.2777774333953857
1779910009326639400,17.641639404296875,-0.8130616545677185,-2.245082378387451,-1.1191051006317139
1779910009342979000,17.65797900390625,-0.6785185933113098,-2.0984747409820557,-0.6960809230804443
1779910009359308300,17.674308349609376,-0.5752823352813721,-1.8677204847335815,-0.08048149943351746
1779910009375640000,17.69064013671875,-0.48166725039482117,-1.454164743423462,0.6264423131942749
1779910009391974000,17.706973876953125,-0.4205807149410248,-0.963792622089386,1.3729196786880493
1779910009408327700,17.72332763671875,-0.4317290186882019,-0.5288565754890442,1.9532415866851807
1779910009424655400,17.7396552734375,-0.380721777677536,-0.3517056703567505,2.288912057876587
1779910009440969500,17.755969482421875,-0.029932396486401558,-0.29306259751319885,1.9420933723449707
1779910009457296600,17.772296630859376,0.35705074667930603,0.7550294399261475,0.197004035115242
1779910009473632800,17.7886328125,0.3367394804954529,-0.20005837082862854,-0.512210488319397
1779910009489968600,17.80496875,-0.10048733651638031,-2.122145891189575,-1.1088731288909912
1779910009506306600,17.821306640625,-0.3827070891857147,-3.2866077423095703,-1.1632401943206787
1779910009522636500,17.837636474609376,-0.41141775250434875,-2.889545440673828,-0.6178901791572571
1779910009538969300,17.85396923828125,-0.3182607889175415,-1.3445143699645996,-0.14278975129127502
1779910009555302000,17.870302001953124,-0.370947927236557,0.23365595936775208,0.33948835730552673
1779910009571634200,17.88663427734375,-0.6502660512924194,1.8878790140151978,1.5317445993423462
1779910009587967000,17.902967041015625,-0.5099197626113892,4.413654327392578,2.4237606525421143
1779910009604300500,17.919300537109375,0.5514585971832275,5.225493907928467,2.0497584342956543
1779910009620631800,17.9356318359375,0.585667073726654,0.5224425196647644,-0.5022839307785034
1779910009636966100,17.951966064453124,0.12339477986097336,-2.2243130207061768,-1.0558805465698242
1779910009653297200,17.968297119140626,-0.16600263118743896,-1.4312572479248047,0.09422596544027328
1779910009669631700,17.9846318359375,-0.3196352422237396,0.5789475440979004,1.2304353713989258
1779910009685964500,18.000964599609375,-0.10644327104091644,2.744312047958374,2.071902275085449
1779910009702295800,18.0172958984375,0.24663683772087097,3.9858956336975098,2.6343562602996826
1779910009718629600,18.033629638671876,1.0323622226715088,4.355469226837158,2.922990083694458
1779910009734963000,18.049962890625,1.5554156303405762,3.213151216506958,1.9995146989822388
1779910009751296000,18.0662958984375,0.8176431059837341,-1.1198687553405762,0.48655417561531067
1779910009767644700,18.082644775390627,0.06200282275676727,-2.7035367488861084,1.7238616943359375
1779910009783956000,18.0989560546875,-0.6641632318496704,-0.5418374538421631,2.1792616844177246
1779910009800312300,18.115312255859376,-1.0016663074493408,2.177734613418579,1.8005253076553345
1779910009816639500,18.131639404296877,-1.0238101482391357,2.6287059783935547,1.6684256792068481
1779910009832972800,18.147972900390624,-0.6841690540313721,2.277916431427002,1.7892242670059204
1779910009849288700,18.164288818359374,-0.14324790239334106,2.0557143688201904,1.470963478088379
1779910009865622800,18.180622802734376,0.30925053358078003,1.9834794998168945,1.2718214988708496
1779910009881967600,18.196967529296874,0.5450445413589478,1.5173892974853516,1.3678799867630005
1779910009898306000,18.21330615234375,0.6629415154457092,0.9246972799301147,1.4782938957214355
1779910009914635300,18.22963525390625,0.6440047025680542,0.48716503381729126,1.5247195959091187
1779910009930954800,18.245954833984374,0.5352706909179688,0.6018549799919128,1.424843192100525
1779910009947285200,18.26228515625,0.3962988257408142,1.20859694480896,1.2258538007736206
1779910009963621000,18.27862109375,0.2909245789051056,1.831526756286621,1.0616837739944458
1779910009979954700,18.29495458984375,0.36880987882614136,1.8145751953125,0.7646505832672119
1779910009996287500,18.31128759765625,0.5363397002220154,1.324813961982727,0.3488040566444397
1779910010012620000,18.3276201171875,0.4834998548030853,1.1989758014678955,0.1973094791173935
1779910010028958000,18.3439580078125,0.2935207486152649,1.3254249095916748,0.22663100063800812
1779910010045282000,18.360281982421874,0.14019356667995453,1.333213448524475,0.11285735666751862
1779910010061618400,18.376618408203125,0.022602014243602753,1.2942707538604736,0.022907447069883347
1779910010077946400,18.3929462890625,-0.0959058403968811,0.7443392872810364,0.1498146951198578
1779910010094288600,18.40928857421875,-0.1319468915462494,0.010842857882380486,0.28130343556404114
1779910010110615300,18.425615234375,-0.22220222651958466,-0.0884227454662323,0.04993823543190956
1779910010126945000,18.441945068359374,-0.3058907687664032,-0.2148718535900116,-0.4193589985370636
1779910010143288300,18.458288330078126,-0.5607742667198181,-0.31810808181762695,-0.9755517840385437
1779910010159614700,18.47461474609375,-0.8776606321334839,-0.6710354685783386,-1.577254056930542
1779910010175948800,18.49094873046875,-1.2472341060638428,-1.0325149297714233,-2.006692409515381
1779910010192271600,18.507271728515626,-1.4711161851882935,-1.297935962677002,-2.3973405361175537
1779910010208601300,18.523601318359376,-1.3235923051834106,-1.7655532360076904,-2.699871778488159
1779910010224945000,18.53994482421875,-1.0242682695388794,-2.303114652633667,-2.744617462158203
1779910010241283000,18.556282958984376,-0.5899431109428406,-2.1813998222351074,-2.559525489807129
1779910010257619700,18.57261962890625,0.13148874044418335,-1.3074043989181519,-2.3774874210357666
1779910010273976000,18.58897607421875,0.7130324840545654,-0.34284812211990356,-2.3689353466033936
1779910010290291500,18.60529150390625,0.9101892113685608,0.4259257912635803,-2.5025622844696045
1779910010306625500,18.62162548828125,0.7422012686729431,0.8495608568191528,-2.5251641273498535
1779910010322958300,18.637958251953126,0.3214678466320038,-0.13866640627384186,-2.1989622116088867
1779910010339290000,18.6542900390625,0.052381694316864014,-1.1366674900054932,-2.1896464824676514
1779910010355622400,18.670622314453126,-0.051770828664302826,-1.183704137802124,-2.3854286670684814
1779910010371956700,18.686956787109374,-0.2474004179239273,-1.0080803632736206,-2.232712507247925
1779910010388271900,18.70327197265625,-0.8083274364471436,-1.071763038635254,-1.7176003456115723
1779910010404617700,18.71961767578125,-1.1942415237426758,-1.4944818019866943,-1.2261592149734497
1779910010420941600,18.735941650390625,-1.17545747756958,-2.029752492904663,-0.9334021210670471
1779910010437269800,18.752269775390626,-1.0661125183105469,-2.6282477378845215,-0.8936958312988281
1779910010453606700,18.768606689453126,-0.9558513760566711,-2.6948320865631104,-0.9752463698387146
1779910010469939500,18.784939453125,-0.8023715019226074,-2.5222625732421875,-1.0021244287490845
1779910010486271000,18.80127099609375,-0.5499314665794373,-2.426356792449951,-0.7722864151000977
1779910010502603500,18.817603515625,-0.3700316250324249,-1.9992092847824097,-0.30543261766433716
1779910010518937900,18.833937744140623,-0.23548854887485504,-1.4240796566009521,0.3701843321323395
1779910010535287300,18.850287353515625,-0.19120082259178162,-0.9167560338973999,1.197601318359375
1779910010551599000,18.86659912109375,-0.24892759323120117,-0.27809640765190125,1.9573649168014526
1779910010567935700,18.882935791015626,-0.3445279896259308,0.20005837082862854,2.512794256210327
1779910010584269300,18.899269287109377,-0.3019201457500458,0.5900958180427551,2.680171251296997
1779910010600601600,18.9156015625,0.12996158003807068,0.8339837789535522,1.6756033897399902
1779910010616929300,18.93192919921875,0.30054569244384766,0.31093040108680725,-0.007024950347840786
1779910010633271600,18.948271484375,-0.1569923609495163,-1.5622878074645996,-1.3205379247665405
1779910010649593000,18.964593017578125,-0.33719760179519653,-3.0914363861083984,-2.038151979446411
1779910010665934000,18.98093408203125,-0.36361753940582275,-3.425274133682251,-1.7328720092773438
1779910010682265000,18.99726513671875,-0.49128836393356323,-1.977981686592102,-0.6061310172080994
1779910010698598400,19.013598388671873,-0.4095851480960846,-0.011453723534941673,0.5516113042831421
1779910010714932000,19.029931884765624,-0.5102251768112183,1.0754282474517822,1.5121968984603882
1779910010731251000,19.0462509765625,-0.7698429226875305,2.8481593132019043,2.110386610031128
1779910010747596300,19.06259619140625,0.17348572611808777,4.969694137573242,1.9688186645507812
1779910010763947300,19.078947265625,1.1658363342285156,2.3683245182037354,0.2958115041255951
1779910010780258600,19.095258544921876,0.5140430927276611,-2.1172590255737305,-1.4359915256500244
1779910010796608500,19.1116083984375,-0.1765400618314743,-2.7676777839660645,-0.8556694984436035
1779910010812953900,19.127953857421875,-0.34987306594848633,-1.3135130405426025,0.42439863085746765
1779910010829272600,19.1442724609375,-0.1388191282749176,1.4158328771591187,1.5195273160934448
1779910010845596200,19.16059619140625,0.21181751787662506,3.7331502437591553,2.2799017429351807
1779910010861941500,19.17694140625,0.8397870063781738,4.633871078491211,2.78646183013916
1779910010878275000,19.193275146484375,1.5358679294586182,4.698622703552246,2.504700183868408
1779910010894587000,19.2095869140625,1.2796099185943604,1.2498302459716797,0.5461135506629944
1779910010910923300,19.22592333984375,0.6215553879737854,-3.7533087730407715,0.7415903806686401
1779910010927254300,19.242254150390625,-0.22449298202991486,-2.70292592048645,2.054950714111328
1779910010943568100,19.258568115234375,-0.8717046976089478,1.0010554790496826,2.214233875274658
1779910010959924500,19.274924560546875,-1.1530081033706665,3.3760995864868164,1.6572774648666382
1779910010976244700,19.29124462890625,-1.1007791757583618,3.1227431297302246,1.5514450073242188
1779910010992593200,19.30759326171875,-0.6313292384147644,2.0079140663146973,1.7537940740585327
1779910011008921000,19.323921142578126,-0.01710422709584236,1.3464996814727783,1.4966198205947876
1779910011025255400,19.34025537109375,0.4433354437351227,1.2166908979415894,1.1418598890304565
1779910011041588200,19.356588134765627,0.6441574096679688,1.0952813625335693,1.1368201971054077
1779910011057920500,19.37292041015625,0.6809620261192322,0.8891143798828125,1.3116804361343384
1779910011074254300,19.38925439453125,0.6543893814086914,0.57436603307724,1.38849675655365
1779910011090584800,19.405584716796874,0.6233879923820496,0.5352706909179688,1.2832751274108887
1779910011106919200,19.421919189453124,0.5210680365562439,0.9260717034339905,1.17240309715271
1779910011123252700,19.438252685546875,0.4308127164840698,1.2744176387786865,1.154077172279358
1779910011139584500,19.45458447265625,0.4911356568336487,1.2376129627227783,0.9618073105812073
1779910011155917300,19.470917236328123,0.6320928335189819,0.7619016766548157,0.5975789427757263
1779910011172251100,19.487251220703126,0.6160575747489929,0.5775730609893799,0.3023782968521118
1779910011188584000,19.503583984375,0.39706242084503174,0.8753699064254761,0.22296582162380219
1779910011204915500,19.51991552734375,0.156686931848526,1.1943942308425903,0.14966198801994324
1779910011221247700,19.536247802734376,-0.008704829961061478,1.0949759483337402,0.19578230381011963
1779910011237583400,19.552583251953124,-0.1082758679986,0.3219259977340698,0.3303253948688507
1779910011253904000,19.56890380859375,-0.22876903414726257,-0.26832255721092224,0.29657506942749023
1779910011270263600,19.585263671875,-0.4262312352657318,-0.2756529450416565,0.13377949595451355
1779910011286593500,19.601593505859373,-0.6760751008987427,-0.2646573781967163,-0.15317445993423462
1779910011302924800,19.6179248046875,-0.988379955291748,-0.5561928153038025,-0.4908302128314972
1779910011319264500,19.634264404296875,-1.2376129627227783,-1.2205088138580322,-0.769690215587616
1779910011335591200,19.650591064453124,-1.3217597007751465,-1.5155566930770874,-1.2012665271759033
1779910011351927000,19.666927001953123,-1.2470813989639282,-1.3287845849990845,-1.8921550512313843
1779910011368259000,19.683259033203125,-1.0416779518127441,-1.3122912645339966,-2.6705501079559326
1779910011384572700,19.69957275390625,-0.868803083896637,-1.4278974533081055,-3.006373405456543
1779910011400911000,19.7159111328125,-0.5325217843055725,-1.4259121417999268,-2.927877187728882
1779910011417239800,19.73223974609375,-0.21639901399612427,-0.9472993016242981,-2.7566821575164795
1779910011433576400,19.748576416015624,-0.022907447069883347,0.09407325088977814,-2.556471109390259
1779910011449910300,19.76491015625,0.1391245573759079,0.7872526049613953,-2.4521658420562744
1779910011466241300,19.7812412109375,0.28619036078453064,1.0144944190979004,-2.3318252563476562
1779910011482574600,19.79757470703125,0.26374107599258423,0.3926336467266083,-2.1627683639526367
1779910011498908000,19.813907958984377,0.2538145184516907,-1.303891897201538,-1.9909625053405762
1779910011515257600,19.830257568359375,0.34086281061172485,-1.9147571325302124,-2.007303237915039
1779910011531587000,19.846587158203125,0.23747386038303375,-1.2904528379440308,-2.017840623855591
1779910011547900700,19.862900634765627,0.12293662875890732,-0.8755226135253906,-1.8170186281204224
1779910011564239000,19.879239013671874,-0.006261368747800589,-0.9613491892814636,-1.534340739250183
1779910011580571600,19.895571533203125,-0.18829920887947083,-1.0468703508377075,-1.29381263256073
1779910011596904000,19.911904052734375,-0.37659841775894165,-1.3255776166915894,-1.0719157457351685
1779910011613237200,19.9282373046875,-0.4792237877845764,-1.687362551689148,-0.9254608750343323
1779910011629570600,19.944570556640624,-0.489608496427536,-1.8852828741073608,-0.7907650470733643
1779910011645902600,19.960902587890626,-0.44516804814338684,-1.8539760112762451,-0.618195652961731
1779910011662236000,19.97723583984375,-0.3602577745914459,-1.7453947067260742,-0.43905940651893616
1779910011678561500,19.9935615234375,-0.24144448339939117,-1.7218763828277588,-0.08292495459318161
1779910011694901800,20.00990185546875,-0.18295414745807648,-1.3518447875976562,0.41722095012664795
1779910011711221200,20.02622119140625,-0.10216721147298813,-0.9075930118560791,0.9940304756164551
1779910011727566300,20.04256640625,-0.09865473955869675,-0.5491678714752197,1.5758795738220215
1779910011743900000,20.05889990234375,-0.22831088304519653,-0.2736676335334778,2.040442705154419
1779910011760223200,20.07522314453125,-0.30925053358078003,-0.1849394589662552,2.0260872840881348
1779910011776567800,20.09156787109375,-0.1290452778339386,0.17531833052635193,0.4918992519378662
1779910011792915200,20.107915283203123,-0.3095559775829315,0.5910121202468872,-0.5798638463020325
1779910011809245200,20.1242451171875,-0.2724458873271942,-0.04230241850018501,-1.0378600358963013
1779910011825578500,20.14057861328125,-0.4612032473087311,-0.3874412775039673,-1.2793045043945312
1779910011841898000,20.15689794921875,-0.5464189648628235,-1.8594738245010376,-0.8477282524108887
1779910011858217500,20.173217529296874,0.06459899991750717,-2.5725061893463135,-0.3649919927120209
1779910011874558000,20.189557861328126,0.9618073105812073,-1.6751452684402466,-0.8619308471679688
1779910011890896400,20.205896484375,0.8561276197433472,0.35246923565864563,-2.0667097568511963
1779910011907222000,20.222221923828126,-0.9753990769386292,1.0870347023010254,-1.0569496154785156
1779910011923564000,20.23856396484375,-1.1102476119995117,1.2188289165496826,0.3251330256462097
1779910011939896300,20.254896240234373,-0.6116288304328918,1.130406141281128,0.9647089242935181
1779910011956227000,20.27122705078125,0.19517144560813904,1.2548699378967285,1.5457944869995117
1779910011972560400,20.287560302734374,0.6995934247970581,1.645671010017395,1.7654005289077759
1779910011988891000,20.303890869140623,1.0910053253173828,3.291189193725586,2.378709316253662
1779910012005238500,20.320238525390625,1.6559029817581177,4.139986515045166,3.04852294921875
1779910012021577500,20.336577392578125,1.9987510442733765,3.319441795349121,3.2904255390167236
1779910012037872600,20.35287255859375,1.1242974996566772,1.3799445629119873,1.7398968935012817
1779910012054223400,20.369223388671877,0.027947084978222847,-0.1586722433567047,0.7586946487426758
1779910012070554000,20.38555419921875,-0.3234531581401825,0.40164390206336975,0.8970556259155273
1779910012086893800,20.401893798828127,-0.4155410826206207,1.3368785381317139,1.2475395202636719
1779910012103223000,20.41822314453125,-0.5983424782752991,1.5893186330795288,1.6076445579528809
1779910012119555000,20.43455517578125,-0.7907650470733643,1.0968085527420044,1.9964603185653687
1779910012135902500,20.45090234375,-0.9862419366836548,0.7536550164222717,2.227367401123047
1779910012152233500,20.4672333984375,-0.803135097026825,0.6152940392494202,2.0580050945281982
1779910012168550000,20.4835498046875,-0.35521814227104187,0.9654725193977356,1.5819882154464722
1779910012184892000,20.499891845703125,-0.012980886735022068,1.6972891092300415,1.0204503536224365
