time,seconds_elapsed,z,y,x
1779910370625341000,0.0833408203125,-4.315993785858154,1.2615633010864258,-0.042132049798965454
1779910370641682200,0.09968212890625,-3.950709342956543,-0.3819561004638672,0.28062522411346436
1779910370658005500,0.116005615234375,-2.837975025177002,-2.717987060546875,1.5817745923995972
1779910370674326500,0.132326416015625,4.631744384765625,-5.621419906616211,2.396392822265625
1779910370690673200,0.148673095703125,1.9237604141235352,-5.096137523651123,3.078550100326538
1779910370707003100,0.165003173828125,-1.7865357398986816,-3.219167709350586,3.1355724334716797
1779910370723330800,0.181330810546875,-2.9315171241760254,-2.3383588790893555,1.175551414489746
1779910370739670000,0.197669921875,-2.916259765625,-1.7161672115325928,-2.944983959197998
1779910370755997400,0.21399755859375,-3.04695463180542,-2.5162193775177,-6.339253902435303
1779910370772334000,0.230333984375,-8.353107452392578,-5.518890380859375,-4.282520294189453
1779910370788659500,0.246659423828125,-9.872865676879883,-4.473764419555664,-3.9278275966644287
1779910370805003500,0.26300341796875,-10.441051483154297,-4.9251532554626465,-3.8870530128479004
1779910370821341200,0.279341064453125,-8.861321449279785,-9.13769245147705,-3.61301326751709
1779910370837675000,0.295675048828125,-6.920032501220703,-11.64797306060791,-4.688504219055176
1779910370853992200,0.3119921875,-8.032215118408203,-12.151561737060547,-4.380271911621094
1779910370870339600,0.328339599609375,-7.394643783569336,-11.666234970092773,-2.5827832221984863
1779910370886666000,0.344666015625,-3.759847402572632,-11.982831001281738,-1.772550106048584
1779910370902974700,0.360974609375,-2.1331357955932617,-11.68838882446289,1.133957862854004
1779910370919339800,0.37733984375,2.0964460372924805,-9.717745780944824,4.365409851074219
1779910370935669200,0.393669189453125,5.1069746017456055,-6.478094577789307,7.724704742431641
1779910370951980000,0.40997998046875,6.220916748046875,-5.481438636779785,10.631264686584473
1779910370968313000,0.42631298828125,4.014798641204834,-4.384251594543457,13.720762252807617
1779910370984643000,0.44264306640625,3.6521682739257812,-0.6256248950958252,16.282852172851562
1779910371000978200,0.458978271484375,1.9363795518875122,-0.03643608093261719,17.31586456298828
1779910371017307600,0.4753076171875,-0.4892578125,0.19127202033996582,17.33196258544922
1779910371033640700,0.491640625,-1.8205968141555786,1.7000243663787842,17.297210693359375
1779910371049956000,0.5079560546875,-3.9010109901428223,4.943617820739746,17.289857864379883
1779910371066291700,0.524291748046875,-7.487729549407959,7.2257537841796875,16.188852310180664
1779910371082622000,0.5406220703125,-5.2976908683776855,6.402778625488281,13.736467361450195
1779910371098957300,0.556957275390625,-3.800905466079712,2.3497514724731445,10.571512222290039
1779910371115286300,0.573286376953125,-0.9195526242256165,-1.03336763381958,7.359271049499512
1779910371131619300,0.589619384765625,-3.512624740600586,0.5342097282409668,2.2561168670654297
1779910371147949800,0.60594970703125,-1.0134737491607666,-1.8788423538208008,2.5831518173217773
1779910371164283600,0.62228369140625,0.8837275505065918,-0.567101001739502,1.9486770629882812
1779910371180614000,0.63861376953125,1.9293668270111084,-1.5956025123596191,2.7113475799560547
1779910371196947700,0.65494775390625,-3.0424652099609375,-1.7467589378356934,1.0798406600952148
1779910371213276200,0.671276123046875,-0.9980288743972778,0.5390748977661133,-3.730219841003418
1779910371229626400,0.68762646484375,3.5393457412719727,-5.7764506340026855,1.992476463317871
1779910371245941800,0.703941650390625,-2.4608466625213623,0.9047958850860596,-1.4015188217163086
1779910371262287000,0.720287109375,-2.6987998485565186,1.2406554222106934,-2.331969738006592
1779910371278604500,0.7366044921875,1.1496870517730713,-1.3531439304351807,-0.7004661560058594
1779910371294948600,0.752948486328125,6.148474216461182,0.23931169509887695,-1.534327507019043
1779910371311284200,0.7692841796875,-3.015355348587036,3.5213794708251953,-1.7196459770202637
1779910371327631600,0.785631591796875,1.6873703002929688,-1.939786434173584,-1.761167049407959
1779910371343957800,0.801957763671875,-0.9052515029907227,1.314021348953247,-4.214507579803467
1779910371360273400,0.8182734375,-9.266181945800781,0.5441153049468994,-3.6783618927001953
1779910371376623400,0.834623291015625,-2.6104114055633545,-1.268418788909912,-2.7719454765319824
1779910371392956400,0.850956298828125,2.3206920623779297,4.097000598907471,-1.9880986213684082
1779910371409288400,0.867288330078125,-1.0694875717163086,4.6712212562561035,-0.7807192802429199
1779910371425620000,0.883619873046875,-2.2902204990386963,0.4981698989868164,-0.8459091186523438
1779910371441936600,0.8999365234375,-1.0117177963256836,-0.6376686096191406,-2.2525012493133545
1779910371458267100,0.91626708984375,1.4495148658752441,2.828141689300537,-3.948326587677002
1779910371474596400,0.932596435546875,-4.264835357666016,8.076897621154785,-2.972069501876831
1779910371490938000,0.948938232421875,-3.6972427368164062,6.616959571838379,-3.157165765762329
1779910371507263700,0.965263671875,0.9801077842712402,0.9684901237487793,0.48515939712524414
1779910371523598600,0.9815986328125,1.3940625190734863,-0.5859203338623047,4.306877136230469
1779910371539928800,0.9979287109375,-1.9994964599609375,-1.5367636680603027,4.392749786376953
1779910371556244200,1.014244140625,-0.9817100763320923,-0.3635711669921875,3.9276037216186523
1779910371572592400,1.03059228515625,-2.3436172008514404,2.2272238731384277,4.1777825355529785
1779910371588970500,1.046970458984375,-4.309073448181152,0.5178561210632324,5.332024574279785
1779910371605270000,1.06327001953125,-2.5990748405456543,-0.4984564781188965,4.687411308288574
1779910371621586000,1.0795859375,-1.6510361433029175,-0.5555553436279297,3.1319727897644043
1779910371637920300,1.095920166015625,-1.9295387268066406,-0.3809828758239746,0.7911372184753418
1779910371654253300,1.11225341796875,0.1983429193496704,1.8165812492370605,0.5979504585266113
1779910371670583800,1.128583740234375,-4.025245666503906,2.134434700012207,0.028997421264648438
1779910371686916900,1.144916748046875,4.945448875427246,3.234043598175049,0.044164180755615234
1779910371703247600,1.16124755859375,2.6139724254608154,4.087475299835205,4.567218780517578
1779910371719581000,1.177580810546875,-0.5155280828475952,1.3718700408935547,1.3678250312805176
1779910371735911400,1.193911376953125,2.6210615634918213,8.71876049041748,4.179807662963867
1779910371752244200,1.210244140625,-0.7945466041564941,3.288449764251709,4.386676788330078
1779910371768578800,1.226578857421875,-2.4003071784973145,-1.596902847290039,1.7235124111175537
1779910371784916700,1.242916748046875,-1.6771485805511475,-3.0178422927856445,0.18451762199401855
1779910371801242000,1.2592421875,-4.822707176208496,-1.9861764907836914,-1.237141489982605
1779910371817582000,1.27558203125,-5.00300407409668,0.9730491638183594,-1.839308261871338
1779910371833925000,1.291925048828125,0.22981220483779907,1.8763980865478516,0.43410539627075195
1779910371850246100,1.30824609375,-0.6283840537071228,-0.12757301330566406,-0.8691667318344116
1779910371866584600,1.32458447265625,-1.860313057899475,1.7106661796569824,-0.5679327249526978
1779910371882913300,1.340913330078125,-0.5973532199859619,3.664081573486328,0.02295684814453125
1779910371899228000,1.357227783203125,-0.6434605121612549,4.805587291717529,0.2741592526435852
1779910371915578400,1.373578369140625,-0.733711838722229,5.665867328643799,0.3546190857887268
1779910371931888000,1.38988818359375,-0.37912988662719727,6.570586681365967,-1.1184766292572021
1779910371948227600,1.4062275390625,1.260581135749817,7.692363739013672,-3.6378173828125
1779910371964558300,1.422558349609375,4.482751846313477,-33.650299072265625,1.2884128093719482
1779910371980891600,1.4388916015625,4.083451271057129,-23.977039337158203,-2.1006546020507812
1779910371997222400,1.455222412109375,-3.2775766849517822,3.7598042488098145,-2.0818114280700684
1779910372013555000,1.471554931640625,-1.4958782196044922,-4.661105155944824,0.5913482904434204
1779910372029902600,1.487902587890625,-1.5186865329742432,-8.911125183105469,1.0950156450271606
1779910372046233600,1.504233642578125,0.19718676805496216,-4.910721778869629,-0.30386781692504883
1779910372062564000,1.520564208984375,2.1264896392822266,-3.070615768432617,-0.7794363498687744
1779910372078880000,1.5368798828125,1.221939206123352,-2.67124080657959,-0.7825030088424683
1779910372095211000,1.5532109375,0.08894385397434235,-2.4233837127685547,-0.7617576122283936
1779910372111550200,1.56955029296875,-2.4221150875091553,-2.617499351501465,-1.0808427333831787
1779910372127894800,1.585894775390625,-1.5279093980789185,-2.417491912841797,-1.5797703266143799
1779910372144187100,1.602187255859375,1.2358474731445312,-2.3722686767578125,-2.9006505012512207
1779910372160538600,1.61853857421875,0.802261233329773,-1.9158086776733398,-4.020930767059326
1779910372176878300,1.63487841796875,0.27399635314941406,-0.2489767074584961,-2.7031073570251465
1779910372193195800,1.65119580078125,1.4902868270874023,-0.08491134643554688,-0.6026114225387573
1779910372209521200,1.667521240234375,1.0489871501922607,-0.7314891815185547,0.6134622693061829
1779910372225864700,1.68386474609375,-0.9161128997802734,-1.1362895965576172,1.0421711206436157
1779910372242202400,1.700202392578125,0.1322789192199707,-1.0195198059082031,0.7736116647720337
1779910372258533000,1.716533203125,0.34962034225463867,-0.2296142578125,0.36753425002098083
1779910372274866200,1.7328662109375,-0.3980693817138672,1.0494017601013184,0.005389809608459473
1779910372291197400,1.749197509765625,1.0375518798828125,2.215998649597168,-0.05457993596792221
1779910372307530500,1.765530517578125,3.6922433376312256,3.1421728134155273,-0.025736182928085327
1779910372323861000,1.781861083984375,4.304773807525635,3.3009023666381836,-0.44987303018569946
1779910372340194000,1.798194091796875,4.731990337371826,3.7795186042785645,-0.6913562417030334
1779910372356525000,1.814525146484375,4.290971755981445,4.154301643371582,-1.3932368755340576
1779910372372857900,1.83085791015625,3.734922409057617,4.693839073181152,-1.5414578914642334
1779910372389189000,1.847189208984375,3.4826836585998535,5.204063415527344,-0.7287442684173584
1779910372405535500,1.863535400390625,3.492978572845459,5.624428749084473,-0.6005954742431641
1779910372421836300,1.879836181640625,3.3687634468078613,5.231128215789795,-0.9360328912734985
1779910372438183400,1.896183349609375,2.1929798126220703,4.674057960510254,-1.149356484413147
1779910372454519300,1.912519287109375,1.6327629089355469,4.366044998168945,-0.34388232231140137
1779910372470849500,1.928849609375,1.1932563781738281,3.424229145050049,-0.03647048771381378
1779910372487180800,1.945180908203125,-0.4831361770629883,2.553191661834717,1.307167649269104
1779910372503515400,1.961515380859375,-2.318324089050293,1.9666829109191895,1.7499783039093018
1779910372519842800,1.9778427734375,-2.918004035949707,1.352118968963623,2.56711483001709
1779910372536178000,1.994177978515625,-2.7321548461914062,1.0407452583312988,2.954578399658203
1779910372552499500,2.01049951171875,-1.879058837890625,0.7965035438537598,2.29647159576416
1779910372568829400,2.026829345703125,1.66048002243042,-1.80271577835083,0.0206068754196167
1779910372585180700,2.0431806640625,-2.42787504196167,-5.915821075439453,1.0853652954101562
1779910372601497600,2.05949755859375,-5.87820291519165,-7.410602569580078,-0.08168250322341919
1779910372617836500,2.07583642578125,-0.5553317070007324,-5.362425804138184,-1.0263718366622925
1779910372634169600,2.092169677734375,1.6485917568206787,-2.4260902404785156,-0.6047946214675903
1779910372650500000,2.1085,-0.04604005813598633,0.4271116256713867,0.7941023111343384
1779910372666833400,2.12483349609375,0.834373950958252,0.24922847747802734,0.5501877665519714
1779910372683164700,2.14116455078125,2.3902087211608887,0.49291515350341797,1.1000597476959229
1779910372699497500,2.15749755859375,3.523465633392334,1.802767276763916,0.5200109481811523
1779910372715828200,2.173828125,4.061196327209473,-0.32851696014404297,1.5808525085449219
1779910372732146000,2.19014599609375,4.653158664703369,-5.224972724914551,-0.5703344345092773
1779910372748494300,2.206494384765625,5.079955577850342,-5.169731140136719,-4.1626787185668945
1779910372764820000,2.222820068359375,1.3991566896438599,-1.0496292114257812,-2.2736504077911377
1779910372781176000,2.239176025390625,0.33011484146118164,0.9907784461975098,-0.8956699371337891
1779910372797495000,2.2554951171875,0.6871490478515625,2.988330364227295,-1.554984450340271
1779910372813829000,2.2718291015625,1.2562061548233032,5.022090911865234,-1.2890760898590088
1779910372830175500,2.288175537109375,3.0341148376464844,7.41853141784668,-2.5313026905059814
1779910372846498000,2.304498046875,4.791667461395264,7.7715044021606445,-2.525075912475586
1779910372862834400,2.32083447265625,5.567889213562012,6.257906913757324,-1.2675120830535889
1779910372879148300,2.337148193359375,3.4733359813690186,5.744903087615967,-0.2085578441619873
1779910372895478300,2.353478271484375,0.16663944721221924,2.615011215209961,0.6193816661834717
1779910372911822800,2.36982275390625,1.0008035898208618,2.5180282592773438,5.161389350891113
1779910372928145000,2.386144775390625,-2.1209909915924072,1.3109188079833984,5.624311447143555
1779910372944474400,2.402474365234375,-5.482215881347656,4.084746837615967,1.2587251663208008
1779910372960809000,2.41880908203125,-1.6501660346984863,1.6271305084228516,-0.9290065765380859
1779910372977139700,2.4351396484375,3.669206380844116,-12.358750343322754,0.7766000032424927
1779910372993472800,2.45147265625,1.5480116605758667,-28.270606994628906,2.103306293487549
1779910373009803800,2.4678037109375,4.939840793609619,-3.524974822998047,-4.035335540771484
1779910373026137000,2.48413720703125,3.071493148803711,6.780596733093262,-4.343208312988281
1779910373042484500,2.500484375,1.8302029371261597,6.733828067779541,-4.200817584991455
1779910373058805000,2.516804931640625,-1.3140320777893066,0.3934745788574219,-1.9964258670806885
1779910373075132400,2.53313232421875,-3.621483087539673,-1.4116392135620117,0.7079712152481079
1779910373091462000,2.5494619140625,-3.081839084625244,-0.9609775543212891,2.1383707523345947
1779910373107798500,2.565798583984375,-0.8952141404151917,-1.4006471633911133,2.5104477405548096
1779910373124125700,2.582125732421875,2.4285647869110107,-3.0963268280029297,1.9823784828186035
1779910373140448800,2.59844873046875,3.481353282928467,-2.7790517807006836,1.3544180393218994
1779910373156796200,2.614796142578125,0.6143823266029358,-2.235905647277832,0.7088441848754883
1779910373173103600,2.631103515625,-2.180915117263794,-5.955737113952637,-0.5845517516136169
1779910373189443800,2.64744384765625,-2.73101806640625,-7.5958356857299805,-0.8069778680801392
1779910373205787400,2.663787353515625,-2.973748207092285,-6.800726890563965,0.3209174871444702
1779910373222109000,2.68010888671875,-1.3976762294769287,-4.870255470275879,0.7435390949249268
1779910373238457900,2.696457763671875,-0.5260065197944641,-3.496953010559082,-0.47734010219573975
1779910373254784800,2.71278466796875,-1.0314006805419922,-2.333369255065918,-1.8661057949066162
1779910373271115500,2.729115478515625,-3.2690467834472656,-2.266040802001953,-2.435014009475708
1779910373287448800,2.74544873046875,-4.9027557373046875,-3.3809452056884766,-2.0667221546173096
1779910373303797000,2.761796875,-5.235958576202393,-4.1292219161987305,-1.0332038402557373
1779910373320109000,2.778109130859375,-2.2653608322143555,-4.110323905944824,-0.014499902725219727
1779910373336434400,2.794434326171875,1.0719609260559082,-3.5913515090942383,0.8407043218612671
1779910373352778500,2.810778564453125,1.7777595520019531,-3.4790334701538086,1.7869940996170044
1779910373369113000,2.827113037109375,2.4172046184539795,-3.3636951446533203,1.7755742073059082
1779910373385448000,2.843447998046875,4.487813949584961,-2.4366159439086914,-0.034523963928222656
1779910373401764000,2.85976416015625,6.282918930053711,-1.0557727813720703,-1.615777850151062
1779910373418108000,2.87610791015625,3.699967861175537,-0.1407451629638672,-1.3597420454025269
1779910373434432500,2.8924326171875,3.4771199226379395,0.49856090545654297,-0.9824100732803345
1779910373450772000,2.90877197265625,3.66029691696167,1.1851472854614258,-0.8186416625976562
1779910373467097600,2.92509765625,3.191652297973633,2.9862465858459473,-0.6037032604217529
1779910373483422200,2.941422119140625,1.7510569095611572,4.793055057525635,0.7359309196472168
1779910373499763500,2.957763427734375,3.0072247982025146,4.713024139404297,2.0689337253570557
1779910373516113700,2.97411376953125,3.049960136413574,3.2271575927734375,2.540938138961792
1779910373532441600,2.990441650390625,3.2537386417388916,2.3220701217651367,2.217772960662842
1779910373548740900,3.006740966796875,3.7859127521514893,2.802443504333496,1.2355318069458008
1779910373565101800,3.023101806640625,4.377460479736328,3.8499491214752197,1.0090162754058838
1779910373581426000,3.039426025390625,4.716558456420898,5.065243244171143,1.4430526494979858
1779910373597755600,3.055755615234375,4.639433860778809,6.039247512817383,1.4668854475021362
1779910373614089000,3.0720888671875,3.2462847232818604,6.300610542297363,0.848076343536377
1779910373630419500,3.08841943359375,2.5808143615722656,4.061612606048584,0.5327579975128174
1779910373646752800,3.104752685546875,1.3361573219299316,2.2146449089050293,0.33710646629333496
1779910373663083800,3.121083740234375,0.5420346260070801,1.861229419708252,-0.10002279281616211
1779910373679417300,3.137417236328125,0.15506410598754883,2.470262289047241,-0.22057485580444336
1779910373695747800,3.153747802734375,-0.7650847434997559,2.624453544616699,0.6609981060028076
1779910373712081000,3.170080810546875,-1.2004337310791016,2.7371826171875,1.2053149938583374
1779910373728412000,3.186411865234375,-1.6258134841918945,3.6590118408203125,1.5226457118988037
1779910373744742100,3.2027421875,-1.9655165672302246,4.274344444274902,1.8347814083099365
1779910373761092600,3.219092529296875,-1.629784107208252,2.209975242614746,0.4644414186477661
1779910373777409300,3.2354091796875,-6.632106781005859,-5.917186737060547,-2.3913414478302
1779910373793757000,3.2517568359375,-14.048273086547852,-16.319381713867188,-6.604449272155762
1779910373810070300,3.2680703125,-2.58199405670166,-10.303998947143555,-1.4909687042236328
1779910373826417400,3.28441748046875,1.028879165649414,-0.547417163848877,0.5342403650283813
1779910373842717400,3.300717529296875,2.600226402282715,4.935880661010742,0.15032243728637695
1779910373859058400,3.317058349609375,4.483705043792725,6.313688278198242,0.28650152683258057
1779910373875401500,3.3334013671875,4.171133518218994,6.267952919006348,0.5045487880706787
1779910373891731700,3.349731689453125,4.17796516418457,5.34476375579834,0.790259063243866
1779910373908056300,3.366056396484375,3.847306728363037,1.7719669342041016,0.5736041069030762
1779910373924396500,3.382396484375,4.050953388214111,-4.445224761962891,0.11785614490509033
1779910373940729300,3.398729248046875,0.8521480560302734,-11.881278991699219,0.12442910671234131
1779910373957060400,3.415060302734375,1.0615437030792236,-10.761248588562012,0.280971884727478
1779910373973393200,3.43139306640625,0.5962948799133301,-6.34602165222168,0.8193053603172302
1779910373989724200,3.44772412109375,0.6857802867889404,-1.2328386306762695,0.7921484708786011
1779910374006053600,3.4640537109375,1.0732312202453613,0.9849395751953125,0.31760406494140625
1779910374022406700,3.48040673828125,1.666717767715454,1.2665290832519531,-0.43012535572052
1779910374038740000,3.496739990234375,1.8513121604919434,0.5779361724853516,-0.5844250917434692
1779910374055053600,3.513053466796875,1.749802589416504,-0.8092031478881836,-0.3730289936065674
1779910374071390200,3.52939013671875,0.47485244274139404,-1.073007583618164,0.47345632314682007
1779910374087716600,3.545716552734375,-0.0547480583190918,0.10855388641357422,1.54396390914917
1779910374104050000,3.5620498046875,0.6163698434829712,2.1067185401916504,0.9380271434783936
1779910374120382200,3.57838232421875,0.24136781692504883,3.0993685722351074,-0.41899609565734863
1779910374136696800,3.59469677734375,-0.7310624122619629,3.3119077682495117,-0.9103008508682251
1779910374153036300,3.611036376953125,-1.3562397956848145,3.2794103622436523,-0.7934820652008057
1779910374169362000,3.62736181640625,-1.164762258529663,2.9812140464782715,-0.6711106300354004
1779910374185696000,3.643696044921875,-0.8816496133804321,3.070740222930908,-0.41025733947753906
1779910374202045700,3.660045654296875,-0.9785138368606567,3.0532326698303223,-0.23439860343933105
1779910374218369300,3.676369384765625,-0.87785804271698,2.096221446990967,-0.22870337963104248
1779910374234707000,3.69270703125,-0.5053865909576416,0.46578025817871094,-0.014759540557861328
1779910374251040500,3.70904052734375,-0.45740777254104614,-0.5371294021606445,0.4780083894729614
1779910374267370800,3.725370849609375,-0.7701789140701294,-0.30743408203125,1.477073073387146
1779910374283701000,3.741700927734375,-0.27191177010536194,0.005543708801269531,2.280937910079956
1779910374300036600,3.75803662109375,0.23831386864185333,-0.07011890411376953,2.3003673553466797
1779910374316379600,3.774379638671875,-0.6420650482177734,-0.11395454406738281,0.9577036499977112
1779910374332712200,3.790712158203125,-1.7238322496414185,-2.2118959426879883,-0.9907729625701904
1779910374349027000,3.807027099609375,-2.159966468811035,-5.600037574768066,-1.8654494285583496
1779910374365376300,3.823376220703125,-2.0797741413116455,-7.9481353759765625,-1.1595438718795776
1779910374381707800,3.839707763671875,-1.4204695224761963,-8.507498741149902,0.10152363777160645
1779910374398007300,3.85600732421875,-1.1371958255767822,-6.967655181884766,1.0744569301605225
1779910374414359600,3.872359619140625,-1.0760231018066406,-3.8073854446411133,-0.12623977661132812
1779910374430690800,3.88869091796875,-1.908066987991333,-2.164562225341797,-1.8886888027191162
1779910374447022000,3.90502197265625,-2.6727817058563232,-1.598219871520996,-2.6974730491638184
1779910374463355100,3.921355224609375,-3.4628713130950928,-2.0846614837646484,-2.7635457515716553
1779910374479686000,3.937685791015625,-3.712928295135498,-3.333599090576172,-2.0705935955047607
1779910374496022800,3.954022705078125,-3.326111316680908,-3.8988218307495117,-0.692200779914856
1779910374512364000,3.970364013671875,-1.6437538862228394,-3.0779123306274414,0.7316701412200928
1779910374528696800,3.98669677734375,-0.19034242630004883,-2.227280616760254,1.8376739025115967
1779910374545012200,4.00301220703125,0.5300629138946533,-2.630725860595703,1.2922213077545166
1779910374561331000,4.0193310546875,1.0974732637405396,-3.0486202239990234,0.10642766952514648
1779910374577663700,4.035663818359375,2.7539255619049072,-2.0852842330932617,-0.7545421123504639
1779910374594000000,4.051999755859375,4.083542823791504,-1.420863151550293,0.02062249183654785
1779910374610330000,4.068330078125,3.785263776779175,-0.5508365631103516,0.38437819480895996
1779910374626662400,4.084662353515625,3.386348009109497,0.17131519317626953,-0.06571125984191895
1779910374642994700,4.10099462890625,2.1423990726470947,0.4579792022705078,-0.23222994804382324
1779910374659327200,4.1173271484375,1.2132551670074463,0.771660327911377,-0.250765323638916
1779910374675659300,4.1336591796875,1.2784006595611572,1.532487392425537,0.0008783340454101562
1779910374691992300,4.149992431640625,2.0502471923828125,2.15386962890625,0.6498607397079468
1779910374708322600,4.166322509765625,3.6276044845581055,2.699193000793457,1.516121506690979
1779910374724657000,4.182656982421875,3.9311766624450684,3.453587055206299,1.522750973701477
1779910374740985000,4.198985107421875,4.545949935913086,3.722466468811035,1.3230414390563965
1779910374757319200,4.215319091796875,4.4915571212768555,3.9654135704040527,1.1065915822982788
1779910374773651200,4.231651123046875,4.217152118682861,4.164731025695801,1.1857495307922363
1779910374789984300,4.247984375,4.1649370193481445,4.424740791320801,1.0388011932373047
1779910374806314200,4.264314208984375,3.647484064102173,3.813995361328125,0.96451735496521
1779910374822647600,4.2806474609375,3.1664021015167236,3.569394111633301,0.8718671798706055
1779910374838981600,4.296981689453125,3.189405918121338,3.8497447967529297,0.2816619873046875
1779910374855313000,4.31331298828125,2.0861964225769043,4.219811916351318,0.017024755477905273
1779910374871643100,4.32964306640625,-0.011325359344482422,5.0341973304748535,-0.24149370193481445
1779910374887991600,4.345991455078125,-2.712897777557373,4.214689254760742,0.28444743156433105
1779910374904319700,4.36231982421875,-5.049239635467529,2.747403144836426,0.9787954092025757
1779910374920652000,4.378652099609375,-3.7921271324157715,2.481022357940674,2.0567121505737305
1779910374936984300,4.394984375,2.547078847885132,2.7910828590393066,2.4207804203033447
1779910374953317400,4.4113173828125,0.6281251907348633,-0.8828263282775879,-0.04631662368774414
1779910374969648400,4.4276484375,-4.655031204223633,-9.208378791809082,-3.280626058578491
1779910374985981400,4.4439814453125,-1.7102885246276855,-14.666971206665039,-3.930565118789673
1779910375002325800,4.46032568359375,-2.5155954360961914,-7.763885974884033,-1.6088670492172241
1779910375018655500,4.476655517578125,0.8379721641540527,0.15233516693115234,0.0042296648025512695
1779910375034997500,4.49299755859375,2.9258973598480225,3.0194101333618164,-0.49305903911590576
1779910375051307800,4.509307861328125,2.678727149963379,2.2102108001708984,-0.5155454874038696
1779910375067640300,4.525640380859375,3.3563263416290283,1.1713523864746094,-1.2559664249420166
1779910375083963000,4.541962890625,3.1957650184631348,-1.4716062545776367,-1.6226699352264404
1779910375100305200,4.55830517578125,1.953994870185852,-4.636580467224121,-2.1889278888702393
1779910375116633600,4.574633544921875,1.8612570762634277,-5.006461143493652,-1.7607007026672363
1779910375132973600,4.5909736328125,1.734463095664978,-4.428691864013672,0.057920217514038086
1779910375149305900,4.607305908203125,1.2423837184906006,-3.4404067993164062,1.209695816040039
1779910375165647600,4.623647705078125,1.3338847160339355,-2.904529571533203,1.0720720291137695
1779910375181976600,4.6399765625,0.613646388053894,-1.1133508682250977,0.4038482904434204
1779910375198315500,4.6563154296875,-0.22373175621032715,0.036972999572753906,0.4833202362060547
1779910375214627600,4.672627685546875,0.29006385803222656,1.022904396057129,0.738811731338501
1779910375230962000,4.6889619140625,0.3070204257965088,2.4335575103759766,1.2396903038024902
1779910375247292200,4.705292236328125,-0.2518097162246704,3.8259639739990234,1.6646225452423096
1779910375263629300,4.72162939453125,-0.032099246978759766,4.62192964553833,1.5647320747375488
1779910375279959300,4.737959228515625,-0.27616816759109497,4.64294958114624,1.7223799228668213
1779910375296290600,4.75429052734375,-0.7077924609184265,4.383192539215088,1.8052072525024414
1779910375312637200,4.77063720703125,-0.6776983141899109,3.7922635078430176,1.5883214473724365
1779910375328962800,4.786962890625,-0.48241350054740906,3.237720012664795,1.1119868755340576
1779910375345301800,4.8033017578125,-0.0070937275886535645,2.405975341796875,0.22727519273757935
1779910375361632500,4.819632568359375,-0.23673823475837708,1.5613288879394531,-0.7678627371788025
1779910375377966300,4.83596630859375,-1.206864356994629,0.8643856048583984,-1.4429110288619995
1779910375394279400,4.852279541015625,-1.205668330192566,0.05424213409423828,-1.3816813230514526
1779910375410616000,4.868615966796875,-1.3311316967010498,-0.7102422714233398,-1.1849173307418823
1779910375426947300,4.884947265625,-1.672119140625,-1.4669437408447266,-0.5548171997070312
1779910375443280400,4.9012802734375,-1.813948631286621,-1.820387840270996,0.8268784284591675
1779910375459611600,4.917611572265625,-1.5655778646469116,-1.2906064987182617,2.0735394954681396
1779910375475944400,4.9339443359375,-0.7883082032203674,-0.26277732849121094,1.8678191900253296
1779910375492275200,4.950275146484375,-1.6719012260437012,-0.6151895523071289,0.5332255363464355
1779910375508609000,4.966609130859375,-3.0944793224334717,-2.791073799133301,-0.3795750141143799
1779910375524934400,4.982934326171875,-3.7524898052215576,-5.260298728942871,-1.151739478111267
1779910375541279000,4.999279052734375,-4.178158283233643,-6.928079605102539,-0.678534984588623
1779910375557603800,5.015603759765625,-2.401028633117676,-7.611330032348633,1.3688054084777832
1779910375573935900,5.031935791015625,-0.5065403580665588,-6.29312801361084,3.164067268371582
1779910375590254800,5.0482548828125,-0.8960483074188232,-4.27740478515625,1.8845086097717285
1779910375606601200,5.064601318359375,-3.192991256713867,-3.3464879989624023,0.7297403812408447
1779910375622932700,5.0809326171875,-4.572292327880859,-2.1081743240356445,-0.5604232549667358
1779910375639266600,5.0972666015625,-6.367552280426025,-2.5193519592285156,-0.6182520389556885
1779910375655593700,5.11359375,-5.254079818725586,-2.9984302520751953,0.6366778612136841
1779910375671943000,5.12994287109375,-2.312994956970215,-2.7726516723632812,1.6816670894622803
1779910375688258000,5.146258056640625,-0.6734714508056641,-3.38198184967041,2.304044723510742
1779910375704608300,5.162608154296875,0.2850925922393799,-6.084444999694824,1.8590682744979858
1779910375720921900,5.178921875,0.893301248550415,-6.8775177001953125,0.2869795560836792
1779910375737258200,5.19525830078125,5.127382278442383,-4.406511306762695,-0.35200226306915283
1779910375753589200,5.21158935546875,9.454414367675781,-1.4476470947265625,-0.994097113609314
1779910375769913000,5.2279130859375,6.639788627624512,0.3487091064453125,-1.0633375644683838
1779910375786253000,5.244253173828125,2.137455940246582,-0.8386001586914062,-0.15177297592163086
1779910375802587100,5.260587158203125,0.373091459274292,-2.254119873046875,-0.25601840019226074
1779910375818920400,5.27692041015625,-1.8689937591552734,-2.483610153198242,-1.2116641998291016
1779910375835268900,5.293268798828125,0.04527425765991211,-1.094555377960205,-1.0601062774658203
1779910375851575300,5.3095751953125,4.490090847015381,0.9080510139465332,0.3434760570526123
1779910375867929000,5.32592919921875,5.587734222412109,2.5673508644104004,1.7858130931854248
1779910375884238600,5.342238525390625,5.630814552307129,3.873093605041504,1.4722446203231812
1779910375900583700,5.358583740234375,5.619270324707031,3.471414804458618,1.2346410751342773
1779910375916888800,5.374888916015625,5.336739540100098,2.397219181060791,0.8398038148880005
1779910375933244000,5.391243896484375,5.255820274353027,1.3502140045166016,1.652214527130127
1779910375949575000,5.407574951171875,4.919315338134766,1.6938233375549316,1.906296968460083
1779910375965908700,5.42390869140625,5.2960052490234375,2.5685510635375977,1.9020899534225464
1779910375982256000,5.440256103515625,4.928064346313477,3.3371942043304443,1.8331958055496216
1779910375998586600,5.456586669921875,5.245790481567383,3.843616008758545,1.077935814857483
1779910376014913500,5.47291357421875,4.795465469360352,4.718889236450195,0.1132974624633789
1779910376031225900,5.489225830078125,4.5743207931518555,4.163991928100586,-0.9117527008056641
1779910376047567600,5.505567626953125,3.217587471008301,3.0303761959075928,-0.9050521850585938
1779910376063904500,5.521904541015625,1.7328681945800781,2.475355625152588,-0.5254104137420654
1779910376080235300,5.5382353515625,-0.35605812072753906,2.433960437774658,0.27814412117004395
1779910376096566000,5.55456591796875,-2.7929134368896484,2.164074659347534,1.1202516555786133
1779910376112896500,5.570896484375,-4.840195178985596,1.9059088230133057,1.7469083070755005
1779910376129239600,5.587239501953125,-5.752800464630127,1.802802324295044,2.4677376747131348
1779910376145567500,5.6035673828125,-6.285056114196777,1.7010388374328613,3.182337522506714
1779910376161909000,5.619908935546875,-6.121979713439941,2.467461109161377,3.3147201538085938
1779910376178239000,5.636239013671875,-4.295428276062012,2.3496055603027344,2.7999308109283447
1779910376194571500,5.652571533203125,-2.883955478668213,-1.1402196884155273,0.5576775074005127
1779910376210903300,5.6689033203125,-11.432828903198242,-11.316516876220703,-1.948148488998413
1779910376227219200,5.68521923828125,-5.8316779136657715,-11.048471450805664,-4.496100425720215
1779910376243553300,5.70155322265625,6.406224727630615,1.1580543518066406,-0.06796717643737793
1779910376259886800,5.717886962890625,3.00529146194458,3.3047752380371094,-2.6153972148895264
1779910376276218000,5.734218017578125,-0.32201242446899414,3.667508602142334,-0.5781753063201904
1779910376292551400,5.750551513671875,7.112738609313965,4.090472221374512,4.138460159301758
1779910376308878600,5.766878662109375,9.440308570861816,2.7820520401000977,2.6386842727661133
1779910376325231400,5.7832314453125,4.303605556488037,-0.4042530059814453,-1.1935327053070068
1779910376341564700,5.799564697265625,2.2932474613189697,-4.688262939453125,-1.3504068851470947
1779910376357893600,5.8158935546875,-0.25478363037109375,-6.354482650756836,-0.46546483039855957
1779910376374207200,5.832207275390625,0.24262189865112305,-3.9055933952331543,0.8573170900344849
1779910376390544000,5.8485439453125,0.4606647491455078,-1.1460952758789062,1.678948998451233
1779910376406875100,5.864875244140625,1.109633207321167,0.7657589912414551,2.1889736652374268
1779910376423208200,5.881208251953125,1.503072738647461,0.9321651458740234,2.8980712890625
1779910376439539200,5.897539306640625,1.7371296882629395,0.9070062637329102,3.363217830657959
1779910376455872800,5.913872802734375,1.2607414722442627,0.14240360260009766,3.5600366592407227
1779910376472203500,5.93020361328125,0.8679726123809814,-0.4674234390258789,3.851736545562744
1779910376488537300,5.946537353515625,0.3631579875946045,-0.9468231201171875,4.0966386795043945
1779910376504882000,5.9628818359375,0.4863259792327881,-1.6047430038452148,3.816317081451416
1779910376521201000,5.979200927734375,0.9859247207641602,-1.5994672775268555,3.9830684661865234
1779910376537532700,5.99553271484375,0.7007737159729004,-0.8116846084594727,4.035268783569336
1779910376553864000,6.011864013671875,0.6501795053482056,0.4181995391845703,3.571859121322632
1779910376570198500,6.028198486328125,1.727880597114563,1.129939079284668,2.5112693309783936
1779910376586529500,6.044529541015625,2.8357553482055664,1.013310432434082,1.5515475273132324
1779910376602872000,6.0608720703125,2.946135997772217,0.46099090576171875,0.34952497482299805
1779910376619198200,6.0771982421875,1.3704241514205933,1.0755739212036133,-2.256558895111084
1779910376635539000,6.0935390625,-0.7094659805297852,1.8580551147460938,-3.049353837966919
1779910376651868200,6.1098681640625,-0.33378535509109497,2.0985898971557617,-2.0234100818634033
1779910376668207600,6.12620751953125,-0.28516265749931335,1.1732282638549805,-0.9089217185974121
1779910376684536600,6.14253662109375,-0.509946346282959,0.1730937957763672,0.831623911857605
1779910376700852500,6.1588525390625,-1.0000486373901367,-0.24972820281982422,1.6926019191741943
1779910376717197800,6.17519775390625,-1.0194778442382812,-0.001636505126953125,2.0643908977508545
1779910376733518000,6.19151806640625,-0.5439347624778748,0.3664865493774414,2.442207098007202
1779910376749851400,6.207851318359375,-0.30992329120635986,0.47898006439208984,2.827930450439453
1779910376766182700,6.2241826171875,-0.2393307089805603,0.48251914978027344,3.3203511238098145
1779910376782515700,6.240515625,0.2326728105545044,0.6731042861938477,3.5334372520446777
1779910376798844000,6.256843994140625,0.7796837091445923,0.5992679595947266,3.0415518283843994
1779910376815183600,6.27318359375,0.4724889397621155,0.07097148895263672,2.4939541816711426
1779910376831511600,6.289511474609375,-0.5680041313171387,-0.6430063247680664,1.8732517957687378
1779910376847858000,6.30585791015625,-1.4016033411026,-1.3059711456298828,1.1820343732833862
1779910376864169500,6.32216943359375,-2.1526331901550293,-2.4217891693115234,0.7260514497756958
1779910376880509200,6.33850927734375,-2.9635534286499023,-2.5274505615234375,-0.22413969039916992
1779910376896836900,6.3548369140625,-4.30253267288208,-3.068866729736328,-0.18228816986083984
1779910376913176000,6.371176025390625,-4.424890041351318,-3.8665952682495117,1.9234306812286377
1779910376929504300,6.387504150390625,-2.83013916015625,-5.074156761169434,4.130681991577148
1779910376945840000,6.403840087890625,-1.1537535190582275,-4.738455772399902,5.407691955566406
1779910376962166500,6.42016650390625,-0.9454618692398071,-3.4369916915893555,6.356331825256348
1779910376978522000,6.436522216796875,-1.386812686920166,-2.2839126586914062,6.621842384338379
1779910376994844700,6.4528447265625,-1.5630617141723633,-2.055543899536133,5.927703857421875
1779910377011163000,6.469162841796875,-0.033392637968063354,-2.6063013076782227,3.8897805213928223
1779910377027484700,6.485484619140625,0.8595387935638428,-2.429041862487793,0.6983105540275574
1779910377043814100,6.501814208984375,1.223608374595642,-5.015989303588867,-0.5126520395278931
1779910377060165400,6.518165283203125,3.0136022567749023,-6.120134353637695,-0.5162883996963501
1779910377076499000,6.5344990234375,4.480863571166992,-4.749227523803711,-0.18881452083587646
1779910377092822500,6.550822509765625,4.345344543457031,-3.0867433547973633,-0.20923686027526855
1779910377109159400,6.567159423828125,3.2167303562164307,-2.2494945526123047,-0.24041426181793213
1779910377125491000,6.583490966796875,1.826112151145935,-2.580782890319824,-0.4564923048019409
1779910377141836800,6.5998369140625,1.2397983074188232,-2.7346668243408203,-0.017600417137145996
1779910377158173200,6.616173095703125,0.9810171127319336,-2.708889961242676,1.1698575019836426
1779910377174502400,6.63250244140625,-0.1333303451538086,-3.167466163635254,2.263497829437256
1779910377190811600,6.648811767578125,0.11582422256469727,-4.520374298095703,3.4124937057495117
1779910377207152600,6.665152587890625,2.5296294689178467,-6.655021667480469,2.7814836502075195
1779910377223483400,6.6814833984375,2.7870678901672363,-5.060102462768555,1.9332058429718018
1779910377239814400,6.697814453125,3.8210062980651855,-2.1383614540100098,1.362164855003357
1779910377256151000,6.714151123046875,5.704074859619141,-0.5168190002441406,0.4322150945663452
1779910377272481300,6.730481201171875,5.115679740905762,-0.0557866096496582,0.2741492986679077
1779910377288799200,6.74679931640625,4.484258651733398,0.2778496742248535,0.4236879348754883
1779910377305145600,6.7631455078125,4.4625163078308105,0.7968916893005371,0.9412114024162292
1779910377321493500,6.779493408203125,5.171651840209961,1.0407791137695312,0.7799680233001709
1779910377337824500,6.795824462890625,4.604610443115234,-0.398282527923584,0.8508802652359009
1779910377354138400,6.812138427734375,4.742542266845703,-1.137923240661621,0.9054549932479858
1779910377370471000,6.828470947265625,4.389570236206055,-0.5289483070373535,0.4596414566040039
1779910377386805800,6.8448056640625,4.069380760192871,0.7070159912109375,-0.2019658088684082
1779910377403139000,6.86113916015625,3.893348217010498,1.8891396522521973,-0.7035937309265137
1779910377419469800,6.8774697265625,2.8461174964904785,3.738858222961426,-1.0288913249969482
1779910377435803400,6.893803466796875,1.5029687881469727,4.583831310272217,-0.5592336654663086
1779910377452134700,6.910134765625,0.09785604476928711,3.238917589187622,0.4362821578979492
1779910377468468500,6.926468505859375,-0.841303825378418,1.6036996841430664,1.6617176532745361
1779910377484814800,6.94281494140625,-1.4577765464782715,0.7699685096740723,2.9496686458587646
1779910377501124400,6.959124267578125,-2.2111868858337402,0.019814491271972656,3.478196620941162
1779910377517449700,6.97544970703125,-3.9331889152526855,-1.2030463218688965,3.0382792949676514
1779910377533797000,6.991797119140625,-7.351116180419922,-2.3415393829345703,3.5399293899536133
1779910377550121700,7.008121826171875,-4.369360446929932,-3.1795849800109863,4.709214210510254
1779910377566466000,7.024466064453125,1.0287928581237793,-3.0607638359069824,2.9315884113311768
1779910377582791700,7.040791748046875,5.120156764984131,-1.0166816711425781,-1.594581127166748
1779910377599115000,7.057114990234375,3.9659464359283447,-0.053327083587646484,-3.357116460800171
1779910377615445200,7.0734453125,0.3119063377380371,-0.9299249649047852,-5.580327987670898
1779910377631789800,7.089789794921875,-0.14300966262817383,-0.6144680976867676,-1.5753262042999268
1779910377648104700,7.106104736328125,3.6816275119781494,-1.6971569061279297,2.049016237258911
1779910377664457200,7.122457275390625,5.119041919708252,-1.2507762908935547,1.8757086992263794
1779910377680769800,7.138769775390625,4.092164039611816,-1.1534714698791504,0.3248518705368042
1779910377697105200,7.155105224609375,2.5152299404144287,-1.3884434700012207,-0.5788189172744751
1779910377713452500,7.17145263671875,3.092451810836792,-1.6977858543395996,-0.6630184650421143
1779910377729770000,7.18777001953125,2.8862321376800537,-2.761730194091797,-0.5157673358917236
1779910377746113500,7.204113525390625,2.0554590225219727,-4.4451446533203125,-0.24799823760986328
1779910377762446800,7.22044677734375,1.078279972076416,-4.485520362854004,-0.1573789119720459
1779910377778764500,7.2367646484375,1.6009767055511475,-2.910172462463379,-0.5786293745040894
1779910377795112000,7.25311181640625,2.2842352390289307,-1.508213996887207,-0.4198729395866394
1779910377811437600,7.2694375,2.310678243637085,-0.6736478805541992,-0.6127946376800537
1779910377827781000,7.285781005859375,3.0215845108032227,-0.18193912506103516,-1.020210862159729
1779910377844103400,7.302103515625,3.573681354522705,-0.45401763916015625,-0.5694566965103149
1779910377860427500,7.318427490234375,2.5258066654205322,-1.104456901550293,0.7576306462287903
1779910377876771300,7.334771240234375,1.566631555557251,-1.084752082824707,1.7266947031021118
1779910377893105000,7.35110498046875,0.9425528049468994,-1.3752822875976562,2.720363140106201
1779910377909432800,7.367432861328125,0.6168731451034546,-0.2779979705810547,3.0322070121765137
1779910377925772500,7.3837724609375,0.6557059288024902,0.13807010650634766,2.786048412322998
1779910377942086000,7.4000859375,0.4381932020187378,1.0499029159545898,1.7678459882736206
1779910377958451000,7.416450927734375,-0.4311089515686035,1.4067306518554688,0.1396864652633667
1779910377974774000,7.43277392578125,-0.7948468923568726,1.7521090507507324,-1.2627886533737183
1779910377991099600,7.449099609375,-0.7130527496337891,1.528517723083496,-2.1331639289855957
1779910378007429400,7.465429443359375,-0.6931545734405518,1.7168164253234863,-2.2599596977233887
1779910378023754500,7.48175439453125,-0.3415118455886841,1.689460277557373,-1.9149540662765503
1779910378040093700,7.49809375,-0.1568455696105957,1.2742500305175781,-1.622252345085144
1779910378056427300,7.51442724609375,0.4311097264289856,0.7581596374511719,-1.560691237449646
1779910378072753000,7.5307529296875,0.5939820408821106,0.5221986770629883,-1.2455058097839355
1779910378089087000,7.5470869140625,0.2271566390991211,1.0211496353149414,-0.24370908737182617
1779910378105404200,7.563404052734375,-0.09140574932098389,1.3655881881713867,1.4131970405578613
1779910378121744100,7.579744140625,0.26489973068237305,0.8646678924560547,3.3421971797943115
1779910378138074000,7.59607421875,0.1579575538635254,-0.9428138732910156,5.077174663543701
1779910378154409000,7.612408935546875,-0.5366435050964355,-2.4916086196899414,4.945680618286133
1779910378170740000,7.628739990234375,-0.4816649556159973,-3.9945735931396484,2.4992516040802
1779910378187073000,7.645072998046875,-1.3117296695709229,-6.71641731262207,0.5490715503692627
1779910378203403300,7.6614033203125,-2.425119400024414,-9.384307861328125,0.2493375539779663
1779910378219737000,7.677737060546875,-2.4463281631469727,-9.66723346710205,0.6977842450141907
1779910378236067300,7.6940673828125,-2.353891134262085,-7.456282615661621,-0.1155921220779419
1779910378252402400,7.71040234375,-3.070751428604126,-4.863930702209473,-2.0694892406463623
1779910378268745700,7.726745849609375,-3.4144411087036133,-2.9322471618652344,-3.2284955978393555
1779910378285065700,7.743065673828125,-3.9996719360351562,-1.4407453536987305,-3.033740520477295
1779910378301396200,7.759396240234375,-4.300662040710449,-1.2090206146240234,-2.0264718532562256
1779910378317730300,7.775730224609375,-3.832068681716919,-1.7939796447753906,-0.887916088104248
1779910378334062000,7.79206201171875,-1.4790329933166504,-2.4618759155273438,-0.12350010871887207
1779910378350395600,7.808395751953125,0.5803976058959961,-2.6150035858154297,0.8733478784561157
1779910378366728700,7.824728759765625,0.5730640888214111,-2.9134836196899414,1.703323483467102
1779910378383057700,7.8410576171875,2.752408027648926,-3.9709300994873047,1.7185149192810059
1779910378399390500,7.857390380859375,5.311499118804932,-3.1772384643554688,0.2549729347229004
1779910378415722500,7.873722412109375,5.397002220153809,-1.383697509765625,-0.5294485092163086
1779910378432056600,7.890056640625,3.9526193141937256,-0.32122039794921875,-0.6125385761260986
1779910378448388600,7.906388671875,1.8514440059661865,-0.1644268035888672,-0.8561735153198242
1779910378464720100,7.92272021484375,1.3509764671325684,-0.32494211196899414,-0.6490659713745117
1779910378481052200,7.93905224609375,2.654282808303833,-0.360166072845459,0.19518589973449707
1779910378497385500,7.955385498046875,3.487159252166748,1.0355405807495117,0.8349570035934448
1779910378513718300,7.97171826171875,3.995330810546875,3.043530225753784,1.2517789602279663
1779910378530048300,7.98804833984375,3.823946714401245,3.480381488800049,1.1933629512786865
1779910378546381600,8.004381591796875,4.077113628387451,3.6511213779449463,1.0300073623657227
1779910378562711600,8.020711669921875,4.329644203186035,4.030924320220947,0.9292446374893188
1779910378579045000,8.037045166015625,4.299985885620117,4.021299362182617,1.4809573888778687
1779910378595391700,8.053391845703125,4.625923156738281,5.014591693878174,1.3678300380706787
1779910378611709200,8.069709228515626,4.026434898376465,5.000526428222656,1.7229188680648804
1779910378628053500,8.086053466796875,4.284157752990723,5.736781120300293,1.4326614141464233
1779910378644387000,8.102386962890625,3.1698431968688965,4.9840474128723145,0.6610884666442871
1779910378660718000,8.118718017578125,1.903724193572998,4.335042953491211,0.30645179748535156
1779910378677038800,8.135038818359375,0.25417327880859375,3.6846635341644287,0.5627419948577881
1779910378693399800,8.15139990234375,-0.7000241279602051,2.6290061473846436,1.0775724649429321
1779910378709712600,8.167712646484375,-1.4215826988220215,1.9795737266540527,1.7957606315612793
1779910378726047000,8.184046875,-0.9863243103027344,2.2556185722351074,2.0492427349090576
1779910378742380500,8.200380615234375,-0.06908321380615234,2.7162604331970215,2.2512452602386475
1779910378758696000,8.216696044921875,-0.1820998191833496,0.9947686195373535,1.475104808807373
1779910378775020000,8.23302001953125,-5.575290679931641,-6.410877227783203,0.06078743934631348
1779910378791379000,8.24937890625,-9.354730606079102,-19.843801498413086,-4.329126358032227
1779910378807709400,8.26570947265625,-3.475210666656494,-17.066951751708984,-3.013035774230957
1779910378824040200,8.282040283203125,0.6860804557800293,-1.1507315635681152,-1.7419192790985107
1779910378840371000,8.298370849609375,3.872697353363037,6.1799163818359375,-1.3170193433761597
1779910378856704500,8.31470458984375,4.949160099029541,6.741682529449463,-0.8689134120941162
1779910378873038300,8.331038330078124,3.6008806228637695,6.275548934936523,-1.23667573928833
1779910378889369000,8.347369140625,4.209725856781006,5.713537216186523,-0.9389148950576782
1779910378905703000,8.363702880859375,4.11042594909668,3.07462739944458,-1.252172589302063
1779910378922033400,8.380033447265625,3.6181845664978027,-0.12353992462158203,-1.3777978420257568
1779910378938357000,8.39635693359375,0.610863447189331,-7.611799240112305,-1.2961417436599731
1779910378954717700,8.4127177734375,0.5800454616546631,-9.91572093963623,0.38749784231185913
1779910378971025200,8.429025146484374,-0.06893324851989746,-8.209468841552734,2.0398876667022705
1779910378987366000,8.445365966796874,-0.07579922676086426,-3.9796581268310547,2.7432847023010254
1779910379003695900,8.46169580078125,0.3527398109436035,-0.6357994079589844,1.5800855159759521
1779910379020027100,8.478027099609376,0.7525994777679443,1.228647232055664,0.1367405652999878
1779910379036361200,8.494361328125,1.1432092189788818,1.5372295379638672,-0.6701269149780273
1779910379052691000,8.51069091796875,0.8061262369155884,1.0111637115478516,-0.6649320125579834
1779910379069026800,8.52702685546875,0.25054943561553955,1.3244380950927734,0.1718592643737793
1779910379085367800,8.543367919921875,-0.32131290435791016,2.3632850646972656,0.7222503423690796
1779910379101703700,8.55970361328125,-0.5838037729263306,3.052347183227539,1.896033763885498
1779910379118034700,8.57603466796875,0.4425785541534424,3.1960511207580566,2.094968795776367
1779910379134364200,8.5923642578125,1.0388725996017456,2.297377586364746,1.7475154399871826
1779910379150685400,8.608685546875,0.6645490527153015,1.8366212844848633,0.7247203588485718
1779910379167018800,8.625018798828124,0.3550386428833008,1.9316177368164062,-0.9324145317077637
1779910379183349500,8.641349609375,-0.9341049194335938,1.7120399475097656,-2.38038969039917
1779910379199669000,8.6576689453125,-1.4548534154891968,1.806973934173584,-2.6977720260620117
1779910379216001800,8.674001708984376,-1.687983751296997,1.108933448791504,-2.0182175636291504
1779910379232348200,8.69034814453125,-1.9636635780334473,0.2122640609741211,-0.9340915679931641
1779910379248678000,8.706677978515625,-2.0758118629455566,-0.3307476043701172,0.2277001142501831
1779910379265009000,8.7230087890625,-1.186421513557434,-0.36296939849853516,1.2433099746704102
1779910379281346300,8.73934619140625,-0.25970959663391113,0.06632518768310547,2.416717767715454
1779910379297676500,8.755676513671874,0.3884454369544983,1.000208854675293,2.261162281036377
1779910379314008800,8.7720087890625,-0.37206488847732544,0.11403465270996094,1.1004501581192017
1779910379330340900,8.7883408203125,-1.2939683198928833,-2.4429006576538086,-0.23180270195007324
1779910379346671900,8.804671875,-2.114046335220337,-4.611667633056641,-1.0594940185546875
1779910379362990300,8.820990234375,-1.9896376132965088,-5.972983360290527,-0.7176527976989746
1779910379379339800,8.83733984375,-0.8391124606132507,-7.105463981628418,-0.2930985689163208
1779910379395670000,8.853669921875,-0.5465046167373657,-7.336870193481445,0.9472956657409668
1779910379412000800,8.870000732421875,-1.9662103652954102,-4.730565071105957,0.5329420566558838
1779910379428334800,8.8863349609375,-2.0622215270996094,-2.785970687866211,-0.45879411697387695
1779910379444676900,8.9026767578125,-2.0359859466552734,-2.116013526916504,-1.565108299255371
1779910379460982300,8.918982177734375,-2.6847524642944336,-3.005594253540039,-2.6385769844055176
1779910379477330200,8.935330078125,-2.821598768234253,-3.6033105850219727,-3.161273717880249
1779910379493663200,8.951663330078125,-2.440002202987671,-3.621170997619629,-2.698291540145874
1779910379509994000,8.967993896484375,-2.376138210296631,-3.3262510299682617,-1.5286004543304443
1779910379526327800,8.984327880859375,-2.079652786254883,-2.9519786834716797,-0.4318501949310303
1779910379542659000,9.0006591796875,-1.587951898574829,-3.6411399841308594,0.3153951168060303
1779910379559005000,9.0170048828125,0.7245433330535889,-4.047527313232422,0.7079678773880005
1779910379575322400,9.033322265625,5.2762532234191895,-3.0294713973999023,1.7095305919647217
1779910379591668500,9.04966845703125,7.57986307144165,-1.3661727905273438,2.1106393337249756
1779910379607997200,9.0659970703125,8.039637565612793,0.5424118041992188,0.554633617401123
1779910379624339200,9.082339111328125,4.895416259765625,1.2523384094238281,-1.3065226078033447
1779910379640662500,9.09866259765625,1.8532748222351074,0.5410547256469727,-2.65228009223938
1779910379656998700,9.11499853515625,1.1288444995880127,0.7764158248901367,-3.31355619430542
1779910379673315000,9.131315185546875,2.578218936920166,1.5498991012573242,-1.8365259170532227
1779910379689664500,9.14766455078125,3.3990719318389893,1.871985912322998,0.8248066902160645
1779910379705988900,9.16398876953125,3.062985897064209,2.705219268798828,2.1598317623138428
1779910379722335700,9.180335693359375,2.9016168117523193,3.170097827911377,1.5189179182052612
1779910379738656300,9.19665625,3.7872960567474365,2.501535415649414,0.8311179876327515
1779910379754976000,9.21297607421875,4.568845748901367,1.9332280158996582,1.137598991394043
1779910379771313400,9.2293134765625,4.339613437652588,1.8451519012451172,1.7641656398773193
1779910379787643600,9.2456435546875,3.972018003463745,2.9907009601593018,2.332805633544922
1779910379803965400,9.26196533203125,3.931063652038574,4.6413421630859375,2.241978645324707
1779910379820310000,9.27831005859375,3.357712984085083,5.541456699371338,2.06243634223938
1779910379836638000,9.294637939453125,2.058411121368408,5.81104850769043,1.155281901359558
1779910379852972800,9.310972900390626,-0.5759062767028809,6.123166084289551,-0.1403040885925293
1779910379869304000,9.327303955078126,-2.9263877868652344,4.7958903312683105,0.407332181930542
1779910379885637400,9.343637451171874,-5.1492462158203125,3.015221357345581,1.8481526374816895
1779910379901968400,9.359968505859374,-2.923069953918457,3.3900344371795654,2.9232468605041504
1779910379918302000,9.376302001953125,5.030302047729492,5.563279151916504,3.439055919647217
1779910379934650400,9.392650390625,6.9070587158203125,5.092185020446777,1.0960601568222046
1779910379950963200,9.408963134765624,-0.798588752746582,-1.1466946601867676,-3.649048089981079
1779910379967297000,9.425297119140625,-10.891290664672852,-17.367694854736328,-8.632235527038574
1779910379983625500,9.44162548828125,-0.4922976493835449,-23.370615005493164,-2.652705430984497
1779910379999967700,9.4579677734375,-3.114255428314209,-6.562298774719238,0.8434126973152161
1779910380016296000,9.4742958984375,2.099944829940796,3.2974891662597656,0.6824740171432495
1779910380032626700,9.490626708984376,2.1794445514678955,5.778367519378662,-0.10091102123260498
1779910380048946400,9.506946533203125,2.3063955307006836,4.567819118499756,-0.52525794506073
1779910380065309400,9.523309326171875,4.297723293304443,2.955963134765625,-1.4464749097824097
1779910380081638700,9.539638671875,4.751343250274658,0.8187170028686523,-2.317636013031006
1779910380097960200,9.555960205078126,3.2394914627075195,-3.3718881607055664,-2.5128490924835205
1779910380114301400,9.572301513671874,2.2525367736816406,-6.776769638061523,-1.9512183666229248
1779910380130625800,9.588625732421875,0.28278112411499023,-8.73498249053955,-0.4283785820007324
1779910380146949600,9.60494970703125,-0.28122997283935547,-8.615876197814941,2.831277847290039
1779910380163288800,9.621288818359375,0.0009315013885498047,-2.9623031616210938,3.9485764503479004
1779910380179618000,9.6376181640625,0.9248218536376953,1.7322239875793457,1.7663745880126953
1779910380195949600,9.653949462890624,0.43771111965179443,3.4417881965637207,0.28162455558776855
1779910380212282600,9.67028271484375,-0.42415690422058105,3.528986930847168,0.15548014640808105
1779910380228598000,9.686597900390625,-0.39158153533935547,4.038822174072266,0.24738645553588867
1779910380244937200,9.702937255859375,0.5393356084823608,4.766971588134766,0.522191047668457
1779910380261279700,9.71927978515625,0.4595149755477905,5.267373085021973,1.1725337505340576
1779910380277612000,9.735612060546876,-0.6376414895057678,6.031004905700684,1.4161155223846436
1779910380293942300,9.7519423828125,-1.354152798652649,5.48273229598999,1.2330701351165771
1779910380310276000,9.768276123046874,-0.15935394167900085,4.168860912322998,0.8058127164840698
1779910380326593000,9.784593017578125,0.2852315306663513,2.991600513458252,0.08466243743896484
1779910380342944500,9.800944580078125,-0.08464452624320984,1.742279052734375,-1.0175837278366089
1779910380359272000,9.81727197265625,-0.7352769374847412,0.5535802841186523,-1.996004581451416
1779910380375605200,9.833605224609375,-1.5193284749984741,-0.24854755401611328,-1.9202910661697388
1779910380391936500,9.8499365234375,-2.401306629180908,-0.5375661849975586,-1.2086018323898315
1779910380408260400,9.86626025390625,-2.4500463008880615,-0.6403474807739258,0.42298346757888794
1779910380424599800,9.882599853515625,-1.1775163412094116,-1.0465278625488281,2.2353713512420654
1779910380440935400,9.898935302734374,-0.3888615071773529,-1.7492542266845703,2.82857346534729
1779910380457265700,9.915265625,-0.3258351683616638,-2.208828926086426,0.9975361227989197
1779910380473598700,9.9315986328125,-0.8167403936386108,-3.3369903564453125,0.19065332412719727
1779910380489929500,9.947929443359374,-1.8301047086715698,-4.849902153015137,-0.5707393884658813
1779910380506263600,9.964263671875,-2.6478466987609863,-6.104170799255371,-0.8661476373672485
1779910380522574000,9.980573974609374,-2.7713096141815186,-6.528882026672363,-0.9144070148468018
1779910380538922000,9.996921875,-2.612633228302002,-6.423460006713867,-0.3532693386077881
1779910380555276500,10.013276611328125,-1.637608289718628,-5.951428413391113,1.6417572498321533
1779910380571601700,10.0296015625,-0.8119179606437683,-4.167025566101074,2.7096080780029297
1779910380587917300,10.045917236328124,-1.1929938793182373,-2.993170738220215,2.077578067779541
1779910380604270600,10.0622705078125,-1.4070805311203003,-2.048041343688965,-0.6495805978775024
1779910380620598000,10.078597900390625,-2.039860725402832,-3.1565427780151367,-2.3066513538360596
1779910380636939000,10.09493896484375,-2.8177504539489746,-3.8184213638305664,-2.6619040966033936
1779910380653236000,10.111236083984375,-3.1665468215942383,-3.744783401489258,-1.7153398990631104
1779910380669600300,10.127600341796875,-2.344386339187622,-2.715418815612793,0.14602327346801758
1779910380685898000,10.14389794921875,-1.6012864112854004,-1.7835264205932617,2.0853781700134277
1779910380702264800,10.160264892578125,-0.3185173273086548,-1.9697132110595703,3.4057493209838867
1779910380718589000,10.1765888671875,-0.7916164398193359,-3.0684404373168945,4.075652122497559
1779910380734935800,10.192935791015625,0.9557427167892456,-3.2625885009765625,3.086709976196289
1779910380751230000,10.20922998046875,4.191639423370361,-1.803213119506836,1.2168607711791992
1779910380767579400,10.225579345703125,5.399913787841797,-0.015413284301757812,-0.15387415885925293
1779910380783911700,10.24191162109375,3.5614588260650635,0.09865379333496094,0.14720702171325684
1779910380800244700,10.25824462890625,2.7803378105163574,0.0831136703491211,0.5917338728904724
1779910380816575000,10.274574951171875,2.3894295692443848,-0.066925048828125,0.776323676109314
1779910380832906500,10.290906494140625,1.0762825012207031,-0.20198440551757812,0.29115068912506104
1779910380849243100,10.3072431640625,2.9060745239257812,-0.03713512420654297,-0.021372318267822266
1779910380865575400,10.323575439453125,4.847150802612305,1.0600242614746094,-0.11524951457977295
1779910380881904400,10.339904296875,5.751886367797852,1.854874610900879,0.4033559560775757
1779910380898235100,10.356235107421876,4.749755382537842,3.0193986892700195,-0.6272695064544678
1779910380914571500,10.372571533203125,4.522361755371094,2.433864116668701,-0.36891889572143555
1779910380930903000,10.388903076171875,4.814983367919922,1.9607224464416504,0.8165469169616699
1779910380947233800,10.40523388671875,4.589446067810059,2.930906057357788,1.719895601272583
1779910380963566800,10.42156689453125,4.723890781402588,3.7640581130981445,2.0955240726470947
1779910380979895300,10.437895263671875,4.454073905944824,2.969291925430298,1.4707058668136597
1779910380996234800,10.45423486328125,4.5889787673950195,3.217872142791748,1.1606992483139038
1779910381012563000,10.47056298828125,4.141993045806885,6.18226957321167,0.5408644676208496
1779910381028897800,10.486897705078125,3.023792266845703,6.332447052001953,0.29877281188964844
1779910381045241600,10.50324169921875,0.5333528518676758,5.220216274261475,1.1723616123199463
1779910381061570300,10.5195703125,-2.6603236198425293,4.393841743469238,1.7821874618530273
1779910381077909800,10.53590966796875,-7.029330253601074,2.1069283485412598,3.3213820457458496
1779910381094239200,10.5522392578125,-9.096567153930664,1.3684210777282715,5.440647602081299
1779910381110543000,10.568543212890624,-6.613208770751953,2.820195198059082,6.351274490356445
1779910381126890000,10.584889892578126,-1.3043084144592285,4.090631008148193,4.6801886558532715
1779910381143205400,10.601205322265624,4.213011741638184,4.673443794250488,2.860275983810425
1779910381159554600,10.617554443359374,-1.9007296562194824,-5.366377353668213,-2.3921959400177
1779910381175885600,10.633885498046874,-16.98102569580078,-21.28793716430664,-10.370104789733887
1779910381192207400,10.650207275390626,7.892370223999023,-6.162445545196533,0.8369004726409912
1779910381208537900,10.666537841796876,4.776307106018066,3.035586357116699,-3.6563034057617188
1779910381224881700,10.682881591796875,-3.062326431274414,5.42311954498291,-3.955918073654175
1779910381241219000,10.699218994140624,7.282909393310547,6.212174415588379,1.4728219509124756
1779910381257548300,10.71554833984375,8.527132034301758,5.341131210327148,0.008520126342773438
1779910381273879800,10.7318798828125,4.817968368530273,1.1037392616271973,-1.7936897277832031
1779910381290212400,10.74821240234375,4.121426582336426,-6.147891044616699,-2.2568087577819824
1779910381306543400,10.76454345703125,1.1829485893249512,-9.267942428588867,-0.41342341899871826
1779910381322877400,10.78087744140625,1.0628602504730225,-6.367586135864258,1.8260489702224731
1779910381339195000,10.79719482421875,2.1668591499328613,-2.701481819152832,1.9808837175369263
1779910381355541200,10.813541259765625,2.8678488731384277,-0.4210023880004883,1.971234917640686
1779910381371873000,10.829873046875,2.9994828701019287,0.7968263626098633,2.152737617492676
1779910381388206300,10.846206298828125,2.959890127182007,0.9162654876708984,2.0314202308654785
1779910381404536800,10.862536865234375,2.2648768424987793,0.4978647232055664,1.4023388624191284
1779910381420871000,10.878870849609376,0.7387814521789551,-0.3743009567260742,0.9279780387878418
1779910381437202700,10.89520263671875,-0.5922329425811768,-1.7481584548950195,0.8931127786636353
1779910381453535200,10.91153515625,-0.06816887855529785,-1.146611213684082,1.897557258605957
1779910381469866000,10.927865966796874,0.4796934127807617,0.9262018203735352,3.051513910293579
1779910381486199800,10.94419970703125,0.3558800220489502,2.092071056365967,2.9964866638183594
1779910381502519000,10.96051904296875,-0.4036099910736084,2.628786563873291,2.6613054275512695
1779910381518856000,10.97685595703125,0.09900963306427002,2.4514565467834473,2.659424066543579
1779910381535188000,10.99318798828125,0.8882924914360046,1.5152277946472168,2.6715047359466553
1779910381551529500,11.009529541015626,1.2622463703155518,0.9792718887329102,2.219637870788574
1779910381567859700,11.025859619140626,0.6778127551078796,0.5972490310668945,1.3912405967712402
1779910381584192300,11.042192138671876,0.4686901569366455,0.16567230224609375,-0.008977055549621582
1779910381600511500,11.058511474609375,0.2204260230064392,0.24317169189453125,-1.0931719541549683
1779910381616857900,11.07485791015625,-0.7492871880531311,0.40720558166503906,-0.4634075164794922
1779910381633173500,11.091173583984375,-0.3592982292175293,-0.33885765075683594,0.2769196033477783
1779910381649512200,11.10751220703125,-0.05159282684326172,-0.2912149429321289,0.868583083152771
1779910381665840400,11.12384033203125,-0.09196259081363678,0.39492321014404297,1.1517877578735352
1779910381682173700,11.140173583984375,-0.4714681804180145,0.5249147415161133,0.9369925856590271
1779910381698506000,11.156506103515625,-0.82618647813797,0.5538158416748047,0.4498707056045532
1779910381714838500,11.172838623046875,-1.2126646041870117,0.2365283966064453,0.29607975482940674
1779910381731171300,11.18917138671875,-1.3728077411651611,-0.1334075927734375,0.3890622854232788
1779910381747506000,11.205505859375,-1.790243148803711,-0.2665739059448242,0.6687841415405273
1779910381763836200,11.221836181640626,-1.4935839176177979,-0.18576812744140625,1.0356907844543457
1779910381780168700,11.238168701171874,-0.3988052010536194,0.3739185333251953,1.1794041395187378
1779910381796500700,11.254500732421874,0.36327695846557617,0.44434642791748047,1.4469983577728271
1779910381812832800,11.270832763671875,-0.7092159986495972,0.24932479858398438,1.668614387512207
1779910381829164300,11.287164306640625,-1.3739840984344482,0.22011184692382812,1.25425124168396
1779910381845497900,11.303497802734375,-1.0945401191711426,-1.0108966827392578,1.9391050338745117
1779910381861827800,11.319827880859375,-1.1656707525253296,-1.6417808532714844,3.2237069606781006
1779910381878161700,11.33616162109375,-2.126079559326172,-2.2940492630004883,4.492629051208496
1779910381894494200,11.352494140625,-2.2270121574401855,-3.7313461303710938,5.154901504516602
1779910381910827300,11.3688271484375,-1.8286705017089844,-4.191009521484375,5.419472694396973
1779910381927161900,11.385161865234375,-1.7811845541000366,-4.389303207397461,5.559106349945068
1779910381943494700,11.40149462890625,-2.2152812480926514,-5.334169387817383,5.537505626678467
1779910381959822800,11.41782275390625,-2.9327125549316406,-4.987831115722656,5.675980567932129
1779910381976157200,11.4341572265625,-2.1229565143585205,-3.434536933898926,4.46336030960083
1779910381992486400,11.450486328125,-1.9207239151000977,-1.8854684829711914,3.461329698562622
1779910382008820000,11.466820068359375,-0.7543026208877563,-1.9918365478515625,2.863240957260132
1779910382025151200,11.483151123046875,0.18408524990081787,-3.58355712890625,2.2468068599700928
1779910382041488100,11.499488037109375,0.9519145488739014,-5.8972015380859375,1.6052249670028687
1779910382057815300,11.515815185546876,2.418405532836914,-7.209007263183594,2.047574758529663
1779910382074162200,11.532162109375,4.418003082275391,-6.486733436584473,2.6000328063964844
1779910382090484000,11.54848388671875,6.282979488372803,-5.281174659729004,2.243649482727051
1779910382106826800,11.56482666015625,4.775646686553955,-3.247617721557617,2.369157552719116
1779910382123157800,11.58115771484375,3.0757179260253906,-2.194477081298828,2.392066478729248
1779910382139491000,11.597490966796874,1.2738418579101562,-3.3914756774902344,4.245781898498535
1779910382155822600,11.613822509765624,0.4826688766479492,-6.188386917114258,5.891834259033203
1779910382172156000,11.630156005859375,1.5236835479736328,-9.498335838317871,6.72412109375
1779910382188504000,11.646504150390625,4.005077362060547,-9.963433265686035,5.038108825683594
1779910382204833500,11.66283349609375,5.566741943359375,-5.721941947937012,2.696852922439575
1779910382221149400,11.6791494140625,7.153510570526123,-2.232900619506836,1.3429911136627197
1779910382237482000,11.69548193359375,7.461914539337158,-0.33455467224121094,1.1330299377441406
1779910382253819000,11.71181884765625,6.7285919189453125,-0.5750784873962402,1.7337150573730469
1779910382270149600,11.728149658203124,7.84168815612793,-1.9277663230895996,1.0425894260406494
1779910382286481000,11.74448095703125,7.524148464202881,-3.3143510818481445,0.2565654516220093
1779910382302814500,11.760814453125,7.08893346786499,-4.113672733306885,-0.5642377138137817
1779910382319132700,11.777132568359375,5.122896194458008,-3.8694300651550293,-1.0497207641601562
1779910382335478300,11.793478271484375,5.042253494262695,-2.64039945602417,-1.1732532978057861
1779910382351799600,11.809799560546875,5.860154628753662,0.9381117820739746,-1.4034132957458496
1779910382368143000,11.82614306640625,5.964521884918213,5.233858108520508,-0.8903944492340088
1779910382384474400,11.842474365234375,4.861697673797607,6.268352508544922,0.06624341011047363
1779910382400808000,11.858807861328126,4.33626651763916,4.331151485443115,0.2330613136291504
1779910382417138700,11.875138671875,3.2612123489379883,3.1549861431121826,0.4934425354003906
1779910382433472300,11.89147216796875,2.0477981567382812,2.9755537509918213,0.8955938816070557
1779910382449799200,11.907799072265625,0.8648719787597656,2.6695892810821533,1.6289472579956055
1779910382466133200,11.92413330078125,-0.5330524444580078,1.9924654960632324,2.4425148963928223
1779910382482467800,11.9404677734375,-1.9919629096984863,0.4870634078979492,2.8973677158355713
1779910382498788900,11.956788818359374,-3.0282411575317383,-1.2458410263061523,3.047384262084961
1779910382515131400,11.97313134765625,-4.035203456878662,-1.338963508605957,3.2818191051483154
1779910382531466500,11.989466552734376,-4.535335063934326,-1.7728385925292969,2.849191188812256
1779910382547797500,12.005797607421876,-7.8028564453125,-5.255055904388428,2.5337181091308594
1779910382564130800,12.022130859375,-7.165759086608887,-11.227913856506348,2.44537353515625
1779910382580461300,12.03846142578125,-1.2819948196411133,-5.775073528289795,-0.8283369541168213
1779910382596795000,12.054794921875,6.566643238067627,3.304328441619873,-1.525869607925415
1779910382613103900,12.071103759765625,3.2791919708251953,4.023279190063477,-5.2278056144714355
1779910382629477000,12.08747705078125,-0.2540602684020996,2.6268911361694336,-3.5918216705322266
1779910382645804300,12.10380419921875,5.621180534362793,2.7294344902038574,2.2475531101226807
1779910382662142000,12.120141845703126,8.993571281433105,0.29935455322265625,1.9099926948547363
1779910382678457600,12.13645751953125,2.092336893081665,-3.5965309143066406,-0.6525681018829346
1779910382694809600,12.1528095703125,0.8389878273010254,-6.059195518493652,0.13943243026733398
1779910382711123500,12.16912353515625,0.4933648109436035,-4.905036926269531,0.9826641082763672
1779910382727467300,12.18546728515625,1.1730151176452637,-2.6364336013793945,1.3670413494110107
1779910382743801600,12.201801513671874,1.5435357093811035,-1.3609542846679688,1.629741907119751
1779910382760133600,12.218133544921875,1.9648752212524414,-1.0156326293945312,1.2797307968139648
1779910382776432600,12.2344326171875,2.000453472137451,-0.7802419662475586,0.3774082660675049
1779910382792782000,12.250781982421875,2.147181987762451,-0.9580316543579102,-0.33440983295440674
1779910382809100800,12.267100830078125,2.248055934906006,-1.1247787475585938,-0.8335898518562317
1779910382825444400,12.2834443359375,2.6699130535125732,-0.951904296875,-0.8749680519104004
1779910382841780200,12.2997802734375,2.793639659881592,-1.1185483932495117,-0.22855126857757568
1779910382858113300,12.31611328125,2.957474708557129,-0.983576774597168,0.1314786672592163
1779910382874439700,12.332439697265626,2.151843309402466,-0.9334335327148438,0.365344762802124
1779910382890780000,12.34877978515625,0.8053393363952637,-1.2985286712646484,1.2015507221221924
1779910382907107600,12.365107666015625,0.47063136100769043,-1.477365493774414,2.1875674724578857
1779910382923441000,12.38144091796875,1.099204182624817,-1.4012622833251953,2.4017205238342285
1779910382939772200,12.397772216796875,0.6080868244171143,-1.1957941055297852,2.486215591430664
1779910382956093200,12.41409326171875,-0.27944719791412354,0.3292684555053711,1.4155969619750977
1779910382988755200,12.446755126953125,-1.656385064125061,1.6227340698242188,-0.7410237789154053
1779910383005101600,12.4631015625,-1.802499771118164,1.8680481910705566,-0.6783077716827393
1779910383021416700,12.479416748046875,-1.0698347091674805,1.7930994033813477,-0.34765446186065674
1779910383037766000,12.495765869140625,-1.0022802352905273,1.1646862030029297,-0.22299087047576904
1779910383054098000,12.512097900390625,-1.1115777492523193,0.7102518081665039,-0.3332698345184326
1779910383070430500,12.528430419921875,-1.369591236114502,-0.04685211181640625,-0.29939019680023193
1779910383086764300,12.544764404296876,-1.5084508657455444,-0.6519622802734375,0.2704073190689087
1779910383103095000,12.561094970703126,-1.2518784999847412,-0.24438953399658203,1.4180365800857544
1779910383119428400,12.577428466796874,-0.6202008128166199,0.3336925506591797,2.5587430000305176
1779910383135759600,12.593759521484374,0.04498547315597534,-0.2832460403442383,2.2726521492004395
1779910383152094700,12.6100947265625,-0.08315205574035645,-0.9930896759033203,1.4033749103546143
1779910383168440000,12.626440185546874,-0.5935128331184387,-2.012216567993164,0.6922728419303894
1779910383184750300,12.642750244140625,-1.2803447246551514,-3.9283628463745117,0.5817708373069763
1779910383201107000,12.65910693359375,-1.8632454872131348,-6.012599945068359,1.8778157234191895
1779910383217436400,12.6754365234375,-1.530829906463623,-6.619729995727539,2.5575013160705566
1779910383233766700,12.6917666015625,-1.3540334701538086,-3.996382713317871,-0.8440495729446411
1779910383250100700,12.708100830078125,-2.5519397258758545,-3.228208541870117,-2.128876209259033
1779910383266414600,12.72441455078125,-2.911965847015381,-2.845449447631836,-2.543501853942871
1779910383282756000,12.740756103515626,-3.497040271759033,-3.254145622253418,-2.738424777984619
1779910383299069200,12.757069091796875,-3.7302627563476562,-4.279311180114746,-2.3975977897644043
1779910383315415800,12.773415771484375,-2.7082760334014893,-4.913361549377441,-2.077268600463867
1779910383331747300,12.789747314453125,-0.8973777294158936,-4.913419723510742,-1.0628093481063843
1779910383348080600,12.80608056640625,1.2322933673858643,-4.688968658447266,0.1810922622680664
1779910383364411400,12.822411376953125,2.5570170879364014,-4.369881629943848,0.794753909111023
1779910383380740000,12.838739990234375,4.018187999725342,-3.3689327239990234,0.7492060661315918
1779910383397076700,12.85507666015625,4.455129146575928,-1.7741060256958008,-0.021208524703979492
1779910383413397000,12.87139697265625,3.837348461151123,-0.9456033706665039,-1.3471307754516602
1779910383429725400,12.887725341796875,1.8528409004211426,-0.9219226837158203,-2.2472636699676514
1779910383446077400,12.904077392578126,1.771646499633789,0.2098088264465332,-3.001096487045288
1779910383462405400,12.9204052734375,2.8203492164611816,0.8589262962341309,-2.0233664512634277
1779910383478729200,12.936729248046875,2.4892144203186035,0.33942222595214844,-0.1895761489868164
1779910383495067100,12.953067138671875,2.027390718460083,0.5127191543579102,0.7658966779708862
1779910383511406000,12.969406005859375,2.675490140914917,1.5924744606018066,1.436657190322876
1779910383527734500,12.985734619140626,3.4532856941223145,3.031108856201172,1.8421847820281982
1779910383544055300,13.00205517578125,5.084623336791992,4.173044204711914,2.222581624984741
1779910383560415500,13.01841552734375,5.625945568084717,5.02122688293457,2.366555690765381
1779910383576747300,13.034747314453124,5.6522955894470215,5.61466646194458,1.9850763082504272
1779910383593065000,13.05106494140625,4.882260799407959,5.795638561248779,1.7518041133880615
1779910383609396700,13.067396728515625,4.538568496704102,5.817359447479248,1.7951633930206299
1779910383625735000,13.08373486328125,4.492428779602051,5.124826908111572,2.0077316761016846
1779910383642085400,13.10008544921875,4.185457229614258,4.495298862457275,2.083831787109375
1779910383658390500,13.116390625,3.3947646617889404,4.6179609298706055,1.3869749307632446
1779910383674723800,13.132723876953126,1.5264744758605957,4.397881507873535,1.1550434827804565
1779910383691060500,13.149060546875,-0.7878913879394531,3.1760315895080566,1.1139551401138306
1779910383707379000,13.16537890625,-2.828033447265625,1.9633822441101074,0.9499125480651855
1779910383723722500,13.181722412109375,-4.5349040031433105,1.394911289215088,0.8781355619430542
1779910383740055000,13.198054931640625,-3.8005709648132324,1.6069788932800293,1.0901695489883423
1779910383756405000,13.214405029296875,-0.24290037155151367,0.9798083305358887,1.620633840560913
1779910383772717000,13.230717041015625,-0.12923288345336914,-3.3861923217773438,1.3371555805206299
1779910383789038300,13.247038330078125,-4.606120586395264,-12.322128295898438,-4.348391532897949
1779910383805385000,13.263385009765624,-4.7470221519470215,-13.63890266418457,-6.110076904296875
1779910383821716200,13.27971630859375,-1.3536920547485352,-1.9130125045776367,-1.3414616584777832
1779910383838049500,13.296049560546875,1.5341825485229492,3.722102165222168,-0.7904337644577026
1779910383854381000,13.312381103515625,2.0512516498565674,5.28941535949707,-0.6087062358856201
1779910383870699800,13.32869970703125,3.035275459289551,4.682538032531738,-0.7499986886978149
1779910383887042300,13.345042236328124,3.1274800300598145,2.579897880554199,-1.0247726440429688
1779910383903378000,13.3613779296875,2.5863170623779297,-1.0883941650390625,-1.6068053245544434
1779910383919713300,13.37771337890625,1.8526272773742676,-5.017403602600098,-1.7163618803024292
1779910383936043500,13.39404345703125,1.2787647247314453,-6.899195671081543,-0.448938250541687
1779910383952374500,13.41037451171875,1.4021635055541992,-6.3868913650512695,1.0529905557632446
1779910383968724700,13.426724853515625,1.330324411392212,-3.9151411056518555,1.6067200899124146
1779910383985052700,13.443052734375,1.5759714841842651,-1.8465080261230469,1.3850102424621582
1779910384001389600,13.4593896484375,1.4845386743545532,-0.8173761367797852,1.2868709564208984
1779910384017694000,13.47569384765625,1.1636332273483276,-0.5204315185546875,1.4958349466323853
1779910384034037200,13.492037353515625,0.9510436058044434,-1.0871295928955078,1.7808148860931396
1779910384050368300,13.5083681640625,0.6221277713775635,-0.6594457626342773,1.8250229358673096
1779910384066701800,13.524701904296874,0.3090585470199585,0.2166461944580078,1.8546807765960693
1779910384083032600,13.541032470703126,0.05290400981903076,1.6515192985534668,1.3892704248428345
1779910384099366400,13.557366455078125,-0.23421049118041992,2.720004081726074,0.0756310224533081
1779910384115697700,13.57369775390625,-0.5773321390151978,3.0299997329711914,-0.4064145088195801
1779910384132025300,13.590025390625,-0.5084776878356934,3.2580666542053223,-0.32431578636169434
1779910384148368000,13.606367919921874,-0.22598397731781006,3.2093076705932617,-0.18433797359466553
1779910384164711000,13.6227109375,-0.09154349565505981,3.062836170196533,-0.7697064876556396
1779910384181038600,13.63903857421875,-0.2744092345237732,3.2262697219848633,-1.4737706184387207
1779910384197374700,13.655374755859375,-0.7926685214042664,2.8161606788635254,-1.2712095975875854
1779910384213704700,13.67170458984375,-1.03794264793396,1.9893765449523926,-0.6154587268829346
1779910384230038500,13.68803857421875,-1.1378333568572998,1.176504135131836,-0.06464159488677979
1779910384246352400,13.704352294921875,-1.3239457607269287,0.18584251403808594,0.5733761787414551
1779910384262689300,13.720689208984375,-1.3216896057128906,-0.5338954925537109,1.8166074752807617
1779910384279010800,13.7370107421875,-1.3256832361221313,-1.502854347229004,3.0398571491241455
1779910384295353900,13.753353759765625,-1.0993775129318237,-2.5442981719970703,3.15567684173584
1779910384311684900,13.769684814453125,-0.4896228015422821,-2.7408971786499023,0.8005551695823669
1779910384328019000,13.78601904296875,-0.6505999565124512,-3.900724411010742,-0.6337847709655762
1779910384344349200,13.80234912109375,-1.2177538871765137,-5.25437068939209,-1.6175156831741333
1779910384360682800,13.818682861328124,-2.000398635864258,-6.7128705978393555,-1.107919692993164
1779910384376991500,13.834991455078125,-2.557004690170288,-7.628817558288574,-0.5082687139511108
1779910384393348000,13.85134814453125,-2.0786056518554688,-7.091006278991699,-0.09264326095581055
1779910384409678800,13.867678955078125,-1.6006698608398438,-4.7571306228637695,-0.374548077583313
1779910384426012200,13.88401220703125,-2.4978151321411133,-3.0349950790405273,-1.3266005516052246
1779910384442330400,13.900330322265624,-3.48581600189209,-2.7301149368286133,-2.4443774223327637
1779910384458677200,13.91667724609375,-3.7090635299682617,-3.260740280151367,-3.311110734939575
1779910384475004700,13.933004638671875,-2.510424852371216,-3.5208845138549805,-3.0866007804870605
1779910384491344600,13.9493447265625,-1.33343505859375,-3.1249818801879883,-1.8570992946624756
1779910384507672600,13.965672607421874,-0.29296839237213135,-2.31710147857666,0.07495391368865967
1779910384524004600,13.982004638671874,0.687860369682312,-2.005120277404785,1.4810196161270142
1779910384540347400,13.998347412109375,2.1607718467712402,-2.27724552154541,2.508185625076294
1779910384556684000,14.01468408203125,3.0299999713897705,-3.0511999130249023,2.868790626525879
1779910384573012000,14.031011962890625,5.312939643859863,-1.9687833786010742,1.4376325607299805
1779910384589336000,14.047336181640626,7.148436546325684,0.9274044036865234,-0.8696520328521729
1779910384605653500,14.063653564453125,4.985300540924072,2.010622978210449,-2.674532890319824
1779910384621996000,14.07999609375,2.2702279090881348,1.9459071159362793,-2.807107925415039
1779910384638318800,14.09631884765625,1.6933107376098633,1.7486772537231445,-2.447899580001831
1779910384654666800,14.112666748046875,2.4467079639434814,2.214191436767578,-1.373441219329834
1779910384670996700,14.128996826171875,3.8737058639526367,3.187619686126709,-0.18938422203063965
1779910384687326000,14.145325927734374,4.311470985412598,3.966594934463501,1.1773931980133057
1779910384703647200,14.161647216796876,3.4619133472442627,4.438846588134766,1.6071571111679077
1779910384719984400,14.177984375,2.243697166442871,3.288046360015869,0.3201429843902588
1779910384736321500,14.194321533203125,2.5968799591064453,1.7072887420654297,-0.16086792945861816
1779910384752661800,14.210661865234375,3.210045337677002,1.2633886337280273,0.11688852310180664
1779910384769001000,14.2270009765625,3.134060859680176,1.3947911262512207,0.8393492698669434
1779910384785320200,14.2433203125,2.8052024841308594,1.744516372680664,1.9007883071899414
1779910384801657600,14.25965771484375,2.492062568664551,2.674226999282837,2.5518381595611572
1779910384817988900,14.27598876953125,2.078629493713379,3.85235595703125,1.7926862239837646
1779910384834317300,14.2923173828125,1.4827303886413574,5.435217380523682,-0.031934499740600586
1779910384850652400,14.30865234375,0.10090351104736328,4.754828929901123,-0.298844575881958
1779910384866983200,14.324983154296875,-1.084104061126709,3.496100425720215,0.11429476737976074
1779910384883316700,14.341316650390626,-1.0824060440063477,3.1890366077423096,0.6592586040496826
1779910384899649500,14.3576494140625,-0.21538352966308594,3.993319511413574,1.3766191005706787
1779910384915980000,14.37397998046875,1.1470746994018555,4.104262351989746,1.9110103845596313
1779910384932312300,14.390312255859374,1.1315832138061523,0.5796647071838379,0.6382217407226562
1779910384948664800,14.406664794921875,-7.663971424102783,-8.495615005493164,-3.547093391418457
1779910384964989700,14.42298974609375,-7.830924034118652,-18.83901596069336,-7.709287166595459
1779910384981325800,14.439325927734375,1.4698543548583984,-10.789386749267578,-0.4949214458465576
1779910384997655800,14.45565576171875,2.1492233276367188,1.1164112091064453,-0.13269877433776855
1779910385013986800,14.47198681640625,3.2395668029785156,4.703642845153809,-0.41042834520339966
1779910385030303000,14.488302978515625,2.080822229385376,3.916836738586426,-1.4156734943389893
1779910385046640000,14.50464013671875,2.281106472015381,2.461596965789795,-1.0213124752044678
1779910385062971000,14.520970947265624,2.442328453063965,1.5353169441223145,-0.4511713981628418
1779910385079304400,14.537304443359375,1.9778305292129517,-0.3511343002319336,0.10672476887702942
1779910385095636000,14.553635986328125,1.3151605129241943,-5.5186309814453125,-0.5879683494567871
1779910385111969300,14.56996923828125,1.2701934576034546,-5.592116355895996,-0.9816968441009521
1779910385128317400,14.5863173828125,0.5773708820343018,-3.754490852355957,0.6445251703262329
1779910385144646700,14.602646728515625,0.433377742767334,-1.1548776626586914,1.566922903060913
1779910385160972000,14.618971923828125,1.0196056365966797,0.6145191192626953,1.6080138683319092
1779910385177289000,14.6352890625,1.7042427062988281,1.7742133140563965,1.3932225704193115
1779910385193618400,14.651618408203126,1.9996933937072754,2.051204204559326,1.4241766929626465
1779910385209949400,14.667949462890626,1.3979597091674805,1.372518539428711,1.6715552806854248
1779910385226282000,14.684281982421876,0.0599513053894043,1.387598991394043,2.0743095874786377
1779910385242616600,14.700616455078125,-0.7629427909851074,1.473191261291504,2.265097141265869
1779910385258939400,14.716939453125,-1.0533710718154907,2.871068000793457,1.7956684827804565
1779910385275280000,14.73327978515625,-0.9340344667434692,2.750021457672119,2.017778158187866
1779910385291612700,14.74961279296875,-0.36377960443496704,2.4122347831726074,1.949878215789795
1779910385307943700,14.765943603515625,-0.45661795139312744,2.2871694564819336,1.0159024000167847
1779910385324276000,14.78227587890625,-0.7298817038536072,1.562697410583496,-0.4293707609176636
1779910385340608300,14.798608154296875,-0.6584537029266357,0.6644134521484375,-1.534502387046814
1779910385356939500,14.814939453125,-1.041292667388916,-0.08098983764648438,-2.739373207092285
1779910385373276700,14.831276611328125,-1.5988433361053467,0.23836135864257812,-2.631901264190674
1779910385389604000,14.84760400390625,-2.098132610321045,0.9482040405273438,-1.4852477312088013
1779910385405938700,14.863938720703125,-0.645571231842041,0.5531606674194336,-0.45099568367004395
1779910385422269200,14.880269287109375,0.6383131742477417,-0.3441658020019531,0.42878061532974243
1779910385438618000,14.8966181640625,-0.14605045318603516,-1.474447250366211,1.262046456336975
1779910385454944000,14.912944091796875,-0.7447987794876099,-2.2098188400268555,1.9420382976531982
1779910385471285000,14.929284912109376,-0.5601164102554321,-3.1091480255126953,2.4807677268981934
1779910385487607800,14.94560791015625,-1.2194303274154663,-3.440821647644043,2.2221312522888184
1779910385503931400,14.961931396484376,-1.8414665460586548,-3.16867733001709,1.1255143880844116
1779910385520275000,14.97827490234375,-2.578608512878418,-3.9830427169799805,0.41154468059539795
1779910385536614100,14.9946142578125,-2.966449737548828,-5.146141052246094,-0.653209924697876
1779910385552940000,15.01093994140625,-3.2452354431152344,-5.514620780944824,-1.254669189453125
1779910385569271000,15.02727099609375,-2.842756509780884,-5.06789493560791,-0.43505024909973145
1779910385585606700,15.043606689453124,-2.014596939086914,-3.9178781509399414,0.8201848864555359
1779910385601934300,15.059934326171875,-2.0193734169006348,-2.2726879119873047,0.6372458934783936
1779910385618266000,15.07626611328125,-2.5472776889801025,-1.3343067169189453,-0.5980492830276489
1779910385634600400,15.092600341796874,-3.52779483795166,-1.5306119918823242,-2.2751622200012207
1779910385650936300,15.108936279296875,-5.0210065841674805,-2.2232160568237305,-3.6408324241638184
1779910385667267000,15.12526708984375,-5.080111980438232,-3.680373191833496,-3.5780067443847656
1779910385683585500,15.14158544921875,-1.988319993019104,-4.594246864318848,-2.6239569187164307
1779910385699933400,15.157933349609374,1.4467830657958984,-3.7311458587646484,-1.2309744358062744
1779910385716278800,15.17427880859375,2.0605950355529785,-3.0376720428466797,0.8119593858718872
1779910385732606500,15.1906064453125,3.4487226009368896,-2.947251319885254,1.8244009017944336
1779910385748918500,15.20691845703125,3.894362449645996,-3.370698928833008,1.130096435546875
1779910385765261300,15.22326123046875,5.167035102844238,-2.2333984375,-0.970953106880188
1779910385781592300,15.23959228515625,4.948928356170654,-1.3342857360839844,-2.005537509918213
1779910385797926000,15.25592578125,2.360565662384033,-1.3555145263671875,-1.0938925743103027
1779910385814257000,15.2722568359375,0.8406486511230469,-1.8323984146118164,-0.03918743133544922
1779910385830577400,15.288577392578125,0.4521627426147461,-1.0269651412963867,-0.164442777633667
1779910385846921500,15.30492138671875,2.5159242153167725,0.04647350311279297,-0.04017329216003418
1779910385863254800,15.3212548828125,4.41213321685791,0.9398002624511719,0.46071600914001465
1779910385879586300,15.33758642578125,3.9861114025115967,2.325544834136963,1.2443068027496338
1779910385895919900,15.353919921875,4.242586135864258,4.098690032958984,1.2189847230911255
1779910385912251000,15.3702509765625,4.835143089294434,5.186527252197266,0.770268440246582
1779910385928600800,15.386600830078125,5.350692272186279,5.039433479309082,1.2961243391036987
1779910385944924000,15.402923828125,5.219300746917725,4.848814010620117,1.6133078336715698
1779910385961268200,15.419268310546874,4.476284027099609,4.74031400680542,1.7874664068222046
1779910385977593300,15.43559326171875,4.029679298400879,4.288689136505127,1.9522669315338135
1779910385993927200,15.45192724609375,3.844464063644409,3.797760248184204,1.985295057296753
1779910386010241300,15.4682412109375,3.3275322914123535,4.105525970458984,1.6304960250854492
1779910386026578000,15.484577880859375,1.6671266555786133,5.16887092590332,1.148662805557251
1779910386042909000,15.500908935546875,-0.721041202545166,4.900050163269043,0.9210238456726074
1779910386059242500,15.517242431640625,-2.8177919387817383,3.4649887084960938,1.339671015739441
1779910386075573800,15.53357373046875,-3.3572311401367188,2.338770866394043,2.1769156455993652
1779910386091907300,15.5499072265625,-0.1532125473022461,2.8065948486328125,2.679372549057007
1779910386108252700,15.566252685546875,4.119937896728516,3.358590841293335,1.5062012672424316
1779910386124586500,15.58258642578125,1.942957878112793,0.3213372230529785,-1.4772744178771973
1779910386140916200,15.598916259765625,-8.331228256225586,-9.656734466552734,-7.44821310043335
1779910386157250000,15.61525,-3.434105396270752,-13.814105987548828,-6.006099700927734
1779910386173564400,15.631564453125,-0.03860759735107422,-6.570717811584473,0.8548778295516968
1779910386189914600,15.64791455078125,0.9301557540893555,0.607551097869873,1.7388665676116943
1779910386206229200,15.664229248046874,5.143556118011475,2.9384756088256836,2.3522908687591553
1779910386222565600,15.680565673828125,3.1189329624176025,3.024837017059326,0.8460587859153748
1779910386238893000,15.69689306640625,0.8419632911682129,1.567112922668457,-0.4122682809829712
1779910386255230200,15.713230224609376,2.0312020778656006,-0.19660091400146484,-0.9633246660232544
1779910386271559400,15.729559326171875,1.4727623462677002,-3.4145708084106445,-1.278321385383606
1779910386287894800,15.745894775390624,0.6898295879364014,-6.069047927856445,-0.3324059247970581
1779910386304225500,15.7622255859375,0.22709012031555176,-6.273332595825195,1.0024737119674683
1779910386320559600,15.7785595703125,0.6993007659912109,-5.830155372619629,1.1774942874908447
1779910386336885800,15.7948857421875,1.3853298425674438,-3.645832061767578,0.9444073438644409
1779910386353210000,15.811210205078124,0.34605956077575684,-1.5575666427612305,0.671501636505127
1779910386369555000,15.827554931640625,0.4614584445953369,-0.5719509124755859,0.29567503929138184
1779910386385888800,15.843888671875,0.945791482925415,-0.31732845306396484,0.015683531761169434
1779910386402219800,15.8602197265625,0.8217446804046631,0.40781116485595703,0.6653406620025635
1779910386418553000,15.876552978515624,-0.292386531829834,1.4262475967407227,1.1229112148284912
1779910386434873900,15.892873779296876,-0.5834766626358032,2.774294376373291,1.1106663942337036
1779910386451220500,15.909220458984375,-0.9333192110061646,3.861009120941162,0.7957417964935303
1779910386467546400,15.92554638671875,-1.3267621994018555,4.2797441482543945,0.558440625667572
1779910386483886000,15.941885986328124,-1.3450467586517334,4.208449840545654,0.5630254149436951
1779910386500216000,15.958216064453126,-0.6706458926200867,4.270086288452148,0.08227753639221191
1779910386516561000,15.974560791015625,-0.10812234878540039,4.324880599975586,-0.30375170707702637
1779910386532896000,15.99089599609375,0.032126933336257935,3.851698875427246,-0.5159789323806763
1779910386549201200,16.007201171875,-0.12319141626358032,3.382749557495117,-0.5697708129882812
1779910386565561900,16.023561767578126,-0.38037461042404175,2.868234634399414,-0.42265522480010986
1779910386581889300,16.03988916015625,-0.7253363132476807,1.8015131950378418,-0.08131790161132812
1779910386598190800,16.05619091796875,-0.05499294400215149,0.38727664947509766,0.032265305519104004
1779910386614525000,16.07252490234375,-0.07314226031303406,-1.016402244567871,0.22230124473571777
1779910386630859500,16.088859619140624,-0.22145697474479675,-1.7634124755859375,0.549374520778656
1779910386647208000,16.1052080078125,-1.0813171863555908,-2.7636327743530273,0.9394789338111877
1779910386663536600,16.12153662109375,-1.553650975227356,-2.7358627319335938,1.3526231050491333
1779910386679870200,16.1378701171875,-0.16002203524112701,-2.901243209838867,1.3696964979171753
1779910386696201500,16.154201416015624,0.3873000144958496,-4.52302360534668,0.621158242225647
1779910386712534500,16.170534423828126,-0.5275440812110901,-7.345146179199219,-0.4048593044281006
1779910386728866000,16.186865966796876,-1.2847446203231812,-8.732134819030762,0.09260642528533936
1779910386745217000,16.203217041015623,-1.6833659410476685,-7.92957878112793,0.5362962484359741
1779910386761526800,16.21952685546875,-2.3376553058624268,-7.431658744812012,1.1702980995178223
1779910386777863700,16.23586376953125,-2.314634323120117,-5.218798637390137,1.1544740200042725
1779910386794194200,16.252194091796873,-2.7488925457000732,-2.4451828002929688,1.1765942573547363
1779910386810529800,16.26852978515625,-3.7864151000976562,-0.3440237045288086,1.359266996383667
1779910386826859800,16.28485986328125,-4.08957576751709,-0.23754024505615234,1.6814160346984863
1779910386843193000,16.301193115234376,-3.7438814640045166,-0.9766530990600586,1.9848294258117676
1779910386859524600,16.317524658203126,-3.178986072540283,-1.049530029296875,2.3366644382476807
1779910386875858000,16.33385791015625,-1.7911231517791748,-0.7246246337890625,2.92122745513916
1779910386892188700,16.350188720703127,0.10159039497375488,-0.29036712646484375,3.602654218673706
1779910386908525800,16.36652587890625,1.3991596698760986,-0.3002433776855469,4.018015384674072
1779910386924867600,16.38286767578125,1.5935800075531006,-1.0592536926269531,4.144070148468018
1779910386941201400,16.399201416015625,1.550811529159546,-1.136275291442871,3.5694522857666016
1779910386957526500,16.415526611328126,3.110187530517578,-0.8378381729125977,2.417158365249634
1779910386973870600,16.43187060546875,4.613305568695068,0.5191411972045898,1.2696406841278076
1779910386990179300,16.448179443359376,4.377682685852051,1.524735927581787,0.6305607557296753
1779910387006516500,16.4645166015625,4.225387096405029,1.9072799682617188,0.47792375087738037
1779910387022847700,16.48084765625,4.926204204559326,2.524092674255371,0.4444851875305176
1779910387039162000,16.497162109375,3.2009451389312744,2.982478618621826,0.6595635414123535
1779910387055511800,16.51351171875,-0.8049430847167969,1.7594776153564453,1.0273631811141968
1779910387071841000,16.529841064453127,1.7877339124679565,1.4920377731323242,1.8269436359405518
1779910387088193500,16.546193603515626,1.0231115818023682,1.739367961883545,2.6070334911346436
1779910387104523300,16.562523193359375,-0.15144586563110352,1.2814130783081055,3.265836715698242
1779910387120855300,16.578855224609374,1.2196109294891357,0.6322689056396484,2.9799256324768066
1779910387137176300,16.59517626953125,3.9063668251037598,0.8504419326782227,2.854017496109009
1779910387153514200,16.61151416015625,6.263763904571533,1.576444149017334,2.596428871154785
1779910387169835000,16.6278349609375,5.31044864654541,2.4690771102905273,1.7560570240020752
1779910387186167300,16.644167236328126,3.3058595657348633,2.299832820892334,0.985593855381012
1779910387202504000,16.66050390625,1.7384283542633057,1.8899545669555664,0.46314382553100586
1779910387218821600,16.676821533203125,1.7789747714996338,1.459184169769287,0.6878646612167358
1779910387235168300,16.693168212890626,2.0459342002868652,1.4205536842346191,0.8863325119018555
1779910387251499500,16.70949951171875,2.245175361633301,1.466756820678711,0.7027941346168518
1779910387267833300,16.725833251953127,2.425236463546753,1.4910564422607422,0.20095890760421753
1779910387284164400,16.742164306640625,2.371303081512451,1.6289405822753906,-0.17809712886810303
1779910387300497400,16.758497314453123,1.92435884475708,1.9814634323120117,-0.36471378803253174
1779910387316828700,16.77482861328125,1.1477046012878418,2.5477309226989746,-0.0754900574684143
1779910387333149200,16.791149169921876,0.23018169403076172,2.3527560234069824,0.8879985809326172
1779910387349493200,16.8074931640625,-0.9025704860687256,0.5538368225097656,1.907808780670166
1779910387365830400,16.823830322265625,-1.862293004989624,-3.2995195388793945,2.177471160888672
1779910387382154800,16.84015478515625,-4.173771858215332,-9.41938591003418,0.9372677206993103
1779910387398491400,16.856491455078125,-8.810795783996582,-9.956629753112793,-0.35473453998565674
1779910387414822400,16.872822509765626,-9.563121795654297,-2.935847282409668,1.183422565460205
1779910387431156700,16.88915673828125,-4.8523969650268555,0.9025697708129883,2.0039303302764893
1779910387447489800,16.90548974609375,-0.7695457935333252,1.59651517868042,3.2894835472106934
1779910387463821000,16.921821044921874,3.2389705181121826,-1.7862138748168945,5.386435508728027
1779910387480168400,16.93816845703125,7.097428321838379,-6.242861747741699,6.660207271575928
1779910387496469800,16.9544697265625,11.691143035888672,-7.931792259216309,1.5932390689849854
1779910387512830700,16.970830810546875,7.942961692810059,-5.345738410949707,-3.2957992553710938
1779910387529143300,16.987143310546877,3.219358205795288,1.2022080421447754,-5.0846991539001465
1779910387545503700,17.003503662109374,-4.086565971374512,3.7301554679870605,-5.945319175720215
1779910387561807600,17.0198076171875,-1.2877840995788574,5.430638313293457,-5.00549840927124
1779910387578140000,17.036139892578124,7.185420513153076,7.569272994995117,-0.913939356803894
1779910387594481700,17.052481689453124,8.917549133300781,3.8679332733154297,1.8115730285644531
1779910387610822700,17.06882275390625,4.8114728927612305,-4.957831382751465,0.31761789321899414
1779910387627138800,17.085138916015627,0.18919706344604492,-12.272010803222656,2.0398011207580566
1779910387643480000,17.10147998046875,-1.0988492965698242,-5.994110107421875,5.8025431632995605
1779910387659809300,17.117809326171876,-0.3336827754974365,-2.6124134063720703,6.835687637329102
1779910387676156400,17.134156494140626,2.5812039375305176,0.9228639602661133,3.449495315551758
1779910387692486100,17.150486083984376,3.4989089965820312,0.9100027084350586,1.1684670448303223
1779910387708803000,17.166802978515626,3.904827117919922,0.7848291397094727,-1.08620023727417
1779910387725147600,17.183147705078124,2.358855962753296,0.034422874450683594,-1.9637292623519897
1779910387741469400,17.199469482421875,0.5993012189865112,0.09031867980957031,-2.6724605560302734
1779910387757802200,17.21580224609375,-0.41895735263824463,1.7107152938842773,-2.4470314979553223
1779910387774130200,17.232130126953123,-0.4458075761795044,0.5570869445800781,-0.9991922378540039
1779910387790466800,17.248466796875,-0.7012953162193298,-0.9357013702392578,-0.15753817558288574
1779910387806801200,17.26480126953125,-0.7475827932357788,-1.5500802993774414,-0.19407081604003906
1779910387823131400,17.28113134765625,-0.7404149770736694,-0.8383636474609375,-0.6932822465896606
1779910387839462700,17.297462646484377,0.32780393958091736,-0.19838714599609375,-0.8153749704360962
1779910387855796000,17.3137958984375,1.1601152420043945,0.2714815139770508,-0.39459776878356934
1779910387872126700,17.330126708984373,1.3284646272659302,0.5549659729003906,0.19590938091278076
1779910387888460500,17.34646044921875,1.16560697555542,0.8920650482177734,0.7313661575317383
1779910387904791800,17.362791748046874,0.842584490776062,1.3119831085205078,1.0034259557724
1779910387921142000,17.37914208984375,0.5383474826812744,2.32419490814209,1.0466945171356201
1779910387937466000,17.395466064453124,0.03135603666305542,3.2270054817199707,1.5497409105300903
1779910387953807400,17.411807373046877,-0.07125593721866608,3.093386650085449,1.9070497751235962
1779910387970117400,17.428117431640626,-0.13263611495494843,2.1200790405273438,1.9556374549865723
1779910387986454500,17.44445458984375,0.17362920939922333,0.6487493515014648,1.7203338146209717
1779910388002772200,17.460772216796876,0.4524242877960205,-0.4652280807495117,0.9177477359771729
1779910388019107000,17.477107177734375,-0.2539026141166687,-0.8446588516235352,0.13303083181381226
1779910388035450000,17.4934501953125,-1.1046701669692993,-1.2823123931884766,0.14618420600891113
1779910388051783400,17.509783447265626,-1.6834487915039062,-2.3404245376586914,0.15122747421264648
1779910388068114000,17.526114013671876,-2.1221864223480225,-3.396839141845703,0.1401727795600891
1779910388084464400,17.54246435546875,-2.14449143409729,-3.894627571105957,0.6735706329345703
1779910388100793300,17.55879345703125,-1.1283587217330933,-4.955445289611816,1.6314761638641357
1779910388117127200,17.575127197265626,0.3051217794418335,-6.045186996459961,2.710343837738037
1779910388133424000,17.591424072265625,-0.5794920921325684,-6.150834083557129,3.4617128372192383
1779910388149768000,17.607767822265625,-3.0859313011169434,-6.753251075744629,3.628577947616577
1779910388166108400,17.6241083984375,-2.63045597076416,-6.650434494018555,2.636115789413452
1779910388182446300,17.6404462890625,-2.77687668800354,-5.744603157043457,1.896806001663208
1779910388198756600,17.656756591796874,-2.040820360183716,-4.007804870605469,0.6281132698059082
1779910388215093800,17.67309375,-2.120408535003662,-3.212721824645996,0.5839873552322388
1779910388231425800,17.68942578125,-1.8112993240356445,-2.645313262939453,0.7578129172325134
1779910388247759600,17.705759521484374,-0.8447886109352112,-2.4611005783081055,1.2897027730941772
1779910388264090000,17.722090087890624,-0.14014285802841187,-2.0615339279174805,1.2554497718811035
1779910388280439000,17.73843896484375,0.13132530450820923,-1.8445301055908203,0.8190581798553467
1779910388296765200,17.75476513671875,0.2932528555393219,-2.3185348510742188,0.21945792436599731
1779910388313089300,17.77108935546875,1.0194332599639893,-3.2574539184570312,-0.4146292209625244
1779910388329424100,17.787424072265626,2.1214656829833984,-3.56337833404541,-1.0836997032165527
1779910388345764900,17.803764892578126,3.1466524600982666,-3.109773635864258,-1.3987438678741455
1779910388362096000,17.82009619140625,3.8195362091064453,-1.9898300170898438,-1.0834330320358276
1779910388378430000,17.836429931640627,5.492486476898193,-0.8759737014770508,-0.5416065454483032
1779910388394764500,17.8527646484375,4.503974914550781,0.8990745544433594,0.24202656745910645
1779910388411090400,17.86909033203125,2.843724489212036,1.9046382904052734,1.7196993827819824
1779910388427413200,17.885413330078126,3.661478042602539,-0.4891939163208008,1.5533764362335205
1779910388443759000,17.901759033203124,0.8291935920715332,-2.6901416778564453,1.6753365993499756
1779910388460089600,17.918089599609374,-0.018957138061523438,-2.821674346923828,1.592065691947937
1779910388476423700,17.934423583984376,1.314131736755371,-1.3594059944152832,1.2067424058914185
1779910388492755000,17.9507548828125,3.341275691986084,1.2823338508605957,0.8909337520599365
1779910388509087200,17.967087158203125,4.898076057434082,3.1070189476013184,0.636776328086853
1779910388525427000,17.983427001953125,7.142212867736816,3.287080764770508,0.4204152822494507
1779910388541772300,17.999772216796874,6.399836540222168,2.0641627311706543,0.2873108386993408
1779910388558080300,18.016080322265626,6.092874050140381,0.38248729705810547,0.7204374074935913
1779910388574418200,18.032418212890626,4.6050615310668945,0.20761680603027344,0.5533227920532227
1779910388590738000,18.048738037109374,4.100171089172363,1.7111358642578125,0.23730194568634033
1779910388607082000,18.06508203125,3.971328020095825,4.620837211608887,-0.31261372566223145
1779910388623412000,18.081411865234376,2.4240355491638184,7.215670108795166,-0.8968245983123779
1779910388639747800,18.097747802734375,0.20810985565185547,5.150201320648193,0.11990046501159668
1779910388656095000,18.114094970703125,-1.0899434089660645,2.8898820877075195,1.1342158317565918
1779910388672425200,18.13042529296875,-1.2896103858947754,2.3194804191589355,2.132465124130249
1779910388688739000,18.146739013671876,-0.5815854072570801,2.323720932006836,2.761782169342041
1779910388705056300,18.16305615234375,2.7678580284118652,2.6155929565429688,2.268001079559326
1779910388721393700,18.1793935546875,3.8638064861297607,3.0564053058624268,0.4529026746749878
1779910388737728500,18.195728515625,1.5046391487121582,1.647672176361084,-2.677347183227539
1779910388754060000,18.21206005859375,-4.697906970977783,-6.235937595367432,-4.568755149841309
1779910388770392300,18.228392333984374,2.3212690353393555,-16.65849494934082,-3.533245086669922
1779910388786724400,18.244724365234376,-1.2931652069091797,-14.597737312316895,-0.7950460910797119
1779910388803057400,18.261057373046874,-1.164869785308838,-2.717742919921875,2.122406005859375
1779910388819389200,18.27738916015625,2.451525926589966,3.536473274230957,1.5039303302764893
1779910388835723300,18.29372314453125,3.718186378479004,4.903188705444336,0.687055230140686
1779910388852054300,18.31005419921875,4.401203155517578,4.345714569091797,-0.7778478264808655
1779910388868388400,18.326388427734376,4.159719467163086,2.0188536643981934,-2.110185384750366
1779910388884718600,18.342718505859374,3.920248031616211,-0.12112712860107422,-2.44982647895813
1779910388901050600,18.359050537109376,1.6584458351135254,-4.588763236999512,-2.217972993850708
1779910388917383000,18.3753828125,1.4871366024017334,-6.590559959411621,-1.552655816078186
1779910388933717800,18.3917177734375,0.13210511207580566,-7.057906150817871,0.5493969917297363
1779910388950046200,18.408046142578126,0.01816582679748535,-5.971283912658691,0.2163841724395752
1779910388966381000,18.424381103515625,0.2398231029510498,-3.935039520263672,1.0170124769210815
1779910388982713300,18.44071337890625,1.3106849193572998,-0.5292673110961914,1.9563391208648682
1779910388999047400,18.45704736328125,3.092668056488037,2.0531787872314453,1.55583655834198
1779910389015376600,18.473376708984375,2.4198217391967773,2.234121799468994,1.0138607025146484
1779910389031710000,18.4897099609375,0.9347020387649536,2.806654930114746,0.30724555253982544
1779910389048039400,18.506039306640623,-0.028240680694580078,3.800088405609131,-0.30879998207092285
1779910389064373800,18.522373779296874,-0.08297550678253174,4.160467624664307,-0.03766053915023804
1779910389080704800,18.538704833984376,0.027517080307006836,4.0851616859436035,0.3678780794143677
1779910389097037800,18.555037841796874,-0.2647132873535156,3.864558696746826,0.5363810062408447
1779910389113368800,18.571368896484376,-0.34745073318481445,3.401777744293213,0.1847127079963684
1779910389129703000,18.587702880859375,-0.30587905645370483,2.9632301330566406,-0.3897220492362976
1779910389146038500,18.60403857421875,-0.053068339824676514,2.771608829498291,-0.9457693696022034
1779910389162380000,18.620380126953126,-0.4342743158340454,2.8515114784240723,-0.8876141309738159
1779910389178711300,18.636711181640624,-0.7393960356712341,2.7578954696655273,-0.3117036819458008
1779910389195041500,18.65304150390625,-0.4735032916069031,2.470378875732422,0.10823225975036621
1779910389211379200,18.669379150390625,-0.8018950819969177,1.470688819885254,0.20008772611618042
1779910389227709200,18.685709228515623,-1.1820154190063477,-0.21542072296142578,0.623727560043335
1779910389244024000,18.702024169921874,-0.7890170812606812,-1.3816680908203125,1.4930877685546875
1779910389260370200,18.7183701171875,0.1869789958000183,-1.6267452239990234,1.6676523685455322
1779910389276705500,18.73470556640625,-0.23085546493530273,-1.504734992980957,1.278577446937561
1779910389293035800,18.751035888671876,-0.27199435234069824,-1.5934820175170898,0.7335635423660278
1779910389309372400,18.767372314453127,-0.20693618059158325,-2.0763330459594727,0.1406993269920349
1779910389325686500,18.7836865234375,-0.719173014163971,-3.4733896255493164,-0.44010889530181885
1779910389342037800,18.800037841796875,-2.0259573459625244,-5.25697135925293,-0.8637503385543823
1779910389358355200,18.816355224609374,-2.4043123722076416,-6.434508323669434,-0.8190003633499146
1779910389374695400,18.8326953125,-1.8844839334487915,-6.91178035736084,-0.12457358837127686
1779910389391035600,18.84903564453125,-1.0552858114242554,-6.646763801574707,0.5431562662124634
1779910389407363300,18.86536328125,-1.4641969203948975,-5.953913688659668,0.19744759798049927
1779910389423697000,18.88169677734375,-2.4197628498077393,-4.823810577392578,-0.37799370288848877
1779910389440045300,18.89804541015625,-2.4420275688171387,-3.157428741455078,-0.40636909008026123
1779910389456372700,18.914372802734373,-1.9070861339569092,-1.6722402572631836,-0.3678674101829529
1779910389472693000,18.93069287109375,-2.181588649749756,-0.7459897994995117,-0.6077513694763184
1779910389489022700,18.947022705078126,-2.862936019897461,-1.183206558227539,-1.3094691038131714
1779910389505357600,18.963357666015625,-4.011629581451416,-2.5446605682373047,-0.8179358243942261
1779910389521691000,18.97969091796875,-3.39342999458313,-2.5345277786254883,-0.5382817983627319
1779910389538022000,18.99602197265625,-2.1452999114990234,-2.1030235290527344,0.048804640769958496
1779910389554355700,19.012355712890624,-0.7942901849746704,-1.6780939102172852,0.6692548990249634
1779910389570686200,19.028686279296874,1.2121894359588623,-1.4066896438598633,1.2894338369369507
1779910389587019800,19.045019775390625,2.8136706352233887,-0.9635496139526367,1.5384156703948975
1779910389603351000,19.06135107421875,3.3356308937072754,-1.1487836837768555,0.7569968700408936
1779910389619679700,19.0776796875,3.3363635540008545,-1.0471858978271484,0.006029963493347168
1779910389636038100,19.0940380859375,3.989849090576172,-0.5255212783813477,-1.0178035497665405
1779910389652362500,19.110362548828125,4.102077484130859,-0.2798728942871094,-2.4095911979675293
1779910389668694500,19.126694580078127,3.845663070678711,0.5963268280029297,-4.0954999923706055
1779910389685027300,19.14302734375,1.793259620666504,0.8194680213928223,-2.2148168087005615
1779910389701358800,19.15935888671875,2.330557107925415,1.4981732368469238,0.11473393440246582
1779910389717692700,19.175692626953126,2.0085506439208984,2.0837202072143555,1.201704740524292
1779910389734007600,19.192007568359376,2.3505868911743164,2.155332088470459,1.4155547618865967
1779910389750343200,19.20834326171875,3.7881875038146973,2.6601309776306152,1.8080638647079468
1779910389766674000,19.224673828125,3.9524378776550293,2.391737937927246,1.316335916519165
1779910389783007700,19.2410078125,2.7221736907958984,0.782567024230957,1.0308467149734497
1779910389799339000,19.257339111328125,2.206411838531494,-0.27564573287963867,0.6179786920547485
1779910389815663600,19.27366357421875,1.9495573043823242,-0.46271181106567383,0.19635224342346191
1779910389831990300,19.289990234375,1.9804048538208008,0.3368711471557617,0.1388707160949707
1779910389848340000,19.306340087890625,1.9315452575683594,1.5288176536560059,0.274169921875
1779910389864668700,19.322668701171875,1.814112663269043,2.7608470916748047,0.28937840461730957
1779910389881001000,19.3390009765625,2.408203601837158,4.556921005249023,0.042582035064697266
1779910389897332000,19.35533203125,1.18798828125,6.4131269454956055,-0.3326280117034912
1779910389913666000,19.371666015625,-0.6725950241088867,5.128012180328369,-0.11179280281066895
1779910389929997000,19.3879970703125,-2.242483139038086,4.195697784423828,0.9945048093795776
1779910389946331000,19.404330810546874,-2.019029140472412,4.364272594451904,2.3729355335235596
1779910389962661400,19.420661376953124,1.256917953491211,5.568597316741943,3.921271324157715
1779910389978999600,19.43699951171875,3.099118947982788,5.025299072265625,3.447017192840576
1779910389995323400,19.453323486328124,1.1672391891479492,0.2578763961791992,1.4912166595458984
1779910390011660000,19.469659912109375,-6.758753299713135,-12.27653694152832,-6.713823318481445
1779910390028007700,19.486007568359376,-2.5833640098571777,-14.948169708251953,-6.224782466888428
1779910390044337700,19.502337646484374,0.27937984466552734,-3.673719882965088,-0.2598304748535156
1779910390060639200,19.51863916015625,2.8015103340148926,3.0284018516540527,0.47364550828933716
1779910390077003000,19.5350029296875,4.47157621383667,5.054168701171875,0.8757586479187012
1779910390093329400,19.551329345703124,2.523247003555298,3.7253479957580566,-0.10830461978912354
1779910390109671400,19.56767138671875,1.1780962944030762,1.0371723175048828,-0.9729797840118408
1779910390125981200,19.583981201171873,1.853081226348877,-2.4087352752685547,-1.3282667398452759
1779910390142318000,19.600318115234376,0.9842877388000488,-6.101506233215332,-1.4264826774597168
1779910390158655700,19.61665576171875,0.9404115676879883,-7.642248153686523,-0.1406630277633667
1779910390174979300,19.632979248046876,1.2170910835266113,-6.573002815246582,0.9808580875396729
1779910390191320300,19.6493203125,1.4960963726043701,-3.9750280380249023,1.2260875701904297
1779910390207644400,19.66564453125,1.6739434003829956,-1.1924247741699219,0.9213998913764954
1779910390223982600,19.681982666015625,1.289376974105835,1.1664438247680664,0.6344976425170898
1779910390240324600,19.69832470703125,0.7053430080413818,1.101217269897461,0.497485876083374
1779910390256643000,19.71464306640625,1.1191905736923218,0.652714729309082,0.4035983085632324
1779910390272977000,19.730976806640626,0.9870392084121704,0.7603082656860352,0.5141811370849609
1779910390289304300,19.74730419921875,0.24497270584106445,1.43011474609375,0.9416499733924866
1779910390305644000,19.76364404296875,-0.3856562376022339,2.372356414794922,1.022249698638916
1779910390321964000,19.779964111328123,-0.31065595149993896,2.862666606903076,0.42533379793167114
1779910390338306000,19.79630615234375,-0.47982728481292725,3.0944457054138184,0.2143993377685547
1779910390354634200,19.81263427734375,-0.1392531394958496,3.556173801422119,-0.04992830753326416
1779910390370972700,19.82897265625,-0.3578774333000183,3.4903459548950195,-0.15083658695220947
1779910390387302000,19.845302001953126,0.17733895778656006,3.4511184692382812,-0.7731583118438721
1779910390403641600,19.8616416015625,0.08619540929794312,3.33164644241333,-1.0517650842666626
1779910390419966000,19.877966064453126,-0.5457010269165039,3.4507193565368652,-1.0363913774490356
1779910390436319500,19.894319580078125,-0.9478999376296997,3.373622417449951,-0.6671638488769531
1779910390452640500,19.910640625,-1.1962041854858398,2.940372943878174,-0.21776676177978516
1779910390468959500,19.92695947265625,-1.200507640838623,1.816366195678711,0.20654666423797607
1779910390485309400,19.943309326171875,-0.9371297359466553,-0.13514232635498047,0.44883209466934204
1779910390501626400,19.95962646484375,-0.8077279925346375,-1.6578950881958008,0.8639999032020569
1779910390517955800,19.975955810546875,-0.885759711265564,-1.814291000366211,1.649564266204834
1779910390534294300,19.992294189453126,0.09583491086959839,-1.0068960189819336,1.6265347003936768
1779910390550624000,20.0086240234375,-0.49879908561706543,-1.7211418151855469,0.987403392791748
1779910390566958000,20.0249580078125,-0.6341690421104431,-2.3512115478515625,1.1359226703643799
1779910390583289000,20.0412890625,0.32670632004737854,-3.381678581237793,1.3038878440856934
1779910390599622700,20.05762255859375,0.06360289454460144,-5.101944923400879,0.9592137336730957
1779910390615967000,20.073967041015624,-1.6013470888137817,-6.7206315994262695,0.8014175295829773
1779910390632305000,20.090304931640624,-2.0611038208007812,-7.696440696716309,0.9966331720352173
1779910390648632300,20.10663232421875,-1.6713672876358032,-7.319883346557617,1.4931142330169678
1779910390664962000,20.122962158203126,-0.8972595930099487,-6.262170791625977,1.0972071886062622
1779910390681300500,20.139300537109374,-1.7450826168060303,-5.80351448059082,0.03439629077911377
1779910390697629700,20.155629638671876,-2.750713586807251,-4.656641960144043,-1.3578271865844727
1779910390713943000,20.171943115234374,-3.4846768379211426,-1.7026252746582031,-2.152043342590332
1779910390730280700,20.18828076171875,-3.5310540199279785,-1.0986700057983398,-1.8793832063674927
1779910390746612500,20.204612548828123,-3.5607376098632812,-1.2512931823730469,-1.6930630207061768
1779910390762945300,20.2209453125,-3.454723834991455,-1.822153091430664,-1.5409791469573975
1779910390779276800,20.23727685546875,-2.1593844890594482,-1.8453454971313477,-1.0829265117645264
1779910390795610000,20.253610107421874,-0.5741612911224365,-1.575984001159668,-0.2160583734512329
1779910390811941000,20.269941162109376,0.5301636457443237,-0.9409027099609375,0.802274763584137
1779910390828291600,20.28629150390625,0.6048790216445923,-0.7231264114379883,1.344350814819336
1779910390844603000,20.302602783203124,1.2483898401260376,-1.0467987060546875,1.4380059242248535
1779910390860939300,20.318939208984375,1.6259124279022217,-1.2820825576782227,1.1148300170898438
1779910390877270000,20.33527001953125,3.4143340587615967,-1.3310165405273438,0.6052721738815308
1779910390893590500,20.351590576171876,4.7598395347595215,-0.9281091690063477,-0.2245117425918579
1779910390909935400,20.367935302734374,4.29421329498291,-1.1764850616455078,-1.4502763748168945
1779910390926256400,20.38425634765625,2.78373384475708,-1.634932518005371,-1.160061240196228
1779910390942599700,20.400599609375,3.435882568359375,-0.2790851593017578,-1.1304917335510254
1779910390958946300,20.4169462890625,2.0484797954559326,1.5411810874938965,-1.8261922597885132
1779910390975264000,20.433263916015626,3.608887195587158,2.886155128479004,-1.230847716331482
1779910390991588600,20.449588623046875,3.866779327392578,3.3582844734191895,-0.030697107315063477
1779910391007946000,20.465946044921875,3.6391305923461914,2.5541906356811523,0.3603171110153198
1779910391024288300,20.482288330078124,3.296383857727051,1.0402379035949707,0.48944127559661865
1779910391040575700,20.49857568359375,3.3077383041381836,0.4492378234863281,0.3569309711456299
1779910391056940500,20.5149404296875,2.8869271278381348,0.890751838684082,0.7192107439041138
1779910391073276700,20.531276611328124,2.653134346008301,1.5490913391113281,0.7730501890182495
1779910391089611800,20.54761181640625,2.9103798866271973,2.7960541248321533,0.5847623348236084
1779910391105912600,20.56391259765625,2.843717575073242,5.644327163696289,0.5382518768310547
1779910391122243000,20.5802431640625,3.0620579719543457,6.069986343383789,-0.22101044654846191
1779910391138586600,20.596586669921876,1.428924560546875,4.65199089050293,-0.17330408096313477
1779910391154907000,20.612906982421876,-0.31507301330566406,4.232097148895264,0.06639456748962402
1779910391171252700,20.629252685546874,-1.537407398223877,4.336246490478516,0.7126897573471069
1779910391187582500,20.64558251953125,-2.7667016983032227,4.252934455871582,1.6866475343704224
1779910391203936500,20.6619365234375,-1.5860509872436523,5.206003189086914,2.191535711288452
1779910391220246300,20.678246337890624,4.487214088439941,6.735262393951416,2.8866655826568604
1779910391236581000,20.6945810546875,5.178497314453125,5.2819437980651855,1.2908650636672974
