time,seconds_elapsed,z,y,x
1779910370629441500,0.087441650390625,-1.0790934562683105,-2.272265911102295,2.9347493648529053
1779910370645753300,0.10375341796875,-1.4643967151641846,-3.0112602710723877,2.334116220474243
1779910370662077400,0.120077392578125,-1.5387696027755737,-3.541949510574341,1.426675796508789
1779910370678413800,0.136413818359375,-1.0427470207214355,-2.1789562702178955,0.5685628056526184
1779910370694754000,0.152754150390625,-0.3318525552749634,-0.5801692605018616,-0.22296582162380219
1779910370711085800,0.1690859375,0.04948008432984352,-0.41981714963912964,-1.0734429359436035
1779910370727406300,0.18540625,0.11728613078594208,-1.0103710889816284,-1.8084665536880493
1779910370743747600,0.20174755859375,0.06734789162874222,-1.3921618461608887,-2.224465847015381
1779910370760084700,0.218084716796875,2.227367401123047,-1.2620476484298706,-2.057546854019165
1779910370776430300,0.234430419921875,3.08777117729187,-1.712866187095642,-1.3839151859283447
1779910370792755500,0.25075537109375,2.247525930404663,-2.4659101963043213,-0.4622722864151001
1779910370809071900,0.26707177734375,2.0227274894714355,-3.2397239208221436,0.4665483236312866
1779910370825408500,0.283408447265625,2.476600408554077,-4.274224281311035,0.9857838153839111
1779910370841755400,0.29975537109375,3.439629554748535,-4.721224784851074,1.4955508708953857
1779910370858052600,0.316052490234375,4.480238437652588,-5.426926612854004,2.2464568614959717
1779910370874419700,0.332419677734375,5.268407344818115,-6.276793003082275,3.252246618270874
1779910370890748000,0.348747802734375,5.895002365112305,-6.33070182800293,4.096614837646484
1779910370907082200,0.365082275390625,6.688363552093506,-6.002820014953613,4.324925899505615
1779910370923391700,0.381391845703125,7.084967613220215,-4.874399185180664,3.475365161895752
1779910370939734000,0.397734130859375,6.910260200500488,-3.128851890563965,2.2545509338378906
1779910370956061000,0.41406103515625,6.781673431396484,-1.404226541519165,1.221577763557434
1779910370972399400,0.4303994140625,6.5869598388671875,-0.6249151229858398,0.4740314185619354
1779910370988723700,0.4467236328125,5.960517406463623,-0.7420485615730286,0.5279402732849121
1779910371005060600,0.463060546875,4.976566314697266,-1.1501065492630005,1.2305880784988403
1779910371021392000,0.479391845703125,4.158465385437012,-1.792431354522705,2.207667112350464
1779910371037720600,0.495720458984375,3.523776054382324,-2.3651175498962402,2.864499807357788
1779910371054042400,0.51204248046875,2.719266653060913,-2.7817275524139404,2.9778153896331787
1779910371070375400,0.52837548828125,1.6826282739639282,-3.64640736579895,3.3116531372070312
1779910371086706400,0.54470654296875,0.5380195379257202,-3.120452404022217,3.4944546222686768
1779910371103038500,0.56103857421875,0.043218716979026794,-2.045940399169922,2.992017984390259
1779910371119370200,0.577370361328125,0.4889976382255554,-0.20815233886241913,2.032959461212158
1779910371135703000,0.593703125,0.294895201921463,0.46532660722732544,0.7672467231750488
1779910371152034000,0.610033935546875,0.2874121069908142,1.0906999111175537,-0.003054326167330146
1779910371168365600,0.626365478515625,0.2278527319431305,1.9940168857574463,-0.2612976133823395
1779910371184698000,0.642697998046875,-0.03375030308961868,2.7882943153381348,-0.29275718331336975
1779910371201034500,0.659034423828125,-0.28619036078453064,2.345111608505249,0.1976149082183838
1779910371217361700,0.675361572265625,-0.6012440919876099,2.3124303817749023,0.8860600590705872
1779910371233709300,0.691709228515625,-0.27229318022727966,2.6535985469818115,1.52273428440094
1779910371250038000,0.7080380859375,-0.27870726585388184,2.783102035522461,0.9900598526000977
1779910371266371000,0.72437109375,-0.37048977613449097,2.2014055252075195,0.6670648455619812
1779910371282701800,0.740701904296875,-0.15042556822299957,2.3182334899902344,0.8729264140129089
1779910371299024000,0.75702392578125,0.4161519408226013,3.8617372512817383,0.21823160350322723
1779910371315365600,0.77336572265625,0.2802344262599945,3.55340313911438,-0.6294966340065002
1779910371331715600,0.789715576171875,0.5612324476242065,3.341585636138916,0.29626965522766113
1779910371348043500,0.80604345703125,0.537408709526062,2.855336904525757,0.22999076545238495
1779910371364371200,0.82237109375,0.8046622276306152,0.4876231849193573,-0.6415612101554871
1779910371380711400,0.83871142578125,1.553583025932312,-0.4398229718208313,-1.3671164512634277
1779910371397039600,0.85503955078125,1.6849191188812256,1.0538952350616455,-1.3788756132125854
1779910371413371100,0.87137109375,1.3687963485717773,1.5916093587875366,-0.8552113175392151
1779910371429699300,0.88769921875,1.570534586906433,1.5425875186920166,-0.15363261103630066
1779910371446032600,0.90403271484375,2.495842695236206,1.5096007585525513,-0.04337143152952194
1779910371462354000,0.92035400390625,2.9633073806762695,0.7915286421775818,-1.3599387407302856
1779910371478667000,0.9366669921875,1.4970779418945312,-0.8413141369819641,-3.0546317100524902
1779910371495013400,0.953013427734375,0.20036379992961884,-2.3959662914276123,-3.7032177448272705
1779910371511349000,0.969348876953125,0.3029891550540924,-3.095407009124756,-3.544851064682007
1779910371527681300,0.985681396484375,-0.028557950630784035,-2.3939809799194336,-1.688736915588379
1779910371544014000,1.00201416015625,-0.4508185386657715,-3.871816635131836,-1.0888673067092896
1779910371560344600,1.018344482421875,0.47800204157829285,-4.819421291351318,-1.5150985717773438
1779910371576676000,1.034676025390625,0.8503243923187256,-4.55842924118042,-1.049619197845459
1779910371593026600,1.051026611328125,0.9923505783081055,-4.134030342102051,-0.3013092875480652
1779910371609350000,1.067349853515625,1.9104810953140259,-2.6734516620635986,0.015577063895761967
1779910371625672400,1.08367236328125,3.0863966941833496,-0.9137017130851746,0.4254676401615143
1779910371642004200,1.100004150390625,3.4526102542877197,-0.6592763066291809,0.6719517707824707
1779910371658336800,1.116336669921875,2.8356363773345947,-1.4143058061599731,0.451123982667923
1779910371674669300,1.13266943359375,4.024380207061768,-3.472616195678711,-0.7906123399734497
1779910371690998000,1.148998046875,4.036444664001465,-1.4538593292236328,-0.3859141170978546
1779910371707326500,1.165326416015625,1.5181528329849243,-0.9465357065200806,-0.13607023656368256
1779910371723669500,1.18166943359375,1.8165605068206787,0.44226643443107605,0.027488935738801956
1779910371739992300,1.197992431640625,2.3353378772735596,1.8147279024124146,0.2987131178379059
1779910371756330800,1.214330810546875,1.9281961917877197,2.210721254348755,-0.13347405195236206
1779910371772672300,1.23067236328125,1.8070920705795288,1.7938058376312256,-0.8982773423194885
1779910371788987000,1.24698681640625,1.5347989797592163,1.8920023441314697,-0.9796751141548157
1779910371805337000,1.263337158203125,1.1844676733016968,1.0626001358032227,-0.2603813111782074
1779910371821652500,1.279652587890625,0.6840163469314575,0.08857546001672745,0.28909197449684143
1779910371838000600,1.296000732421875,0.8211556077003479,1.0115928649902344,0.3865249752998352
1779910371854317300,1.3123173828125,1.3326025009155273,1.7951802015304565,0.32162055373191833
1779910371870664700,1.328664794921875,1.7825047969818115,1.2066116333007812,0.380721777677536
1779910371886992100,1.3449921875,2.040289878845215,0.8491026759147644,0.41340306401252747
1779910371903332400,1.361332275390625,2.3237314224243164,0.4990769028663635,0.4792237877845764
1779910371919657700,1.37765771484375,2.716059684753418,-0.029474247246980667,0.5009095072746277
1779910371935979500,1.3939794921875,2.8460211753845215,-0.8054258227348328,0.46792277693748474
1779910371952310300,1.410310302734375,2.2953262329101562,-1.4382822513580322,0.541532039642334
1779910371968642300,1.426642333984375,2.9495627880096436,-1.1679743528366089,0.2955060601234436
1779910371984975400,1.442975341796875,0.6795876026153564,-0.05955936014652252,-0.04749477282166481
1779910372001306400,1.459306396484375,-0.1440114825963974,-0.5239696502685547,-0.5589417219161987
1779910372017634800,1.475634765625,0.09682214260101318,-1.316261887550354,-0.7622070908546448
1779910372033988900,1.49198876953125,0.3497203588485718,-1.0824532508850098,-0.7672467231750488
1779910372050309000,1.50830908203125,0.39446622133255005,-0.8692612648010254,-1.0080803632736206
1779910372066659600,1.52465966796875,0.1941024363040924,-0.29138273000717163,-1.6256651878356934
1779910372082956500,1.54095654296875,-0.11301007121801376,-0.14324790239334106,-2.2878429889678955
1779910372099287300,1.557287353515625,-0.3885102868080139,-0.4509712755680084,-2.838996171951294
1779910372115630600,1.573630615234375,-0.5754350423812866,-1.1650726795196533,-3.017827033996582
1779910372131972400,1.589972412109375,-0.5157229900360107,-1.5891659259796143,-3.0892982482910156
1779910372148293600,1.606293701171875,-0.33108896017074585,-0.8830057382583618,-3.2530100345611572
1779910372164612600,1.622612548828125,-0.2964223623275757,0.20128010213375092,-3.327077627182007
1779910372180955600,1.63895556640625,-0.3104722499847412,0.5183191895484924,-3.0699033737182617
1779910372205452000,1.6634521484375,-0.5839871764183044,0.6517932415008545,-2.208125114440918
1779910372221776400,1.6797763671875,-0.7399105429649353,0.5132794976234436,-1.8579466342926025
1779910372238121500,1.69612158203125,-0.9563095569610596,-0.17608191072940826,-1.9188804626464844
1779910372254451200,1.712451171875,-1.0709995031356812,-0.4444044530391693,-2.1925480365753174
1779910372270783500,1.728783447265625,-0.8445212244987488,-0.6609562039375305,-2.3156373500823975
1779910372287102700,1.745102783203125,-0.6724098920822144,-0.879493236541748,-2.350151300430298
1779910372303447300,1.761447265625,-0.5994115471839905,-1.021519422531128,-2.347402334213257
1779910372319778800,1.77777880859375,-0.560468852519989,-1.0248792171478271,-2.2563834190368652
1779910372336098300,1.794098388671875,-0.35124751925468445,-0.6963863968849182,-1.6519323587417603
1779910372352442600,1.810442626953125,-0.2041817009449005,-0.2561052441596985,-1.2064588069915771
1779910372368762400,1.826762451171875,-0.1511891484260559,0.02275473065674305,-0.9297369122505188
1779910372385106000,1.84310595703125,-0.14446963369846344,0.1235474944114685,-0.6902777552604675
1779910372401457400,1.85945751953125,-0.20876319706439972,0.055894169956445694,-0.5094616413116455
1779910372417777700,1.875777587890625,-0.2672535479068756,-0.02871066704392433,-0.3885102868080139
1779910372434104800,1.892104736328125,-0.29367345571517944,-0.10002918541431427,-0.21242839097976685
1779910372450434300,1.908434326171875,-0.2454151064157486,-0.2561052441596985,-0.04596760869026184
1779910372466767000,1.92476708984375,-0.2906191349029541,-0.3830125033855438,0.08933904021978378
1779910372483098400,1.941098388671875,-0.19333885610103607,-0.3634648323059082,0.22968533635139465
1779910372499419400,1.95741943359375,-0.23182335495948792,-0.4512766897678375,0.33918291330337524
1779910372515762200,1.97376220703125,-0.4231768846511841,-0.4815145432949066,0.3956879675388336
1779910372532094700,1.9900947265625,-0.7562511563301086,-0.5067127346992493,0.4124867618083954
1779910372548424000,2.006423828125,-1.0109820365905762,-0.5433646440505981,0.6427829265594482
1779910372564758000,2.022758056640625,-1.3348932266235352,-0.7032586336135864,1.0144944190979004
1779910372581107000,2.03910693359375,-1.4344643354415894,-0.5679519772529602,0.8614727258682251
1779910372597428200,2.05542822265625,-1.0261008739471436,-0.8382598161697388,0.49693888425827026
1779910372613754000,2.071754150390625,-0.4639521539211273,-0.6270532011985779,0.8151996731758118
1779910372630075600,2.08807568359375,-0.3634648323059082,-1.0151053667068481,1.892765998840332
1779910372646418000,2.10441796875,-0.6916521787643433,-0.5855143666267395,1.7289013862609863
1779910372662750500,2.12075048828125,-2.00394344329834,-0.4940372705459595,1.4326317310333252
1779910372679095000,2.137094970703125,-3.5810446739196777,-1.5085316896438599,1.6093244552612305
1779910372695414500,2.15341455078125,-4.494288444519043,-2.1870503425598145,1.9538525342941284
1779910372711745800,2.169745849609375,-4.983744144439697,-2.0282254219055176,2.1233675479888916
1779910372728074500,2.186074462890625,-4.128532886505127,-1.627650499343872,2.219426155090332
1779910372744413700,2.20241357421875,-2.4657576084136963,-0.9699012637138367,2.256078004837036
1779910372760742100,2.2187421875,-0.9469938278198242,-0.3683517575263977,2.303114652633667
1779910372777077200,2.2350771484375,-0.060933809727430344,-0.6278167366981506,2.3038783073425293
1779910372793418800,2.251418701171875,0.2770273983478546,-0.8885034918785095,2.045940399169922
1779910372809752000,2.267751953125,0.2834414839744568,-0.8648324608802795,1.58259916305542
1779910372826083800,2.284083740234375,0.4697553813457489,-0.41859540343284607,1.0306823253631592
1779910372842415900,2.300415771484375,1.0827586650848389,0.4833471179008484,0.24877487123012543
1779910372858741800,2.31674169921875,1.4558446407318115,1.5917620658874512,0.12599095702171326
1779910372875075300,2.333075439453125,1.4987578392028809,2.682003974914551,0.9228646755218506
1779910372891411200,2.3494111328125,1.3987287282943726,2.8596129417419434,1.5346461534500122
1779910372907738600,2.365738525390625,1.1418598890304565,2.0891592502593994,1.5717562437057495
1779910372924058400,2.382058349609375,1.0629055500030518,0.6711881756782532,1.2250902652740479
1779910372940381000,2.398380859375,1.358258843421936,-2.2397375106811523,1.077413558959961
1779910372956726300,2.414726318359375,1.4738651514053345,-5.502979755401611,1.6983580589294434
1779910372973045000,2.431044921875,2.3889412879943848,-5.759542942047119,2.464993953704834
1779910372989389800,2.447389892578125,3.7591121196746826,-3.5136969089508057,2.7030787467956543
1779910373005721300,2.463721435546875,3.3119585514068604,-1.3993395566940308,1.5850425958633423
1779910373022054400,2.480054443359375,2.3269383907318115,0.41523563861846924,0.041233405470848083
1779910373038388700,2.496388671875,1.0882564783096313,1.0734429359436035,-1.2837333679199219
1779910373054730800,2.512730712890625,-0.017562376335263252,1.3183999061584473,-1.5575536489486694
1779910373071047400,2.52904736328125,-0.19944749772548676,0.8382598161697388,-0.7622070908546448
1779910373087381800,2.5453818359375,-0.3058907687664032,-0.056810468435287476,0.6333145499229431
1779910373103713300,2.56171337890625,-0.36789360642433167,-0.7168503403663635,1.5544993877410889
1779910373120046000,2.578046142578125,-0.23197607696056366,-0.6148358583450317,1.514182209968567
1779910373136374500,2.59437451171875,-0.19288070499897003,0.22189679741859436,0.7890852093696594
1779910373152712700,2.610712646484375,-0.08643743395805359,1.1142182350158691,0.3150537610054016
1779910373169023700,2.627023681640625,-0.008704829961061478,1.0618364810943604,0.22999076545238495
1779910373185375700,2.643375732421875,0.008704829961061478,0.4245513379573822,0.29275718331336975
1779910373201708800,2.659708740234375,0.04382958263158798,0.04749477282166481,0.6101016402244568
1779910373218035000,2.676034912109375,-0.017867809161543846,-0.17898350954055786,0.6004805564880371
1779910373234374000,2.692373779296875,0.09208793938159943,-0.05803219974040985,-0.03298672288656235
1779910373250701300,2.708701416015625,0.38087448477745056,0.2817615866661072,-0.9576839804649353
1779910373267033300,2.725033447265625,0.6569855809211731,0.3698789179325104,-1.798081874847412
1779910373283365600,2.74136572265625,0.932485818862915,-0.2710714638233185,-2.4159719944000244
1779910373299715000,2.757715087890625,1.224173903465271,-1.249372124671936,-3.0082058906555176
1779910373316037600,2.77403759765625,1.5575536489486694,-1.7887661457061768,-3.6926803588867188
1779910373332374300,2.790374267578125,1.7373007535934448,-0.9008735418319702,-4.223522186279297
1779910373348708400,2.806708251953125,1.663996934890747,0.7962628602981567,-4.28216552734375
1779910373365041400,2.82304150390625,1.3287845849990845,1.3548991680145264,-3.262784004211426
1779910373381371400,2.839371337890625,0.5662720799446106,1.2928962707519531,-1.5593862533569336
1779910373397701600,2.85570166015625,-0.32391130924224854,1.5173892974853516,-0.5881105065345764
1779910373414021600,2.872021728515625,-0.5264131426811218,1.2605204582214355,-1.2289081811904907
1779910373430353400,2.888353515625,-0.05650503560900688,-0.14340060949325562,-2.6087000370025635
1779910373446686000,2.90468603515625,0.4057672321796417,-1.1305588483810425,-3.5071301460266113
1779910373463017500,2.921017578125,0.5833762884140015,-1.3724614381790161,-3.769038677215576
1779910373479346700,2.9373466796875,0.5351179838180542,-0.8984300494194031,-3.4901785850524902
1779910373495684900,2.953684814453125,0.37430769205093384,-0.33628132939338684,-2.877938985824585
1779910373512014600,2.9700146484375,0.05360342562198639,0.18325957655906677,-2.353816509246826
1779910373528359700,2.986359619140625,-0.17776179313659668,0.07849618047475815,-2.1149682998657227
1779910373544683500,3.00268359375,-0.19394971430301666,-0.3378084897994995,-2.0673208236694336
1779910373561052200,3.01905224609375,-0.1518000066280365,-0.7127270102500916,-2.0816760063171387
1779910373577351700,3.0353515625,-0.08811730891466141,-0.9138544201850891,-2.1337523460388184
1779910373593673200,3.051673095703125,0.02535090781748295,-0.8477282524108887,-1.9607247114181519
1779910373610006000,3.068006103515625,0.11957687139511108,-0.636521577835083,-1.5152512788772583
1779910373626337500,3.084337646484375,0.0659734457731247,-0.3923282027244568,-1.0195341110229492
1779910373642670300,3.10067041015625,-0.052839845418930054,-0.038179077208042145,-0.5656611919403076
1779910373659001300,3.11700146484375,-0.12965615093708038,0.2223549485206604,-0.21288654208183289
1779910373675334100,3.133334228515625,-0.18020524084568024,0.23365595936775208,0.13561208546161652
1779910373691666000,3.149666015625,-0.299476683139801,0.1036943718791008,0.5561928153038025
1779910373707998200,3.165998291015625,-0.5085453391075134,-0.02321287989616394,0.9876163601875305
1779910373724329700,3.182329833984375,-0.837496280670166,0.06612616032361984,1.481042742729187
1779910373740662000,3.198662109375,-1.1366674900054932,0.2692388594150543,2.045940399169922
1779910373756997000,3.2149970703125,-1.13926362991333,0.7180721163749695,2.185828447341919
1779910373773322800,3.23132275390625,-0.7195992469787598,1.4937182664871216,1.3417655229568481
1779910373789649400,3.2476494140625,0.02672535367310047,1.004873275756836,0.28985556960105896
1779910373805999900,3.263999755859375,0.29657506942749023,-0.7246388792991638,0.9935722947120667
1779910373822339300,3.28033935546875,-0.18814650177955627,0.033597588539123535,1.952783465385437
1779910373838635000,3.296635009765625,-0.49144110083580017,0.479834645986557,2.484847068786621
1779910373854972700,3.31297265625,-0.6774495840072632,0.7634288668632507,2.5889995098114014
1779910373871316000,3.32931591796875,-0.6698137521743774,1.0534371137619019,2.5899159908294678
1779910373887649800,3.34564990234375,-0.5474879741668701,0.783892810344696,2.52608060836792
1779910373903980800,3.361980712890625,-0.3805690407752991,0.4398229718208313,2.297922372817993
1779910373920316400,3.37831640625,-0.11056660860776901,0.5968153476715088,2.2032382488250732
1779910373936657700,3.39465771484375,0.5293147563934326,1.0670288801193237,2.2679898738861084
1779910373952965000,3.410965087890625,0.8358163833618164,0.5100724697113037,2.1595613956451416
1779910373969310700,3.427310791015625,0.5485569834709167,-0.3295617997646332,1.602146863937378
1779910373985642200,3.443642333984375,0.30925053358078003,-0.9984592199325562,1.274264931678772
1779910374001971500,3.459971435546875,0.03680463135242462,-1.0659598112106323,1.2797627449035645
1779910374018324200,3.47632421875,-0.15760323405265808,-0.6256787180900574,1.4911220073699951
1779910374034650600,3.492650634765625,-0.1768454909324646,-0.0630718395113945,1.6705636978149414
1779910374050983700,3.508983642578125,-0.09865473955869675,0.40424007177352905,1.7539467811584473
1779910374067313400,3.5253134765625,-0.21914790570735931,0.30863967537879944,1.60627019405365
1779910374083634400,3.541634521484375,-0.3462078869342804,-0.38026362657546997,1.3686435222625732
1779910374099967200,3.55796728515625,-0.304210901260376,-1.0514518022537231,1.313360333442688
1779910374116298200,3.57429833984375,-0.3121521472930908,-1.036943793296814,1.2919800281524658
1779910374132628000,3.5906279296875,-0.29993483424186707,-0.6846272349357605,1.144303321838379
1779910374148942800,3.60694287109375,-0.26221391558647156,-0.38240164518356323,0.8776606321334839
1779910374165294600,3.623294677734375,-0.20265454053878784,-0.1921171247959137,0.746019184589386
1779910374181614000,3.639614013671875,-0.08155050873756409,0.15057829022407532,0.6974554061889648
1779910374197949700,3.65594970703125,0.005650503560900688,0.4973970353603363,0.6809620261192322
1779910374214290700,3.672290771484375,0.07666359096765518,0.7641924023628235,0.6327036619186401
1779910374230623200,3.688623291015625,0.11514809727668762,0.9865473508834839,0.5010622143745422
1779910374246948000,3.704947998046875,0.044745877385139465,1.0273226499557495,0.4054618179798126
1779910374263287300,3.721287353515625,0.05406157299876213,0.7261660695075989,0.461355984210968
1779910374279619000,3.737619140625,0.1976149082183838,0.21624629199504852,0.6937901973724365
1779910374295951000,3.753951171875,0.35811975598335266,-0.07330382615327835,0.8629998564720154
1779910374312300500,3.770300537109375,0.42348232865333557,0.019089538604021072,0.9048441648483276
1779910374328628700,3.786628662109375,0.3246748745441437,0.17592918872833252,0.9728028774261475
1779910374344956700,3.802956787109375,0.1598939746618271,0.17623461782932281,0.9938777685165405
1779910374361280800,3.81928076171875,-0.04963280260562897,0.02626720629632473,0.8394815921783447
1779910374377625000,3.835625,-0.18784105777740479,0.07452555745840073,0.6192646622657776
1779910374393949000,3.851948974609375,-0.23426681756973267,0.2515237629413605,0.2889392673969269
1779910374410278400,3.8682783203125,-0.16050484776496887,0.25335636734962463,-0.22082778811454773
1779910374426608400,3.8846083984375,-0.018325956538319588,0.1540907621383667,-0.7312057018280029
1779910374442939600,3.900939697265625,0.2591595947742462,-0.1615738570690155,-1.1823296546936035
1779910374459267300,3.917267333984375,0.5771149396896362,-0.6717990636825562,-1.6757560968399048
1779910374475603700,3.933603759765625,0.9566149711608887,-1.2232576608657837,-2.2322542667388916
1779910374491936300,3.949936279296875,1.3494013547897339,-1.4242323637008667,-2.8564059734344482
1779910374508284700,3.96628466796875,1.5842790603637695,-0.8848382830619812,-3.45871901512146
1779910374524614400,3.982614501953125,1.4763085842132568,0.3349068760871887,-3.7333028316497803
1779910374540920000,3.998920166015625,1.0374019145965576,1.5738942623138428,-3.3260085582733154
1779910374557275000,4.01527490234375,0.48166725039482117,2.040289878845215,-2.205528974533081
1779910374573596400,4.031596435546875,-0.06979135423898697,1.5428929328918457,-1.3029755353927612
1779910374589915600,4.04791552734375,-0.4334088861942291,0.7628179788589478,-1.2457069158554077
1779910374606247700,4.06424755859375,-0.2860376536846161,0.0429132841527462,-1.835650086402893
1779910374622579500,4.080579345703125,-0.013286318629980087,-0.42898011207580566,-2.4935519695281982
1779910374638913000,4.0969130859375,0.0679587572813034,-0.6241515874862671,-2.8771753311157227
1779910374655244300,4.113244384765625,0.04749477282166481,-0.7672467231750488,-2.912147283554077
1779910374671578400,4.129578369140625,-0.04306599870324135,-0.8478809595108032,-2.7288877964019775
1779910374687908600,4.14590869140625,-0.21120665967464447,-0.7857254147529602,-2.4443771839141846
1779910374704240400,4.162240478515625,-0.2548835277557373,-0.7428121566772461,-2.302962064743042
1779910374720567800,4.17856787109375,-0.230448916554451,-0.7047857642173767,-2.2656991481781006
1779910374736904200,4.194904296875,-0.22098049521446228,-0.8145887851715088,-2.210415840148926
1779910374753238000,4.211238037109375,-0.19257527589797974,-0.8442157506942749,-2.107637882232666
1779910374769569000,4.227569091796875,-0.19547687470912933,-0.9020952582359314,-1.9701931476593018
1779910374785900800,4.24390087890625,-0.2142609804868698,-0.9619600176811218,-1.8309158086776733
1779910374802232300,4.260232421875,-0.3654501438140869,-0.9285151958465576,-1.648572564125061
1779910374818565600,4.276565673828125,-0.5389358401298523,-0.836885392665863,-1.286940336227417
1779910374834897700,4.292897705078125,-0.6789767146110535,-0.6484334468841553,-0.8119926452636719
1779910374851230000,4.30922998046875,-0.7692320346832275,-0.1440114825963974,-0.24419337511062622
1779910374867561700,4.325561767578125,-0.7188356518745422,0.29474249482154846,0.28466320037841797
1779910374883911400,4.341911376953125,-0.6491970419883728,0.4132503271102905,0.6433938145637512
1779910374900237600,4.358237548828125,-0.6585127115249634,0.24938572943210602,0.806647539138794
1779910374916569900,4.37456982421875,-0.6991352438926697,-0.3121521472930908,1.0009026527404785
1779910374932902100,4.390902099609375,-0.8523097038269043,-0.603076696395874,1.6615535020828247
1779910374949226200,4.407226318359375,-1.1059715747833252,0.5213735103607178,1.9998201131820679
1779910374965566000,4.42356591796875,-1.091310739517212,1.7023286819458008,1.6811012029647827
1779910374981898800,4.439898681640625,-0.7724391222000122,1.3712397813796997,1.9683605432510376
1779910374998247200,4.4562470703125,-0.6426302194595337,1.0253373384475708,2.3409883975982666
1779910375014576400,4.472576416015625,-0.7188356518745422,0.6258314251899719,2.490497589111328
1779910375030908700,4.48890869140625,-0.8358163833618164,0.8174903988838196,2.512641429901123
1779910375047236900,4.50523681640625,-0.6850853562355042,0.8158105611801147,2.409252643585205
1779910375063558400,4.521558349609375,-0.38026362657546997,0.7134906053543091,2.241417407989502
1779910375079888600,4.537888671875,-0.06383541971445084,0.8203920125961304,2.2288944721221924
1779910375096225300,4.554225341796875,0.45295658707618713,1.0961977243423462,2.336406946182251
1779910375112555300,4.57055517578125,0.9098837971687317,1.1563678979873657,2.4524712562561035
1779910375128887000,4.586886962890625,0.9787588119506836,0.9088147878646851,2.3270912170410156
1779910375145219600,4.603219482421875,0.8739954233169556,0.294437050819397,1.9782871007919312
1779910375161554200,4.61955419921875,0.707534670829773,-0.5739079117774963,1.576032280921936
1779910375177897200,4.635897216796875,0.41370847821235657,-0.7415903806686401,1.330464482307434
1779910375194229000,4.65222900390625,0.07284568250179291,-0.4460843503475189,1.314734697341919
1779910375210545000,4.668544921875,-0.12446379661560059,-0.21212296187877655,1.3926200866699219
1779910375226879200,4.684879150390625,-0.22021691501140594,0.11102475970983505,1.444390892982483
1779910375243212000,4.7012119140625,-0.20693060755729675,0.1264491081237793,1.458593487739563
1779910375259544000,4.7175439453125,-0.17104226350784302,-0.28069257736206055,1.378722906112671
1779910375275876000,4.7338759765625,-0.2444988191127777,-0.4642575979232788,1.1746938228607178
1779910375292207900,4.750207763671875,-0.3825543522834778,-0.4833471179008484,0.9918924570083618
1779910375308544000,4.7665439453125,-0.5006040930747986,-0.35735616087913513,0.902247965335846
1779910375324883500,4.782883544921875,-0.5352706909179688,-0.1186605766415596,0.8848382830619812
1779910375341204500,4.79920458984375,-0.4508185386657715,0.17867808043956757,0.9060658812522888
1779910375357549800,4.8155498046875,-0.25442537665367126,0.47769662737846375,0.8449793457984924
1779910375373883100,4.831883056640625,-0.03695734590291977,0.49495357275009155,0.6204863786697388
1779910375390197000,4.848197021484375,0.12202033400535583,0.3517056703567505,0.34406983852386475
1779910375406533000,4.864533203125,0.2344195395708084,0.3669773042201996,0.20036379992961884
1779910375422865200,4.880865234375,0.30695977807044983,0.43157628178596497,0.2834414839744568
1779910375439197400,4.897197509765625,0.30634891986846924,0.38759398460388184,0.5372560024261475
1779910375455529000,4.913529052734375,0.2539672255516052,0.18860463798046112,0.9308059215545654
1779910375471861500,4.929861572265625,0.4101960062980652,-0.08445212244987488,1.23394775390625
1779910375488178000,4.946177978515625,0.46043968200683594,0.04886921867728233,1.3513866662979126
1779910375504525800,4.96252587890625,0.2838996350765228,0.16340644657611847,1.378722906112671
1779910375520857300,4.978857421875,0.10873401165008545,0.0682641938328743,1.3072515726089478
1779910375537190000,4.99518994140625,0.017409659922122955,-0.1160643994808197,1.0754282474517822
1779910375553521400,5.011521484375,-0.04749477282166481,-0.41661009192466736,0.5665774941444397
1779910375569854000,5.02785400390625,-0.13927727937698364,-0.2854267954826355,0.03084869496524334
1779910375586183000,5.044182861328125,-0.3168863356113434,0.0029016099870204926,-0.4586070775985718
1779910375602522000,5.060522216796875,0.01466076634824276,-0.28130343556404114,-1.1980594396591187
1779910375618850300,5.076850341796875,0.5812382698059082,-1.057865858078003,-2.088090181350708
1779910375635181800,5.093181884765625,0.9162978529930115,-1.6375770568847656,-2.9637653827667236
1779910375651511600,5.109511474609375,1.041067123413086,-1.7605136632919312,-3.935499429702759
1779910375667864600,5.125864501953125,0.9004153609275818,-0.7458664774894714,-4.47962760925293
1779910375684188400,5.1421884765625,0.461355984210968,0.801913321018219,-4.399604320526123
1779910375700529700,5.15852978515625,0.18845193088054657,1.421025276184082,-3.9187004566192627
1779910375716826400,5.174826416015625,0.17959438264369965,0.5668829679489136,-2.9998064041137695
1779910375733175600,5.191175537109375,-0.015118914656341076,-1.517236590385437,-1.6319265365600586
1779910375749507000,5.207507080078125,-0.17272214591503143,-2.0369300842285156,-1.1146763563156128
1779910375765837300,5.22383740234375,-0.1768454909324646,-1.0975720882415771,-1.7266106605529785
1779910375782174200,5.24017431640625,-0.11331550031900406,-1.1592695713043213,-2.7478246688842773
1779910375798504000,5.25650390625,0.12782354652881622,-1.5166256427764893,-3.721696615219116
1779910375814818300,5.272818359375,0.22388210892677307,-1.377501130104065,-4.390594005584717
1779910375831186200,5.289186279296875,0.08506298810243607,-1.4607315063476562,-4.206112861633301
1779910375847509500,5.305509521484375,-0.28619036078453064,-1.4033101797103882,-3.4626896381378174
1779910375863851300,5.321851318359375,-0.674089789390564,-0.9915869832038879,-2.939941644668579
1779910375880160800,5.338160888671875,-0.708450973033905,-0.7417431473731995,-2.69651198387146
1779910375896497200,5.3544970703125,-0.674089789390564,-0.9224064946174622,-2.6647469997406006
1779910375912823000,5.370822998046875,-0.47510045766830444,-1.0458012819290161,-2.9527699947357178
1779910375929166300,5.387166259765625,-0.33337971568107605,-0.8914051055908203,-2.9904909133911133
1779910375945492700,5.40349267578125,-0.2246456891298294,-0.7276932001113892,-2.788599729537964
1779910375961825800,5.41982568359375,-0.20341812074184418,-0.821461021900177,-2.4808764457702637
1779910375978160400,5.436160400390625,-0.2808452844619751,-0.873842716217041,-2.1516201496124268
1779910375994503200,5.452503173828125,-0.43050727248191833,-1.0093021392822266,-1.8990273475646973
1779910376010834700,5.468834716796875,-0.5280929803848267,-1.0323622226715088,-1.7495180368423462
1779910376027162000,5.485162109375,-0.6157521605491638,-0.7606799602508545,-1.408349871635437
1779910376043488000,5.501488037109375,-0.6710354685783386,-0.3214678466320038,-0.8863654732704163
1779910376059820000,5.517820068359375,-0.7079927921295166,0.10231992602348328,-0.31031954288482666
1779910376076148200,5.534148193359375,-0.735634446144104,0.32498031854629517,0.15027284622192383
1779910376092482800,5.55048291015625,-0.7273877859115601,0.10064005106687546,0.40653082728385925
1779910376108828200,5.566828125,-0.7695375084877014,-0.3390302062034607,0.6041457056999207
1779910376125146600,5.583146728515625,-0.8950703144073486,-0.7797694802284241,0.7576256394386292
1779910376141496300,5.599496337890625,-1.0961977243423462,-1.1210904121398926,0.8900306820869446
1779910376157824500,5.615824462890625,-1.3164145946502686,-1.4092661142349243,1.183704137802124
1779910376174156000,5.632156005859375,-1.4593570232391357,-1.5285375118255615,1.5279266834259033
1779910376190489000,5.648489013671875,-1.5722143650054932,-0.8781188130378723,1.633453607559204
1779910376206820600,5.664820556640625,-1.3840678930282593,0.11484266817569733,0.4547891616821289
1779910376223136800,5.68113671875,-0.7269296646118164,-1.0531316995620728,0.7883216142654419
1779910376239471600,5.6974716796875,-0.5190827250480652,-1.7941112518310547,1.2625057697296143
1779910376255804000,5.713803955078125,-0.6772968173027039,-1.2079859972000122,1.7655532360076904
1779910376272135700,5.7301357421875,-0.33200526237487793,-0.8886561989784241,1.4701999425888062
1779910376288468000,5.746468017578125,-0.38408151268959045,-0.3767511546611786,1.3715451955795288
1779910376304799700,5.7627998046875,-0.6491970419883728,0.8894197940826416,1.8733710050582886
1779910376321149400,5.7791494140625,-0.22342395782470703,1.7679967880249023,2.0554087162017822
1779910376337478000,5.795477783203125,0.34284812211990356,1.771356463432312,1.6082555055618286
1779910376353801200,5.81180126953125,0.3358231782913208,1.730886697769165,1.4213306903839111
1779910376370138400,5.828138427734375,0.21838432550430298,1.3193162679672241,1.4243850708007812
1779910376386461000,5.8444609375,0.06872233748435974,0.9783006906509399,1.598328948020935
1779910376402780000,5.86077978515625,-0.030695978552103043,0.6120869517326355,1.8550450801849365
1779910376419112400,5.877112548828125,-0.07819075137376785,0.3623957931995392,1.9695823192596436
1779910376435457000,5.89345703125,-0.026572637259960175,0.08689557760953903,1.8947513103485107
1779910376451789600,5.90978955078125,0.02626720629632473,-0.25274550914764404,1.666593074798584
1779910376468121000,5.92612109375,0.10125091671943665,-0.661719799041748,1.41384756565094
1779910376484459500,5.94245947265625,0.1108720451593399,-1.032820463180542,1.2797627449035645
1779910376500789000,5.9587890625,-0.14844025671482086,-1.5477797985076904,1.2209669351577759
1779910376517129000,5.97512890625,-0.8142833709716797,-2.065182685852051,1.3037391901016235
1779910376533450000,5.991449951171875,-1.1691961288452148,-2.523637056350708,1.578781247138977
1779910376549785000,6.00778515625,-0.9616546034812927,-3.1662673950195312,1.725236177444458
1779910376566114300,6.0241142578125,-0.8239045143127441,-3.738342523574829,1.6337591409683228
1779910376582447000,6.040447021484375,-0.8420777320861816,-3.6781723499298096,1.4527902603149414
1779910376598768600,6.0567685546875,-0.8281805515289307,-2.7852401733398438,1.330464482307434
1779910376615108600,6.073108642578125,-0.7020368576049805,-1.8183931112289429,1.4233160018920898
1779910376631435500,6.089435546875,-0.5476406812667847,-1.4214833974838257,1.486693263053894
1779910376647793000,6.10579296875,-0.35384368896484375,-1.8852828741073608,1.483791708946228
1779910376664124400,6.12212451171875,-0.25442537665367126,-1.951256275177002,1.3098478317260742
1779910376680437000,6.13843701171875,-0.20173825323581696,-1.4422528743743896,1.1006264686584473
1779910376696781600,6.154781494140625,-0.13515393435955048,-0.7991644740104675,0.9508117437362671
1779910376713121500,6.17112158203125,-0.029626963660120964,-0.4688390791416168,0.671493649482727
1779910376729420000,6.187419921875,0.05772676691412926,-0.389426589012146,0.437226802110672
1779910376745768700,6.203768798828125,0.1342376321554184,-0.37461310625076294,0.39064833521842957
1779910376762100500,6.2201005859375,0.23884831368923187,-0.5433646440505981,0.4746423065662384
1779910376778433000,6.23643310546875,0.3223841190338135,-0.7774787545204163,0.5768095254898071
1779910376794764800,6.252764892578125,0.3260493278503418,-0.7777841687202454,0.6414085030555725
1779910376811084300,6.269084228515625,0.24495697021484375,-0.5676465034484863,0.6122397184371948
1779910376827428400,6.285428466796875,0.10216721147298813,-0.4662429094314575,0.5954409241676331
1779910376843779000,6.301779052734375,-0.05100724846124649,-0.5294674634933472,0.6194173693656921
1779910376860103700,6.318103759765625,-0.16508632898330688,-0.6513350605964661,0.6655376553535461
1779910376876427000,6.334427001953125,-0.10064005106687546,-0.6495024561882019,0.49984049797058105
1779910376892757800,6.3507578125,0.08536841720342636,-0.4502076804637909,0.14508049190044403
1779910376909077500,6.367077392578125,0.35384368896484375,-0.5299255847930908,-0.266642689704895
1779910376925422000,6.383422119140625,0.4885394871234894,-0.7782423496246338,-0.8048149347305298
1779910376941755000,6.3997548828125,0.35353827476501465,-1.0290025472640991,-1.49906325340271
1779910376958086700,6.416086669921875,-0.14874568581581116,-1.3022119998931885,-2.0787744522094727
1779910376974434600,6.4324345703125,-0.7211264371871948,-1.6699528694152832,-2.239279270172119
1779910376990764300,6.448764404296875,-1.067945122718811,-2.3015875816345215,-2.3321306705474854
1779910377007093500,6.465093505859375,-0.8290968537330627,-2.930931329727173,-2.646573781967163
1779910377023412000,6.481411865234375,-0.53328537940979,-2.8826730251312256,-2.99308705329895
1779910377039734800,6.49773486328125,-0.556345522403717,-2.67757511138916,-3.2235360145568848
1779910377056082700,6.514082763671875,-0.3245221674442291,-2.4891231060028076,-3.313791275024414
1779910377072412000,6.530411865234375,-0.02932153269648552,-2.0051651000976562,-3.3095152378082275
1779910377088723000,6.546722900390625,0.11423180252313614,-1.4547755718231201,-3.352581262588501
1779910377105076500,6.563076416015625,0.11056660860776901,-1.0852020978927612,-3.448028802871704
1779910377121408300,6.579408203125,-0.07559457421302795,-1.0340421199798584,-3.3686163425445557
1779910377137744400,6.595744384765625,-0.36590829491615295,-1.3307698965072632,-3.014467239379883
1779910377154087000,6.6120869140625,-0.6748533844947815,-1.7321083545684814,-2.529592990875244
1779910377170402300,6.62840234375,-0.8619308471679688,-2.3634376525878906,-2.1334469318389893
1779910377186732300,6.644732177734375,-1.0641272068023682,-3.1615331172943115,-2.3264803886413574
1779910377203070700,6.66107080078125,-1.3628404140472412,-3.045926809310913,-3.3240232467651367
1779910377219388400,6.677388427734375,-1.5036448240280151,-2.539824962615967,-3.653737783432007
1779910377235734000,6.693734130859375,-1.6001615524291992,-2.467742919921875,-3.2812626361846924
1779910377252065800,6.710065673828125,-1.8064812421798706,-2.233323335647583,-2.9904909133911133
1779910377268398300,6.7263984375,-2.040748119354248,-1.9532415866851807,-2.922990083694458
1779910377284726800,6.742726806640625,-2.1197023391723633,-2.06548810005188,-2.914743423461914
1779910377301066200,6.759066162109375,-2.0387628078460693,-2.4465153217315674,-2.7264442443847656
1779910377317397800,6.775397705078125,-1.9451476335525513,-2.319913387298584,-2.236072301864624
1779910377333740800,6.79174072265625,-1.9492709636688232,-1.982105016708374,-1.8762725591659546
1779910377350068700,6.80806884765625,-1.9801197052001953,-1.871996521949768,-1.6859880685806274
1779910377366392000,6.82439208984375,-1.9932533502578735,-1.8270978927612305,-1.506240963935852
1779910377382723000,6.84072314453125,-1.9813414812088013,-1.7718145847320557,-1.3025174140930176
1779910377399042800,6.857042724609375,-1.9562959671020508,-1.6937766075134277,-1.0555751323699951
1779910377415387600,6.8733876953125,-1.8223637342453003,-1.508989930152893,-0.8110763430595398
1779910377431720200,6.88972021484375,-1.6284140348434448,-1.3168727159500122,-0.5688682794570923
1779910377448052000,6.906052001953125,-1.4694362878799438,-1.1861475706100464,-0.3663664162158966
1779910377464397600,6.9223974609375,-1.342529058456421,-1.3154983520507812,-0.18555031716823578
1779910377480750000,6.93875,-1.3037391901016235,-1.5732834339141846,-0.04795292019844055
1779910377497049300,6.95504931640625,-1.2873984575271606,-1.7409659624099731,-0.022602014243602753
1779910377513377500,6.97137744140625,-1.2858713865280151,-1.7513506412506104,-0.21639901399612427
1779910377529717000,6.987717041015625,-1.4619532823562622,-1.6850718259811401,-0.8648324608802795
1779910377546045000,7.004044921875,-1.7742581367492676,-1.9758436679840088,-1.2504411935806274
1779910377562371800,7.020371826171875,-2.029599666595459,-2.3719897270202637,-0.2226603776216507
1779910377578717200,7.03671728515625,-1.5610661506652832,-2.2543981075286865,1.1452195644378662
1779910377595039500,7.05303955078125,-1.4753923416137695,-0.9662361145019531,0.9314168095588684
1779910377611373800,7.069373779296875,-1.0936014652252197,-1.1716395616531372,0.8894197940826416
1779910377627709400,7.08570947265625,-0.7272350788116455,-1.5439618825912476,0.8028296232223511
1779910377644023800,7.10202392578125,-1.0204503536224365,-0.47571131587028503,0.8998045325279236
1779910377660374500,7.11837451171875,-1.5236506462097168,1.2794572114944458,1.6473509073257446
1779910377676699600,7.13469970703125,-1.5357152223587036,1.9882136583328247,2.202474594116211
1779910377693022500,7.1510224609375,-1.2037099599838257,1.7085901498794556,2.1641428470611572
1779910377709370600,7.16737060546875,-0.9320276379585266,1.15178644657135,1.7930421829223633
1779910377725696500,7.183696533203125,-0.722348153591156,0.7588473558425903,1.7215709686279297
1779910377742024400,7.2000244140625,-0.5094616413116455,0.5258022546768188,1.75608491897583
1779910377758364400,7.216364501953125,-0.15256360173225403,0.22143864631652832,1.774105429649353
1779910377774692600,7.232692626953125,0.1270599663257599,-0.1713477075099945,1.8316794633865356
1779910377791032000,7.249031982421875,0.2874121069908142,-0.3790418803691864,1.846798300743103
1779910377807360500,7.265360595703125,0.4063780903816223,-0.48869219422340393,1.9352210760116577
1779910377823693000,7.281693115234375,0.48838675022125244,-0.4132503271102905,1.9370536804199219
1779910377840024000,7.298024169921875,0.537408709526062,0.022449297830462456,1.8345810174942017
1779910377856355000,7.31435498046875,0.6136141419410706,0.09834930300712585,1.6577355861663818
1779910377872692500,7.3306923828125,0.5719226002693176,-0.5126686692237854,1.5259413719177246
1779910377889001200,7.347001220703125,0.3225368559360504,-1.2195924520492554,1.46424400806427
1779910377905353700,7.363353759765625,-0.1612684279680252,-1.734704613685608,1.4581353664398193
1779910377921686500,7.3796865234375,-0.7677049040794373,-1.7246253490447998,1.4129313230514526
1779910377938014700,7.3960146484375,-0.9193521738052368,-1.1267409324645996,1.4161384105682373
1779910377954384100,7.412384033203125,-0.7814493775367737,-0.5580254197120667,1.333060622215271
1779910377970696400,7.428696533203125,-0.6064364910125732,-0.3387247920036316,1.2147055864334106
1779910377987025700,7.445025634765625,-0.4398229718208313,-0.2932153046131134,1.0754282474517822
1779910378003346700,7.4613466796875,-0.11270463466644287,-0.17562375962734222,0.711963415145874
1779910378019677700,7.477677734375,0.07864890247583389,0.054825156927108765,0.3312416672706604
1779910378036013300,7.494013427734375,0.15821409225463867,0.3718642294406891,0.06475171446800232
1779910378052344000,7.510343994140625,0.24144448339939117,0.7102835774421692,-0.09147707372903824
1779910378068675800,7.52667578125,0.3510948121547699,1.1065824031829834,-0.12782354652881622
1779910378085005300,7.54300537109375,0.46960264444351196,1.2379183769226074,-0.022143865004181862
1779910378101354000,7.55935400390625,0.5896376967430115,0.7559457421302795,0.13545936346054077
1779910378117661200,7.5756611328125,0.6337726712226868,0.048258353024721146,0.2900082767009735
1779910378133993500,7.591993408203125,0.5497786998748779,-0.13988813757896423,0.5296201705932617
1779910378150325500,7.608325439453125,0.4499022662639618,0.06627888232469559,0.8830057382583618
1779910378166658300,7.624658203125,0.3660610020160675,0.22128593921661377,1.1154398918151855
1779910378182990600,7.640990478515625,0.058795779943466187,0.12308934330940247,1.145830512046814
1779910378199321000,7.657321044921875,-0.1618792861700058,-0.3006984293460846,1.0487029552459717
1779910378215653600,7.673653564453125,-0.28725937008857727,-0.6455318331718445,0.8245153427124023
1779910378231985400,7.6899853515625,-0.4352414906024933,-0.5360342264175415,0.5707008838653564
1779910378248318700,7.706318603515625,-0.49144110083580017,-0.33200526237487793,0.2151772826910019
1779910378264652500,7.722652587890625,-0.17516560852527618,-0.35613444447517395,-0.394008070230484
1779910378280979700,7.738979736328125,0.48288896679878235,-0.5731443166732788,-1.441794753074646
1779910378297314600,7.755314453125,1.0056369304656982,-0.915534257888794,-2.663067102432251
1779910378313646600,7.771646484375,1.2953397035598755,-1.1789699792861938,-3.66534423828125
1779910378329979100,7.787979248046875,1.5467108488082886,-0.9404270648956299,-4.257577896118164
1779910378346313000,7.80431298828125,1.5830572843551636,0.25274550914764404,-4.279110908508301
1779910378362643200,7.820643310546875,1.161560297012329,1.253800868988037,-3.620445489883423
1779910378378968600,7.836968505859375,0.4106541574001312,0.8869763612747192,-2.4411702156066895
1779910378395307000,7.85330712890625,-0.002138028386980295,0.22831088304519653,-1.9529361724853516
1779910378411639600,7.8696396484375,-0.003054326167330146,-0.2018909603357315,-2.3692407608032227
1779910378427974000,7.885973876953125,0.11728613078594208,-0.4740314185619354,-2.8984029293060303
1779910378444306700,7.902306640625,0.22632557153701782,-0.5073235630989075,-3.1161763668060303
1779910378460637000,7.918636962890625,0.260992169380188,-0.6731734871864319,-3.1418325901031494
1779910378476986000,7.934986083984375,0.13041973114013672,-0.5277875661849976,-3.1117475032806396
1779910378493303300,7.95130322265625,0.06780604273080826,-0.25992316007614136,-2.950937271118164
1779910378509633000,7.967633056640625,-0.03039054572582245,-0.1290452778339386,-2.56257963180542
1779910378525965800,7.9839658203125,-0.08597928285598755,-0.15195272862911224,-2.289217472076416
1779910378542297900,8.0002978515625,-0.22159136831760406,-0.41630467772483826,-2.143984317779541
1779910378558629000,8.016629150390624,-0.2984076738357544,-0.609338104724884,-2.0731239318847656
1779910378574962000,8.0329619140625,-0.3576616048812866,-0.712574303150177,-1.8820757865905762
1779910378591309800,8.049309814453125,-0.395077109336853,-0.8298604488372803,-1.6391041278839111
1779910378607636500,8.065636474609375,-0.48579058051109314,-0.8434522151947021,-1.3098478317260742
1779910378623974400,8.081974365234375,-0.5387831330299377,-0.6818783283233643,-0.8216137290000916
1779910378640293000,8.098293212890624,-0.5739079117774963,-0.19043724238872528,-0.28466320037841797
1779910378656636000,8.114635986328125,-0.5564982295036316,0.21471913158893585,0.14538592100143433
1779910378672965400,8.13096533203125,-0.5322163701057434,0.4262312352657318,0.5396994352340698
1779910378689320700,8.14732080078125,-0.607200026512146,0.3312416672706604,0.8869763612747192
1779910378705629400,8.16362939453125,-0.7597636580467224,0.06291911751031876,1.1551461219787598
1779910378721964500,8.179964599609375,-0.9443976879119873,-0.23273965716362,1.5022703409194946
1779910378738297300,8.19629736328125,-1.0348057746887207,-0.3271183371543884,2.0648772716522217
1779910378754625300,8.212625244140625,-1.1122329235076904,-0.06994406878948212,2.2788329124450684
1779910378770960400,8.22896044921875,-1.122159481048584,1.1340713500976562,1.5331190824508667
1779910378787299000,8.245299072265626,-0.6939429044723511,0.8718574047088623,1.1050552129745483
1779910378803626500,8.26162646484375,-0.4343251883983612,-0.28695395588874817,1.7960965633392334
1779910378819958000,8.2779580078125,-0.8539896011352539,-0.49693888425827026,2.400547742843628
1779910378836290000,8.2942900390625,-1.0739010572433472,-0.13897185027599335,2.802802562713623
1779910378852623400,8.310623291015625,-1.0546588897705078,0.8753699064254761,2.844494104385376
1779910378868947700,8.32694775390625,-0.8546004891395569,1.1618657112121582,2.84968638420105
1779910378885287000,8.343286865234376,-0.5682573914527893,1.051146388053894,2.79119610786438
1779910378901619700,8.35961962890625,-0.06582073122262955,1.0992519855499268,2.4301745891571045
1779910378917951500,8.375951416015624,0.43478333950042725,1.3813190460205078,2.2682952880859375
1779910378934281700,8.39228173828125,0.8422304391860962,1.8697057962417603,2.5134050846099854
1779910378950635800,8.4086357421875,1.0074695348739624,1.643227458000183,2.8035659790039062
1779910378966958600,8.42495849609375,0.7211264371871948,0.9911288619041443,2.378556489944458
1779910378983280400,8.4412802734375,0.4106541574001312,-0.3446807265281677,1.411251425743103
1779910378999613000,8.457613037109375,0.07299839705228806,-1.040150761604309,0.8319984674453735
1779910379015945000,8.473945068359376,-0.12171489745378494,-0.784503698348999,0.8064948320388794
1779910379032277500,8.490277587890626,-0.21700987219810486,-0.289702832698822,0.9601274728775024
1779910379048609500,8.506609619140624,-0.2643519341945648,0.1010981947183609,1.1001683473587036
1779910379064940800,8.52294091796875,-0.27458393573760986,0.021991148591041565,1.1876747608184814
1779910379081295000,8.539295166015625,-0.3312416672706604,-0.37140607833862305,1.2231049537658691
1779910379097620200,8.5556201171875,-0.44837507605552673,-0.940121591091156,1.1618657112121582
1779910379113950200,8.5719501953125,-0.49128836393356323,-1.6056592464447021,1.0406090021133423
1779910379130284500,8.588284423828124,-0.5723807215690613,-1.7174476385116577,0.9673051238059998
1779910379146599400,8.604599365234375,-0.5018258094787598,-1.1957687139511108,0.9352346658706665
1779910379162935600,8.620935546875,-0.4314235746860504,-0.3430008292198181,0.8681922554969788
1779910379179267300,8.637267333984376,-0.3880521357059479,0.30253100395202637,0.7402159571647644
1779910379195596500,8.653596435546875,-0.19456058740615845,0.45631635189056396,0.5896376967430115
1779910379211918600,8.669918701171875,-0.02321287989616394,0.5175555944442749,0.40591996908187866
1779910379228267800,8.686267822265625,0.031612277030944824,0.5371032953262329,0.21059578657150269
1779910379244596500,8.702596435546875,0.017562376335263252,0.5624541640281677,0.21380282938480377
1779910379260928800,8.7189287109375,0.023518312722444534,0.5016731023788452,0.3804163336753845
1779910379277260500,8.735260498046875,0.15057829022407532,0.3813326358795166,0.4812090992927551
1779910379293593300,8.75159326171875,0.2715296149253845,0.2119702398777008,0.6033821702003479
1779910379309903000,8.767903076171875,0.2474004179239273,0.26251932978630066,0.8881980776786804
1779910379326257400,8.78425732421875,0.204487144947052,0.26710084080696106,1.1847730875015259
1779910379342590000,8.80058984375,0.06780604273080826,0.12049316614866257,1.3274102210998535
1779910379358909000,8.816908935546875,-0.12492194026708603,-0.11071932315826416,1.2098186016082764
1779910379391587000,8.849587158203125,-0.031001411378383636,0.3882048726081848,0.24984388053417206
1779910379407918600,8.865918701171875,0.21395555138587952,0.4584543704986572,-0.26450464129447937
1779910379424251600,8.882251708984375,0.19685132801532745,-0.14263702929019928,-0.8413141369819641
1779910379440600000,8.89860009765625,0.15500704944133759,-0.6012440919876099,-1.4037683010101318
1779910379456921300,8.91492138671875,0.2356412708759308,-0.7312057018280029,-1.8526015281677246
1779910379473241300,8.931241455078125,0.4535674452781677,-0.7257078886032104,-2.2563834190368652
1779910379489580500,8.94758056640625,0.6214026808738708,-0.4918992519378662,-2.738661527633667
1779910379505912000,8.963912109375,0.720820963382721,-0.05115996301174164,-3.3037118911743164
1779910379522233000,8.980233154296876,0.8709411025047302,0.23396138846874237,-3.8143951892852783
1779910379538576600,8.99657666015625,0.9169087409973145,0.1918116807937622,-4.092644214630127
1779910379554911700,9.012911865234376,0.8825475573539734,-0.052228979766368866,-3.6248743534088135
1779910379571251700,9.029251708984376,0.6239988207817078,-0.023060163483023643,-2.479349374771118
1779910379587591400,9.04559130859375,0.21471913158893585,0.2834414839744568,-1.4372131824493408
1779910379603921000,9.0619208984375,0.06169738993048668,0.40225476026535034,-1.3581061363220215
1779910379620252000,9.078251953125,0.26083946228027344,0.18829920887947083,-2.043038845062256
1779910379636566300,9.094566162109375,0.5862779021263123,-0.5186246037483215,-2.813797950744629
1779910379652917200,9.110917236328126,0.736245334148407,-1.2991576194763184,-3.3591480255126953
1779910379669228000,9.12722802734375,0.7170031070709229,-1.3823879957199097,-3.5656204223632812
1779910379685585200,9.143585205078125,0.41859540343284607,-0.5190827250480652,-3.2644639015197754
1779910379701912800,9.159912841796874,0.09987647086381912,0.29825496673583984,-2.7449228763580322
1779910379718246100,9.17624609375,-0.07147123664617538,0.5755877494812012,-2.3489296436309814
1779910379734561000,9.19256103515625,-0.08536841720342636,0.361174076795578,-2.0722076892852783
1779910379750893000,9.20889306640625,0.00045814894838258624,0.055741455405950546,-1.8936822414398193
1779910379767228200,9.225228271484376,0.07070764899253845,-0.04245513305068016,-1.656819224357605
1779910379783561000,9.24156103515625,0.0910189226269722,-0.2952006161212921,-1.377806544303894
1779910379799890400,9.257890380859376,0.06444628536701202,-0.5650503635406494,-1.0018190145492554
1779910379816227800,9.274227783203125,-0.10354165732860565,-0.39095374941825867,-0.4963280260562897
1779910379832557600,9.2905576171875,-0.2519819140434265,0.05772676691412926,-0.01038470957428217
1779910379848890000,9.30689013671875,-0.23426681756973267,0.3576616048812866,0.3787364661693573
1779910379865221600,9.3232216796875,-0.22372940182685852,0.2399173229932785,0.675006091594696
1779910379881554700,9.3395546875,-0.30634891986846924,-0.05543602257966995,0.9082038998603821
1779910379897886500,9.355886474609376,-0.47479501366615295,-0.66584312915802,1.1943942308425903
1779910379914217700,9.3722177734375,-0.8422304391860962,-0.9341656565666199,2.116342544555664
1779910379930568000,9.38856787109375,-1.207680583000183,0.2054034322500229,3.0353894233703613
1779910379946894000,9.40489404296875,-1.00502610206604,2.44254469871521,2.7261388301849365
1779910379963215400,9.42121533203125,-0.005803219974040985,2.2038490772247314,1.5897767543792725
1779910379979548200,9.437548095703125,-0.06887505948543549,2.1111502647399902,2.207819700241089
1779910379995880000,9.4538798828125,-0.6088799238204956,1.7314975261688232,2.7820329666137695
1779910380012212500,9.47021240234375,-0.9556986689567566,1.0051788091659546,2.8235719203948975
1779910380028544300,9.486544189453125,-1.0403034687042236,1.31916344165802,2.845104932785034
1779910380044873700,9.502873779296875,-0.8252789378166199,1.0641272068023682,2.5717427730560303
1779910380061229800,9.519229736328125,-0.1765400618314743,0.8573493957519531,2.295173406600952
1779910380077555200,9.53555517578125,0.6180428862571716,1.1267409324645996,2.1652119159698486
1779910380093881900,9.5518818359375,1.3315335512161255,1.2760975360870361,2.316553831100464
1779910380110219800,9.5682197265625,1.715462327003479,1.2527319192886353,2.6342036724090576
1779910380126534700,9.58453466796875,1.6872098445892334,0.7420485615730286,2.3571763038635254
1779910380142870800,9.600870849609375,1.0251846313476562,-0.9950994849205017,1.455997347831726
1779910380159202800,9.617202880859375,0.15974126756191254,-1.508989930152893,1.2860240936279297
1779910380175535000,9.63353515625,-0.35124751925468445,-0.5827654600143433,1.6507105827331543
1779910380191867000,9.649866943359376,-0.7012733221054077,0.6171266436576843,1.786780834197998
1779910380208199400,9.666199462890624,-0.5775730609893799,1.08718740940094,1.5945110321044922
1779910380224516600,9.6825166015625,-0.2638937830924988,0.5210680365562439,1.1885910034179688
1779910380240851500,9.6988515625,-0.15729780495166779,-0.1437060534954071,0.9572258591651917
1779910380257198800,9.71519873046875,-0.26053401827812195,-0.22342395782470703,0.9900598526000977
1779910380273528800,9.73152880859375,-0.4311181604862213,-0.29856038093566895,1.123686671257019
1779910380289860400,9.7478603515625,-0.5099197626113892,-0.5277875661849976,1.1859948635101318
1779910380306193200,9.764193115234375,-0.44318273663520813,-0.6969972252845764,1.0169379711151123
1779910380322512600,9.7805126953125,-0.3634648323059082,-0.26374107599258423,0.7165449261665344
1779910380338860500,9.796860595703125,-0.28955012559890747,0.28878653049468994,0.4766276180744171
1779910380355189500,9.813189453125,-0.15454891324043274,0.5598580241203308,0.2971859276294708
1779910380371522000,9.82952197265625,-0.0029016099870204926,0.47998735308647156,0.09254608303308487
1779910380387840800,9.8458408203125,0.15500704944133759,0.327729195356369,-0.017867809161543846
1779910380404184300,9.862184326171874,0.17562375962734222,0.2064724564552307,0.076052725315094
1779910380420521000,9.87852099609375,0.05497787147760391,0.21380282938480377,0.385303258895874
1779910380436865300,9.894865234375,0.10323622822761536,0.2577851414680481,0.5974262356758118
1779910380453183000,9.911182861328125,0.3263547718524933,0.1918116807937622,0.6507241725921631
1779910380469515800,9.927515869140626,0.3549126982688904,0.2396118938922882,0.8060367107391357
1779910380485834500,9.94383447265625,0.3019201457500458,0.2669481039047241,1.0835222005844116
1779910380502180600,9.9601806640625,0.1820378452539444,0.0022907445672899485,1.202946424484253
1779910380518507000,9.976507080078125,0.0887281745672226,-0.3689626157283783,1.0723739862442017
1779910380534847500,9.992847412109375,0.038026362657547,-0.5112941861152649,0.8327620625495911
1779910380551179300,10.00917919921875,0.029474247246980667,-0.4616613984107971,0.4499022662639618
1779910380567522800,10.025522705078124,0.021838432177901268,-0.1189660057425499,-0.006872233934700489
1779910380583850200,10.041850341796875,-0.12003502249717712,0.17180584371089935,-0.3640756905078888
1779910380600176000,10.058176025390624,-0.14034628868103027,-0.06582073122262955,-0.6876815557479858
1779910380616519400,10.07451953125,-0.025656340643763542,-0.6148358583450317,-1.034500241279602
1779910380632851700,10.090851806640625,0.3179553747177124,-1.2125675678253174,-1.461495041847229
1779910380649160000,10.107159912109376,0.6646214127540588,-1.548237919807434,-2.140624523162842
1779910380665525500,10.123525390625,0.8191702961921692,-1.1255191564559937,-2.9665143489837646
1779910380681841000,10.1398408203125,0.7183775305747986,-0.031612277030944824,-3.6560285091400146
1779910380698189600,10.156189453125,0.4427245855331421,1.010523796081543,-3.782783031463623
1779910380714513200,10.17251318359375,0.13545936346054077,1.5939000844955444,-3.3632712364196777
1779910380730845700,10.188845703125,-0.0503963828086853,0.7295258045196533,-2.467132091522217
1779910380747170800,10.2051708984375,-0.1992947906255722,-0.29046642780303955,-1.6997325420379639
1779910380763500000,10.2215,-0.3649919927120209,-0.9973902106285095,-1.750434398651123
1779910380779828700,10.237828857421874,-0.35521814227104187,-1.810451865196228,-2.38741397857666
1779910380796161000,10.2541611328125,0.04184427112340927,-2.5550966262817383,-3.198795795440674
1779910380812493300,10.270493408203125,0.24098633229732513,-2.4361305236816406,-3.9680278301239014
1779910380828834000,10.286833984375,0.06918048858642578,-1.7093536853790283,-4.325384140014648
1779910380845157600,10.30315771484375,-0.17638733983039856,-1.4388930797576904,-4.006512641906738
1779910380861491200,10.3194912109375,-0.28787025809288025,-1.5230398178100586,-3.584709882736206
1779910380877821700,10.33582177734375,-0.2396118938922882,-1.4895949363708496,-3.587000608444214
1779910380894155000,10.352155029296876,-0.164170041680336,-1.1044443845748901,-3.62609601020813
1779910380910486500,10.368486572265626,-0.20845776796340942,-0.8323038816452026,-3.4408512115478516
1779910380926833200,10.384833251953125,-0.23197607696056366,-0.8060367107391357,-3.2641584873199463
1779910380943151000,10.401151123046875,-0.22281309962272644,-0.8477282524108887,-2.948035717010498
1779910380959484200,10.417484130859375,-0.30634891986846924,-0.8710938692092896,-2.5592198371887207
1779910380975816000,10.43381591796875,-0.5462662577629089,-0.868803083896637,-2.063044548034668
1779910380992148500,10.4501484375,-0.8988882303237915,-1.0520626306533813,-1.5763378143310547
1779910381008480300,10.466480224609375,-1.0487029552459717,-1.0276280641555786,-1.1355985403060913
1779910381024812500,10.4828125,-1.063821792602539,-0.7041749358177185,-0.6380487680435181
1779910381041162200,10.499162353515626,-1.073595643043518,-0.20143280923366547,0.020922135561704636
1779910381057491000,10.515490966796875,-1.0201449394226074,-0.2050980031490326,0.513126790523529
1779910381073823200,10.5318232421875,-1.1232284307479858,-0.545655369758606,0.7144069075584412
1779910381090156300,10.54815625,-1.315040111541748,-1.2287554740905762,0.5787948369979858
1779910381106467800,10.5644677734375,-1.6785049438476562,-1.8625280857086182,0.6635523438453674
1779910381122809000,10.58080908203125,-2.017840623855591,-2.085952043533325,1.3723087310791016
1779910381139122400,10.597122314453125,-2.0480785369873047,-1.9636263847351074,2.454303741455078
1779910381155474400,10.613474365234374,-1.8197675943374634,-0.22663100063800812,1.9089539051055908
1779910381171803000,10.629802978515626,-0.8370380997657776,0.6737843751907349,0.30482175946235657
1779910381188120600,10.64612060546875,0.04734205827116966,-1.8359555006027222,0.7200574278831482
1779910381204457000,10.66245703125,-0.7423539757728577,-0.11071932315826416,2.0002782344818115
1779910381220792000,10.6787919921875,-0.5290092825889587,0.008704829961061478,1.8303049802780151
1779910381237119700,10.69511962890625,-0.5638286471366882,0.28008171916007996,1.5827518701553345
1779910381253465000,10.711465087890625,-0.8371908068656921,1.2252429723739624,2.104888916015625
1779910381269796900,10.727796875,-0.46700647473335266,1.6951510906219482,1.9958494901657104
1779910381286129200,10.744129150390625,0.3240640163421631,1.8414533138275146,1.8544341325759888
1779910381302461200,10.760461181640625,0.6082690954208374,1.9923369884490967,1.9935587644577026
1779910381318784500,10.776784423828126,0.38209620118141174,1.4892895221710205,1.9517145156860352
1779910381335122400,10.793122314453125,0.36102136969566345,0.8588765263557434,1.9422460794448853
1779910381351462000,10.8094619140625,0.33567044138908386,0.5303837656974792,2.032654047012329
1779910381367790300,10.825790283203125,0.3211624026298523,0.4492913782596588,2.0783162117004395
1779910381384123000,10.842122802734375,0.40301835536956787,0.40851613879203796,1.980883240699768
1779910381400441900,10.85844189453125,0.5621487498283386,0.3701843321323395,1.8793269395828247
1779910381416801300,10.87480126953125,0.7226535677909851,0.21288654208183289,1.719585657119751
1779910381433119500,10.891119384765625,0.6688974499702454,-0.4944954216480255,1.3199270963668823
1779910381449452000,10.9074521484375,0.23686300218105316,-1.3654365539550781,0.8935431241989136
1779910381465783800,10.92378369140625,-0.15577064454555511,-1.383457064628601,0.9581421613693237
1779910381482113000,10.940113037109375,-0.2515237629413605,-0.8391761183738708,1.3405437469482422
1779910381498445800,10.95644580078125,-0.2942843437194824,-0.7687739133834839,1.4804319143295288
1779910381514781400,10.972781494140625,-0.3335324227809906,-1.3376421928405762,1.2608258724212646
1779910381531129000,10.989129150390625,-0.3220787048339844,-1.9289597272872925,0.9844093322753906
1779910381547446500,11.005446533203125,-0.27000242471694946,-2.1012237071990967,0.8219192028045654
1779910381563764500,11.021764404296874,-0.3214678466320038,-1.9724838733673096,0.8016079068183899
1779910381580110000,11.038110107421875,-0.39095374941825867,-1.8567248582839966,1.0056369304656982
1779910381596439600,11.054439453125,-0.28328874707221985,-1.5519031286239624,1.0823005437850952
1779910381612762600,11.0707626953125,-0.2886338233947754,-1.2716686725616455,0.9844093322753906
1779910381629094000,11.087093994140625,-0.28649580478668213,-1.2105822563171387,0.9156870245933533
1779910381645429200,11.10342919921875,-0.18829920887947083,-0.9576839804649353,0.8671231865882874
1779910381661759200,11.11975927734375,-0.13255776464939117,-0.6843217611312866,0.8043568134307861
1779910381678093600,11.136093505859375,-0.06704246252775192,-0.5942191481590271,0.8269588351249695
1779910381694425000,11.152425048828125,0.05467243865132332,-0.770606517791748,0.8437576293945312
1779910381710757400,11.16875732421875,0.18616119027137756,-1.0122036933898926,0.7692320346832275
1779910381727089000,11.1850888671875,0.29657506942749023,-0.936609148979187,0.6065891981124878
1779910381743421200,11.201421142578125,0.3675881624221802,-0.532369077205658,0.4288274049758911
1779910381759753200,11.217753173828125,0.3637702465057373,-0.08155050873756409,0.33735033869743347
1779910381776086800,11.234086669921876,0.27947086095809937,0.4631885588169098,0.3591887652873993
1779910381792418800,11.250418701171874,0.17852537333965302,0.9801332950592041,0.34895676374435425
1779910381808748800,11.266748779296876,0.14278975129127502,0.8692612648010254,0.27382034063339233
1779910381825082600,11.28308251953125,0.18478673696517944,0.16172657907009125,0.33169981837272644
1779910381841415400,11.29941552734375,0.2727513313293457,-0.260992169380188,0.5516113042831421
1779910381857746000,11.315745849609375,0.3061962127685547,-0.197004035115242,0.5444336533546448
1779910381874080000,11.332080078125,0.318566232919693,-0.31932979822158813,0.21044307947158813
1779910381890413000,11.3484130859375,0.3550654351711273,-0.7999280095100403,-0.22388210892677307
1779910381906743800,11.364743896484375,0.33689218759536743,-0.9949467778205872,-0.7283040881156921
1779910381923076900,11.381076904296876,0.1365283876657486,-1.0714576244354248,-1.2263119220733643
1779910381939408100,11.397408203125,-0.3448334336280823,-1.4069753885269165,-1.6821701526641846
1779910381955739100,11.4137392578125,-0.8254316449165344,-2.0147862434387207,-1.954005241394043
1779910381972073000,11.430072998046874,-0.9549350738525391,-2.5586090087890625,-2.3687827587127686
1779910381988405200,11.4464052734375,-0.8938485980033875,-2.8454103469848633,-3.1612277030944824
1779910382004738300,11.46273828125,-0.8793405294418335,-3.0053043365478516,-4.03430700302124
1779910382021070000,11.479070068359375,-0.9314168095588684,-2.733316421508789,-4.401284217834473
1779910382037403100,11.495403076171876,-0.9750936627388,-2.3240368366241455,-4.251774787902832
1779910382053735000,11.51173486328125,-0.8301658630371094,-1.972025752067566,-3.9825360774993896
1779910382070082000,11.52808203125,-0.45036038756370544,-1.8203784227371216,-3.8290560245513916
1779910382086407700,11.54440771484375,-0.13118331134319305,-1.5195273160934448,-3.710395574569702
1779910382102746600,11.56074658203125,-0.20922134816646576,-1.3871222734451294,-3.176193952560425
1779910382119062300,11.577062255859374,-0.9103419184684753,-2.1426098346710205,-2.1978931427001953
1779910382135407900,11.593407958984375,-1.8420641422271729,-2.7980682849884033,-1.8165605068206787
1779910382151728400,11.609728271484375,-2.615419626235962,-3.2026138305664062,-2.4294111728668213
1779910382168072700,11.62607275390625,-3.193450689315796,-4.063628196716309,-3.023782968521118
1779910382184422000,11.642421875,-3.1760411262512207,-4.424649715423584,-3.366783857345581
1779910382200751600,11.658751708984376,-2.657111167907715,-4.270558834075928,-3.6190712451934814
1779910382217079300,11.675079345703125,-2.5451700687408447,-4.2615485191345215,-3.6977200508117676
1779910382233401600,11.691401611328125,-2.693915843963623,-3.793320417404175,-3.4770450592041016
1779910382249726000,11.707725830078125,-2.8412868976593018,-3.623958110809326,-3.0213394165039062
1779910382266066400,11.72406640625,-2.9136745929718018,-3.6978728771209717,-2.641075849533081
1779910382282398200,11.740398193359376,-2.836247444152832,-3.581197500228882,-2.560136318206787
1779910382298722800,11.756722900390624,-2.788905382156372,-3.369379997253418,-2.515084981918335
1779910382315046400,11.77304638671875,-2.6978864669799805,-2.856100559234619,-2.23591947555542
1779910382331398700,11.789398681640625,-2.6335928440093994,-2.6732990741729736,-1.8744399547576904
1779910382347724800,11.805724853515626,-2.6009113788604736,-2.640923261642456,-1.6001615524291992
1779910382364062500,11.8220625,-2.60182785987854,-2.5590672492980957,-1.3326025009155273
1779910382380392000,11.838391845703125,-2.545933723449707,-2.1818578243255615,-0.9030115604400635
1779910382396724500,11.854724365234375,-2.2963950634002686,-1.8585574626922607,-0.4141666293144226
1779910382413056300,11.87105615234375,-2.0751092433929443,-1.5361733436584473,0.016951510682702065
1779910382429389300,11.887389404296876,-1.901318073272705,-1.3930782079696655,0.2597704529762268
1779910382445719000,11.903718994140625,-1.7825047969818115,-1.5462526082992554,0.41263946890830994
1779910382462055700,11.9200556640625,-1.7104226350784302,-1.786475419998169,0.5752823352813721
1779910382478380000,11.936380126953125,-1.6534595489501953,-1.8852828741073608,0.607810914516449
1779910382494715400,11.95271533203125,-1.5525140762329102,-1.7424931526184082,0.39553526043891907
1779910382511053300,11.96905322265625,-1.4576772451400757,-1.5459471940994263,0.21762074530124664
1779910382527383000,11.985383056640625,-1.4750868082046509,-1.5031867027282715,0.12553280591964722
1779910382543714800,12.00171484375,-1.6720908880233765,-1.129489779472351,-0.3240640163421631
1779910382560047400,12.01804736328125,-1.8909333944320679,-0.718224823474884,-0.579405665397644
1779910382576383000,12.034383056640625,-1.3613132238388062,-0.979827880859375,0.6743952035903931
1779910382592712200,12.050712158203124,-0.9088147878646851,-1.3170254230499268,0.9715811610221863
1779910382609025300,12.067025390625,-0.9885326623916626,-0.4538728892803192,0.9291260242462158
1779910382625399300,12.0833994140625,-0.37079519033432007,-0.560468852519989,0.9537133574485779
1779910382641723000,12.099722900390624,-0.4216497242450714,0.052839845418930054,0.9057604670524597
1779910382658054400,12.116054443359374,-0.9202684760093689,1.694387435913086,1.6898059844970703
1779910382674383600,12.132383544921876,-0.8956811428070068,2.6285531520843506,2.009593963623047
1779910382690721800,12.1487216796875,-0.7115052938461304,1.9526307582855225,1.737911581993103
1779910382707051500,12.165051513671875,-0.8480336666107178,1.256244421005249,1.7084373235702515
1779910382723383800,12.1813837890625,-0.9289733171463013,0.6600399017333984,1.7565430402755737
1779910382739716600,12.197716552734375,-0.8112290501594543,0.16019940376281738,1.9060522317886353
1779910382756032300,12.2140322265625,-0.5403103232383728,-0.17088955640792847,1.8289304971694946
1779910382772360000,12.23035986328125,-0.1241583600640297,-0.4867068827152252,1.6436856985092163
1779910382788702700,12.24670263671875,0.2301434874534607,-0.709061861038208,1.5120441913604736
1779910382805028000,12.263028076171874,0.5287038683891296,-0.9159924387931824,1.4718798398971558
1779910382821367600,12.279367431640624,0.7309002876281738,-0.917061448097229,1.5248724222183228
1779910382837696000,12.295696044921876,0.811687171459198,-0.8168795704841614,1.5540411472320557
1779910382854028800,12.31202880859375,0.8232936263084412,-0.8810204267501831,1.447292447090149
1779910382870360800,12.32836083984375,0.6831000447273254,-1.095739483833313,1.2246321439743042
1779910382886693400,12.344693359375,0.3520110845565796,-1.5344934463500977,1.0963504314422607
1779910382903025200,12.361025146484375,-0.01038470957428217,-1.9813414812088013,1.136056661605835
1779910382919358200,12.377358154296875,-0.3527746796607971,-1.8730655908584595,1.269836187362671
1779910382935689700,12.393689697265625,-0.6863071322441101,-1.1684324741363525,1.3267992734909058
1779910382952019500,12.41001953125,-0.7631233930587769,-0.5426010489463806,1.386358618736267
1779910382984685000,12.44268505859375,-0.6485861539840698,-0.09575312584638596,1.4433218240737915
1779910383001011200,12.45901123046875,-0.38347065448760986,-0.285121351480484,1.3362677097320557
1779910383017347000,12.47534716796875,-0.08139779418706894,-0.42439863085746765,0.9847147464752197
1779910383033688000,12.49168798828125,0.08124507963657379,-0.3043636083602905,0.684474527835846
1779910383050016000,12.50801611328125,0.14156801998615265,-0.0981965884566307,0.517861008644104
1779910383066348300,12.524348388671875,0.11911872029304504,0.14569136500358582,0.4297437071800232
1779910383082680800,12.540680908203125,0.04138612002134323,0.2606867551803589,0.3882048726081848
1779910383098998500,12.55699853515625,-0.02519819140434265,0.1837177276611328,0.3885102868080139
1779910383115345400,12.573345458984376,0.03588833287358284,-0.06154467165470123,0.3828597962856293
1779910383131677400,12.589677490234376,0.1472185254096985,-0.24129177629947662,0.3121521472930908
1779910383148010000,12.606010009765624,0.14966198801994324,-0.15714508295059204,0.23884831368923187
1779910383164358700,12.622358642578124,0.07987063378095627,-0.012828170321881771,0.18845193088054657
1779910383180710700,12.638710693359375,0.034666601568460464,-0.15821409225463867,0.008246680721640587
1779910383197024000,12.65502392578125,0.17104226350784302,-0.5476406812667847,-0.3159700334072113
1779910383213352700,12.671352783203124,0.22968533635139465,-0.8306240439414978,-0.6858489513397217
1779910383229685000,12.68768505859375,0.18157969415187836,-0.37308594584465027,-0.9747881889343262
1779910383246001000,12.7040009765625,0.13011430203914642,0.1362229436635971,-1.2692252397537231
1779910383262332400,12.72033251953125,0.14065171778202057,0.13759739696979523,-1.6033685207366943
1779910383278669600,12.736669677734374,0.20051652193069458,-0.006872233934700489,-1.9243782758712769
1779910383294996200,12.752996337890625,0.385303258895874,-0.18845193088054657,-2.2547035217285156
1779910383311336200,12.769336181640625,0.6122397184371948,-0.1160643994808197,-2.694068431854248
1779910383327665000,12.785664794921875,0.7907650470733643,0.15836681425571442,-3.0917418003082275
1779910383343998500,12.80199853515625,0.7640396952629089,0.2793181240558624,-3.1148018836975098
1779910383360329500,12.81832958984375,0.32620203495025635,0.28619036078453064,-2.540283203125
1779910383376661000,12.834660888671875,-0.18784105777740479,0.18646661937236786,-1.6801848411560059
1779910383392995300,12.850995361328126,-0.34055736660957336,0.01863138936460018,-1.3460415601730347
1779910383409325800,12.867325927734376,-0.11453723162412643,-0.4053090810775757,-1.7212655544281006
1779910383425648600,12.883648681640626,0.40775254368782043,-0.8924741148948669,-2.3739750385284424
1779910383441995000,12.8999951171875,0.9340129494667053,-1.350012183189392,-2.7064385414123535
1779910383458323200,12.9163232421875,0.9108000993728638,-1.1527026891708374,-2.6532931327819824
1779910383474653400,12.9326533203125,0.5429064631462097,-0.1316414624452591,-2.521040916442871
1779910383490990000,12.948989990234375,0.1719585657119751,0.547182559967041,-2.1733057498931885
1779910383507313000,12.96531298828125,-0.09285151958465576,0.5195409059524536,-1.7426458597183228
1779910383523652400,12.98165234375,-0.13255776464939117,0.24465152621269226,-1.511891484260559
1779910383539982000,12.997982177734375,-0.08796459436416626,-0.06780604273080826,-1.4492777585983276
1779910383556337700,13.014337646484375,-0.08414668589830399,-0.18219055235385895,-1.5285375118255615
1779910383572663600,13.03066357421875,-0.07376197725534439,-0.30970868468284607,-1.6125315427780151
1779910383588992300,13.0469921875,-0.13866640627384186,-0.49144110083580017,-1.6117680072784424
1779910383605327400,13.063327392578126,-0.17272214591503143,-0.716697633266449,-1.479362964630127
1779910383621662200,13.079662109375,-0.2548835277557373,-0.8127561807632446,-1.2232576608657837
1779910383637997000,13.0959970703125,-0.3254384696483612,-0.740368664264679,-0.8723155856132507
1779910383654304800,13.1123046875,-0.3315471112728119,-0.4847215712070465,-0.4184426963329315
1779910383670643700,13.128643798828126,-0.35063666105270386,0.04566217586398125,0.05849034711718559
1779910383686975200,13.144975341796876,-0.38011088967323303,0.36193767189979553,0.38438695669174194
1779910383703305200,13.16130517578125,-0.5199990272521973,0.32940909266471863,0.6116288304328918
1779910383719643100,13.17764306640625,-0.7365507483482361,-0.0913243517279625,0.8287914395332336
1779910383735972600,13.19397265625,-0.897513747215271,-0.7635815739631653,1.2011138200759888
1779910383752321800,13.21032177734375,-0.9537133574485779,-0.9489791393280029,1.528384804725647
1779910383768647700,13.226647705078125,-1.034500241279602,0.48777589201927185,1.5833626985549927
1779910383784966000,13.2429658203125,-0.7449501752853394,1.9526307582855225,1.6085609197616577
1779910383801305300,13.259305419921875,-0.25473082065582275,0.9934195876121521,1.8017470836639404
1779910383817634000,13.275634033203126,-0.4810563921928406,0.32100969552993774,1.769829273223877
1779910383833965800,13.2919658203125,-0.6620252132415771,0.37598755955696106,1.9521726369857788
1779910383850298400,13.30829833984375,-0.697149932384491,0.760832667350769,2.1109976768493652
1779910383866627300,13.32462744140625,-0.5340489149093628,0.709061861038208,2.0413589477539062
1779910383882966500,13.340966552734375,-0.1134682223200798,0.7298312783241272,1.8321375846862793
1779910383899296000,13.3572958984375,0.3793473243713379,0.7916813492774963,1.735010027885437
1779910383915627800,13.373627685546875,0.8408560156822205,1.0216721296310425,1.9274325370788574
1779910383931960300,13.389960205078125,0.9784533977508545,0.9582948684692383,2.1850650310516357
1779910383948292400,13.406292236328126,0.7357872128486633,0.5558874011039734,2.2272145748138428
1779910383964628500,13.42262841796875,0.6166684627532959,0.04245513305068016,1.9926424026489258
1779910383980962000,13.438962158203125,0.42730024456977844,-0.34834590554237366,1.7771596908569336
1779910383997303300,13.45530322265625,0.13377949595451355,-0.34605515003204346,1.6578882932662964
1779910384013630500,13.47163037109375,-0.16325373947620392,-0.29184088110923767,1.627497673034668
1779910384029955000,13.487955078125,-0.40973785519599915,-0.31932979822158813,1.6910277605056763
1779910384046285800,13.504285888671875,-0.5342016816139221,-0.42348232865333557,1.8000671863555908
1779910384062618600,13.52061865234375,-0.5636758804321289,-0.5413793325424194,1.7597500085830688
1779910384078957000,13.53695703125,-0.40591996908187866,-0.6470590233802795,1.6450600624084473
1779910384095283200,13.553283203125,-0.30925053358078003,-0.8090910315513611,1.4469870328903198
1779910384111615000,13.569614990234374,-0.35964691638946533,-0.9297369122505188,1.2541064023971558
1779910384127947800,13.58594775390625,-0.38835757970809937,-0.8681922554969788,1.0363328456878662
1779910384144276000,13.60227587890625,-0.3764457106590271,-0.5966626405715942,0.9744827747344971
1779910384160630500,13.618630615234375,-0.2834414839744568,-0.22479841113090515,1.0661125183105469
1779910384176941800,13.63494189453125,-0.1310305893421173,0.25961771607398987,0.9721920490264893
1779910384193291000,13.651291015625,-0.013133603148162365,0.5798638463020325,0.7021896243095398
1779910384209622800,13.667622802734375,0.055894169956445694,0.6777549982070923,0.4486805200576782
1779910384225955300,13.683955322265625,0.0656680166721344,0.6621779203414917,0.40622538328170776
1779910384242257000,13.7002568359375,0.0913243517279625,0.5890268087387085,0.45723262429237366
1779910384258606300,13.7166064453125,0.1033889427781105,0.36102136969566345,0.4651738703250885
1779910384274935800,13.732935791015626,0.13744467496871948,0.036041051149368286,0.5461135506629944
1779910384291273200,13.749273193359375,0.2701551616191864,-0.3335324227809906,0.7489207983016968
1779910384307602400,13.7656025390625,0.3436116874217987,-0.3170390725135803,1.0160216093063354
1779910384323916300,13.781916259765625,0.20005837082862854,-0.04260785132646561,1.2353222370147705
1779910384340244700,13.79824462890625,-0.09636399149894714,0.02672535367310047,1.2110403776168823
1779910384356600000,13.81460009765625,-0.29367345571517944,-0.1560760736465454,0.9489791393280029
1779910384372926500,13.830926513671875,-0.17821992933750153,-0.2912299931049347,0.6499606370925903
1779910384389257500,13.847257568359375,-0.13118331134319305,-0.3000875413417816,0.2719877362251282
1779910384405586700,13.863586669921874,-0.07162395119667053,-0.15775595605373383,-0.30512720346450806
1779910384421929500,13.879929443359375,-0.014813481830060482,-0.023060163483023643,-0.9466884136199951
1779910384438257700,13.896257568359376,0.10812314599752426,-0.2454151064157486,-1.4700472354888916
1779910384454597400,13.912597412109376,0.29138273000717163,-0.5960517525672913,-1.9135353565216064
1779910384470925800,13.92892578125,0.5360342264175415,-0.6356052756309509,-2.420095443725586
1779910384487245800,13.945245849609375,0.7547240257263184,-0.17898350954055786,-3.031724214553833
1779910384503578400,13.961578369140625,0.9337075352668762,0.3124575614929199,-3.687182664871216
1779910384519923000,13.9779228515625,0.993114173412323,0.6553056836128235,-4.146400451660156
1779910384536270800,13.994270751953126,0.8187121152877808,1.030071496963501,-3.983757734298706
1779910384552603600,14.010603759765624,0.4392121136188507,1.4089607000350952,-2.825098991394043
1779910384568933400,14.026933349609376,0.14996741712093353,1.1884382963180542,-1.5853480100631714
1779910384585249000,14.0432490234375,-0.20616702735424042,0.8045095205307007,-1.209971308708191
1779910384601581000,14.0595810546875,-0.4977024495601654,0.47280970215797424,-1.6818647384643555
1779910384617920300,14.075920166015624,-0.31871894001960754,-0.40591996908187866,-2.372600555419922
1779910384634234000,14.092234130859374,0.09804387390613556,-1.4275920391082764,-3.082426071166992
1779910384650572000,14.108572021484376,0.3651446998119354,-1.7508925199508667,-3.5940256118774414
1779910384666913300,14.124913330078124,0.38240164518356323,-1.2961033582687378,-3.679241418838501
1779910384683246300,14.141246337890625,0.19944749772548676,-0.5309945940971375,-3.4095444679260254
1779910384699559200,14.15755908203125,0.0403171069920063,0.10064005106687546,-2.9993484020233154
1779910384715898400,14.1738984375,-0.18295414745807648,0.39736783504486084,-2.5749497413635254
1779910384732246000,14.19024609375,-0.37079519033432007,0.26740625500679016,-2.2708916664123535
1779910384748575200,14.2065751953125,-0.38728857040405273,0.10461067408323288,-2.043344259262085
1779910384764909800,14.222909912109374,-0.3306308090686798,0.0029016099870204926,-1.7565430402755737
1779910384781237200,14.2392373046875,-0.25564709305763245,-0.24434609711170197,-1.3833043575286865
1779910384797583400,14.255583251953125,-0.2015855312347412,-0.5259549617767334,-0.8810204267501831
1779910384813906000,14.271906005859375,-0.19868391752243042,-0.48487427830696106,-0.3966042697429657
1779910384830236400,14.288236328125,-0.1488984078168869,-0.144622340798378,0.039706241339445114
1779910384846569000,14.30456884765625,-0.13820825517177582,0.021991148591041565,0.3686571717262268
1779910384862901000,14.32090087890625,-0.23121249675750732,-0.09254608303308487,0.7782423496246338
1779910384879234000,14.337234130859375,-0.4662429094314575,-0.21059578657150269,1.300837516784668
1779910384895565600,14.353565673828125,-0.7531968355178833,-0.13469578325748444,1.8674150705337524
1779910384911898400,14.3698984375,-0.9346238374710083,0.15515977144241333,2.4605650901794434
1779910384928230100,14.386230224609376,-0.8362745046615601,1.1302534341812134,2.5059218406677246
1779910384944566800,14.40256689453125,-0.5288565754890442,2.154827117919922,1.7534886598587036
1779910384960908800,14.41890869140625,0.14676037430763245,0.8643743395805359,1.4758504629135132
1779910384977228000,14.43522802734375,0.004581489134579897,0.4248567819595337,2.2434027194976807
1779910384993557000,14.451556884765624,-0.4014911949634552,0.9697485566139221,2.7601945400238037
1779910385009905700,14.46790576171875,-0.5914703011512756,1.6128369569778442,3.1586315631866455
1779910385026221000,14.484220947265625,-0.5639813542366028,1.867262363433838,2.9549078941345215
1779910385042556700,14.500556640625,-0.24724771082401276,1.5526667833328247,2.705369472503662
1779910385058888700,14.516888671875,0.16325373947620392,1.1308642625808716,2.470644474029541
1779910385075209700,14.533209716796875,0.36621370911598206,0.9720393419265747,2.403602123260498
1779910385091553300,14.54955322265625,0.6769914031028748,1.2522737979888916,2.4364359378814697
1779910385107885800,14.5658857421875,1.028544306755066,1.6139060258865356,2.3186917304992676
1779910385124234800,14.58223486328125,1.094059705734253,1.4008667469024658,1.8839083909988403
1779910385140552400,14.598552490234376,1.123533844947815,0.46547931432724,1.468061923980713
1779910385156896300,14.614896240234375,1.0642799139022827,-0.31520646810531616,1.2861768007278442
1779910385173197000,14.631197021484375,0.8381071090698242,-0.4642575979232788,1.2820534706115723
1779910385189533700,14.64753369140625,0.4688390791416168,-0.28817567229270935,1.2652546167373657
1779910385205867000,14.663866943359375,0.03084869496524334,-0.0555887371301651,1.2728904485702515
1779910385222200300,14.680200439453126,-0.2880229651927948,0.031001411378383636,1.3584115505218506
1779910385238536400,14.696536376953125,-0.22800545394420624,-0.15241087973117828,1.4651602506637573
1779910385254863400,14.71286328125,-0.03375030308961868,-0.5473352670669556,1.245248794555664
1779910385271198500,14.729198486328125,-0.05207626149058342,-0.9796751141548157,0.8300131559371948
1779910385287529500,14.745529541015625,-0.012828170321881771,-1.1284208297729492,0.512210488319397
1779910385303860700,14.76186083984375,-0.04703662544488907,-1.06657075881958,0.37369680404663086
1779910385320193300,14.778193359375,-0.16371189057826996,-0.96883225440979,0.3888157308101654
1779910385336525600,14.794525634765625,-0.1820378452539444,-0.6919575929641724,0.4300491213798523
1779910385352857600,14.810857666015625,-0.004734205547720194,-0.37369680404663086,0.2822197377681732
1779910385369191400,14.82719140625,0.2402227520942688,-0.08048149943351746,-0.13301590085029602
1779910385385521700,14.843521728515626,0.2906191349029541,0.055283304303884506,-0.3530801236629486
1779910385401860000,14.859860107421875,0.18081611394882202,0.18020524084568024,-0.14156801998615265
1779910385418187800,14.876187744140625,0.02672535367310047,0.6855435371398926,0.3052799105644226
1779910385434535700,14.89253564453125,-0.05497787147760391,0.9524916410446167,0.7043276429176331
1779910385450863900,14.90886376953125,-0.007177666760981083,0.35552358627319336,0.8593347072601318
1779910385467196700,14.92519677734375,0.13530665636062622,-0.4167627990245819,0.8197811841964722
1779910385483528400,14.941528564453124,0.36071592569351196,-0.64217209815979,0.8585711121559143
1779910385499858200,14.957858154296876,0.47250425815582275,-0.5627595782279968,1.0051788091659546
1779910385516196400,14.9741962890625,0.3378084897994995,-0.4075998365879059,1.1640037298202515
1779910385532527400,14.99052734375,0.16783522069454193,-0.4225660264492035,1.098183035850525
1779910385548856300,15.006856201171875,0.04688390716910362,-0.5626068711280823,0.7814493775367737
1779910385565190400,15.0231904296875,0.04703662544488907,-0.5387831330299377,0.3497203588485718
1779910385581522200,15.039522216796875,-0.01924225501716137,-0.2672535479068756,-0.17852537333965302
1779910385597853400,15.055853515625,-0.10705413669347763,0.1791362315416336,-0.6382014751434326
1779910385614187500,15.0721875,-0.18387043476104736,0.44593164324760437,-0.9265298843383789
1779910385630519800,15.088519775390624,-0.11102475970983505,0.38927388191223145,-1.1241447925567627
1779910385646851300,15.104851318359374,0.08949175477027893,-0.14324790239334106,-1.4126259088516235
1779910385663184400,15.121184326171875,0.3196352422237396,-1.0351111888885498,-2.0028743743896484
1779910385679513000,15.13751318359375,0.6598871946334839,-1.3003793954849243,-2.8961122035980225
1779910385695852300,15.153852294921874,0.8984300494194031,-0.1362229436635971,-3.5793650150299072
1779910385712198000,15.170197998046875,0.811687171459198,1.257924199104309,-3.7559049129486084
1779910385728527400,15.18652734375,0.5962044596672058,1.485166072845459,-3.4381022453308105
1779910385744839200,15.202839111328124,0.365755558013916,0.7692320346832275,-2.8987083435058594
1779910385761181000,15.219180908203125,0.25473082065582275,-0.0913243517279625,-2.4248294830322266
1779910385777510000,15.235510009765624,0.1547016203403473,-0.6052147150039673,-2.2432498931884766
1779910385793843000,15.251843017578125,0.013897184282541275,-0.8596401214599609,-2.3660337924957275
1779910385810174700,15.2681748046875,0.027947084978222847,-0.7386888265609741,-2.895195722579956
1779910385826504200,15.284504150390624,0.2587014436721802,-0.3240640163421631,-3.3599116802215576
1779910385842839000,15.300839111328125,0.3410155177116394,-0.3546072840690613,-3.430619239807129
1779910385859173400,15.31717333984375,0.21349740028381348,-0.46639561653137207,-3.245985269546509
1779910385875503600,15.333503662109376,0.018936822190880775,-0.3572034537792206,-3.0140092372894287
1779910385891836400,15.34983642578125,0.09453139454126358,-0.5305364727973938,-2.7449228763580322
1779910385908168400,15.36616845703125,0.21090123057365417,-0.6317873597145081,-2.4550673961639404
1779910385924504300,15.38250439453125,0.2154827117919922,-0.6650795340538025,-2.263713836669922
1779910385940846600,15.3988466796875,0.18967366218566895,-0.6304129362106323,-2.0306687355041504
1779910385957179400,15.415179443359374,0.0936150997877121,-0.584139883518219,-1.6925548315048218
1779910385973485600,15.431485595703125,-0.03375030308961868,-0.7469354867935181,-1.2924381494522095
1779910385989844700,15.4478447265625,-0.17989981174468994,-0.8810204267501831,-0.7912232279777527
1779910386006158600,15.46415869140625,-0.2817615866661072,-0.7689266204833984,-0.26022860407829285
1779910386022495200,15.4804951171875,-0.337044894695282,-0.48945578932762146,0.19883663952350616
1779910386038827000,15.496826904296874,-0.34834590554237366,-0.3052799105644226,0.5088507533073425
1779910386055159600,15.51315966796875,-0.4726569950580597,-0.2073887437582016,0.7174612283706665
1779910386071491000,15.529490966796875,-0.7391469478607178,-0.18295414745807648,0.8631525635719299
1779910386087824400,15.545824462890625,-1.0742065906524658,-0.29184088110923767,1.3529138565063477
1779910386104173000,15.562173095703125,-1.2834278345108032,-0.18219055235385895,2.2154555320739746
1779910386120501800,15.578501708984374,-1.1705704927444458,0.9277516007423401,2.183079719543457
1779910386136842000,15.594842041015625,-0.6085745096206665,1.5920675992965698,1.6123788356781006
1779910386153166800,15.611166748046875,0.09315694868564606,0.11453723162412643,1.3578007221221924
1779910386169495000,15.6274951171875,-0.34895676374435425,0.9250026941299438,2.1710150241851807
1779910386185835800,15.643835693359375,-0.6276640295982361,1.18660569190979,2.4970643520355225
1779910386202146300,15.660146240234376,-0.9326385259628296,1.4465289115905762,2.590373992919922
1779910386218482700,15.676482666015625,-0.9318749308586121,1.5729780197143555,2.607936382293701
1779910386234811400,15.692811279296874,-0.5603161454200745,0.9790642857551575,2.2127065658569336
1779910386251148000,15.70914794921875,0.052228979766368866,0.3908010423183441,1.7815884351730347
1779910386267478500,15.725478515625,0.6443101167678833,0.46547931432724,1.7076737880706787
1779910386283812400,15.741812255859376,0.9886853694915771,0.31932979822158813,1.7707456350326538
1779910386300130600,15.758130615234375,1.0644327402114868,-0.1973094791173935,1.705383062362671
1779910386316476400,15.774476318359374,0.9231700897216797,-0.9149234294891357,1.5010485649108887
1779910386332808200,15.79080810546875,0.5340489149093628,-1.422552466392517,1.3193162679672241
1779910386349136400,15.807136474609376,-0.22739458084106445,-1.419498085975647,1.4593570232391357
1779910386365477400,15.823477294921876,-0.7483099102973938,-1.161102056503296,1.818698525428772
1779910386381792800,15.839792724609374,-0.7994698882102966,-0.6902777552604675,1.9984456300735474
1779910386398124500,15.85612451171875,-0.6586654782295227,-0.32070425152778625,1.8293887376785278
1779910386414470400,15.872470458984376,-0.5132794976234436,-0.24037547409534454,1.592678427696228
1779910386430800400,15.88880029296875,-0.4973970353603363,-0.5209153294563293,1.5425875186920166
1779910386447136800,15.90513671875,-0.5293147563934326,-0.5676465034484863,1.4213306903839111
1779910386463466800,15.921466796875,-0.5413793325424194,-0.5830708742141724,1.268614411354065
1779910386479799800,15.9377998046875,-0.41630467772483826,-0.7211264371871948,1.1053606271743774
1779910386496144600,15.95414453125,-0.22143864631652832,-0.8249735236167908,0.9095783233642578
1779910386512464600,15.970464599609375,-0.08659014850854874,-0.5262604355812073,0.6644686460494995
1779910386528797700,15.986797607421876,-0.0780380368232727,0.007788531947880983,0.4738787114620209
1779910386545138400,16.003138427734374,-0.10476338863372803,0.3068070709705353,0.2921462953090668
1779910386561474800,16.019474853515625,-0.0708603709936142,0.18646661937236786,0.13469578325748444
1779910386577806600,16.035806640625,-0.007788531947880983,-0.051312681287527084,0.030543262138962746
1779910386594118700,16.05211865234375,0.07269296050071716,-0.004123340360820293,-0.01970040425658226
1779910386610458000,16.0684580078125,0.13316862285137177,0.5007568001747131,0.1033889427781105
1779910386626779000,16.08477880859375,0.1313360333442688,0.7383833527565002,0.3449861407279968
1779910386643122200,16.1011220703125,0.21868975460529327,0.5108360648155212,0.5106833577156067
1779910386659454500,16.117454345703123,0.37888917326927185,-0.20555615425109863,0.6327036619186401
1779910386675787300,16.133787353515626,0.45921793580055237,-0.32788193225860596,0.8571966290473938
1779910386692118800,16.150118896484376,0.43905940651893616,0.26313021779060364,1.0500773191452026
1779910386708451800,16.166451904296874,0.3289509415626526,0.47678032517433167,1.0349584817886353
1779910386724783600,16.18278369140625,0.24434609711170197,0.07284568250179291,0.8694139719009399
1779910386741134300,16.19913427734375,0.18051068484783173,-0.3455969989299774,0.7930558323860168
1779910386757455000,16.215455078125,0.10965031385421753,-0.3956879675388336,0.6939429044723511
1779910386773780700,16.23178076171875,0.09605856239795685,-0.3390302062034607,0.38835757970809937
1779910386790112800,16.24811279296875,0.10797043144702911,-0.021991148591041565,-0.07742717117071152
1779910386806445600,16.264445556640624,0.2770273983478546,0.15531249344348907,-0.6382014751434326
1779910386822777600,16.280777587890626,0.46211954951286316,-0.21792617440223694,-1.1215485334396362
1779910386839097300,16.297097412109373,0.5937610268592834,-0.7305948138237,-1.5531249046325684
1779910386855442000,16.31344189453125,0.5966626405715942,-1.0432051420211792,-2.045940399169922
1779910386871774500,16.3297744140625,0.4590652287006378,-1.1800389289855957,-2.56868839263916
1779910386888106800,16.346106689453126,0.19013181328773499,-1.0094548463821411,-3.0831897258758545
1779910386904439600,16.362439453125,-0.197004035115242,-0.5009095072746277,-3.386331558227539
1779910386920789000,16.3787890625,-0.5175555944442749,0.0032070425804704428,-3.3757941722869873
1779910386937117400,16.395117431640625,-0.6143777370452881,0.1411098688840866,-3.062267541885376
1779910386953449200,16.41144921875,-0.5288565754890442,-0.19104810059070587,-2.5283713340759277
1779910386969782000,16.427781982421877,-0.4138612151145935,-0.6382014751434326,-1.969276785850525
1779910386986097200,16.44409716796875,-0.3695734739303589,-1.1711814403533936,-1.4624114036560059
1779910387002433300,16.460433349609374,-0.34834590554237366,-2.247831344604492,-0.8631525635719299
1779910387018755300,16.47675537109375,-0.25641068816185,-3.1748194694519043,-0.41493022441864014
1779910387035093000,16.493093017578126,-0.09407325088977814,-3.4133622646331787,-0.4072943925857544
1779910387051434200,16.509434326171874,-0.059864792972803116,-3.674201726913452,-1.4245377779006958
1779910387067761400,16.525761474609375,-0.2643519341945648,-3.034931182861328,-2.9804115295410156
1779910387084110600,16.542110595703125,-0.7064656615257263,-1.7017178535461426,-3.132211446762085
1779910387100440300,16.5584404296875,-1.249066710472107,-1.1617130041122437,-2.1591031551361084
1779910387116772400,16.5747724609375,-1.6394095420837402,-1.4260649681091309,-1.1508700847625732
1779910387133077200,16.5910771484375,-1.747685432434082,-1.71515691280365,-0.8229882121086121
1779910387149441500,16.607441650390626,-1.6821701526641846,-1.7354681491851807,-0.9934195876121521
1779910387165765600,16.623765625,-1.5219707489013672,-1.4993687868118286,-1.277471899986267
1779910387182089000,16.6400888671875,-1.45004141330719,-1.3930782079696655,-1.2977832555770874
1779910387198420700,16.656420654296873,-1.4358386993408203,-1.3660473823547363,-0.9865473508834839
1779910387214749400,16.67274951171875,-1.4944818019866943,-1.361007809638977,-0.5338962078094482
1779910387231088600,16.689088623046874,-1.538464069366455,-1.2826642990112305,-0.14584407210350037
1779910387247417900,16.70541796875,-1.5865697860717773,-1.2098186016082764,0.21288654208183289
1779910387263750100,16.721750244140626,-1.5668693780899048,-1.1508700847625732,0.5925393104553223
1779910387280081700,16.73808154296875,-1.4185818433761597,-1.15178644657135,0.9363036751747131
1779910387296401700,16.754401611328124,-1.1572842597961426,-1.1997393369674683,1.2770137786865234
1779910387312746500,16.77074658203125,-0.8344419002532959,-1.2377656698226929,1.5990924835205078
1779910387329063200,16.787063232421875,-0.5166392922401428,-1.22279953956604,1.831221342086792
1779910387345414400,16.803414306640626,-0.12996158003807068,-1.1734721660614014,1.9530888795852661
1779910387361744100,16.819744140625,0.2710714638233185,-1.1136072874069214,1.9077321290969849
1779910387378075600,16.83607568359375,0.4964807331562042,-1.0809260606765747,1.415374755859375
1779910387394408400,16.852408447265624,0.21823160350322723,-2.048689365386963,-0.19853121042251587
1779910387410741200,16.8687412109375,-0.12446379661560059,-3.6187658309936523,-1.9624046087265015
1779910387427072300,16.885072265625,-0.5797111392021179,-3.888920783996582,-2.082592248916626
1779910387443404300,16.901404296875,-0.9912815690040588,-2.2632558345794678,-1.345583438873291
1779910387459737900,16.91773779296875,-1.4805846214294434,-0.2246456891298294,-0.5684100985527039
1779910387476086300,16.934086181640627,-1.881464958190918,0.7107416987419128,0.14645494520664215
1779910387492409600,16.95040966796875,-1.2797627449035645,0.475253164768219,0.13469578325748444
1779910387508746200,16.966746337890626,-0.6821837425231934,0.8996517658233643,-0.5461135506629944
1779910387525076500,16.983076416015624,-0.4801400899887085,0.4118759036064148,-0.6609562039375305
1779910387541416400,16.99941650390625,-0.3550654351711273,-1.2142473459243774,-0.508698046207428
1779910387557741300,17.0157412109375,0.10033461451530457,-4.045913219451904,-0.44516804814338684
1779910387574063900,17.03206396484375,0.6516404747962952,-4.388914108276367,0.04642575979232788
1779910387590396200,17.048396240234375,0.8310821652412415,-2.629316806793213,0.5694791078567505
1779910387606731000,17.06473095703125,1.1331549882888794,-1.423926830291748,0.6812674403190613
1779910387623057700,17.0810576171875,0.15286903083324432,-2.3379340171813965,0.05726861581206322
1779910387639378700,17.097378662109374,-0.9443976879119873,-2.6844472885131836,0.4262312352657318
1779910387655725600,17.1137255859375,-1.1462886333465576,-3.1511483192443848,0.9387471675872803
1779910387672074200,17.13007421875,-0.9692904353141785,-3.2093331813812256,0.8300131559371948
1779910387688403700,17.14640380859375,-1.330159068107605,-2.5896105766296387,0.7391469478607178
1779910387704731600,17.162731689453125,-1.4072808027267456,-1.659262776374817,1.051146388053894
1779910387721055500,17.179055419921873,-1.2542591094970703,-1.0172433853149414,1.4582880735397339
1779910387737396500,17.195396484375,-0.9005680680274963,-1.3883439302444458,1.5676329135894775
1779910387753719000,17.211718994140625,-0.5812382698059082,-2.5781567096710205,1.4538593292236328
1779910387770050800,17.22805078125,-0.5138903856277466,-3.1830661296844482,1.1537717580795288
1779910387786384000,17.2443837890625,-0.33735033869743347,-2.545780897140503,0.8535314798355103
1779910387802716000,17.2607158203125,-0.20295998454093933,-1.4972307682037354,0.5774203538894653
1779910387819035400,17.277035400390623,-0.16630806028842926,-0.9556986689567566,0.3677408695220947
1779910387835380200,17.293380126953124,-0.1716531366109848,-1.1210904121398926,0.2974913716316223
1779910387851712800,17.309712646484375,-0.11453723162412643,-1.247844934463501,0.2788599729537964
1779910387868031700,17.32603173828125,-0.06322455406188965,-1.035416603088379,0.29917123913764954
1779910387884377600,17.342377685546875,-0.05772676691412926,-0.7095199823379517,0.3016147017478943
1779910387900709600,17.358709716796874,-0.0630718395113945,-0.53328537940979,0.270766019821167
1779910387917045500,17.37504541015625,-0.061391957104206085,-0.5057964324951172,0.2223549485206604
1779910387933360400,17.3913603515625,-0.126143679022789,-0.5803219676017761,0.21868975460529327
1779910387949710600,17.407710693359373,-0.21670444309711456,-0.669355571269989,0.2788599729537964
1779910387966035200,17.42403515625,-0.2733621895313263,-0.6349944472312927,0.35323283076286316
1779910387982371600,17.44037158203125,-0.2574796974658966,-0.5401576161384583,0.4688390791416168
1779910387998699800,17.45669970703125,-0.1774563491344452,-0.4063780903816223,0.6470590233802795
1779910388015036200,17.4730361328125,-0.042760565876960754,-0.37720927596092224,0.7841982841491699
1779910388031357700,17.489357666015625,0.07895433157682419,-0.4778493344783783,0.7932085394859314
1779910388047700500,17.505700439453125,0.12034045159816742,-0.44623705744743347,0.8202393054962158
1779910388064044300,17.522044189453126,0.16019940376281738,-0.2454151064157486,0.8982773423194885
1779910388080383000,17.538383056640626,0.1768454909324646,-0.002138028386980295,0.9721920490264893
1779910388096710700,17.554710693359375,0.15424346923828125,0.22678372263908386,1.1065824031829834
1779910388113043200,17.571043212890626,0.13026700913906097,0.3962988257408142,1.2027937173843384
1779910388129369000,17.587369140625,0.2177734673023224,0.3836233615875244,1.3069461584091187
1779910388145682000,17.603681884765624,0.4294382631778717,-0.3199406862258911,1.417970895767212
1779910388162029300,17.620029296875,0.5186246037483215,-1.1676689386367798,1.2803735733032227
1779910388178360000,17.636360107421876,0.4138612151145935,-1.2712105512619019,0.8016079068183899
1779910388194682400,17.652682373046876,0.33948835730552673,-1.282817006111145,0.0429132841527462
1779910388211010800,17.6690107421875,0.3162754774093628,-1.411251425743103,-0.8197811841964722
1779910388227348000,17.685347900390624,0.1898263692855835,-1.6797267198562622,-1.6088663339614868
1779910388243679000,17.701678955078126,0.03649919852614403,-1.7116444110870361,-2.3266329765319824
1779910388260008200,17.71800830078125,-0.08170322328805923,-1.442100167274475,-2.933833122253418
1779910388276355800,17.73435595703125,-0.18005253374576569,-1.1163562536239624,-3.4350481033325195
1779910388292684800,17.750684814453123,-0.20922134816646576,-0.8521569967269897,-3.841120719909668
1779910388308997000,17.7669970703125,-0.08368854224681854,-0.6632469296455383,-4.052937984466553
1779910388325351200,17.78335107421875,0.1976149082183838,-0.40393465757369995,-4.017508029937744
1779910388341683700,17.79968359375,0.5283984541893005,-0.18157969415187836,-3.7867536544799805
1779910388358014000,17.816013916015624,0.6788240075111389,-0.5174028873443604,-3.313485860824585
1779910388374346800,17.8323466796875,0.6345362663269043,-1.211803913116455,-2.685516357421875
1779910388390678500,17.848678466796876,0.671493649482727,-1.596496343612671,-2.2061398029327393
1779910388407011000,17.865010986328127,0.45524731278419495,-2.1930062770843506,-1.95965576171875
1779910388423340000,17.881340087890624,-0.21930062770843506,-1.7186694145202637,-2.8938214778900146
1779910388439679200,17.89767919921875,-0.6708827614784241,-0.7180721163749695,-3.92267107963562
1779910388456007700,17.914007568359374,-0.8063421249389648,-0.8743008971214294,-4.4544291496276855
1779910388472340500,17.930340576171876,-0.8663596510887146,-1.447292447090149,-4.613559722900391
1779910388488672300,17.94667236328125,-0.9101892113685608,-1.7446311712265015,-4.3421831130981445
1779910388505017600,17.963017578125,-0.9633345007896423,-1.754252314567566,-3.757584810256958
1779910388521355000,17.97935498046875,-1.0595457553863525,-1.5125023126602173,-3.0138564109802246
1779910388537666800,17.995666748046876,-1.1678216457366943,-1.123686671257019,-2.4963009357452393
1779910388553996800,18.011996826171874,-1.2539535760879517,-0.9970847964286804,-2.272265911102295
1779910388570334200,18.028334228515625,-1.2947288751602173,-0.8770498037338257,-1.9365955591201782
1779910388586663700,18.04466357421875,-1.3025174140930176,-1.0329731702804565,-1.528384804725647
1779910388603001600,18.061001708984374,-1.228297233581543,-1.0841331481933594,-1.0236574411392212
1779910388619331000,18.0773310546875,-1.1545352935791016,-0.9344711303710938,-0.5923865437507629
1779910388635663600,18.09366357421875,-1.1856894493103027,-0.9034696817398071,-0.1362229436635971
1779910388652012500,18.110012451171876,-1.1355985403060913,-0.984867513179779,0.3488040566444397
1779910388668341500,18.126341552734374,-1.1687378883361816,-1.1198687553405762,0.8057312369346619
1779910388684667400,18.14266748046875,-1.2324206829071045,-1.055269718170166,1.2649492025375366
1779910388700988000,18.15898779296875,-1.1989758014678955,-0.6215553879737854,1.7244726419448853
1779910388717312500,18.1753125,-1.0838276147842407,0.19104810059070587,2.11893892288208
1779910388733646300,18.191646240234373,-0.8982773423194885,0.812908947467804,1.9946277141571045
1779910388749977600,18.2079775390625,-0.6745479702949524,0.792750358581543,1.2250902652740479
1779910388766310000,18.224309814453125,-0.589179515838623,0.7562511563301086,1.0749701261520386
1779910388782642000,18.240641845703124,-0.8367326855659485,2.0476202964782715,2.4071145057678223
1779910388798976300,18.256976318359374,-0.8425359129905701,0.9576839804649353,2.4941627979278564
1779910388815307800,18.273307861328124,-0.806647539138794,0.569631814956665,2.5109615325927734
1779910388831640300,18.289640380859375,-0.868803083896637,0.4605923891067505,2.2846360206604004
1779910388847970800,18.305970703125,-0.6579018831253052,0.23747386038303375,1.9866864681243896
1779910388864303000,18.32230322265625,-0.1774563491344452,0.2168571650981903,1.7224873304367065
1779910388880634600,18.338634521484376,0.48517972230911255,0.3988949954509735,1.657124638557434
1779910388896967200,18.35496728515625,1.246165156364441,0.7043276429176331,1.9211711883544922
1779910388913302500,18.371302490234374,1.6843081712722778,0.7596109509468079,2.2518019676208496
1779910388929634300,18.38763427734375,1.5180001258850098,0.4369213581085205,2.0280725955963135
1779910388945963800,18.4039638671875,1.0812314748764038,-0.35705074667930603,1.625817894935608
1779910388962297300,18.42029736328125,0.3029891550540924,-1.0713049173355103,1.2344059944152832
1779910388978631400,18.43663134765625,-0.2015855312347412,-1.4618005752563477,1.09024178981781
1779910388994963000,18.452962890625,-0.4392121136188507,-0.9024006724357605,1.3176363706588745
1779910389011294500,18.46929443359375,-0.5597052574157715,0.11071932315826416,1.6070337295532227
1779910389027629000,18.485629150390626,-0.41111230850219727,0.36132678389549255,1.5868752002716064
1779910389043959300,18.501959228515624,-0.2935207486152649,-0.10537425428628922,1.3280210494995117
1779910389060298800,18.518298828125,-0.2539672255516052,-0.7124215960502625,1.1053606271743774
1779910389076623400,18.534623291015624,-0.24785856902599335,-1.0740537643432617,1.011745572090149
1779910389092956400,18.550956298828126,-0.24037547409534454,-1.0586295127868652,0.9773843884468079
1779910389109287700,18.56728759765625,-0.2298380434513092,-0.8859072923660278,0.9111055135726929
1779910389125620200,18.5836201171875,-0.20051652193069458,-0.637132465839386,0.764955997467041
1779910389141953000,18.599953125,-0.10552696883678436,-0.3142901659011841,0.5309945940971375
1779910389158300000,18.6162998046875,-0.019853120669722557,0.011759156361222267,0.2590068578720093
1779910389174628900,18.63262890625,0.03680463135242462,0.09117163717746735,-0.011453723534941673
1779910389190961700,18.648961669921874,0.04993823543190956,0.13377949595451355,-0.21181751787662506
1779910389207282000,18.665281982421874,0.05192354694008827,0.15424346923828125,-0.30772337317466736
1779910389223626200,18.681626220703127,0.13026700913906097,0.016340645030140877,-0.3926336467266083
1779910389239942000,18.69794189453125,0.2148718535900116,-0.16172657907009125,-0.456163614988327
1779910389256292600,18.714292724609376,0.1638645976781845,-0.006719517521560192,-0.33719760179519653
1779910389272624400,18.730624267578126,0.10735956579446793,0.08307767659425735,0.059864792972803116
1779910389288942300,18.7469423828125,0.14828753471374512,-0.28756481409072876,0.43218716979026794
1779910389305287400,18.763287353515626,0.18524488806724548,-0.4538728892803192,0.7423539757728577
1779910389321617000,18.779616943359375,0.19456058740615845,-0.23839016258716583,1.1146763563156128
1779910389337955300,18.795955322265623,0.15042556822299957,-0.13866640627384186,1.4645494222640991
1779910389354281700,18.81228173828125,0.0022907445672899485,-0.275347501039505,1.6152803897857666
1779910389370620000,18.828619873046875,-0.1713477075099945,-0.2678644061088562,1.5389223098754883
1779910389386949400,18.844949462890625,-0.2646573781967163,-0.07773260027170181,1.2421945333480835
1779910389403281200,18.86128125,-0.1469130963087082,-0.009621127508580685,0.8648324608802795
1779910389419614200,18.8776142578125,-0.058795779943466187,-0.23625212907791138,0.6027712821960449
1779910389435963000,18.893962890625,-0.0910189226269722,-0.4879286289215088,0.47280970215797424
1779910389452292600,18.910292724609373,-0.09605856239795685,-0.28557950258255005,0.23426681756973267
1779910389468606700,18.926606689453124,0.040622539818286896,0.13469578325748444,-0.24388794600963593
1779910389484942300,18.9429423828125,0.16722436249256134,0.2496911734342575,-0.7628179788589478
1779910389501276200,18.959276123046877,0.35353827476501465,-0.03130684420466423,-1.126282811164856
1779910389517607700,18.975607666015627,0.5326744914054871,-0.57436603307724,-1.5697709321975708
1779910389533938700,18.991938720703125,0.5537493228912354,-0.8281805515289307,-2.199725866317749
1779910389550272500,19.0082724609375,0.5581781268119812,-0.9271407127380371,-2.783560276031494
1779910389566604000,19.02460400390625,0.55695641040802,-0.9891435503959656,-3.2308661937713623
1779910389582937000,19.04093701171875,0.5444336533546448,-0.6728680729866028,-3.433215379714966
1779910389599268900,19.057268798828126,0.4775438904762268,-0.059864792972803116,-3.33562970161438
1779910389615601700,19.0736015625,0.4544837474822998,0.1693623960018158,-2.875648260116577
1779910389631950300,19.089950439453126,0.3646865487098694,0.056810468435287476,-2.230421781539917
1779910389648263200,19.10626318359375,0.2912299931049347,0.08628471940755844,-1.882686734199524
1779910389664611800,19.12261181640625,0.10720685124397278,0.03756821155548096,-2.004859685897827
1779910389680945000,19.13894482421875,-0.2483167201280594,-0.34834590554237366,-2.6752843856811523
1779910389697272300,19.155272216796874,-0.1788308024406433,-0.9822713136672974,-3.335476875305176
1779910389713593900,19.17159375,-0.01664607785642147,-0.9213374853134155,-3.685044527053833
1779910389729924000,19.187924072265623,0.013286318629980087,-0.6855435371398926,-3.6943602561950684
1779910389746259500,19.204259521484374,0.07467827945947647,-0.6391177773475647,-3.4880404472351074
1779910389762591700,19.220591796875,0.04764748737215996,-0.560468852519989,-3.280193567276001
1779910389778911500,19.236911376953124,-0.07620543986558914,-0.46471574902534485,-2.9822440147399902
1779910389795245600,19.25324560546875,-0.06948592513799667,-0.5083925724029541,-2.648711681365967
1779910389811566800,19.26956689453125,0.027183502912521362,-0.5574145317077637,-2.3328943252563477
1779910389827907300,19.2859072265625,0.08918632566928864,-0.6244570016860962,-1.95965576171875
1779910389844244000,19.302243896484374,0.06429356336593628,-0.7548767328262329,-1.5317445993423462
1779910389860584200,19.318584228515626,-0.07238753139972687,-0.8588765263557434,-1.034500241279602
1779910389876918500,19.33491845703125,-0.23579397797584534,-0.8147414922714233,-0.5096143484115601
1779910389893250000,19.35125,-0.3058907687664032,-0.4069889783859253,-0.017562376335263252
1779910389909583000,19.3675830078125,-0.29016098380088806,0.05925392732024193,0.5925393104553223
1779910389925914600,19.38391455078125,-0.34406983852386475,0.1963931769132614,1.098488450050354
1779910389942247400,19.400247314453125,-0.5650503635406494,-0.09804387390613556,1.3704761266708374
1779910389958562300,19.416562255859375,-0.9610437750816345,-0.4535674452781677,1.8176295757293701
1779910389974913300,19.432913330078126,-1.3924673795700073,0.013591751456260681,2.2678372859954834
1779910389991242200,19.4492421875,-1.5004377365112305,1.5267049074172974,2.107637882232666
1779910390007577600,19.46557763671875,-0.9283624291419983,1.7205020189285278,1.6345226764678955
1779910390023919400,19.48191943359375,-0.03955352306365967,0.3478877544403076,1.4981470108032227
1779910390040255500,19.49825537109375,-0.182648703455925,0.22113321721553802,2.040595293045044
1779910390056579300,19.514579345703126,-0.4735732674598694,0.5833762884140015,2.2406537532806396
1779910390072927200,19.53092724609375,-0.7380779385566711,1.3726142644882202,2.366950035095215
1779910390089235200,19.547235107421876,-0.6954700946807861,1.470963478088379,2.3606886863708496
1779910390105583900,19.563583984375,-0.20952677726745605,0.8333728909492493,2.0977113246917725
1779910390121898800,19.579898681640625,0.38087448477745056,0.38117989897727966,1.7756325006484985
1779910390138235100,19.596235107421876,0.8834638595581055,0.4905247986316681,1.7673858404159546
1779910390154568700,19.612568603515626,1.0212140083312988,0.41401392221450806,1.8898643255233765
1779910390170898200,19.628898193359376,0.9621127843856812,-0.07849618047475815,1.8938349485397339
1779910390187231700,19.645231689453126,0.8106181621551514,-0.7486153841018677,1.7092009782791138
1779910390203564300,19.661564208984377,0.5221370458602905,-1.0958921909332275,1.5958853960037231
1779910390219895600,19.6778955078125,0.07101308554410934,-0.9355401396751404,1.6447546482086182
1779910390236231200,19.694231201171874,-0.35903605818748474,-0.6258314251899719,1.6925548315048218
1779910390252557600,19.7105576171875,-0.47937649488449097,-0.3854559659957886,1.7470746040344238
1779910390268893700,19.726893798828126,-0.456163614988327,-0.10873401165008545,1.7397441864013672
1779910390285225200,19.74322509765625,-0.43997567892074585,-0.05268712714314461,1.6601790189743042
1779910390301558000,19.75955810546875,-0.4375322461128235,-0.34926220774650574,1.5428929328918457
1779910390317888000,19.775887939453124,-0.41722095012664795,-0.6766859889030457,1.3356568813323975
1779910390334225000,19.792224853515624,-0.28725937008857727,-0.7316638231277466,1.016479730606079
1779910390350554400,19.808554443359377,-0.23136521875858307,-0.5526803135871887,0.7325801253318787
1779910390366887400,19.824887451171875,-0.25182920694351196,-0.2626720666885376,0.6522513628005981
1779910390383219200,19.84121923828125,-0.2249511331319809,-0.09514226019382477,0.6873761415481567
1779910390399553800,19.8575537109375,-0.12492194026708603,0.16279558837413788,0.561079740524292
1779910390415882500,19.873882568359374,-0.02825251780450344,0.3176499307155609,0.31841349601745605
1779910390432233700,19.890233642578124,0.0032070425804704428,0.25641068816185,0.0682641938328743
1779910390448562200,19.906562255859374,0.0065668015740811825,0.22739458084106445,-0.12095131725072861
1779910390464889600,19.9228896484375,0.02535090781748295,0.2909245789051056,-0.19715675711631775
1779910390481232400,19.939232421875,0.05864306539297104,0.46563202142715454,-0.2298380434513092
1779910390497556000,19.955555908203124,0.07880161702632904,0.5656611919403076,-0.3066543638706207
1779910390513878800,19.971878662109376,0.14217889308929443,0.4262312352657318,-0.26710084080696106
1779910390530210600,19.98821044921875,0.17333301901817322,0.08949175477027893,-0.03634648025035858
1779910390546542000,20.0045419921875,0.24190263450145721,-0.21013765037059784,0.24602597951889038
1779910390562875100,20.020875244140626,0.3016147017478943,-0.4340197443962097,0.531758189201355
1779910390579207000,20.03720703125,0.2912299931049347,-0.1693623960018158,0.9219483733177185
1779910390595539500,20.05353955078125,0.17776179313659668,0.4254676401615143,1.3607022762298584
1779910390611888400,20.069888427734377,0.04306599870324135,0.3549126982688904,1.5180001258850098
1779910390628217600,20.086217529296874,-0.0429132841527462,-0.27840182185173035,1.3895657062530518
1779910390644533000,20.102532958984376,-0.15241087973117828,-0.6924157738685608,1.2316570281982422
1779910390660882200,20.118882080078127,-0.327271044254303,-0.6717990636825562,1.0952813625335693
1779910390677214200,20.135214111328125,-0.5154175758361816,-0.299476683139801,0.9057604670524597
1779910390693530400,20.1515302734375,-0.3669773042201996,-0.17699819803237915,0.49525898694992065
1779910390709861400,20.167861328125,-0.005650503560900688,-0.152105450630188,0.014508049935102463
1779910390726198000,20.184197998046876,0.17806722223758698,-0.26343563199043274,-0.5387831330299377
1779910390742529500,20.200529541015626,0.3784310221672058,-0.3494149148464203,-1.2105822563171387
1779910390758862300,20.2168623046875,0.5624541640281677,-0.40973785519599915,-1.9188804626464844
1779910390775184000,20.233183837890625,0.675616979598999,-0.4259257912635803,-2.5523476600646973
1779910390791514400,20.249514404296875,0.6823364496231079,-0.23105977475643158,-3.1358766555786133
1779910390807859200,20.265859130859376,0.6734789609909058,-0.005650503560900688,-3.629150390625
1779910390824194800,20.28219482421875,0.5543602108955383,0.030695978552103043,-3.872274875640869
1779910390840507100,20.298507080078124,0.4132503271102905,-0.08827003091573715,-3.7108535766601562
1779910390856865500,20.314865478515625,0.2606867551803589,-0.0682641938328743,-3.047759532928467
1779910390873188000,20.33118798828125,-0.046731192618608475,-0.14996741712093353,-2.11893892288208
1779910390889517600,20.347517578125,-0.4378376603126526,0.02932153269648552,-1.5613715648651123
1779910390905855700,20.363855712890626,-0.8161159753799438,0.14187344908714294,-1.7014124393463135
1779910390922182400,20.380182373046875,-0.7802276611328125,-0.2643519341945648,-2.5722007751464844
1779910390938520300,20.396520263671874,-0.3430008292198181,-0.9065240025520325,-3.4996469020843506
1779910390954859500,20.412859619140626,-0.020005837082862854,-1.2383766174316406,-3.955199718475342
1779910390971178500,20.429178466796873,0.03833179548382759,-1.5031867027282715,-3.8786888122558594
