time,seconds_elapsed,z,y,x
1779998836074738400,0.152738525390625,-2.2842226028442383,-1.7518596649169922,3.7788708209991455
1779998836091072300,0.169072265625,-2.9839282035827637,-3.4570229053497314,4.942686080932617
1779998836107409000,0.185408935546875,-3.2522311210632324,-4.5175886154174805,1.3952349424362183
1779998836123740400,0.201740478515625,-4.003364086151123,-4.510527610778809,-2.1089441776275635
1779998836140094500,0.218094482421875,-6.548815727233887,-7.752678871154785,-1.2872306108474731
1779998836156423200,0.234423095703125,-8.284464836120605,-9.195940017700195,-1.443573236465454
1779998836172737800,0.25073779296875,-7.416594505310059,-10.96322250366211,-1.0138741731643677
1779998836189086700,0.267086669921875,-4.255178451538086,-13.200580596923828,0.03887319564819336
1779998836205404200,0.283404052734375,-3.148014783859253,-13.217412948608398,0.463900089263916
1779998836221753000,0.299753173828125,-4.052948474884033,-12.721029281616211,1.2417922019958496
1779998836238083000,0.3160830078125,-3.886587381362915,-12.280317306518555,2.3208627700805664
1779998836254423300,0.33242333984375,-3.3225064277648926,-11.268548965454102,2.5950212478637695
1779998836270743600,0.34874365234375,-5.317875862121582,-10.557571411132812,3.2772464752197266
1779998836287076900,0.365076904296875,-7.2861127853393555,-7.835597991943359,3.8346481323242188
1779998836303400700,0.381400634765625,-4.3150715827941895,-6.065185546875,5.272627830505371
1779998836319738400,0.39773828125,1.0484673976898193,-5.030487537384033,7.280208587646484
1779998836336086500,0.41408642578125,3.152604103088379,-1.6366586685180664,9.172731399536133
1779998836352406300,0.43040625,2.3213727474212646,2.306060314178467,10.751376152038574
1779998836368731000,0.44673095703125,2.697883129119873,6.151257514953613,12.11195182800293
1779998836385077000,0.463076904296875,5.149251461029053,8.653373718261719,13.642512321472168
1779998836401405000,0.479405029296875,7.385012626647949,10.333440780639648,15.269540786743164
1779998836417741300,0.4957412109375,7.354447364807129,9.529987335205078,16.150312423706055
1779998836434076400,0.512076416015625,5.585898399353027,7.628000259399414,16.375411987304688
1779998836450405000,0.528405029296875,4.317004203796387,7.33548641204834,16.061603546142578
1779998836466749000,0.5447490234375,3.2121012210845947,6.326338768005371,16.32768440246582
1779998836483071700,0.56107177734375,-0.5491714477539062,1.8789582252502441,14.682968139648438
1779998836499385300,0.57738525390625,2.7416229248046875,-1.2369880676269531,10.757780075073242
1779998836515721700,0.5937216796875,1.7298808097839355,-1.3015975952148438,8.880809783935547
1779998836532053800,0.6100537109375,-1.596627950668335,-3.411797523498535,6.667625427246094
1779998836548386800,0.62638671875,-5.069302558898926,-5.152179718017578,4.221217632293701
1779998836564721400,0.642721435546875,-3.596550941467285,-4.57733154296875,0.8476295471191406
1779998836581046500,0.659046630859375,-2.8388662338256836,1.8964347839355469,-5.157022953033447
1779998836597376800,0.675376708984375,-1.071976900100708,-0.28130531311035156,-2.7626256942749023
1779998836613716700,0.691716796875,-0.42754292488098145,-3.0765175819396973,-1.5617246627807617
1779998836630046200,0.708046142578125,-3.01613450050354,-1.1490163803100586,-4.138401508331299
1779998836646383000,0.724383056640625,-0.1100611686706543,3.9930408000946045,-6.343729496002197
1779998836662718200,0.74071826171875,0.25655317306518555,9.898834228515625,-8.04042911529541
1779998836679058400,0.757058349609375,-2.444096088409424,9.583353042602539,-6.528541564941406
1779998836695387600,0.7733876953125,-0.9230570793151855,6.68494987487793,-3.317075490951538
1779998836711712000,0.7897119140625,-0.6224417686462402,4.438279151916504,0.017242431640625
1779998836728062000,0.80606201171875,-1.7628247737884521,3.2472805976867676,1.816335678100586
1779998836744368000,0.8223681640625,-1.1949716806411743,3.0543408393859863,1.3267803192138672
1779998836760721000,0.838720947265625,-2.514024257659912,1.6079554557800293,-0.40695953369140625
1779998836777023700,0.855023681640625,-2.245241641998291,2.631211996078491,-1.6799912452697754
1779998836793383700,0.8713837890625,-3.3679304122924805,1.7535133361816406,-0.9067668914794922
1779998836809724000,0.887723876953125,-2.679326057434082,-0.035799503326416016,0.12855815887451172
1779998836826050000,0.904050048828125,0.3112342357635498,-1.1668791770935059,0.397796630859375
1779998836842382000,0.920382080078125,1.5983693599700928,-3.5592761039733887,3.889176845550537
1779998836858717700,0.9367177734375,1.30232572555542,-3.077580451965332,6.401819705963135
1779998836875049200,0.95304931640625,2.000196695327759,-2.9454517364501953,8.986656188964844
1779998836891380700,0.969380615234375,2.6272666454315186,-3.234764575958252,9.69482421875
1779998836907714000,0.985714111328125,1.6823503971099854,-2.918297290802002,7.362201690673828
1779998836924047600,1.002047607421875,1.1248393058776855,-5.038157939910889,4.961177825927734
1779998836940374800,1.018374755859375,2.4047253131866455,-6.09824800491333,3.0917506217956543
1779998836956711200,1.034711181640625,0.4887557029724121,-5.247023105621338,-0.14270257949829102
1779998836973042400,1.05104248046875,-1.5975970029830933,-2.104186534881592,-2.6105527877807617
1779998836989365500,1.067365478515625,0.5232765674591064,-5.38521146774292,-1.5169196128845215
1779998837005691100,1.083691162109375,-3.576223850250244,0.5221920013427734,-2.988159656524658
1779998837022017800,1.100017822265625,1.6950459480285645,3.5128567218780518,-4.2746124267578125
1779998837038359300,1.116359375,3.2368264198303223,1.6452691555023193,-2.706496238708496
1779998837054693400,1.132693359375,-0.45014023780822754,1.1116554737091064,-1.0726356506347656
1779998837071025200,1.149025146484375,-2.9254353046417236,5.636070251464844,-3.306161880493164
1779998837087359500,1.165359375,-1.7922158241271973,6.936561107635498,-6.459012031555176
1779998837103689700,1.181689697265625,-2.061058521270752,6.793508529663086,-6.803142070770264
1779998837120022500,1.1980224609375,-2.930299758911133,6.511739730834961,-5.1012067794799805
1779998837136353800,1.214353759765625,-2.9390668869018555,2.5612926483154297,-1.327751636505127
1779998837152688000,1.230688232421875,-3.16660475730896,1.2595293521881104,1.6138358116149902
1779998837169034500,1.247034423828125,-3.1802430152893066,1.7934257984161377,0.6867842674255371
1779998837185361400,1.263361328125,-0.043572425842285156,2.7269539833068848,-4.817079544067383
1779998837201709600,1.27970947265625,-4.451961517333984,-0.8884983062744141,-6.383420944213867
1779998837218031900,1.296031982421875,1.9584226608276367,-0.24759483337402344,-2.9629359245300293
1779998837234363600,1.31236376953125,7.2871294021606445,0.18720626831054688,1.2024354934692383
1779998837250698200,1.3286982421875,2.521867275238037,-0.9146451950073242,5.23753023147583
1779998837267025000,1.34502490234375,0.5641875267028809,-0.08174800872802734,5.344454288482666
1779998837283358000,1.36135791015625,1.473249912261963,0.052013397216796875,3.2682862281799316
1779998837299680500,1.377680419921875,-0.3457973003387451,-1.2130212783813477,4.298402309417725
1779998837316028200,1.394028076171875,-1.686199426651001,-3.666187286376953,4.4557976722717285
1779998837332339500,1.41033935546875,0.48513126373291016,-4.840128421783447,1.8343381881713867
1779998837348691200,1.426691162109375,-2.233581066131592,-2.7130932807922363,-3.4145917892456055
1779998837365010400,1.443010498046875,0.48802006244659424,-2.9066195487976074,-4.524163246154785
1779998837381357000,1.459357177734375,-0.5630008578300476,-3.979600429534912,-1.2242164611816406
1779998837397672000,1.475671875,-4.471841335296631,-3.1052660942077637,3.7596349716186523
1779998837414017800,1.492017822265625,-9.228379249572754,-1.3727378845214844,1.571516990661621
1779998837430357200,1.508357177734375,-3.820374011993408,-0.41881418228149414,-1.8560371398925781
1779998837446685000,1.524684814453125,-0.2199498414993286,1.384293556213379,-2.225098133087158
1779998837463015700,1.541015625,-0.6511597633361816,1.0118272304534912,0.29444026947021484
1779998837479318300,1.557318359375,0.8901699781417847,-1.5366053581237793,2.8990955352783203
1779998837495656000,1.573656005859375,0.9505231380462646,2.7128002643585205,4.004834175109863
1779998837511989500,1.589989501953125,1.870365858078003,3.398111581802368,2.575855255126953
1779998837528321300,1.6063212890625,1.4581692218780518,5.153580188751221,1.59112548828125
1779998837544656100,1.62265625,3.5089540481567383,6.45644474029541,1.9874277114868164
1779998837560985000,1.638985107421875,3.6047143936157227,5.080406665802002,4.393060207366943
1779998837577323000,1.655322998046875,1.284135341644287,2.7372710704803467,7.484038352966309
1779998837593668000,1.671668212890625,-1.170633316040039,2.7849769592285156,6.024329662322998
1779998837609995800,1.687995849609375,-1.392939567565918,3.8919482231140137,1.046966552734375
1779998837626327600,1.70432763671875,-3.653378963470459,4.401539325714111,-4.152872085571289
1779998837642650000,1.720650146484375,-2.4085636138916016,1.6898903846740723,-4.4835357666015625
1779998837658994200,1.736994140625,0.35500383377075195,-2.3009982109069824,0.21709442138671875
1779998837675315500,1.7533154296875,0.987825870513916,-5.816896438598633,4.8259596824646
1779998837691676700,1.7696767578125,1.740724802017212,-2.8422560691833496,4.461399078369141
1779998837707990800,1.78599072265625,2.6498284339904785,1.0672459602355957,2.6901144981384277
1779998837724336000,1.802336181640625,4.255725860595703,-1.3195595741271973,2.5748863220214844
1779998837740671200,1.818671142578125,2.403437614440918,-3.39695405960083,0.7041592597961426
1779998837757002800,1.835002685546875,0.12681984901428223,-1.018479824066162,0.6884660720825195
1779998837773331200,1.851331298828125,-2.037135601043701,-1.386697769165039,1.0469918251037598
1779998837789680400,1.867680419921875,-3.5568618774414062,0.015433311462402344,-0.9702339172363281
1779998837806005000,1.8840048828125,-5.0716447830200195,0.6324405670166016,5.59154748916626
1779998837822330600,1.90033056640625,-2.1572682857513428,5.973492622375488,-3.076345920562744
1779998837838663200,1.9166630859375,-2.824328660964966,6.51654052734375,-14.334293365478516
1779998837854997800,1.932997802734375,1.2093507051467896,2.933664321899414,-13.977763175964355
1779998837871327700,1.94932763671875,0.24873098731040955,-1.0884647369384766,-3.1439144611358643
1779998837887664400,1.965664306640625,-1.0581614971160889,-4.234535217285156,-0.7416279315948486
1779998837903990000,1.981989990234375,-5.566003322601318,-2.2424144744873047,-2.781566858291626
1779998837920322300,1.998322265625,-3.7065913677215576,2.704667091369629,-1.9751954078674316
1779998837936658700,2.01465869140625,-2.96897292137146,2.712766647338867,2.18569278717041
1779998837953003000,2.0310029296875,2.153850793838501,-1.4198169708251953,5.716100692749023
1779998837969317600,2.047317626953125,3.164095878601074,0.4914093017578125,9.985161781311035
1779998837985643800,2.063643798828125,0.2694705128669739,-2.0564956665039062,12.502135276794434
1779998838001975600,2.0799755859375,-2.5251519680023193,1.0584716796875,7.704744338989258
1779998838018305500,2.096305419921875,-4.221384048461914,5.395730972290039,5.080522537231445
1779998838034642000,2.112641845703125,-1.0377745628356934,8.113030433654785,5.11405086517334
1779998838050960600,2.128960693359375,-4.778702735900879,7.829755783081055,7.135451793670654
1779998838067306200,2.14530615234375,-1.1620543003082275,0.11904430389404297,6.501664161682129
1779998838091809300,2.169809326171875,1.8320393562316895,-9.32380485534668,-5.149989128112793
1779998838108139000,2.186138916015625,2.3181517124176025,-6.3214311599731445,-6.862707138061523
1779998838124459500,2.20245947265625,-0.7913540601730347,-2.6105308532714844,-10.034838676452637
1779998838140801500,2.218801513671875,-1.9834303855895996,0.6418218612670898,-10.379270553588867
1779998838157134600,2.235134521484375,0.8407814502716064,0.07841014862060547,-8.557513236999512
1779998838173471000,2.251470947265625,1.6256930828094482,-1.5788402557373047,-4.437567710876465
1779998838189816600,2.267816650390625,-0.6391200423240662,-1.699772834777832,-1.1093571186065674
1779998838206129400,2.28412939453125,-1.4380483627319336,2.303283214569092,0.763690710067749
1779998838222476300,2.300476318359375,-0.6003538370132446,4.340701580047607,0.9877482652664185
1779998838238809900,2.316809814453125,0.6253631711006165,8.554667472839355,0.4388316869735718
1779998838255143700,2.333143798828125,-1.1285557746887207,8.62581729888916,0.4465676546096802
1779998838271475500,2.349475341796875,-3.4369935989379883,8.026679992675781,0.2941935062408447
1779998838287806500,2.365806396484375,-4.246469497680664,7.312874794006348,-1.404038667678833
1779998838304141600,2.3821416015625,-1.6519192457199097,0.8196725845336914,0.10179519653320312
1779998838320453600,2.39845361328125,2.6388161182403564,-1.9061470031738281,0.9967615604400635
1779998838336803000,2.414802978515625,-5.790394306182861,2.2789859771728516,0.7682535648345947
1779998838353132800,2.4311328125,-1.8581422567367554,1.8663568496704102,0.627625584602356
1779998838369474300,2.447474365234375,2.943075180053711,-6.050863265991211,1.7381356954574585
1779998838385792800,2.463792724609375,-1.9841747283935547,-17.992952346801758,1.4203206300735474
1779998838402185700,2.480185791015625,0.5967535376548767,-16.36791229248047,-0.6725960373878479
1779998838418448400,2.496448486328125,-0.6784678101539612,-10.4081449508667,-0.7229206562042236
1779998838434808300,2.512808349609375,-0.8319064378738403,-0.9057073593139648,0.1692720353603363
1779998838451110700,2.529110595703125,-0.511588454246521,2.973552703857422,0.47362327575683594
1779998838467462400,2.54546240234375,-0.9996426105499268,3.230630874633789,0.3173188865184784
1779998838483762700,2.5617626953125,-0.6948347091674805,1.8811593055725098,-0.24104616045951843
1779998838500117500,2.578117431640625,0.7056753635406494,1.21624755859375,-0.6366890668869019
1779998838516449500,2.594449462890625,1.3867751359939575,0.8587942123413086,-0.418631374835968
1779998838532782800,2.610782958984375,1.345790982246399,1.1771717071533203,0.2732389271259308
1779998838549113600,2.627113525390625,0.7872506380081177,1.5945587158203125,0.8603103756904602
1779998838565447200,2.643447265625,0.0684739351272583,1.6448650360107422,1.5407047271728516
1779998838581785000,2.65978515625,-0.32714343070983887,1.5772600173950195,1.8437798023223877
1779998838598112000,2.676112060546875,-0.07222187519073486,1.7439546585083008,1.69620680809021
1779998838614445300,2.6924453125,0.3610880374908447,1.7229318618774414,1.568572998046875
1779998838630776300,2.7087763671875,0.5688048601150513,1.746018886566162,1.1331088542938232
1779998838647132200,2.725132080078125,0.7894940376281738,1.6791019439697266,0.42912715673446655
1779998838663436000,2.74143603515625,0.4048246741294861,1.9152493476867676,-0.46896910667419434
1779998838679794200,2.757794189453125,0.5794733166694641,2.143840789794922,-0.6011925339698792
1779998838696111600,2.774111572265625,0.889838695526123,2.651467800140381,-0.6055681109428406
1779998838712436500,2.7904365234375,1.0600146055221558,3.276646137237549,-0.5759721398353577
1779998838728775400,2.806775390625,1.2120033502578735,3.813432216644287,-0.45207202434539795
1779998838745101000,2.82310107421875,1.197296142578125,4.042591094970703,-0.19875574111938477
1779998838761419300,2.839419189453125,0.9399499297142029,3.9213924407958984,0.02236759662628174
1779998838777757700,2.8557578125,0.443491667509079,3.2770395278930664,0.38115811347961426
1779998838794090000,2.872090087890625,-0.16892892122268677,2.2582902908325195,0.6475892066955566
1779998838810422300,2.88842236328125,-0.5114942789077759,1.236175537109375,0.7393074035644531
1779998838826754600,2.904754638671875,-0.6416302919387817,0.593653678894043,0.7484372854232788
1779998838843104000,2.92110400390625,-1.0742764472961426,0.04558372497558594,0.9056254625320435
1779998838859432700,2.9374326171875,-2.105131149291992,-0.37529850006103516,1.2600197792053223
1779998838875765800,2.953765869140625,-2.5500354766845703,-0.13785934448242188,1.652535080909729
1779998838892097300,2.97009716796875,-2.7606256008148193,0.5899286270141602,1.6244215965270996
1779998838908429600,2.9864296875,-3.511469602584839,1.372549057006836,1.3645559549331665
1779998838924763100,3.00276318359375,-4.085917949676514,2.25138521194458,1.113224983215332
1779998838941099300,3.019099365234375,-3.699491500854492,3.1683692932128906,0.5856398344039917
1779998838957425400,3.03542529296875,-2.75462007522583,2.0845885276794434,-0.37199729681015015
1779998838973753600,3.051753662109375,-1.5039951801300049,-2.104757308959961,-0.3203314542770386
1779998838990093600,3.068093505859375,-0.4759824872016907,-5.691606521606445,-0.25006598234176636
1779998839006429400,3.084429443359375,-0.47395843267440796,-6.752636909484863,-1.051182746887207
1779998839022753300,3.100753173828125,-0.3589172661304474,-6.488727569580078,-1.5596312284469604
1779998839039095000,3.117094970703125,1.5207042694091797,-4.135346412658691,-1.459299921989441
1779998839055424500,3.133424560546875,1.9804621934890747,-0.899235725402832,-1.597966194152832
1779998839071742000,3.149741943359375,1.8034541606903076,-0.3242931365966797,-1.3427574634552002
1779998839088087800,3.166087890625,2.8231325149536133,-4.119379997253418,0.0010056346654891968
1779998839104419300,3.18241943359375,8.210415840148926,-6.29641056060791,2.0343165397644043
1779998839120751000,3.198751220703125,5.622443675994873,-6.359993934631348,2.8472251892089844
1779998839137101800,3.215101806640625,1.726881742477417,-2.7800378799438477,1.781111717224121
1779998839153436400,3.2314365234375,1.2036389112472534,1.6455144882202148,1.4718266725540161
1779998839169766000,3.247765869140625,-1.808810830116272,3.7788009643554688,0.3767775893211365
1779998839186092800,3.2640927734375,-5.435492038726807,5.072197914123535,-1.0940440893173218
1779998839202429700,3.2804296875,-9.438911437988281,5.623201847076416,-3.2195916175842285
1779998839218741000,3.296740966796875,-5.782756805419922,3.0626840591430664,-3.2518789768218994
1779998839235097000,3.31309716796875,-1.9673919677734375,0.3350076675415039,-2.3068556785583496
1779998839251425500,3.329425537109375,-0.0996658205986023,-1.437199592590332,-1.5363526344299316
1779998839267756300,3.34575634765625,1.114939570426941,-1.6484689712524414,-0.5785676836967468
1779998839284095000,3.362094970703125,2.7537083625793457,-0.13290119171142578,0.5766559839248657
1779998839300403000,3.37840283203125,3.7666337490081787,2.105776786804199,2.078922748565674
1779998839316746000,3.39474609375,3.2316362857818604,3.48732852935791,3.2567853927612305
1779998839333078000,3.411078125,1.6494159698486328,3.899916172027588,3.6150412559509277
1779998839349388800,3.427388916015625,1.8710918426513672,3.931020736694336,4.3644866943359375
1779998839365743900,3.443743896484375,1.7692029476165771,3.047823429107666,4.773005485534668
1779998839382081800,3.460081787109375,2.0963134765625,2.9497318267822266,5.484530448913574
1779998839398406000,3.476406005859375,0.7748494744300842,3.4879837036132812,6.039779186248779
1779998839414750200,3.492750244140625,-11.794412612915039,3.0317206382751465,5.857741355895996
1779998839431072300,3.509072265625,-14.818682670593262,0.23840045928955078,5.501893520355225
1779998839447392300,3.525392333984375,-11.392505645751953,-5.154330253601074,4.582968711853027
1779998839463736000,3.541736083984375,-2.072988986968994,-7.562370300292969,3.6537275314331055
1779998839480070000,3.55806982421875,5.708259582519531,-8.256157875061035,2.556464672088623
1779998839496402700,3.574402587890625,8.345430374145508,-8.422995567321777,0.8650448322296143
1779998839512733200,3.590733154296875,9.748659133911133,-6.764246940612793,-1.5136704444885254
1779998839529067300,3.6070673828125,6.632737159729004,-3.402024269104004,-4.229549407958984
1779998839545400000,3.623400146484375,0.10762190818786621,-1.3560981750488281,-6.563292980194092
1779998839561730600,3.63973046875,-3.600100517272949,-1.5699462890625,-7.719423294067383
1779998839578064400,3.656064453125,-1.665508508682251,-2.4957404136657715,-6.825530529022217
1779998839594382300,3.67238232421875,0.19038891792297363,-1.971628189086914,-4.202010631561279
1779998839610718700,3.68871875,0.7691335678100586,0.21618413925170898,-2.475637912750244
1779998839627062800,3.705062744140625,0.6306519508361816,1.3704686164855957,-1.8208978176116943
1779998839643389000,3.721388916015625,0.9940290451049805,2.2254834175109863,-1.6172740459442139
1779998839659716000,3.737716064453125,1.7342207431793213,2.9326915740966797,-1.8967866897583008
1779998839676048600,3.754048583984375,2.3893468379974365,3.2393813133239746,-2.121187925338745
1779998839692380000,3.7703798828125,3.00909161567688,3.327755928039551,-2.4463226795196533
1779998839708712400,3.78671240234375,2.9079360961914062,3.1842193603515625,-2.6042628288269043
1779998839725037300,3.803037353515625,2.141727924346924,2.8190431594848633,-2.074343204498291
1779998839741380900,3.819380859375,1.507393717765808,2.331261157989502,-0.8257545232772827
1779998839757717800,3.8357177734375,1.1700537204742432,1.8141508102416992,0.1930828094482422
1779998839774054700,3.8520546875,0.7373424172401428,1.0134401321411133,1.1871734857559204
1779998839790388000,3.868387939453125,-0.30600279569625854,0.3002290725708008,2.551661968231201
1779998839806720800,3.884720703125,-5.885383129119873,-0.713465690612793,3.813148021697998
1779998839823053300,3.90105322265625,-12.299975395202637,0.21053123474121094,1.2277660369873047
1779998839839384800,3.917384765625,-12.685832023620605,-0.9412240982055664,-0.5613633990287781
1779998839855722200,3.93372216796875,-10.492670059204102,-6.410196304321289,-1.4057148694992065
1779998839872049400,3.95004931640625,-3.8072643280029297,-6.20257568359375,0.23512709140777588
1779998839888395000,3.96639501953125,1.1743710041046143,-5.083532333374023,0.7763247489929199
1779998839904729600,3.9827294921875,2.9875123500823975,-2.5014944076538086,1.5596065521240234
1779998839921061400,3.999061279296875,3.471714973449707,-0.9070396423339844,1.889831304550171
1779998839937372400,4.015372314453125,4.5325846672058105,-2.4427928924560547,2.5051345825195312
1779998839953709000,4.031708984375,9.206083297729492,-5.587499618530273,4.1514058113098145
1779998839970034200,4.0480341796875,9.658196449279785,-7.5752458572387695,6.028990745544434
1779998839986377000,4.064376953125,0.9898124933242798,-7.544508934020996,3.8336825370788574
1779998840002713600,4.080713623046875,-0.27767273783683777,-3.174081802368164,1.411167860031128
1779998840019042600,4.09704248046875,-0.9145019054412842,0.5128240585327148,-0.01084589958190918
1779998840035356200,4.113356201171875,-1.2012577056884766,2.5291953086853027,-0.6448491811752319
1779998840051708000,4.1297080078125,-1.0805716514587402,3.370572090148926,-1.2044028043746948
1779998840068031200,4.14603125,-0.6388325095176697,3.3190932273864746,-1.5483211278915405
1779998840084375000,4.162375,0.12843990325927734,2.154879570007324,-1.8188893795013428
1779998840100707000,4.17870703125,0.9278343319892883,0.07497119903564453,-2.369760751724243
1779998840117037800,4.195037841796875,1.7031466960906982,-1.5425586700439453,-3.0029635429382324
1779998840133382100,4.211382080078125,2.4751694202423096,-1.6128005981445312,-3.4533560276031494
1779998840149720300,4.22772021484375,1.5398794412612915,0.5621070861816406,-3.129194498062134
1779998840166052000,4.244052001953125,1.3202953338623047,2.391014575958252,-2.167985439300537
1779998840182382000,4.260382080078125,2.2327990531921387,4.681021690368652,0.0054435133934021
1779998840198710300,4.276710205078125,0.05168271064758301,3.6202569007873535,1.698732852935791
1779998840215053000,4.293052978515625,-6.184337615966797,1.7997875213623047,3.6223349571228027
1779998840231378000,4.3093779296875,-8.546028137207031,1.3348731994628906,4.2152862548828125
1779998840247718000,4.3257177734375,-2.5029194355010986,2.4467339515686035,2.4988551139831543
1779998840264041500,4.34204150390625,-0.7878029942512512,2.4630985260009766,1.6530265808105469
1779998840280368400,4.358368408203125,-0.21680383384227753,2.5169410705566406,1.9968819618225098
1779998840296708600,4.37470849609375,2.1883127689361572,3.3361034393310547,3.054870843887329
1779998840313028000,4.391028076171875,3.2743725776672363,3.57794189453125,3.895005226135254
1779998840329374000,4.4073740234375,1.0205318927764893,2.483091354370117,3.8799784183502197
1779998840345702000,4.423701904296875,0.20249253511428833,1.7755708694458008,3.959226131439209
1779998840362046700,4.440046630859375,1.8631433248519897,2.0021581649780273,4.370715141296387
1779998840378358500,4.456358642578125,4.050825595855713,3.37172269821167,4.749334812164307
1779998840394708000,4.4727080078125,-4.145838737487793,4.189509391784668,4.073523998260498
1779998840411039000,4.4890390625,-16.90839958190918,1.4940547943115234,3.128434896469116
1779998840427372300,4.505372314453125,-12.249467849731445,-5.241837501525879,2.8947103023529053
1779998840443700200,4.5217001953125,0.867030143737793,-7.589609146118164,1.8423230648040771
1779998840460024000,4.538024169921875,10.265297889709473,-10.06784725189209,0.6167263984680176
1779998840476356400,4.5543564453125,10.846189498901367,-11.564398765563965,-1.394636631011963
1779998840492690000,4.57068994140625,3.2168216705322266,-10.27619743347168,-4.9430341720581055
1779998840509021700,4.587021728515625,-4.097867012023926,-4.118997573852539,-7.498566150665283
1779998840525354200,4.603354248046875,-1.3453011512756348,-1.3423547744750977,-6.680469512939453
1779998840541686000,4.61968603515625,2.24810528755188,-0.28603553771972656,-5.4008989334106445
1779998840558018000,4.63601806640625,2.554464817047119,0.45215797424316406,-4.628047466278076
1779998840574350600,4.6523505859375,1.8631227016448975,0.9595546722412109,-3.925422430038452
1779998840590686500,4.6686865234375,1.6244854927062988,1.1525678634643555,-2.422420024871826
1779998840607039500,4.68503955078125,1.279412031173706,1.34047269821167,-0.7497484683990479
1779998840623341000,4.701341064453125,0.7439866065979004,0.8202958106994629,0.5331764221191406
1779998840639696600,4.717696533203125,0.12054657936096191,0.4493856430053711,1.1087603569030762
1779998840656001000,4.7340009765625,-0.4736933708190918,0.7615609169006348,0.5442681312561035
1779998840672360200,4.750360107421875,-1.1527140140533447,1.7630724906921387,-0.8151485919952393
1779998840688677000,4.766677001953125,-1.0154306888580322,2.540806770324707,-1.512587547302246
1779998840705027600,4.783027587890625,0.08047318458557129,2.8766980171203613,-1.2079569101333618
1779998840721357600,4.799357666015625,1.190418004989624,3.0205087661743164,-0.600462794303894
1779998840737675300,4.81567529296875,1.8781672716140747,2.9699549674987793,-0.41470658779144287
1779998840754025000,4.83202490234375,2.339858293533325,2.7202348709106445,-0.34501683712005615
1779998840770357200,4.848357177734375,2.781243324279785,2.024176597595215,-0.24692034721374512
1779998840786687700,4.864687744140625,2.7965550422668457,0.6105184555053711,-0.33945631980895996
1779998840803002000,4.881002197265625,1.9566988945007324,-1.1684684753417969,-0.5724273324012756
1779998840819359700,4.89735986328125,-3.00780987739563,-2.447512626647949,-0.3343440890312195
1779998840835687200,4.913687255859375,-11.571948051452637,-2.559098243713379,1.3693478107452393
1779998840852024000,4.930024169921875,-12.506793975830078,-0.8575382232666016,1.8151297569274902
1779998840868336000,4.946336181640625,-9.457100868225098,-0.9429636001586914,0.903525173664093
1779998840884681000,4.962680908203125,-6.712740898132324,-3.627110481262207,-0.7723912000656128
1779998840901004800,4.9790048828125,-2.578376293182373,-2.387392997741699,-0.5463571548461914
1779998840917330700,4.99533056640625,-0.6412606835365295,1.8290276527404785,0.16738155484199524
1779998840933665300,5.011665283203125,0.701676607131958,2.939629077911377,0.7869774103164673
1779998840949999600,5.02799951171875,5.303770542144775,0.8589715957641602,2.3931798934936523
1779998840966328600,5.04432861328125,6.6007890701293945,-1.1083269119262695,4.019984722137451
1779998840982651400,5.0606513671875,3.5747129917144775,-3.078484535217285,4.252812385559082
1779998840998986800,5.07698681640625,3.464967727661133,-6.262757301330566,4.029611110687256
1779998841015320800,5.09332080078125,4.107990264892578,-8.63899040222168,3.1013646125793457
1779998841031654000,5.10965380859375,3.6996235847473145,-7.837838172912598,1.9200098514556885
1779998841047987700,5.12598779296875,2.9930310249328613,-3.44136905670166,0.4158809781074524
1779998841064318200,5.142318115234375,3.381622076034546,1.1285209655761719,-0.35295671224594116
1779998841080651500,5.158651611328125,0.5550079345703125,3.0579304695129395,-1.1653831005096436
1779998841096983600,5.174983642578125,-1.8361090421676636,3.6649560928344727,-1.8709009885787964
1779998841113328600,5.19132861328125,-4.875617027282715,3.3130998611450195,-3.081317186355591
1779998841129664000,5.2076640625,-12.004910469055176,0.7409954071044922,-5.783742427825928
1779998841145993500,5.223993408203125,-4.200767993927002,-0.911982536315918,-1.9717849493026733
1779998841162324500,5.240324462890625,0.033980488777160645,0.2732353210449219,-0.22807802259922028
1779998841178659000,5.2566591796875,0.7866774201393127,1.0378351211547852,0.9098370671272278
1779998841194993700,5.27299365234375,0.8662205338478088,1.9326958656311035,1.7293851375579834
1779998841211325200,5.2893251953125,1.2030547857284546,2.914900779724121,2.6865627765655518
1779998841227665700,5.305665771484375,0.9202494621276855,3.6221261024475098,3.4344193935394287
1779998841243987500,5.321987548828125,0.5000825524330139,4.255024433135986,3.5025267601013184
1779998841260340200,5.33834033203125,1.105578899383545,4.869479656219482,3.635265827178955
1779998841276669400,5.35466943359375,1.4385104179382324,5.655446529388428,4.5197601318359375
1779998841293003800,5.371003662109375,-1.6309049129486084,5.671131610870361,5.980896949768066
1779998841309315600,5.387315673828125,-5.727555274963379,3.487590789794922,6.58060884475708
1779998841325664800,5.403664794921875,-7.2265238761901855,-2.221925735473633,5.434412956237793
1779998841341976300,5.419976318359375,-5.5906291007995605,-9.584354400634766,2.623265266418457
1779998841358314200,5.436314208984375,-2.6156554222106934,-13.060297966003418,1.0710601806640625
1779998841374670600,5.452670654296875,0.3246326446533203,-11.045238494873047,-1.5881304740905762
1779998841390996500,5.46899658203125,2.2776236534118652,-5.651156425476074,-3.4649436473846436
1779998841407321000,5.485321044921875,4.493461608886719,-1.780374526977539,-4.285503387451172
1779998841423675400,5.50167529296875,3.465982437133789,-0.044773101806640625,-4.658163547515869
1779998841439976700,5.517976806640625,0.7037053108215332,-0.39934444427490234,-4.80418586730957
1779998841456313300,5.534313232421875,-1.6748132705688477,-1.3702392578125,-4.242690086364746
1779998841472647400,5.5506474609375,-1.6175484657287598,-1.783411979675293,-2.963376522064209
1779998841488977000,5.566976806640625,-1.1241436004638672,-1.2764091491699219,-2.015232563018799
1779998841505311700,5.583311767578125,-0.5824906826019287,-0.24785327911376953,-1.6874465942382812
1779998841521645300,5.599645263671875,-0.13457942008972168,1.0945467948913574,-2.131866216659546
1779998841537976300,5.615976318359375,0.43830347061157227,2.2331342697143555,-2.3237175941467285
1779998841554296000,5.632296142578125,0.8845255374908447,3.02675724029541,-2.1082592010498047
1779998841570642000,5.648641845703125,1.0359376668930054,3.484039306640625,-1.795965552330017
1779998841586992400,5.664992431640625,0.9256770610809326,3.5872836112976074,-1.339350938796997
1779998841603314700,5.681314697265625,0.897667407989502,3.274421215057373,-0.760565996170044
1779998841619633400,5.69763330078125,0.9526812434196472,2.683535099029541,-0.1712799072265625
1779998841635986400,5.713986328125,0.9571671485900879,2.198098659515381,0.30908751487731934
1779998841652316700,5.730316650390625,1.3403620719909668,1.6386733055114746,0.6180412769317627
1779998841668670000,5.746669921875,2.148435354232788,1.0042009353637695,0.7612593173980713
1779998841684972300,5.76297216796875,2.3588666915893555,0.2204456329345703,0.41745448112487793
1779998841701316600,5.779316650390625,-1.4979138374328613,-1.3652677536010742,0.35891664028167725
1779998841717633300,5.79563330078125,-10.873818397521973,-3.458841323852539,2.908921241760254
1779998841733982000,5.81198193359375,-9.819183349609375,-1.440582275390625,4.822529315948486
1779998841750313500,5.8283134765625,-5.779752731323242,0.9789133071899414,5.932742118835449
1779998841766644700,5.844644775390625,-2.6447949409484863,2.336365222930908,5.943325042724609
1779998841782957300,5.860957275390625,-4.295017242431641,2.3739819526672363,4.032344818115234
1779998841799318000,5.877318115234375,-4.864643096923828,-0.3103160858154297,1.360217809677124
1779998841815639800,5.893639892578125,-2.2798657417297363,-2.3192577362060547,0.9083414077758789
1779998841831973600,5.9099736328125,-0.3178040385246277,-2.9877262115478516,0.3748471736907959
1779998841848291800,5.926291748046875,0.7328087091445923,-4.035429000854492,0.10345852375030518
1779998841864647000,5.94264697265625,2.738865852355957,-6.196645736694336,-0.5247451066970825
1779998841880960800,5.958960693359375,5.125572204589844,-9.847509384155273,-1.3247594833374023
1779998841897293000,5.97529296875,9.254075050354004,-14.051210403442383,-2.9537107944488525
1779998841913639000,5.991638916015625,13.426185607910156,-11.349799156188965,-5.785383224487305
1779998841929960200,6.007960205078125,4.94833517074585,-4.436186790466309,-6.377483367919922
1779998841946297900,6.0242978515625,1.7933402061462402,-0.7808132171630859,-5.1525559425354
1779998841962612200,6.0406123046875,0.199501633644104,1.5089073181152344,-3.718878746032715
1779998841978958000,6.0569580078125,-0.3781455159187317,2.4791183471679688,-3.0822746753692627
1779998841995290000,6.0732900390625,-0.6356187462806702,2.801793098449707,-2.988063097000122
1779998842011606300,6.089606201171875,-0.13766920566558838,1.7831592559814453,-3.8874051570892334
1779998842027960600,6.105960693359375,-0.1270197629928589,0.30435848236083984,-4.904177188873291
1779998842044287500,6.12228759765625,-1.722919225692749,0.06612586975097656,-5.345599174499512
1779998842060621300,6.138621337890625,-2.229957103729248,1.255971908569336,-4.271255970001221
1779998842076965600,6.154965576171875,-1.18256676197052,2.4685678482055664,-2.96649169921875
1779998842093299200,6.17129931640625,-0.4169508218765259,3.432662010192871,-2.0667102336883545
1779998842109636900,6.187636962890625,-0.006429433822631836,4.282131671905518,-1.3566699028015137
1779998842125965600,6.203965576171875,0.1603403091430664,4.610622882843018,-0.9213844537734985
1779998842142297300,6.22029736328125,0.06876897811889648,4.369167327880859,-0.6612356305122375
1779998842158627800,6.2366279296875,0.022304296493530273,3.3475589752197266,-0.3821767568588257
1779998842174968000,6.252968017578125,0.343306303024292,1.832040786743164,0.13139712810516357
1779998842191296500,6.269296630859375,0.8445103168487549,0.18834304809570312,0.9069918990135193
1779998842207628300,6.285628173828125,1.3848373889923096,-1.2389535903930664,2.1349008083343506
1779998842223960300,6.301960205078125,1.438032865524292,-2.0719985961914062,3.1746463775634766
1779998842240294000,6.3182939453125,1.0034725666046143,-2.5268802642822266,4.026352882385254
1779998842256609800,6.33460986328125,0.29497766494750977,-2.9336185455322266,5.027135848999023
1779998842272958500,6.35095849609375,-0.08265137672424316,-2.559530258178711,5.526062965393066
1779998842289260300,6.36726025390625,-0.5873713493347168,-1.760934829711914,5.980269432067871
1779998842305624800,6.383624755859375,-0.7937963008880615,-0.6827325820922852,6.056300163269043
1779998842321956900,6.399956787109375,-1.0341179370880127,0.09598064422607422,6.036215305328369
1779998842338290200,6.416290283203125,-1.3594894409179688,0.5147085189819336,6.0747599601745605
1779998842354624300,6.432624267578125,1.3225445747375488,0.40714168548583984,5.346065521240234
1779998842370953000,6.448952880859375,-0.8024985790252686,-0.5551776885986328,4.516580104827881
1779998842387286300,6.465286376953125,-4.463489532470703,-0.2183399200439453,4.229283809661865
1779998842403622400,6.481622314453125,-3.7440502643585205,-1.4811677932739258,3.434140682220459
1779998842419950000,6.4979501953125,-0.9505219459533691,-2.985236167907715,2.469879627227783
1779998842436274200,6.514274169921875,0.004743814468383789,-4.365221977233887,2.1548619270324707
1779998842452591600,6.530591552734375,-2.549337863922119,-4.482587814331055,2.0343501567840576
1779998842468938000,6.54693798828125,-12.054396629333496,-2.510279655456543,0.023269295692443848
1779998842485269200,6.563269287109375,-18.18651008605957,0.5069808959960938,-5.2571563720703125
1779998842501604600,6.5796044921875,-6.982310771942139,-2.187384605407715,-3.5941057205200195
1779998842517919200,6.595919189453125,-1.5943704843521118,-5.640837669372559,-2.4664180278778076
1779998842534257000,6.6122568359375,1.2634586095809937,-7.690713882446289,-2.6136956214904785
1779998842550591500,6.628591552734375,6.0142436027526855,-8.46074104309082,-3.8986966609954834
1779998842566934800,6.644934814453125,7.745771408081055,-6.434433937072754,-5.92769718170166
1779998842583277600,6.661277587890625,3.6766114234924316,-1.035837173461914,-7.632381439208984
1779998842599595800,6.677595703125,-3.5657057762145996,2.4274654388427734,-7.242266654968262
1779998842615938300,6.693938232421875,-2.508538007736206,1.3178377151489258,-2.2916929721832275
1779998842632284400,6.710284423828125,1.371694803237915,1.1832809448242188,-0.3135164678096771
1779998842648610000,6.726610107421875,3.1901278495788574,1.4959182739257812,0.6382368803024292
1779998842664943600,6.742943603515625,2.716038942337036,1.778059959411621,0.771298885345459
1779998842681261000,6.759260986328125,0.8855341672897339,1.6723113059997559,0.3518582582473755
1779998842697594000,6.775593994140625,-0.197515606880188,2.046938419342041,-0.912330687046051
1779998842713958400,6.79195849609375,0.7641644477844238,2.8601722717285156,-2.2203922271728516
1779998842730274800,6.80827490234375,1.991443395614624,3.704777717590332,-3.063286542892456
1779998842746602000,6.82460205078125,2.4198107719421387,4.123172760009766,-3.5851235389709473
1779998842762943500,6.840943603515625,2.176537275314331,4.286811828613281,-3.9786319732666016
1779998842779273200,6.857273193359375,1.8721601963043213,4.553832054138184,-4.09126615524292
1779998842795604200,6.873604248046875,1.7476861476898193,5.119882106781006,-3.7560460567474365
1779998842811921700,6.889921630859375,1.4034287929534912,5.6612091064453125,-3.3068368434906006
1779998842828269800,6.906269775390625,0.5807991027832031,5.634860992431641,-2.906797170639038
1779998842844603600,6.922603759765625,-1.0040514469146729,4.876794338226318,-2.295314073562622
1779998842860935200,6.93893505859375,-2.955335855484009,3.007202625274658,-0.4547460675239563
1779998842877257500,6.955257568359375,-1.5884225368499756,-1.9243297576904297,2.9148130416870117
1779998842893589800,6.97158984375,2.829453706741333,-6.258827209472656,4.921928882598877
1779998842909923000,6.987923095703125,3.4473843574523926,-6.8003950119018555,6.718937397003174
1779998842926254000,7.004254150390625,5.5069804191589355,-7.125542640686035,8.244694709777832
1779998842942580700,7.020580810546875,8.414156913757324,-9.987123489379883,10.666265487670898
1779998842958919700,7.036919677734375,-1.4993484020233154,-10.462250709533691,8.901162147521973
1779998842975250400,7.05325048828125,-41.95108413696289,-6.0275678634643555,2.0198974609375
1779998842991584000,7.069583984375,-11.793525695800781,-1.4274673461914062,-2.6154630184173584
1779998843007912700,7.08591259765625,0.9078279733657837,-0.23497295379638672,-2.443554401397705
1779998843024251400,7.10225146484375,2.4410414695739746,1.8821072578430176,-2.5624589920043945
1779998843040583000,7.1185830078125,2.6006081104278564,3.3501148223876953,-2.552981376647949
1779998843056928000,7.134927978515625,2.618043899536133,3.446139335632324,-2.513589382171631
1779998843073256400,7.15125634765625,3.7951793670654297,2.1357064247131348,-2.72605299949646
1779998843089591300,7.16759130859375,5.072248935699463,-0.4312400817871094,-2.961045026779175
1779998843105930500,7.183930419921875,5.666461944580078,-2.0825252532958984,-3.0779576301574707
1779998843122256600,7.200256591796875,4.191368579864502,-1.153207778930664,-2.4159865379333496
1779998843138589200,7.216589111328125,2.092759132385254,0.7433042526245117,-1.01767897605896
1779998843154924000,7.232924072265625,1.1221619844436646,1.8338451385498047,0.49470028281211853
1779998843171255000,7.249255126953125,1.0507382154464722,2.2857542037963867,1.5738216638565063
1779998843187587300,7.26558740234375,1.6043180227279663,2.4329566955566406,2.1406540870666504
1779998843203922400,7.28192236328125,8.441045761108398,2.9069952964782715,3.2958433628082275
1779998843220251600,7.298251708984375,6.13730525970459,1.900987148284912,6.460324764251709
1779998843236586500,7.31458642578125,-2.2421505451202393,1.3704261779785156,5.628712177276611
1779998843252918300,7.330918212890625,-2.1834659576416016,1.3995590209960938,4.44177770614624
1779998843269253000,7.347253173828125,0.7665320634841919,2.09818696975708,5.0201921463012695
1779998843285568300,7.363568359375,-13.364712715148926,-0.3947601318359375,7.35354471206665
1779998843301917000,7.3799169921875,-14.673812866210938,0.08052921295166016,6.086861610412598
1779998843318249700,7.396249755859375,-5.275225639343262,3.217021942138672,3.8418869972229004
1779998843334582500,7.41258251953125,-2.0758516788482666,3.0152029991149902,2.161982536315918
1779998843350913500,7.42891357421875,-0.12487912178039551,1.4277849197387695,2.5477793216705322
1779998843367248400,7.445248291015625,0.7024532556533813,0.8196821212768555,2.5338330268859863
1779998843383575800,7.461575927734375,0.9747578501701355,0.6019248962402344,2.1360044479370117
1779998843399903500,7.477903564453125,1.0504839420318604,1.6802520751953125,1.0437278747558594
1779998843416230400,7.49423046875,0.6254379153251648,3.1426053047180176,0.04734039306640625
1779998843432552700,7.510552734375,-0.18456359207630157,4.060446262359619,-0.5135143399238586
1779998843448899000,7.526899169921875,-1.5507155656814575,4.098882675170898,-1.3169888257980347
1779998843465230600,7.543230712890625,-2.1814768314361572,3.694803237915039,-1.744231104850769
1779998843481564000,7.55956396484375,-1.2629424333572388,3.89141845703125,-0.52018141746521
1779998843497875700,7.575875732421875,-0.5582382082939148,4.7116899490356445,1.014493465423584
1779998843514229500,7.5922294921875,-1.2658679485321045,5.299537658691406,1.9246963262557983
1779998843530560000,7.60856005859375,-2.1139450073242188,2.9032740592956543,2.1267826557159424
1779998843546911700,7.624911865234375,-1.8385881185531616,-3.131134033203125,0.6342462301254272
1779998843563221500,7.641221435546875,0.5251548290252686,-7.82093620300293,0.1566154956817627
1779998843579577900,7.657577880859375,0.18900036811828613,-12.774882316589355,-0.9486328363418579
1779998843595900200,7.673900146484375,0.052793145179748535,-14.977163314819336,-3.536297559738159
1779998843612240600,7.69024072265625,-0.09987258911132812,-11.027212142944336,-6.067994117736816
1779998843628554800,7.7065546875,-2.8680925369262695,-3.518390655517578,-7.440544128417969
1779998843644921300,7.72292138671875,-2.142911911010742,-0.36096763610839844,-6.86750602722168
1779998843661213000,7.739212890625,0.15737402439117432,-0.2411651611328125,-5.1421709060668945
1779998843677549300,7.75554931640625,0.9718239307403564,-0.9720392227172852,-3.06176495552063
1779998843693907200,7.7719072265625,-0.23439717292785645,-2.0453224182128906,-1.105875015258789
1779998843710229000,7.78822900390625,-0.8008160591125488,-2.103137969970703,0.4084773063659668
1779998843726565400,7.8045654296875,-0.06520986557006836,-1.0013723373413086,1.37485933303833
1779998843742884400,7.82088427734375,0.5596146583557129,0.8006124496459961,1.5979936122894287
1779998843759233300,7.8372333984375,0.8926681280136108,2.4920177459716797,1.0499248504638672
1779998843775565300,7.8535654296875,0.6905180215835571,3.1828856468200684,1.003819465637207
1779998843791896800,7.869896728515625,0.7127383947372437,3.7116026878356934,1.2139214277267456
1779998843808229400,7.8862294921875,0.6726526021957397,4.2915520668029785,1.1515493392944336
1779998843824559400,7.902559326171875,0.7347638010978699,4.820339202880859,0.9969427585601807
1779998843840893000,7.918892822265625,1.141755223274231,4.8457536697387695,0.9037703275680542
1779998843857240300,7.935240234375,1.8364629745483398,4.517375469207764,0.9047986268997192
1779998843873559300,7.951559326171875,2.8223867416381836,3.949141502380371,1.1838879585266113
1779998843889896400,7.967896484375,1.2124617099761963,2.770557403564453,0.9698701500892639
1779998843906209500,7.98420947265625,-10.460925102233887,0.20637893676757812,-0.04219233989715576
1779998843922546700,8.000546630859375,-16.627992630004883,-1.4424018859863281,-0.07800328731536865
1779998843938876700,8.016876708984375,-10.622432708740234,-0.36646366119384766,0.9338918924331665
1779998843955214300,8.03321435546875,-5.915191173553467,-0.6887731552124023,0.5663235783576965
1779998843971545300,8.04954541015625,-3.248699903488159,-2.407482147216797,0.24393218755722046
1779998843987875300,8.065875244140624,-0.04334184527397156,-2.8797216415405273,1.7187552452087402
1779998844004210700,8.082210693359375,2.281329870223999,-1.5549135208129883,2.2432973384857178
1779998844020541700,8.098541748046875,5.376091003417969,0.11718940734863281,2.2707979679107666
1779998844036888800,8.114888916015625,9.059921264648438,1.2785425186157227,1.9304505586624146
1779998844053219300,8.13121923828125,8.521485328674316,0.9392900466918945,1.2887427806854248
1779998844069554400,8.147554443359375,6.473489761352539,-2.759261131286621,1.3087352514266968
1779998844085887200,8.16388720703125,5.098045349121094,-8.627057075500488,1.7865772247314453
1779998844102218000,8.180218017578126,7.032069206237793,-13.35240650177002,2.319608688354492
1779998844118550500,8.196550537109376,7.01623010635376,-8.343707084655762,3.47039532661438
1779998844134884600,8.212884521484375,-0.015142291784286499,-2.6301803588867188,2.024310827255249
1779998844151217700,8.2292177734375,-2.601890802383423,0.9565620422363281,0.7300223112106323
1779998844167549200,8.245549072265625,-9.885636329650879,4.120879650115967,-0.4278813898563385
1779998844183880700,8.261880615234375,-6.30699348449707,5.25363826751709,-1.4564752578735352
1779998844200216300,8.27821630859375,-2.817592144012451,2.586700916290283,-1.3502190113067627
1779998844216523500,8.2945234375,-2.251950740814209,0.7778291702270508,-0.9055464863777161
1779998844232881400,8.31088134765625,-0.9650406837463379,-0.29769325256347656,-0.10576215386390686
1779998844249215500,8.327215576171875,0.6189026832580566,0.3450126647949219,0.7295989394187927
1779998844265545000,8.343544921875,1.3314141035079956,1.9042644500732422,1.3140358924865723
1779998844281877200,8.359877197265625,1.5288810729980469,2.8789892196655273,1.6567425727844238
1779998844298210000,8.3762099609375,1.105468988418579,2.9244465827941895,1.5718342065811157
1779998844314528800,8.39252880859375,0.3386026620864868,3.131226062774658,1.3622453212738037
1779998844330878200,8.408878173828125,-0.3836198151111603,3.4418039321899414,1.1442331075668335
1779998844347210800,8.425210693359375,-0.661811113357544,3.2717347145080566,1.1041285991668701
1779998844363541200,8.441541259765625,-0.2757721543312073,2.414951801300049,1.134397268295288
1779998844379859500,8.457859375,1.1404073238372803,1.7571887969970703,1.8452961444854736
1779998844396201000,8.474200927734374,3.1159682273864746,2.5858116149902344,3.026857376098633
1779998844412537600,8.49053759765625,3.285245180130005,4.441452503204346,4.325477123260498
1779998844428860400,8.5068603515625,-9.758744239807129,4.205798149108887,3.854489803314209
1779998844445193000,8.52319287109375,-9.721660614013672,0.0077610015869140625,4.347255229949951
1779998844461524000,8.53952392578125,-7.205588340759277,-6.537214279174805,2.9758777618408203
1779998844477844700,8.5558447265625,-2.13151478767395,-10.16709041595459,2.6624350547790527
1779998844494190800,8.57219091796875,4.707509994506836,-10.861539840698242,1.540306806564331
1779998844510523000,8.58852294921875,8.080039024353027,-9.221895217895508,-1.7924531698226929
1779998844526873900,8.604873779296875,7.514413833618164,-6.093647003173828,-4.320871353149414
1779998844543186400,8.6211865234375,1.7740840911865234,-3.9738149642944336,-6.843657493591309
1779998844559534000,8.6375341796875,-2.3683736324310303,-4.13798713684082,-8.462821006774902
1779998844575875300,8.653875244140625,-1.090963363647461,-4.478755950927734,-7.400398254394531
1779998844592207000,8.67020703125,0.8393259048461914,-3.5802488327026367,-4.768619060516357
1779998844608541700,8.686541748046874,1.9289593696594238,-2.2873525619506836,-2.3689584732055664
1779998844624857300,8.702857421875,1.4945549964904785,-0.36061573028564453,-1.1051220893859863
1779998844641184300,8.719184326171876,0.6805386543273926,1.2921080589294434,-0.343735933303833
1779998844657530400,8.7355302734375,0.44093990325927734,2.8814334869384766,0.03299760818481445
1779998844673861400,8.751861328125,0.9220123291015625,4.2663984298706055,-0.5475976467132568
1779998844690171100,8.768171142578124,1.4613299369812012,4.855480194091797,-1.4401092529296875
1779998844706517000,8.78451708984375,1.7197761535644531,4.759701251983643,-1.9821107387542725
1779998844722849000,8.80084912109375,1.7462611198425293,4.3352251052856445,-1.9754079580307007
1779998844739170000,8.817170166015625,1.7723191976547241,3.70443058013916,-1.3067307472229004
1779998844755515100,8.83351513671875,1.7336986064910889,2.925787925720215,-0.22585034370422363
1779998844771849200,8.84984912109375,1.562059760093689,2.268266201019287,0.695014238357544
1779998844788189200,8.866189208984375,1.3900744915008545,1.9420819282531738,1.4596505165100098
1779998844804527600,8.882527587890625,1.1536362171173096,1.8003568649291992,2.2688729763031006
1779998844820856800,8.89885693359375,0.5032303929328918,1.783447265625,2.6175425052642822
1779998844837214200,8.915214111328124,-1.6294405460357666,1.8190736770629883,1.6563465595245361
1779998844853510400,8.931510498046874,-4.855391025543213,1.117197036743164,1.2486310005187988
1779998844869861600,8.947861572265625,-6.342430591583252,0.48926734924316406,2.015521764755249
1779998844886188300,8.964188232421876,-4.829626083374023,0.7971286773681641,2.4470276832580566
1779998844902504700,8.980504638671874,-2.8961942195892334,1.6264362335205078,1.8831278085708618
1779998844918836200,8.996836181640624,-3.4901230335235596,2.1571431159973145,0.6933718323707581
1779998844935178200,9.01317822265625,-4.793788909912109,-0.4228239059448242,-0.7392934560775757
1779998844951507500,9.029507568359374,-3.374063014984131,-4.909425735473633,-1.3724822998046875
1779998844967839200,9.045839111328124,-0.8230016231536865,-4.748022079467773,-1.5541770458221436
1779998844984173000,9.062173095703125,1.0644344091415405,-2.905978202819824,-2.1452014446258545
1779998845000510700,9.0785107421875,2.1854424476623535,-2.1981754302978516,-2.094444513320923
1779998845016852000,9.09485205078125,3.1933364868164062,-2.8915233612060547,-1.5739473104476929
1779998845033183500,9.11118359375,4.316792964935303,-3.3237180709838867,-1.001779556274414
1779998845049522200,9.127522216796875,4.652678966522217,-4.559780120849609,-0.18584638833999634
1779998845065850000,9.14385009765625,5.477084159851074,-6.588649749755859,1.052961826324463
1779998845082180000,9.16018017578125,5.571950435638428,-7.228775978088379,2.411252975463867
1779998845098519000,9.17651904296875,3.094696283340454,-5.733025550842285,3.224874258041382
1779998845114844200,9.19284423828125,0.545710563659668,-2.4209184646606445,2.6001429557800293
1779998845131176700,9.2091767578125,-0.6221354007720947,0.9216337203979492,1.6135872602462769
1779998845147513300,9.225513427734375,-0.858420193195343,3.2387118339538574,0.9969722628593445
1779998845163846700,9.2418466796875,0.010423505678772926,4.50100564956665,0.5579503774642944
1779998845180176100,9.258176025390625,1.3612817525863647,3.951261043548584,-0.28656500577926636
1779998845196518100,9.27451806640625,-1.1930500268936157,1.550156593322754,-1.036424160003662
1779998845212827600,9.29082763671875,-4.888091564178467,0.5147800445556641,-2.0208189487457275
1779998845229181400,9.307181396484374,-2.5566928386688232,1.3557920455932617,-0.4714985191822052
1779998845245507600,9.323507568359375,-1.8506343364715576,2.4565792083740234,-0.1263454705476761
1779998845261841400,9.33984130859375,-2.0724668502807617,3.059206008911133,-0.592498242855072
1779998845278158800,9.356158935546874,-1.3592288494110107,2.470170497894287,-0.2270222306251526
1779998845294510000,9.372510009765625,-0.39501598477363586,1.653975486755371,0.09901910275220871
1779998845310807800,9.388807861328125,0.4672533869743347,0.8982753753662109,0.8210709095001221
1779998845327170800,9.4051708984375,1.3109605312347412,0.9111652374267578,1.9642066955566406
1779998845343504100,9.421504150390625,1.8072421550750732,1.4688682556152344,3.0148022174835205
1779998845359842300,9.43784228515625,2.810983180999756,2.5466198921203613,4.051355361938477
1779998845376161800,9.454161865234376,2.9940614700317383,3.662771701812744,5.66602087020874
1779998845392487700,9.47048779296875,-4.452691078186035,2.5400261878967285,7.008233070373535
1779998845408819000,9.48681884765625,-6.244834899902344,1.1210412979125977,6.691214561462402
1779998845425160400,9.503160400390625,-7.428632736206055,-2.5858869552612305,5.240447998046875
1779998845441489400,9.519489501953124,-6.499698638916016,-8.389739990234375,3.356992721557617
1779998845457819100,9.535819091796874,0.4055936336517334,-11.126846313476562,1.989870309829712
1779998845474167800,9.552167724609374,5.388444900512695,-9.308998107910156,-0.36803269386291504
1779998845490487600,9.568487548828125,6.912210464477539,-6.319977760314941,-2.822181463241577
1779998845506833200,9.584833251953125,8.612555503845215,-3.6595449447631836,-5.222696781158447
1779998845523167200,9.601167236328125,4.973439693450928,-2.0159568786621094,-7.837655067443848
1779998845539478000,9.61747802734375,-2.173281669616699,-1.312917709350586,-10.211926460266113
1779998845555835400,9.63383544921875,-2.47188138961792,-0.46484947204589844,-10.648247718811035
1779998845572158500,9.650158447265625,0.8375735282897949,1.244797706604004,-8.620210647583008
1779998845588492500,9.666492431640625,0.9377901554107666,1.0218963623046875,-3.9347963333129883
1779998845604836900,9.6828369140625,0.4418034553527832,1.0743227005004883,-1.45992112159729
1779998845621160200,9.69916015625,0.0771641731262207,1.4547991752624512,-0.2740478515625
1779998845637474000,9.71547412109375,0.1690382957458496,2.0146546363830566,0.38207483291625977
1779998845653829600,9.73182958984375,0.7275905609130859,2.4446444511413574,0.3918797969818115
1779998845670157300,9.7481572265625,0.9840757846832275,2.366486072540283,-0.49487829208374023
1779998845686494200,9.764494140625,1.483109951019287,2.122467517852783,-0.6991977691650391
1779998845702809900,9.780809814453125,2.1223764419555664,2.0237526893615723,-0.5203535556793213
1779998845719146500,9.797146484375,1.9922003746032715,1.9201836585998535,-0.2585238218307495
1779998845735470800,9.813470947265625,1.5480067729949951,1.9234752655029297,0.04929935932159424
1779998845751809800,9.829809814453125,1.1563336849212646,1.4403610229492188,0.11830675601959229
1779998845768128500,9.84612841796875,0.7069381475448608,0.5328903198242188,0.5484005808830261
1779998845784476400,9.862476318359375,0.33615371584892273,-0.040810585021972656,1.6519842147827148
1779998845800808400,9.878808349609375,-2.60292649269104,-0.6989459991455078,3.2538745403289795
1779998845817141000,9.89514111328125,-11.363829612731934,-1.8425912857055664,4.725994110107422
1779998845833470700,9.911470703125,-10.59583568572998,-0.4028768539428711,4.69290018081665
1779998845849809700,9.9278095703125,-5.822216033935547,1.5013847351074219,4.5374860763549805
1779998845866140000,9.944139892578125,-3.3863375186920166,2.1170883178710938,4.132893085479736
1779998845882459000,9.960458984375,-4.604776382446289,-0.1416158676147461,2.5015604496002197
1779998845898803000,9.976802978515625,-5.069286346435547,-3.7237911224365234,-0.1606420874595642
1779998845915133000,9.9931328125,-2.8234589099884033,-5.676799774169922,-1.453176736831665
1779998845931475500,10.009475341796875,-0.0469169020652771,-2.395030975341797,-0.9119277000427246
1779998845947803000,10.025802978515625,2.29129695892334,-0.30418872833251953,-0.33171606063842773
1779998845964135700,10.0421357421875,3.886967182159424,-0.6318283081054688,-0.3724096119403839
1779998845980469200,10.05846923828125,6.290739059448242,-3.01204776763916,-0.7322123646736145
1779998845996817000,10.07481689453125,7.878001689910889,-6.179655075073242,-0.9704428315162659
1779998846013163500,10.09116357421875,9.451594352722168,-7.744970321655273,-1.0782928466796875
1779998846029460700,10.107460693359375,8.185848236083984,-4.819847106933594,-0.7332108616828918
1779998846045796400,10.12379638671875,2.4282708168029785,-1.704721450805664,-0.558415949344635
1779998846062130400,10.14013037109375,0.03044217824935913,0.8444223403930664,-0.465459942817688
1779998846078450200,10.1564501953125,-1.1485438346862793,3.1263866424560547,-0.09432435035705566
1779998846094785300,10.172785400390625,-1.3986353874206543,4.566287040710449,-0.04033315181732178
1779998846111117000,10.189116943359375,-2.654287099838257,5.431837558746338,-0.2340177297592163
1779998846127452400,10.205452392578126,-3.508364677429199,3.8845086097717285,-0.8947797417640686
1779998846143783700,10.22178369140625,0.3164742588996887,0.7474470138549805,0.041698336601257324
1779998846160116000,10.238115966796874,0.0036975741386413574,-1.4872932434082031,0.8913785219192505
1779998846176449000,10.254448974609375,-2.2479166984558105,-1.7253093719482422,0.820610761642456
1779998846192780500,10.270780517578125,-1.0688393115997314,0.9830465316772461,1.6994309425354004
1779998846209113900,10.28711376953125,0.11790668964385986,2.9351959228515625,2.8527846336364746
1779998846225447400,10.303447509765626,-1.0160598754882812,3.3588624000549316,3.2387490272521973
1779998846241782500,10.319782470703124,-1.2063078880310059,2.933990478515625,3.0618767738342285
1779998846258112000,10.336112060546874,-0.033526793122291565,2.1117959022521973,2.28299880027771
1779998846274445000,10.352445068359375,-0.00044143199920654297,1.9519853591918945,1.263759970664978
1779998846290779000,10.36877880859375,-0.7160050868988037,2.3809165954589844,1.1044518947601318
1779998846307111200,10.385111083984375,-2.5316672325134277,3.1446304321289062,1.263527274131775
1779998846323444500,10.401444580078126,-4.362833023071289,3.103046417236328,1.3379179239273071
1779998846339775500,10.417775390625,-3.660789728164673,1.5746440887451172,2.0292794704437256
1779998846356108000,10.43410791015625,-3.4866762161254883,-0.9545383453369141,2.670337200164795
1779998846372440800,10.45044091796875,-3.1666946411132812,-4.637905120849609,2.1776862144470215
1779998846388778000,10.466778076171876,-0.8739638328552246,-7.42032527923584,1.4824656248092651
1779998846405106700,10.483106689453125,1.2363096475601196,-8.82613468170166,0.9633020162582397
1779998846421453600,10.49945361328125,1.9859833717346191,-8.224327087402344,-0.7335463762283325
1779998846437773800,10.51577392578125,3.387052059173584,-5.465873718261719,-2.8342819213867188
1779998846454118000,10.532117919921875,3.7405667304992676,-2.6899890899658203,-3.886117458343506
1779998846470452000,10.548451904296876,1.826573133468628,-0.9369039535522461,-4.64636754989624
1779998846486776800,10.56477685546875,-0.335939884185791,-0.9801406860351562,-5.397446632385254
1779998846503119600,10.58111962890625,-0.9806640148162842,-2.8654661178588867,-5.277996063232422
1779998846519465000,10.59746484375,-0.6729490756988525,-3.9941177368164062,-4.331636428833008
1779998846535771400,10.613771484375,-0.5038766860961914,-2.6443586349487305,-3.767575740814209
1779998846552110300,10.6301103515625,-0.07711243629455566,-0.0004911422729492188,-3.4937562942504883
1779998846568457000,10.64645703125,0.7801282405853271,1.694814682006836,-3.220024585723877
1779998846584798000,10.6627978515625,1.7695409059524536,2.3934569358825684,-3.0384395122528076
1779998846601122300,10.679122314453124,2.331629514694214,2.724292755126953,-3.0095221996307373
1779998846617467400,10.69546728515625,2.3177130222320557,3.045567035675049,-2.862900495529175
1779998846633788400,10.711788330078125,2.1455070972442627,3.186969757080078,-2.561384439468384
1779998846650103600,10.728103515625,1.8203797340393066,3.0241246223449707,-2.0447981357574463
1779998846666461700,10.744461669921876,1.39571213722229,2.9221386909484863,-1.3270416259765625
1779998846682785500,10.76078564453125,1.1208114624023438,2.7792110443115234,-0.3981548547744751
1779998846699122700,10.777122802734375,0.8555372953414917,2.793647289276123,0.5260555744171143
1779998846715456000,10.7934560546875,0.383661150932312,2.6048474311828613,1.2328212261199951
1779998846731783700,10.80978369140625,-0.19951725006103516,1.892453670501709,1.7167091369628906
1779998846748122600,10.82612255859375,-1.0276997089385986,0.7222700119018555,2.3249638080596924
1779998846764454400,10.842454345703125,-2.3016459941864014,-0.05344963073730469,3.55281400680542
1779998846780790500,10.85879052734375,-5.573190212249756,-0.8246784210205078,4.854626178741455
1779998846797102000,10.87510205078125,-6.248106956481934,-1.336094856262207,5.785797119140625
1779998846813446400,10.8914462890625,-6.121415138244629,-2.272890090942383,6.585187911987305
1779998846829788400,10.907788330078125,-8.87826919555664,-4.666746139526367,5.788390159606934
1779998846846116900,10.924116943359374,-6.852194309234619,-7.041767120361328,3.7692770957946777
1779998846862447600,10.940447509765624,-4.358744144439697,-7.132587432861328,1.1958826780319214
1779998846878765300,10.956765380859375,-1.5438072681427002,-4.102967262268066,0.16881227493286133
1779998846895101700,10.973101806640624,0.7948794364929199,-2.2445058822631836,-0.4045563340187073
1779998846911434000,10.98943408203125,2.607949733734131,-1.1174840927124023,-1.0539093017578125
1779998846927768300,11.005768310546875,5.156748294830322,-1.2471351623535156,-1.7911903858184814
1779998846944095200,11.02209521484375,8.960649490356445,-2.068070411682129,-3.030799388885498
1779998846960432600,11.0384326171875,12.283626556396484,-3.5617895126342773,-5.000783920288086
1779998846976782300,11.0547822265625,13.150642395019531,-3.7661819458007812,-7.267045974731445
1779998846993112300,11.0711123046875,9.937966346740723,-3.351595878601074,-8.756807327270508
1779998847009424100,11.087424072265625,5.267695426940918,-3.024576187133789,-9.053689956665039
1779998847025777700,11.103777587890624,2.170931577682495,-2.736898422241211,-7.6950507164001465
1779998847042112300,11.1201123046875,0.22599941492080688,-1.8031492233276367,-5.7570061683654785
1779998847058425300,11.13642529296875,-1.5052580833435059,0.4149017333984375,-4.393399715423584
1779998847074772500,11.1527724609375,-4.886440277099609,2.9653196334838867,-4.325362682342529
1779998847091131600,11.169131591796875,-2.754578113555908,4.178494930267334,-4.059187412261963
1779998847107434200,11.185434326171874,-0.14704877138137817,4.365140914916992,-3.47735595703125
1779998847123766800,11.201766845703125,0.6138381958007812,4.442866802215576,-3.41437029838562
1779998847140107300,11.218107177734375,0.7054934501647949,4.273974418640137,-3.2632052898406982
1779998847156440600,11.234440673828125,1.5240800380706787,2.6463966369628906,-3.3163599967956543
1779998847172767700,11.250767822265624,2.7322239875793457,0.7989501953125,-2.906278610229492
1779998847189088300,11.267088134765626,3.7586569786071777,-0.9051027297973633,-1.5665969848632812
1779998847205447700,11.28344775390625,4.693652629852295,-1.8625173568725586,0.08554059267044067
1779998847221771800,11.299771728515625,4.843059539794922,-1.6409006118774414,1.1747441291809082
1779998847238102500,11.3161025390625,4.955798149108887,-0.7019262313842773,2.086862325668335
1779998847254423000,11.332423095703126,4.476522445678711,0.28276920318603516,2.8910739421844482
1779998847270766000,11.34876611328125,3.5984134674072266,0.9368495941162109,3.243675947189331
1779998847287093200,11.36509326171875,3.1200246810913086,1.2516756057739258,3.560760498046875
1779998847303435300,11.381435302734374,2.4393274784088135,1.6649150848388672,3.7970457077026367
1779998847319766300,11.397766357421874,1.649148941040039,2.030946731567383,3.9682846069335938
1779998847336092000,11.414091796875,1.1502312421798706,2.2226080894470215,3.8994994163513184
1779998847352420900,11.4304208984375,0.23244309425354004,1.574631690979004,4.111443519592285
1779998847368746500,11.44674658203125,-0.2662452459335327,1.0540494918823242,4.133220672607422
1779998847385082400,11.463082275390626,-0.758669376373291,0.45550060272216797,4.135477066040039
1779998847401413400,11.479413330078126,-0.960173487663269,-0.02296924591064453,3.930771827697754
1779998847417727700,11.495727783203124,-1.274818778038025,0.18716812133789062,3.2568166255950928
1779998847434083600,11.51208349609375,-1.7961808443069458,0.8771028518676758,2.4012207984924316
1779998847450421500,11.52842138671875,0.4001030921936035,1.0334577560424805,1.4167977571487427
1779998847466750700,11.544750732421875,4.10652494430542,0.17362594604492188,2.684220314025879
1779998847483090000,11.56108984375,-5.4407877922058105,0.023900985717773438,3.5113320350646973
1779998847499431000,11.577430908203125,-5.752111434936523,-0.866236686706543,2.198729991912842
1779998847515753500,11.59375341796875,-5.6389689445495605,-1.3570585250854492,2.1922285556793213
1779998847532095500,11.610095458984375,-4.96428918838501,-1.9111261367797852,2.522779941558838
1779998847548421400,11.62642138671875,-3.5698230266571045,-2.053229331970215,2.9789605140686035
1779998847564747000,11.6427470703125,-2.669863224029541,-1.6112165451049805,3.5966200828552246
1779998847581092900,11.6590927734375,-2.0110952854156494,-0.799412727355957,3.93343448638916
1779998847597405700,11.67540576171875,-1.71368408203125,-0.6438283920288086,3.6458847522735596
1779998847613751000,11.6917509765625,-0.664513349533081,-0.8185968399047852,3.6160531044006348
1779998847630092500,11.708092529296875,1.1802747249603271,-1.9342117309570312,3.7100701332092285
1779998847646415000,11.7244150390625,2.1251096725463867,-4.439174652099609,3.512378215789795
1779998847662756000,11.740756103515626,-2.1203951835632324,-4.130902290344238,3.0324034690856934
1779998847679083300,11.757083251953125,-6.262972831726074,-1.5654335021972656,2.3275504112243652
1779998847695421400,11.77342138671875,-6.95488977432251,-1.5539379119873047,2.106793165206909
1779998847711757800,11.7897578125,-2.5123839378356934,-2.5887346267700195,0.943024754524231
1779998847728077600,11.80607763671875,0.4518980383872986,-4.2203168869018555,-0.3403632342815399
1779998847744420400,11.82242041015625,1.1001567840576172,-5.6364336013793945,-1.1413187980651855
1779998847760753000,11.8387529296875,-0.7105283737182617,-6.571983337402344,-1.8642992973327637
1779998847777092600,11.855092529296876,-2.7301478385925293,-6.763606071472168,-3.1592254638671875
1779998847793417000,11.8714169921875,-4.9150495529174805,-5.978011131286621,-5.433229923248291
1779998847809748200,11.887748291015624,-4.067962646484375,-4.053671836853027,-7.185009479522705
1779998847826073000,11.904072998046875,-0.33000147342681885,-1.6654977798461914,-7.900303363800049
1779998847842412800,11.920412841796875,2.780696392059326,-0.05357646942138672,-8.070169448852539
1779998847858729000,11.93672900390625,2.397825002670288,0.8799819946289062,-8.256087303161621
1779998847875065600,11.953065673828124,0.790500283241272,1.199789047241211,-7.925963401794434
1779998847891396900,11.96939697265625,0.9952887296676636,1.3498964309692383,-6.653543472290039
1779998847907731500,11.9857314453125,2.019364833831787,1.8274078369140625,-5.181581497192383
1779998847924062200,12.002062255859375,2.943089008331299,2.3000693321228027,-4.043360233306885
1779998847940396000,12.01839599609375,3.6307332515716553,2.378079891204834,-2.780803680419922
1779998847956726300,12.034726318359375,3.672466993331909,2.208850383758545,-1.7729929685592651
1779998847973074400,12.051074462890625,3.1969640254974365,2.0959014892578125,-1.0185598134994507
1779998847989396000,12.06739599609375,2.7627906799316406,2.246647357940674,-0.5288088321685791
1779998848005740800,12.08374072265625,2.39857816696167,2.4412412643432617,-0.4894571304321289
1779998848022039000,12.1000390625,1.8737750053405762,2.8492088317871094,-0.5675040483474731
1779998848038406700,12.11640673828125,1.4621326923370361,3.3353114128112793,-0.5451412200927734
1779998848054699800,12.13269970703125,1.5343647003173828,4.103122234344482,-0.49038076400756836
1779998848071059500,12.1490595703125,1.5952699184417725,4.94581413269043,-0.37631165981292725
1779998848087389000,12.165388916015624,1.4677627086639404,5.193547248840332,-0.13008153438568115
1779998848103738400,12.18173828125,1.5183091163635254,4.840384483337402,0.11948573589324951
1779998848120066300,12.19806640625,1.9640740156173706,4.205832004547119,0.07399719953536987
1779998848136407300,12.2144072265625,2.304053544998169,3.4633564949035645,-0.2632063925266266
1779998848152729300,12.230729248046876,2.368621826171875,2.479766845703125,-0.577552080154419
1779998848169064000,12.24706396484375,1.841307282447815,1.567582130432129,-0.6639487743377686
1779998848185391400,12.263391357421876,0.2956225872039795,0.9006414413452148,-0.46232354640960693
1779998848201736000,12.27973583984375,-1.673783302307129,0.44829368591308594,-0.14049823582172394
1779998848218063000,12.29606298828125,-2.646817922592163,0.33733558654785156,0.2955164611339569
1779998848234396400,12.312396484375,-2.532193660736084,0.6725034713745117,0.6868842840194702
1779998848250745000,12.3287451171875,-1.839056134223938,1.3176164627075195,1.263119101524353
1779998848267062800,12.345062744140625,-0.9099315404891968,1.798729419708252,1.7677185535430908
1779998848283393500,12.3613935546875,-0.5345977544784546,1.913093090057373,2.0880682468414307
1779998848299728600,12.377728759765626,-1.3827250003814697,1.5719022750854492,2.178701877593994
1779998848316071700,12.39407177734375,-3.8322718143463135,0.6993637084960938,2.139336585998535
1779998848332394200,12.410394287109375,-6.953323841094971,0.20511150360107422,0.9830410480499268
1779998848348711200,12.426711181640625,-9.15262222290039,-0.6912641525268555,-0.27947908639907837
1779998848365047600,12.443047607421875,-7.600019454956055,-3.3331708908081055,-0.7712047696113586
1779998848381359000,12.459359130859376,-1.0577417612075806,-4.982568740844727,-0.4756161570549011
1779998848397713000,12.475712890625,4.220204830169678,-6.251575469970703,-0.10777372121810913
1779998848414040800,12.492040771484374,7.0227580070495605,-6.492733955383301,-0.5187669396400452
1779998848430380800,12.508380859375,7.139015197753906,-4.862396240234375,-0.7533836364746094
1779998848446711300,12.524711181640624,6.092930793762207,-2.146535873413086,-1.1675746440887451
1779998848463060700,12.541060791015624,5.010026931762695,-1.9958124160766602,-1.891978144645691
1779998848479385000,12.557385009765625,5.050178050994873,-3.814822196960449,-2.3705999851226807
1779998848495726300,12.573726318359375,2.596554756164551,-5.840888023376465,-2.6636204719543457
1779998848512059100,12.59005908203125,-11.20251750946045,-6.421535491943359,-0.4730340242385864
1779998848528386600,12.606386474609375,-6.336156845092773,-3.529409408569336,0.12870562076568604
1779998848544722000,12.622721923828125,-0.816976010799408,-1.4531002044677734,-0.22704803943634033
1779998848561054200,12.63905419921875,1.189434289932251,0.15245819091796875,1.116223692893982
1779998848577368600,12.65536865234375,3.0301411151885986,2.5525355339050293,1.966318130493164
1779998848593717200,12.67171728515625,5.706587791442871,4.484973430633545,1.8373866081237793
1779998848610039000,12.6880390625,4.8130202293396,5.428766250610352,1.4409444332122803
1779998848626397700,12.704397705078126,2.0544040203094482,4.035454273223877,0.23998206853866577
1779998848642697700,12.72069775390625,0.011088550090789795,2.074347496032715,-0.4426705837249756
1779998848659052500,12.737052490234374,0.33564460277557373,0.7027053833007812,-0.7187818884849548
1779998848675383800,12.7533837890625,0.4288979172706604,-0.7915401458740234,-1.0825817584991455
1779998848691713500,12.769713623046876,-0.3519572913646698,-1.1405105590820312,-1.6223406791687012
1779998848708061200,12.786061279296876,-1.8843731880187988,-0.3468618392944336,-1.7317767143249512
1779998848724369700,12.80236962890625,-3.8189404010772705,0.46853160858154297,-0.7221379280090332
1779998848740715000,12.818715087890626,-3.441807508468628,0.6948013305664062,1.2327581644058228
1779998848757026000,12.835026123046875,-0.9720289707183838,-0.0686655044555664,1.9974019527435303
1779998848773384200,12.85138427734375,-0.4046633243560791,-0.5314054489135742,1.172455906867981
1779998848789710000,12.8677099609375,-0.9126057624816895,0.4887819290161133,0.5570211410522461
1779998848806033700,12.88403369140625,-0.8771858215332031,2.0587544441223145,0.4393065571784973
1779998848822375200,12.900375244140625,-0.3597332835197449,3.49320125579834,0.8831756114959717
1779998848838694000,12.91669384765625,0.19319766759872437,4.406304359436035,1.7426873445510864
1779998848855029500,12.933029541015625,-1.3138377666473389,4.226903915405273,2.523047924041748
1779998848871360500,12.949360595703125,-3.9507017135620117,2.953361988067627,2.619584560394287
1779998848887705900,12.965705810546876,-1.8827159404754639,2.010990619659424,1.4488633871078491
1779998848904012300,12.98201220703125,0.4616304039955139,0.9288473129272461,0.6407457590103149
1779998848920347100,12.99834716796875,2.588064670562744,-0.0546722412109375,1.0032083988189697
1779998848936695800,13.01469580078125,3.036741018295288,-0.24980735778808594,1.8585779666900635
1779998848953023000,13.03102294921875,1.3823906183242798,0.12023353576660156,2.2412962913513184
1779998848969357600,13.047357666015625,-0.15990698337554932,1.10504150390625,2.172333002090454
1779998848985691100,13.063691162109375,-0.7193940877914429,2.0911612510681152,2.294917345046997
1779998849002019800,13.080019775390625,-1.1150184869766235,2.6663832664489746,2.5170130729675293
1779998849018372400,13.096372314453125,-3.4136476516723633,1.962158203125,2.31644868850708
1779998849034703400,13.112703369140625,-4.963332176208496,-0.8453798294067383,1.797935962677002
1779998849051036200,13.1290361328125,-4.637936592102051,-4.640273094177246,1.4282770156860352
1779998849067374600,13.14537451171875,-1.7680420875549316,-8.205900192260742,1.3355991840362549
1779998849083689200,13.161689208984376,2.261218309402466,-9.753621101379395,0.9757391214370728
1779998849100037400,13.178037353515625,2.549492835998535,-9.663325309753418,-1.2592415809631348
1779998849116350500,13.1943505859375,3.3194420337677,-7.743775367736816,-3.699188709259033
1779998849132697600,13.210697509765625,2.199491262435913,-4.061291694641113,-5.748895645141602
1779998849149013500,13.227013427734375,0.16971063613891602,-0.8275880813598633,-6.086854934692383
1779998849165351200,13.24335107421875,0.43271827697753906,0.454071044921875,-4.556651592254639
1779998849181683200,13.25968310546875,1.1371490955352783,1.0138239860534668,-2.6081697940826416
1779998849198016000,13.27601611328125,1.2926435470581055,1.356006145477295,-1.7425296306610107
1779998849214349600,13.292349609375,1.2247505187988281,1.2024216651916504,-1.6750445365905762
1779998849230682000,13.30868212890625,0.704094409942627,1.3004426956176758,-2.1187808513641357
1779998849247014000,13.325013916015624,-0.22061729431152344,1.0183730125427246,-2.117614269256592
1779998849263365600,13.34136572265625,-0.13342070579528809,0.42926025390625,-1.683488130569458
1779998849279695400,13.3576953125,0.5203709602355957,0.28853893280029297,-1.1040987968444824
1779998849296017200,13.37401708984375,1.1981632709503174,0.7709197998046875,-0.8014539480209351
1779998849312353800,13.390353759765626,1.7436180114746094,1.785844326019287,-1.118384599685669
1779998849328690000,13.40668994140625,1.8998479843139648,2.6311440467834473,-1.4838351011276245
1779998849345011700,13.42301171875,1.9820657968521118,3.1618223190307617,-1.6959086656570435
1779998849361342500,13.439342529296875,1.9384626150131226,3.519420623779297,-1.7836717367172241
1779998849377677000,13.455677001953125,1.8618203401565552,3.6520028114318848,-1.5890973806381226
1779998849394009600,13.472009521484376,1.6593297719955444,3.367123603820801,-0.8859215974807739
1779998849410342400,13.48834228515625,1.406886100769043,2.657226085662842,-0.03402101248502731
1779998849426677500,13.504677490234375,0.5154969692230225,1.693507194519043,0.8321583271026611
1779998849443011600,13.521011474609375,-0.035698771476745605,0.5344810485839844,1.4242002964019775
1779998849459354400,13.537354248046874,-0.3620234727859497,-0.3880348205566406,1.6818110942840576
1779998849475684900,13.553684814453124,-2.2753548622131348,-0.6261415481567383,1.8314218521118164
1779998849491996700,13.56999658203125,-4.637806415557861,0.3158130645751953,1.6717257499694824
1779998849508360200,13.586360107421875,-5.122368812561035,1.7660455703735352,1.0722198486328125
1779998849524678000,13.602677978515626,-4.54854679107666,2.7948169708251953,0.6147295236587524
1779998849541023700,13.619023681640625,-4.4343156814575195,2.8160619735717773,0.34233227372169495
1779998849557358600,13.635358642578124,-4.280996322631836,2.33457612991333,0.003572404384613037
1779998849573652700,13.65165283203125,-4.48105525970459,1.8291287422180176,-0.3835785388946533
1779998849590004700,13.668004638671874,-4.457657337188721,-0.4159393310546875,-1.400109052658081
1779998849606319000,13.684319091796874,-3.723245620727539,-6.513096809387207,-1.5344713926315308
1779998849622655700,13.70065576171875,-3.334761381149292,-10.782417297363281,-1.373910903930664
1779998849638988300,13.71698828125,1.2520266771316528,-7.168435096740723,-0.36266249418258667
1779998849655321300,13.7333212890625,3.8708384037017822,-2.765554428100586,0.22648721933364868
1779998849671654100,13.749654052734375,4.152349948883057,-0.29700756072998047,0.32101601362228394
1779998849687986700,13.765986572265625,3.728837013244629,1.4915657043457031,0.35213935375213623
1779998849704318200,13.782318115234375,3.3573882579803467,-0.7150192260742188,0.7010512351989746
1779998849720651500,13.798651611328125,3.0015645027160645,-7.208193778991699,1.1160070896148682
1779998849736985300,13.8149853515625,2.383671522140503,-11.576594352722168,1.6138219833374023
1779998849753316600,13.831316650390624,5.444972515106201,-9.871132850646973,4.8863983154296875
1779998849769650700,13.847650634765625,2.9373209476470947,-2.250056266784668,3.5558180809020996
1779998849785980200,13.863980224609374,-0.3937266170978546,1.922011375427246,1.8037195205688477
1779998849802314800,13.880314697265625,-1.203761100769043,4.76715087890625,1.053449034690857
1779998849818649000,13.896649169921876,-1.3411593437194824,6.662510395050049,0.05869525671005249
1779998849834981400,13.9129814453125,-2.3990161418914795,6.122314453125,-1.4843840599060059
1779998849851314000,13.92931396484375,-3.5824902057647705,3.231825351715088,-2.999605655670166
1779998849867645700,13.945645751953125,-1.5132739543914795,-0.25656890869140625,-3.1037073135375977
1779998849883978500,13.961978515625,1.1643991470336914,-2.7088518142700195,-2.967092275619507
1779998849900310000,13.97831005859375,2.9967024326324463,-3.1860456466674805,-3.093557357788086
1779998849916644600,13.99464453125,3.4732143878936768,-0.23525714874267578,-2.8462460041046143
1779998849932976600,14.0109765625,3.2120094299316406,3.0294365882873535,-1.0538609027862549
1779998849949310700,14.027310791015625,-1.6583166122436523,3.435457706451416,0.5424076914787292
1779998849965640200,14.04364013671875,-5.388429164886475,1.3961410522460938,1.4542266130447388
1779998849981975800,14.059975830078125,-2.7608814239501953,1.3941736221313477,1.168138861656189
1779998849998322000,14.076322021484375,-0.711176872253418,2.1115951538085938,1.6448553800582886
1779998850014653400,14.0926533203125,0.7117068767547607,2.815028667449951,2.98671293258667
1779998850030985700,14.10898583984375,-0.32522547245025635,2.189326286315918,3.7818591594696045
1779998850047318300,14.125318359375,-1.062648057937622,1.2150859832763672,3.636692762374878
1779998850063649300,14.141649169921875,0.06818217039108276,1.0071220397949219,3.6140809059143066
1779998850079984400,14.157984375,0.9266940355300903,1.089930534362793,3.6652326583862305
1779998850096322000,14.174322021484375,0.07617640495300293,1.0615873336791992,3.244450569152832
1779998850112644600,14.19064453125,-0.48471295833587646,1.0050783157348633,2.7385776042938232
1779998850128993300,14.2069931640625,0.1557021141052246,0.46889495849609375,2.6009292602539062
1779998850145328000,14.223328125,-0.5646448135375977,-0.8124380111694336,2.5712499618530273
1779998850161626000,14.239626220703125,-5.534820556640625,-3.1388940811157227,2.4896650314331055
1779998850177980000,14.25597998046875,-6.753514289855957,-6.36649227142334,1.4867091178894043
1779998850194310000,14.272309814453125,-1.6958281993865967,-7.725484848022461,-0.15470412373542786
1779998850210648000,14.28864794921875,2.7835159301757812,-7.466879844665527,-2.174395799636841
1779998850226978300,14.304978271484375,5.837823867797852,-6.700996398925781,-4.312397480010986
1779998850243311400,14.321311279296875,4.125688552856445,-3.6531620025634766,-6.700736045837402
1779998850259655000,14.337655029296876,-1.6848711967468262,0.4755525588989258,-7.223998069763184
1779998850275994600,14.35399462890625,-2.1276907920837402,0.9317097663879395,-4.506436824798584
1779998850292319700,14.37031982421875,-0.22607898712158203,-0.33043670654296875,-1.9537032842636108
1779998850308641300,14.386641357421874,0.995375394821167,-1.422724723815918,-0.4178391695022583
1779998850324974600,14.402974609375,1.9066205024719238,-2.8222408294677734,0.11651170253753662
1779998850341308000,14.419307861328125,1.87070631980896,-2.381770133972168,-0.23180973529815674
1779998850357638700,14.435638671875,1.496157169342041,-0.3959321975708008,-1.428769588470459
1779998850373973500,14.451973388671876,1.3061633110046387,0.8122892379760742,-2.2200682163238525
1779998850390304800,14.4683046875,1.459219217300415,1.408442497253418,-2.80955171585083
1779998850406638600,14.484638671875,1.6064715385437012,1.804769515991211,-3.1662001609802246
1779998850422973200,14.50097314453125,1.3933825492858887,1.9465718269348145,-3.381446599960327
1779998850439303700,14.5173037109375,1.1158897876739502,1.632746696472168,-3.441802501678467
1779998850455648800,14.533648681640624,1.0910322666168213,1.5419254302978516,-3.576472282409668
1779998850471979800,14.549979736328124,1.2598347663879395,2.040830135345459,-3.618907928466797
1779998850488323800,14.56632373046875,1.2734023332595825,2.725982666015625,-3.296354293823242
1779998850504649500,14.5826494140625,1.2650097608566284,3.3089094161987305,-2.5856895446777344
1779998850520979000,14.59897900390625,1.2670345306396484,3.5382142066955566,-1.7746469974517822
1779998850537301200,14.61530126953125,1.2807679176330566,3.3896636962890625,-0.8477473258972168
1779998850553648000,14.631648193359375,1.309620976448059,3.0414628982543945,0.11908543109893799
1779998850569979400,14.6479794921875,1.2942999601364136,2.521939754486084,1.126713752746582
1779998850586291200,14.664291259765625,1.3313186168670654,1.4146127700805664,1.8651431798934937
1779998850602628000,14.680628173828126,1.1230735778808594,-0.6008434295654297,2.3285090923309326
1779998850618978300,14.696978271484374,-0.952105700969696,-2.896347999572754,2.671281099319458
1779998850635279400,14.713279296875,-4.5328369140625,-3.505861282348633,3.149777412414551
1779998850651630000,14.729630126953126,-5.870380401611328,-0.5154991149902344,2.7473530769348145
1779998850667961600,14.745961669921876,-5.8747758865356445,1.7596139907836914,2.58718204498291
1779998850684295200,14.762295166015624,-4.4242987632751465,2.3294596672058105,2.6253225803375244
1779998850700622300,14.778622314453125,-3.0450491905212402,1.969590187072754,2.491560935974121
1779998850716957200,14.794957275390624,-3.412003755569458,1.180445671081543,2.14074969291687
1779998850733295900,14.8112958984375,-3.448542594909668,0.06202220916748047,1.3050055503845215
1779998850749619700,14.82761962890625,-3.382754325866699,-3.1357908248901367,-0.33311915397644043
1779998850765975600,14.8439755859375,-1.7033238410949707,-6.035619735717773,-0.8596709370613098
1779998850782299100,14.860299072265626,0.3583374619483948,-4.45014762878418,-0.8645375370979309
1779998850798622500,14.87662255859375,1.269329309463501,-0.8593902587890625,-0.7943801283836365
1779998850814956500,14.89295654296875,1.758390188217163,-0.2584371566772461,-1.1924469470977783
1779998850831289000,14.9092890625,1.9004974365234375,-1.9561290740966797,-1.5998997688293457
1779998850847621600,14.92562158203125,2.010828971862793,-3.8121652603149414,-1.7367877960205078
1779998850863954400,14.941954345703126,1.9766249656677246,-5.1271772384643555,-1.973949670791626
1779998850880287500,14.95828759765625,1.9095263481140137,-6.468965530395508,-2.129934310913086
1779998850896609500,14.974609619140624,1.9218436479568481,-8.253223419189453,-2.1549673080444336
1779998850912955400,14.990955322265625,1.9016358852386475,-5.7992353439331055,-1.751592993736267
1779998850929285400,15.007285400390625,1.962864637374878,-0.5497016906738281,-0.6847177743911743
1779998850945635800,15.0236357421875,4.3614277839660645,3.510329246520996,-0.013693809509277344
1779998850961935000,15.03993505859375,-1.2028144598007202,4.710000991821289,0.03960692882537842
1779998850978304800,15.0563046875,-2.7749717235565186,5.580887794494629,-0.14525675773620605
1779998850994611000,15.07261083984375,-3.5420310497283936,4.828466892242432,-0.7081788778305054
1779998851010966500,15.088966552734375,-3.065814256668091,1.4213132858276367,-1.360942006111145
1779998851027290400,15.105290283203125,-1.1170021295547485,-1.8347644805908203,-1.9189125299453735
1779998851043631600,15.121631591796875,-0.0020669102668762207,-3.5090999603271484,-2.0908761024475098
1779998851059928600,15.137928466796875,0.7415295839309692,-2.0185327529907227,-1.8807765245437622
1779998851076261000,15.15426123046875,0.5723206996917725,0.8358259201049805,-0.8505839109420776
1779998851092624600,15.170624755859375,0.26744621992111206,2.5491771697998047,0.21871626377105713
1779998851108946000,15.18694580078125,0.4170886278152466,3.2590231895446777,1.096311092376709
1779998851125288700,15.203288818359376,1.8150302171707153,3.5688257217407227,2.0183629989624023
1779998851141609700,15.219609619140625,3.672494649887085,3.6219029426574707,3.587416648864746
1779998851157941200,15.235941162109375,0.0995711088180542,2.9300427436828613,3.7104876041412354
1779998851174273000,15.25227294921875,-1.9530917406082153,2.392188549041748,3.468557596206665
1779998851190604300,15.268604248046875,-1.3333585262298584,2.01998233795166,3.681340217590332
1779998851206935300,15.284935302734375,0.6265654563903809,1.5750093460083008,4.689779281616211
1779998851223274500,15.3012744140625,1.1324985027313232,1.0888185501098633,5.549388885498047
1779998851239605800,15.317605712890625,-2.029629707336426,-0.18924713134765625,5.39103889465332
1779998851255933200,15.33393310546875,-5.265836238861084,-0.5299558639526367,3.5520434379577637
1779998851272283600,15.35028369140625,-3.2544636726379395,0.6621427536010742,1.5734525918960571
1779998851288606000,15.36660595703125,-1.8085283041000366,1.2548542022705078,1.2066795825958252
1779998851304938000,15.38293798828125,-1.1377671957015991,1.7075204849243164,1.4218649864196777
1779998851321271300,15.399271240234375,0.010463953018188477,1.2045631408691406,2.5040295124053955
1779998851337603000,15.41560302734375,-0.42940664291381836,0.12443256378173828,2.8681461811065674
1779998851353934300,15.431934326171875,-1.6487329006195068,-1.745692253112793,2.905947685241699
1779998851370271500,15.448271484375,-3.278104782104492,-3.9803714752197266,2.9478471279144287
1779998851386601200,15.464601318359374,-4.433871746063232,-5.181643486022949,2.412745237350464
1779998851402934800,15.480934814453125,-4.162641525268555,-5.472873687744141,1.0179303884506226
1779998851419267000,15.49726708984375,-2.559805154800415,-4.785852432250977,-0.668342649936676
1779998851435617800,15.51361767578125,-0.14064204692840576,-4.103297233581543,-1.3361228704452515
1779998851451945000,15.529945068359375,2.462353229522705,-3.3842763900756836,-2.0851657390594482
1779998851468278800,15.54627880859375,4.446595668792725,-3.4855833053588867,-2.8140411376953125
1779998851484611300,15.562611328125,4.961700439453125,-4.453124046325684,-3.8803186416625977
1779998851500944000,15.57894384765625,3.1779932975769043,-6.744656562805176,-5.099350929260254
1779998851517269800,15.595269775390625,0.24865186214447021,-7.7248077392578125,-5.370304107666016
1779998851533641700,15.611641845703126,-1.8446316719055176,-3.5637283325195312,-3.6082286834716797
1779998851549941200,15.627941162109375,-4.211983680725098,-0.12479400634765625,-2.073176383972168
1779998851566274000,15.644274169921875,-3.745126485824585,1.3631649017333984,-1.602729082107544
1779998851582608100,15.660608154296876,-1.4519007205963135,2.0620956420898438,-1.7530041933059692
1779998851598938000,15.676938232421875,0.34840333461761475,2.591820240020752,-2.023892641067505
1779998851615256800,15.6932568359375,0.9137157201766968,3.228511333465576,-2.364748477935791
1779998851631589000,15.709589111328125,0.8114341497421265,3.9404587745666504,-3.0006914138793945
1779998851647939300,15.725939208984375,0.8120689392089844,4.142859935760498,-3.598623037338257
1779998851664267000,15.74226708984375,1.1039866209030151,3.798645496368408,-3.8611364364624023
1779998851680589600,15.758589599609374,1.5805449485778809,3.0502729415893555,-3.718367099761963
1779998851696923000,15.7749228515625,2.099069356918335,2.5076351165771484,-3.0781524181365967
1779998851713255700,15.791255615234375,2.3998382091522217,2.3540453910827637,-2.1623167991638184
1779998851729577500,15.807577392578125,2.482637882232666,2.619278907775879,-1.22597336769104
1779998851745920800,15.823920654296876,2.0469515323638916,3.2010092735290527,-0.5171024799346924
1779998851762254300,15.84025439453125,1.697713851928711,3.698232650756836,0.2877506613731384
1779998851778593300,15.85659326171875,1.4321516752243042,3.90171480178833,0.8579486012458801
1779998851794918700,15.872918701171875,1.4228564500808716,3.6453561782836914,0.8796943426132202
1779998851811252200,15.889252197265625,1.1938245296478271,2.2988038063049316,0.610167384147644
1779998851827593700,15.90559375,-0.45070695877075195,-0.5187616348266602,1.849167823791504
1779998851843916500,15.92191650390625,-4.289139270782471,-3.945986747741699,4.534842014312744
1779998851860248800,15.938248779296876,-4.924045562744141,-4.404863357543945,6.782427787780762
1779998851876584400,15.95458447265625,-10.508845329284668,-2.7040672302246094,7.162286281585693
1779998851892902400,15.97090234375,-11.77309799194336,-1.2979621887207031,5.717528820037842
1779998851909248000,15.987248046875,-9.715535163879395,-3.1736793518066406,2.8683085441589355
1779998851925592800,16.0035927734375,-1.284446120262146,-3.7996129989624023,-0.5166348814964294
1779998851941926400,16.019926513671876,2.4619903564453125,-3.830166816711426,-0.24525779485702515
1779998851958246700,16.03624658203125,4.195202827453613,-5.213051795959473,0.03851473331451416
1779998851974592000,16.052592041015625,6.583254814147949,-5.440214157104492,-0.527650773525238
1779998851990923800,16.068923828125,8.40070629119873,-4.749706268310547,-1.4855108261108398
1779998852007241700,16.08524169921875,9.081011772155762,-4.031001091003418,-2.5520901679992676
1779998852023579400,16.101579345703126,7.517414093017578,-3.04708194732666,-3.2797820568084717
1779998852039910000,16.117909912109376,4.957087516784668,-2.792485237121582,-3.9477882385253906
1779998852056240600,16.13424072265625,3.1681997776031494,-3.08852481842041,-4.083256244659424
1779998852072574200,16.15057421875,1.5825501680374146,-2.512364387512207,-4.319738388061523
1779998852088905000,16.166905029296874,-0.9103062152862549,-1.5299882888793945,-4.657245635986328
1779998852105228800,16.183228759765626,-5.16368293762207,0.47121429443359375,-5.957059860229492
1779998852121563600,16.199563720703125,-0.5465970039367676,1.1901054382324219,-5.572564125061035
1779998852137906000,16.215906005859374,3.1768393516540527,0.3269062042236328,-5.522267818450928
1779998852154239200,16.2322392578125,3.1779136657714844,0.123809814453125,-5.536055088043213
1779998852170574300,16.24857421875,1.9702918529510498,0.7910785675048828,-4.365674018859863
1779998852186902300,16.26490234375,1.3691920042037964,1.4508132934570312,-2.910158157348633
1779998852203237400,16.2812373046875,0.8875241279602051,2.1014018058776855,-2.285430669784546
1779998852219548200,16.297548095703124,0.5120667219161987,2.3332810401916504,-1.9832329750061035
1779998852235902200,16.313902099609376,0.2452833652496338,2.189054012298584,-1.773975133895874
1779998852252231200,16.330231201171873,0.28672945499420166,1.9132132530212402,-1.521694302558899
1779998852268573400,16.346573486328126,0.47683048248291016,1.655226707458496,-1.213907241821289
1779998852284899600,16.362899658203126,0.738102912902832,1.429488182067871,-0.8002114295959473
1779998852301233700,16.379233642578125,0.9532848596572876,1.302769660949707,-0.31150388717651367
1779998852317568000,16.395568115234376,1.1171778440475464,1.1528606414794922,0.03415811061859131
1779998852333898500,16.4118984375,1.2650721073150635,0.9601297378540039,0.33616316318511963
1779998852350231300,16.428231201171876,1.166048288345337,0.9295673370361328,0.5973178744316101
1779998852366562800,16.444562744140626,1.0087627172470093,0.7968730926513672,0.8917138576507568
1779998852382897400,16.4608974609375,0.9970976114273071,0.37503814697265625,1.2466940879821777
1779998852399226400,16.477226318359374,0.9787306785583496,-0.06911277770996094,1.7062551975250244
1779998852415573200,16.4935732421875,1.0353918075561523,-0.35358715057373047,2.028529644012451
1779998852431905300,16.5099052734375,1.092786192893982,-0.5871753692626953,2.444730043411255
1779998852448236000,16.526236083984376,1.1833876371383667,-0.4790172576904297,2.813387155532837
1779998852464578300,16.542578369140625,1.1230387687683105,-0.09568405151367188,3.1687140464782715
1779998852480905200,16.5589052734375,1.0812873840332031,0.4198493957519531,3.417928695678711
1779998852497237200,16.5752373046875,1.820715308189392,0.5294904708862305,3.822960376739502
1779998852513551600,16.591551513671874,7.178888320922852,-0.17851924896240234,5.181957721710205
1779998852529886700,16.60788671875,1.4821351766586304,-0.4465065002441406,4.583988189697266
1779998852546239200,16.6242392578125,-0.45037949085235596,-0.9068202972412109,4.153276443481445
1779998852562593800,16.64059375,-1.5692319869995117,-1.7821893692016602,3.7568588256835938
1779998852578903000,16.656903076171876,-3.050818920135498,-2.560831069946289,3.5642805099487305
1779998852595236900,16.67323681640625,-7.578866004943848,-2.514094352722168,3.080807685852051
1779998852611562200,16.689562255859375,-2.5655789375305176,-1.781595230102539,3.4936962127685547
1779998852627894500,16.70589453125,2.8737668991088867,-1.9488887786865234,3.983937978744507
1779998852644212200,16.722212158203124,-3.6119117736816406,-0.23925113677978516,3.873528242111206
1779998852660568800,16.73856884765625,-12.025612831115723,2.44735050201416,0.6921486854553223
1779998852676878000,16.754878173828125,-4.984555244445801,1.1994295120239258,1.512119174003601
1779998852693218600,16.771218505859373,-1.1971759796142578,0.09969425201416016,1.8624660968780518
1779998852709549600,16.787549560546875,-2.377559185028076,-0.5386123657226562,1.4550089836120605
1779998852725882000,16.803882080078125,-3.570112705230713,-1.8710765838623047,0.9526422619819641
1779998852742211800,16.8202119140625,-3.1404008865356445,-4.247366905212402,0.21506845951080322
1779998852758552800,16.836552734375,-1.0353657007217407,-6.70170783996582,-0.6733919978141785
1779998852774882000,16.852882080078125,2.1088106632232666,-8.649182319641113,-1.6655725240707397
1779998852791213800,16.8692138671875,3.7844510078430176,-9.91445541381836,-3.1393375396728516
1779998852807534600,16.88553466796875,3.6412277221679688,-8.181363105773926,-5.5554585456848145
1779998852823881000,16.901880859375,-2.62550950050354,-2.313168525695801,-7.385646343231201
1779998852840212700,16.918212646484374,-3.1789937019348145,1.768167495727539,-6.723413944244385
1779998852856544300,16.934544189453124,-0.026906132698059082,2.282228469848633,-3.935800075531006
1779998852872877300,16.950877197265626,0.17897748947143555,1.6755199432373047,-2.222149610519409
1779998852889211100,16.967211181640625,-1.0681960582733154,0.7473526000976562,-1.7393341064453125
1779998852905542400,16.98354248046875,-1.0097038745880127,0.24487781524658203,-1.6252011060714722
1779998852921887200,16.99988720703125,0.0010759830474853516,0.05803108215332031,-1.5531196594238281
1779998852938226700,17.016226806640624,1.0757687091827393,0.7206659317016602,-2.2924139499664307
1779998852954553300,17.03255322265625,2.2329659461975098,2.0453920364379883,-3.6578664779663086
1779998852970871600,17.04887158203125,2.9752514362335205,3.3983755111694336,-4.344981670379639
1779998852987214300,17.06521435546875,3.4912655353546143,4.458224296569824,-4.160890579223633
1779998853003536000,17.081535888671876,3.653507947921753,5.459600448608398,-3.7595274448394775
1779998853019869400,17.097869384765627,3.930176258087158,5.9636945724487305,-3.1743459701538086
1779998853036196900,17.11419677734375,3.981879472732544,6.097853183746338,-2.409424304962158
1779998853052542200,17.130542236328125,3.502418279647827,5.786126136779785,-1.6656984090805054
1779998853068856000,17.14685595703125,3.170083522796631,5.487576961517334,-1.0145803689956665
1779998853085206000,17.1632060546875,2.4737730026245117,5.011363506317139,-0.48954370617866516
1779998853101519600,17.17951953125,1.7419233322143555,4.301663875579834,0.15752440690994263
1779998853117871600,17.19587158203125,0.6514508724212646,3.180635929107666,1.262571096420288
1779998853134200800,17.212200927734376,-0.292203426361084,1.953977108001709,2.6113405227661133
1779998853150519000,17.22851904296875,-0.1682898998260498,1.2305879592895508,3.552032947540283
1779998853166854100,17.244854248046874,0.6393355131149292,1.1972160339355469,4.311294078826904
1779998853183186200,17.261186279296876,1.3429824113845825,1.2530755996704102,4.6533637046813965
1779998853199523300,17.2775234375,1.0771429538726807,0.7872409820556641,4.588592052459717
1779998853215850000,17.29385009765625,0.022546768188476562,-0.07716846466064453,4.206432819366455
1779998853232185300,17.310185302734375,-1.1464297771453857,-0.7853994369506836,2.8990771770477295
1779998853248519700,17.326519775390626,-3.1042282581329346,-0.7700023651123047,0.5067497491836548
1779998853264851500,17.3428515625,-10.218595504760742,-1.2172508239746094,-1.8566954135894775
1779998853281183000,17.359182861328126,-13.958794593811035,-2.9249067306518555,-3.5187058448791504
1779998853297518000,17.37551806640625,-8.207271575927734,-4.393774032592773,-3.405068874359131
1779998853313848600,17.3918486328125,-2.170555591583252,-5.850630760192871,-2.3679397106170654
1779998853330182100,17.40818212890625,3.4336888790130615,-7.018860816955566,-1.8417354822158813
1779998853346513700,17.424513671875,6.169238567352295,-6.583573341369629,-1.3676600456237793
1779998853362847000,17.440846923828126,5.645421504974365,-2.6501502990722656,-0.9505890607833862
1779998853379178800,17.4571787109375,2.7766475677490234,1.1993227005004883,-0.5151033401489258
1779998853395513300,17.473513427734375,0.9200341701507568,1.1687898635864258,-0.32921087741851807
1779998853411845400,17.489845458984377,-0.11927343159914017,-5.175124168395996,-0.4472677707672119
1779998853428178400,17.506178466796875,-1.7951494455337524,-10.343429565429688,1.0536341667175293
1779998853444510500,17.522510498046874,-0.1281708925962448,-7.14476203918457,0.9948499798774719
1779998853460843800,17.53884375,1.1616209745407104,-1.7363948822021484,0.11496126651763916
1779998853477174300,17.55517431640625,1.1200892925262451,1.526413917541504,0.6170858144760132
1779998853493508900,17.5715087890625,0.967684268951416,3.4928441047668457,1.059828758239746
1779998853509840400,17.58784033203125,1.6332365274429321,4.790531635284424,1.477851390838623
1779998853526173200,17.604173095703125,1.7197465896606445,4.220669269561768,1.8911855220794678
1779998853542506000,17.620506103515623,0.6115902662277222,1.7830357551574707,1.8313839435577393
1779998853558838800,17.6368388671875,-2.3299174308776855,0.05187416076660156,1.9719316959381104
1779998853575174000,17.653173828125,-3.5987441539764404,0.8249530792236328,1.5723556280136108
1779998853591520300,17.669520263671874,-2.2131221294403076,2.388996124267578,1.1526014804840088
1779998853607847400,17.685847412109375,-1.0705512762069702,2.9424524307250977,0.8866872191429138
1779998853624182300,17.702182373046874,-1.0235705375671387,2.47137451171875,0.9041914939880371
1779998853640502300,17.718502197265625,-0.8598979115486145,2.6406102180480957,0.408488392829895
1779998853656847400,17.734847412109374,0.2845325767993927,2.9860105514526367,0.11186254024505615
1779998853673180000,17.751179931640625,1.405669927597046,2.963374137878418,0.4235363006591797
1779998853689514200,17.76751416015625,1.7437622547149658,2.7613964080810547,1.040703535079956
1779998853705832400,17.78383251953125,1.6612980365753174,2.0596022605895996,1.5517634153366089
1779998853722173400,17.80017333984375,1.9765887260437012,1.0190143585205078,2.150665283203125
1779998853738515500,17.816515380859375,2.91151762008667,0.2681140899658203,3.17978572845459
1779998853754844000,17.832843994140624,2.8598222732543945,0.48104286193847656,4.396890640258789
1779998853771173600,17.849173583984374,-0.206262469291687,0.5831356048583984,5.788475036621094
1779998853787516400,17.865516357421875,-7.460212230682373,-1.4390811920166016,6.272008895874023
1779998853803828700,17.881828857421876,-9.838269233703613,-4.193079948425293,3.846635580062866
1779998853820174000,17.898174072265626,-6.242898464202881,-6.633363723754883,2.251546859741211
1779998853836505300,17.91450537109375,-0.047571659088134766,-6.654819488525391,0.7593071460723877
1779998853852839000,17.9308388671875,4.385513782501221,-7.011558532714844,-1.3627746105194092
1779998853869172200,17.947172119140625,5.68468713760376,-6.684124946594238,-3.750450611114502
1779998853885511000,17.963510986328124,3.660989284515381,-4.9633073806762695,-6.132974624633789
1779998853901840600,17.979840576171874,-0.881955623626709,-1.6060419082641602,-7.684000492095947
1779998853918178300,17.99617822265625,-1.0406131744384766,0.2681427001953125,-7.477509021759033
1779998853934513000,18.012512939453124,0.533911943435669,0.2853116989135742,-5.126814842224121
1779998853950854700,18.028854736328125,0.5181891918182373,0.07658958435058594,-2.39400053024292
1779998853967165200,18.045165283203126,0.8710291385650635,-0.2626781463623047,-0.3525669574737549
1779998853983519700,18.061519775390625,1.1337146759033203,-0.6214733123779297,0.8848412036895752
1779998853999843600,18.077843505859374,1.5593593120574951,-0.5380144119262695,1.3149561882019043
1779998854016172000,18.094172119140627,2.3094706535339355,1.169201374053955,-0.01889503002166748
1779998854032499500,18.11049951171875,2.4133903980255127,2.7715883255004883,-1.468551516532898
1779998854048831000,18.1268310546875,2.608029842376709,3.2990903854370117,-2.360582113265991
1779998854065165000,18.1431650390625,2.5408194065093994,3.078444004058838,-2.7123770713806152
1779998854081500200,18.159500244140624,2.1505656242370605,2.7365217208862305,-2.7348060607910156
1779998854097823200,18.1758232421875,1.6468098163604736,2.468170642852783,-2.4509458541870117
1779998854114185500,18.192185546875,1.248366117477417,2.2250962257385254,-1.7670340538024902
1779998854130511600,18.20851171875,0.7653084993362427,2.138784408569336,-0.7736685276031494
1779998854146825500,18.224825439453124,0.6086193323135376,1.8589873313903809,0.18568532168865204
1779998854163172600,18.241172607421873,0.3197920322418213,1.5748624801635742,0.7807090878486633
1779998854179509200,18.25750927734375,-0.05065298080444336,1.0961990356445312,1.1357154846191406
1779998854195833900,18.273833740234377,-0.19727158546447754,0.4989633560180664,1.2820591926574707
1779998854212154400,18.290154296875,-0.4613525867462158,-0.4873771667480469,1.163150429725647
1779998854228493300,18.306493408203124,-2.324989080429077,-1.3267021179199219,2.221287250518799
1779998854244825000,18.3228251953125,-6.718669891357422,-1.1845226287841797,3.904733180999756
1779998854261156900,18.339156982421876,-7.771650791168213,0.6098899841308594,4.128680229187012
1779998854277490000,18.355489990234375,-7.9611897468566895,2.223583221435547,3.1318507194519043
1779998854293823000,18.371822998046873,-8.088984489440918,1.5436019897460938,2.4763479232788086
1779998854310154800,18.38815478515625,-6.283604621887207,-1.7833585739135742,1.1803503036499023
1779998854326488600,18.404488525390626,-1.9515032768249512,-5.1855621337890625,0.10889101028442383
1779998854342819000,18.420819091796876,1.79690420627594,-5.620486259460449,0.422613263130188
1779998854359151600,18.437151611328126,3.7273547649383545,-2.561142921447754,0.14500278234481812
1779998854375486500,18.453486572265625,4.941375732421875,0.14718246459960938,-0.04910159111022949
1779998854391819000,18.469819091796875,5.240132808685303,-0.3612174987792969,-0.3612876534461975
1779998854408169000,18.4861689453125,5.117578029632568,-1.1495895385742188,-0.7322485446929932
1779998854424496400,18.502496337890626,3.7026374340057373,-1.1645317077636719,-1.01775324344635
1779998854440813800,18.518813720703125,3.5427138805389404,-4.682565689086914,-0.8835141658782959
1779998854457163000,18.5351630859375,2.8365039825439453,-9.31619644165039,0.6574480533599854
1779998854473478400,18.551478515625,-2.7802412509918213,-8.21123218536377,1.2121055126190186
1779998854489826800,18.567826904296876,-3.1952030658721924,-2.6293153762817383,-0.625370442867279
1779998854506150400,18.584150390625,-2.3569958209991455,1.073556900024414,-1.2981491088867188
1779998854522490000,18.600489990234376,-0.5548056960105896,2.6552867889404297,-0.9341138601303101
1779998854538811000,18.616810791015624,0.6390787363052368,3.1755776405334473,-0.6490797400474548
1779998854555157000,18.633156982421873,1.6821939945220947,2.732487678527832,-0.693562388420105
1779998854571488300,18.64948828125,2.481152296066284,1.0388050079345703,-1.118898630142212
1779998854587828500,18.665828369140623,2.5637269020080566,-0.12076663970947266,-1.4992101192474365
1779998854604140300,18.682140380859376,2.3434393405914307,-0.12191486358642578,-1.686715841293335
1779998854620488000,18.698488037109374,1.8505717515945435,0.3336057662963867,-1.6108697652816772
1779998854636816400,18.71481640625,1.9952318668365479,1.01068115234375,-0.3076859712600708
1779998854653131300,18.73113134765625,-1.9589817523956299,1.1608705520629883,0.7359488010406494
1779998854669488600,18.747488525390626,-5.282944679260254,1.1929340362548828,1.3172423839569092
1779998854685834500,18.76383447265625,-4.014481067657471,2.227029800415039,1.2916229963302612
1779998854702132000,18.780132080078126,-2.5906240940093994,2.717484474182129,1.794706106185913
1779998854718467600,18.796467529296876,-2.475820779800415,2.581214427947998,2.3899261951446533
1779998854734805200,18.81280517578125,-1.8163155317306519,2.1324424743652344,2.631774425506592
1779998854751140000,18.82914013671875,-0.35275799036026,1.2235164642333984,2.715174674987793
1779998854767465200,18.84546533203125,0.9409177303314209,0.4324617385864258,2.874305248260498
1779998854783806200,18.86180615234375,1.8838403224945068,0.6886692047119141,3.263516426086426
1779998854800124700,18.878124755859375,2.47819185256958,1.4369688034057617,3.790070056915283
1779998854816468500,18.894468505859376,1.2874661684036255,1.9619412422180176,4.284157752990723
1779998854832798000,18.9107978515625,-2.4437403678894043,1.983567714691162,3.2877821922302246
1779998854849137200,18.92713720703125,-3.091304302215576,1.850621223449707,1.681870460510254
1779998854865466600,18.943466552734375,-2.8818187713623047,0.9884548187255859,0.662935733795166
1779998854881801700,18.9598017578125,-2.7856194972991943,-1.0915346145629883,-0.5068812966346741
1779998854898148000,18.976148193359375,-1.9987133741378784,-3.411884307861328,-1.153714656829834
1779998854914482200,18.992482177734374,-1.83237886428833,-5.3802385330200195,-0.6012163162231445
1779998854930805000,19.008804931640626,-0.6664812564849854,-6.707588195800781,0.3738238513469696
1779998854947147300,19.025147216796874,2.139305830001831,-6.729909896850586,0.3202780783176422
1779998854963476500,19.0414765625,3.7448322772979736,-5.257692337036133,-1.965441107749939
1779998854979807700,19.057807861328126,3.964297294616699,-3.8538312911987305,-3.3453831672668457
1779998854996121000,19.07412109375,2.324528217315674,-1.518244743347168,-4.248430252075195
1779998855012472600,19.09047265625,0.1610572338104248,0.009134292602539062,-4.617869853973389
1779998855028811300,19.106811279296874,0.11012601852416992,-1.0530157089233398,-3.5554909706115723
1779998855045139500,19.123139404296875,0.2816894054412842,-2.4388036727905273,-2.8734548091888428
1779998855061471000,19.139470947265625,-0.29445409774780273,-2.772329330444336,-2.241786479949951
1779998855077805300,19.155805419921876,-0.13114595413208008,-1.4424009323120117,-1.3434462547302246
1779998855094136800,19.17213671875,0.40253186225891113,0.27569007873535156,-0.8256641626358032
1779998855110470700,19.188470703125,1.5104022026062012,1.5399093627929688,-0.6533269882202148
1779998855126801000,19.20480078125,2.2376675605773926,2.6520333290100098,-1.0974905490875244
1779998855143135000,19.221135009765625,2.5774643421173096,3.406172752380371,-1.9400453567504883
1779998855159454500,19.237454345703124,3.0695114135742188,3.588679313659668,-2.8408966064453125
1779998855175770600,19.2537705078125,3.4004695415496826,3.3729147911071777,-3.505138635635376
1779998855192143000,19.27014306640625,3.2459750175476074,3.1220622062683105,-3.493147850036621
1779998855208453400,19.286453369140624,2.4928693771362305,2.761190414428711,-2.8713326454162598
1779998855224786000,19.302785888671874,1.393151879310608,2.315622329711914,-2.222052574157715
1779998855241118200,19.3191181640625,0.6036735773086548,1.6221914291381836,-1.2996586561203003
1779998855257450800,19.33545068359375,0.7177834510803223,1.1464929580688477,-0.234671950340271
1779998855273783600,19.351783447265625,0.5983356237411499,0.8429193496704102,0.7099146246910095
1779998855290102500,19.3681025390625,0.554268479347229,0.6725492477416992,1.723218321800232
1779998855306433800,19.384433837890626,-0.0382535457611084,0.8304548263549805,2.682096242904663
1779998855322784000,19.400783935546876,-1.3558710813522339,0.9899168014526367,3.135352611541748
1779998855339114800,19.41711474609375,-3.7663326263427734,1.3887205123901367,2.804197072982788
1779998855355446300,19.4334462890625,-7.156404972076416,1.7687263488769531,2.4567384719848633
1779998855371768300,19.449768310546876,-7.606822967529297,1.7366085052490234,2.4121739864349365
1779998855388110800,19.46611083984375,-6.703439235687256,2.2483081817626953,2.049895763397217
1779998855404462000,19.482462158203123,-6.332526206970215,1.7929606437683105,1.0977693796157837
1779998855420789500,19.49878955078125,-6.045473575592041,-3.272855758666992,-1.2657755613327026
1779998855437115000,19.515114990234373,-1.5224336385726929,-7.15777587890625,-1.666111707687378
1779998855453457200,19.53145703125,2.3887901306152344,-6.599335670471191,-1.1063270568847656
1779998855469774000,19.547774169921876,4.785151958465576,-4.090417861938477,-0.6195540428161621
1779998855486116000,19.5641162109375,6.384851932525635,-2.25616455078125,-0.3648531436920166
1779998855502438100,19.580438232421876,7.391493320465088,-1.5304670333862305,0.16601014137268066
1779998855518790700,19.596790771484375,2.733558177947998,-3.0711755752563477,0.883583664894104
1779998855535098400,19.613098388671876,0.31959065794944763,-7.688411712646484,1.5629172325134277
1779998855551415600,19.62941552734375,-0.33728134632110596,-9.802689552307129,2.2525925636291504
1779998855567767800,19.645767822265626,-0.198701411485672,-5.665248870849609,1.2233500480651855
1779998855584107300,19.662107177734374,-0.017719894647598267,-1.0113153457641602,0.9698998332023621
1779998855600436700,19.678436767578123,-0.06764620542526245,1.5249824523925781,1.0831211805343628
1779998855616765700,19.694765625,0.01500733196735382,2.4177393913269043,0.7693002820014954
1779998855633102300,19.711102294921876,0.8156977891921997,1.777451515197754,0.4677846133708954
1779998855649451800,19.72745166015625,1.779061198234558,-0.06522655487060547,0.1715647578239441
1779998855665779700,19.74377978515625,2.6774322986602783,-1.2225208282470703,-0.5118662118911743
1779998855682112000,19.760112060546874,3.202314853668213,-0.9975309371948242,-1.5391560792922974
1779998855698432000,19.776431884765625,1.7791566848754883,0.41701221466064453,-2.157754898071289
1779998855714766600,19.7927666015625,0.2904731035232544,1.634145736694336,-2.3860836029052734
1779998855731096800,19.809096923828125,-0.5443034172058105,2.526688575744629,-2.413849115371704
1779998855747433200,19.82543310546875,-1.2791141271591187,2.864241600036621,-1.6465476751327515
1779998855763763700,19.841763671875,-1.2660155296325684,1.8753061294555664,-0.1260894536972046
1779998855780103400,19.858103515625,-1.577636957168579,1.223280906677246,0.5922790169715881
1779998855796429800,19.874429931640623,-2.32120943069458,1.411874771118164,0.9929648637771606
1779998855812760300,19.89076025390625,-2.640571117401123,1.960331916809082,1.351763367652893
1779998855829093400,19.90709326171875,-1.5814204216003418,2.6989855766296387,1.6503568887710571
1779998855845427700,19.923427734375,-0.16920357942581177,3.2538890838623047,1.8585872650146484
1779998855861757200,19.939757080078124,0.5782524943351746,3.3072547912597656,2.0527255535125732
1779998855878112800,19.95611279296875,0.31520509719848633,3.107635498046875,2.2564501762390137
1779998855894434600,19.9724345703125,-0.5975733399391174,2.5241541862487793,2.3175482749938965
1779998855910775600,19.988775634765624,-0.6641453504562378,2.038242816925049,2.03523588180542
1779998855927087000,20.005087158203125,0.2891370356082916,1.8711071014404297,1.6984959840774536
1779998855943424500,20.021424560546876,1.1282967329025269,1.7652921676635742,1.8877968788146973
1779998855959753500,20.03775341796875,1.065062165260315,1.9383549690246582,2.3676981925964355
1779998855976075300,20.0540751953125,-0.8570256233215332,2.0381312370300293,2.8006033897399902
1779998855992416800,20.070416748046874,-1.797019124031067,0.6075963973999023,2.709383010864258
1779998856008757800,20.0867578125,-0.0773857831954956,-2.0744705200195312,2.311483383178711
1779998856025102000,20.10310205078125,0.8279205560684204,-5.137823104858398,3.025284767150879
1779998856041429500,20.119429443359376,-1.9419251680374146,-7.666996955871582,4.056167125701904
1779998856057769700,20.135769775390624,-4.320858001708984,-8.390084266662598,3.7630956172943115
1779998856074081300,20.152081298828126,-3.3507723808288574,-7.477626800537109,0.5560107827186584
1779998856090419000,20.1684189453125,-1.4266717433929443,-5.942529678344727,-2.682771682739258
1779998856106747100,20.1847470703125,0.5878462791442871,-3.456491470336914,-5.472062587738037
1779998856123084800,20.201084716796874,-0.45017337799072266,-2.197490692138672,-6.703381538391113
1779998856139412000,20.217411865234375,-0.9162642955780029,-1.9496984481811523,-5.953811168670654
1779998856155750400,20.23375048828125,-0.4534628391265869,-1.8750667572021484,-3.5969972610473633
1779998856172079000,20.2500791015625,0.20400714874267578,-1.8595571517944336,-1.6881930828094482
1779998856188406800,20.26640673828125,0.7569863796234131,-1.9383678436279297,-1.1951968669891357
1779998856204746200,20.282746337890625,0.6807799339294434,-0.8045587539672852,-2.5319623947143555
1779998856221079600,20.29907958984375,0.47283077239990234,0.2725963592529297,-3.251455307006836
1779998856237411800,20.315411865234374,0.6775262355804443,1.222590446472168,-3.496694564819336
1779998856253743900,20.331743896484376,0.9352185726165771,2.227673053741455,-3.5685696601867676
1779998856270077400,20.348077392578126,1.183905839920044,3.0548934936523438,-3.5552821159362793
1779998856286401000,20.364401123046875,1.4137821197509766,3.5474658012390137,-3.6026182174682617
1779998856302740700,20.38074072265625,1.6531982421875,3.6667909622192383,-3.6361007690429688
1779998856319074800,20.39707470703125,2.0197970867156982,3.559382915496826,-3.5290398597717285
1779998856335407400,20.413407470703124,2.354020595550537,3.356843948364258,-3.167980909347534
1779998856351724000,20.42972412109375,2.523179531097412,3.204322338104248,-2.6248481273651123
1779998856368079000,20.4460791015625,2.3478915691375732,3.1488351821899414,-1.739601492881775
1779998856384436000,20.46243603515625,1.8440730571746826,2.9948086738586426,-0.49231183528900146
1779998856400730400,20.47873046875,1.0464708805084229,2.3626956939697266,1.157726764678955
1779998856417083400,20.49508349609375,0.24782252311706543,1.8291449546813965,2.868800640106201
1779998856433409500,20.511409423828123,0.21984875202178955,1.7990341186523438,3.9044301509857178
1779998856449749500,20.52774951171875,0.6435530185699463,1.8847980499267578,4.545759201049805
1779998856466078000,20.544077880859376,-0.11602675914764404,1.4288854598999023,4.771525859832764
1779998856482413000,20.5604130859375,-2.171067237854004,0.3482551574707031,4.576247692108154
1779998856498752300,20.576752197265623,-3.0852389335632324,-0.26381683349609375,4.2940802574157715
1779998856515078100,20.593078125,-3.3846890926361084,0.43158531188964844,3.6829347610473633
1779998856531388200,20.60938818359375,-3.922384262084961,1.2161779403686523,3.3225629329681396
1779998856547752200,20.625752197265626,-5.814139366149902,-0.598881721496582,2.7991929054260254
1779998856564054000,20.642053955078126,-8.464487075805664,-5.310887336730957,1.3539329767227173
1779998856580389000,20.65838916015625,-5.887076377868652,-8.052055358886719,0.9944189190864563
1779998856596728800,20.674728759765625,-2.6533374786376953,-5.510958671569824,0.5226914286613464
1779998856613061000,20.69106103515625,-1.3867945671081543,-2.40185546875,-0.6376433372497559
1779998856629382100,20.707382080078126,-1.924353837966919,-2.6311635971069336,-2.3121838569641113
1779998856645722400,20.723722412109375,-0.11728519201278687,-2.738504409790039,-2.2784879207611084
1779998856662057000,20.740056884765625,1.7446013689041138,-3.0689849853515625,-2.0573604106903076
1779998856678380800,20.756380859375,2.8505804538726807,-4.060544967651367,-2.271974563598633
1779998856694715400,20.77271533203125,3.6557297706604004,-5.4109649658203125,-2.5426716804504395
1779998856711045600,20.789045654296874,4.205738067626953,-5.706001281738281,-2.747147560119629
