time,seconds_elapsed,z,y,x
1779998836074738400,0.152738525390625,1.4095715284347534,-0.5160284042358398,-1.1386528015136719
1779998836091072300,0.169072265625,1.6340645551681519,-1.2098186016082764,-0.7058547735214233
1779998836107409000,0.185408935546875,2.074345588684082,-2.3273966312408447,-0.3419318199157715
1779998836123740400,0.201740478515625,1.7774651050567627,-2.699871778488159,0.020922135561704636
1779998836140094500,0.218094482421875,1.7976237535476685,-2.674368143081665,1.0338894128799438
1779998836156423200,0.234423095703125,2.2006421089172363,-3.6894733905792236,2.4390323162078857
1779998836172737800,0.25073779296875,2.7177395820617676,-4.893641471862793,3.7501018047332764
1779998836189086700,0.267086669921875,3.7087156772613525,-5.386762619018555,4.042095184326172
1779998836213567500,0.2915673828125,5.278791904449463,-4.68182373046875,2.7934868335723877
1779998836229922600,0.307922607421875,6.189591884613037,-4.500397205352783,2.0839667320251465
1779998836246248000,0.324248046875,7.007235050201416,-4.2701005935668945,1.8118263483047485
1779998836262582800,0.340582763671875,7.529372215270996,-3.6919169425964355,1.5079208612442017
1779998836278897700,0.356897705078125,7.745771408081055,-3.53752064704895,1.3814717531204224
1779998836295244300,0.373244384765625,7.696138381958008,-3.716046094894409,1.3849842548370361
1779998836311582500,0.38958251953125,7.946440696716309,-3.089756488800049,0.6400340795516968
1779998836327913500,0.40591357421875,8.059297561645508,-1.3662000894546509,-0.7475463151931763
1779998836344245000,0.422244873046875,7.733706951141357,-0.06520986557006836,-1.4587461948394775
1779998836360575700,0.43857568359375,6.7625837326049805,0.11133018881082535,-1.0196868181228638
1779998836376907800,0.45490771484375,5.604536056518555,-0.11850785464048386,-0.2900082767009735
1779998836393234400,0.471234375,4.444655418395996,0.19425514340400696,-0.154396191239357
1779998836409583400,0.487583251953125,3.2120821475982666,0.8736900091171265,-0.10659598559141159
1779998836425888300,0.50388818359375,2.026240110397339,1.2986994981765747,0.40256020426750183
1779998836442233900,0.52023388671875,1.086118459701538,1.26067316532135,1.298241376876831
1779998836458553000,0.536552978515625,0.04581489413976669,1.0563386678695679,2.0474674701690674
1779998836474916900,0.552916748046875,-1.1498011350631714,0.9169087409973145,2.1007654666900635
1779998836491212000,0.5692119140625,-1.1122329235076904,1.1791226863861084,-0.24465152621269226
1779998836507556600,0.585556640625,-0.5694791078567505,2.7171285152435303,-1.943315029144287
1779998836523887900,0.601887939453125,-0.5090034604072571,2.959031343460083,-1.9869918823242188
1779998836540216600,0.618216552734375,-0.11331550031900406,1.3556627035140991,-1.4118622541427612
1779998836556542700,0.634542724609375,0.7079927921295166,-0.8301658630371094,-0.8206974864006042
1779998836572885800,0.6508857421875,1.3281737565994263,-1.0525208711624146,0.22388210892677307
1779998836589201200,0.667201171875,0.6719517707824707,-0.0809396430850029,0.7811439037322998
1779998836605549300,0.68354931640625,0.22082778811454773,0.8683449625968933,1.439351201057434
1779998836621869300,0.699869384765625,0.8092437386512756,0.8820894360542297,2.00699782371521
1779998836638215000,0.71621484375,1.5974125862121582,-0.3136793076992035,0.9566149711608887
1779998836654546700,0.732546630859375,1.9336938858032227,-0.6157521605491638,0.30772337317466736
1779998836670880000,0.7488798828125,1.246165156364441,-1.0256427526474,0.4576907753944397
1779998836687227600,0.7652275390625,0.40943244099617004,-1.9604192972183228,0.027030786499381065
1779998836703556900,0.781556884765625,0.3917173445224762,-2.104583501815796,-0.7038694620132446
1779998836719891200,0.79789111328125,0.794277548789978,-1.8629863262176514,-1.1552989482879639
1779998836736206600,0.81420654296875,1.053742527961731,-1.806328535079956,-1.3055717945098877
1779998836752554000,0.830553955078125,1.1027644872665405,-1.7234035730361938,-1.1368201971054077
1779998836768888300,0.846888427734375,1.2489140033721924,-1.4943290948867798,-0.917672336101532
1779998836785215700,0.8632158203125,1.550986886024475,-0.8629998564720154,-0.2519819140434265
1779998836801537800,0.879537841796875,1.5447255373001099,-0.7748825550079346,0.6050620079040527
1779998836817887500,0.895887451171875,1.0847439765930176,-1.0749701261520386,1.1047497987747192
1779998836834227000,0.91222705078125,0.7234171628952026,-1.1678216457366943,1.1062769889831543
1779998836850545000,0.928544921875,0.6782131195068359,-1.1426234245300293,1.0919215679168701
1779998836866858800,0.944858642578125,0.5300782918930054,-1.1175779104232788,1.2133311033248901
1779998836883213600,0.961213623046875,0.19364428520202637,-0.2773328125476837,1.3069461584091187
1779998836899549000,0.977548828125,0.06414084881544113,0.9824240207672119,1.3179417848587036
1779998836915907300,0.9939072265625,-0.7582364678382874,1.5268577337265015,1.3341296911239624
1779998836932196400,1.0101962890625,-1.7904460430145264,0.9147707223892212,0.9301950335502625
1779998836948543700,1.026543701171875,-1.3576480150222778,0.11239920556545258,0.7577783465385437
1779998836964878300,1.04287841796875,-0.4196644127368927,-0.3452915847301483,0.7313584089279175
1779998836981206500,1.05920654296875,-0.35445454716682434,-0.5051855444908142,0.9378308653831482
1779998836997528600,1.075528564453125,-0.5363397002220154,-0.6307183504104614,1.825876235961914
1779998837013860000,1.091860107421875,-0.24465152621269226,-1.5957326889038086,1.5874860286712646
1779998837030193700,1.108193603515625,-0.6114761233329773,-0.43417248129844666,1.0629055500030518
1779998837046524700,1.124524658203125,-0.8778133392333984,0.9440922141075134,0.7907650470733643
1779998837062863600,1.140863525390625,-0.6126978397369385,1.111163854598999,1.0934487581253052
1779998837079189800,1.157189697265625,0.015882495790719986,0.7907650470733643,1.1198687553405762
1779998837095519000,1.17351904296875,0.35964691638946533,0.6583600044250488,0.7049384713172913
1779998837111872000,1.1898720703125,-0.06902777403593063,0.2171625941991806,0.46150869131088257
1779998837128184600,1.2061845703125,-0.5109887719154358,-0.2929098904132843,0.04382958263158798
1779998837144524300,1.222524169921875,-0.23548854887485504,0.12721268832683563,0.08338310569524765
1779998837160853200,1.238853271484375,0.3966042697429657,0.9938777685165405,0.3217732608318329
1779998837177199900,1.255199951171875,1.1650726795196533,1.2932016849517822,-0.041233405470848083
1779998837193523200,1.271523193359375,2.8069257736206055,1.592373013496399,-0.20097467303276062
1779998837209835500,1.28783544921875,3.204293727874756,-0.08796459436416626,0.6989825367927551
1779998837226200800,1.304200927734375,1.4604260921478271,-1.1406381130218506,0.15057829022407532
1779998837242512400,1.320512451171875,-0.0959058403968811,-0.3300199508666992,-0.09712757170200348
1779998837258861800,1.33686181640625,-0.8042041063308716,-0.2993239760398865,0.13775011897087097
1779998837275193300,1.353193359375,-0.8046622276306152,-1.0574077367782593,-0.24984388053417206
1779998837291528200,1.369528076171875,-0.9167560338973999,-1.410946011543274,-0.7435756921768188
1779998837307850800,1.385850830078125,-1.048397421836853,-2.291813611984253,-1.0236574411392212
1779998837324181200,1.40218115234375,-0.5520694851875305,-3.0268373489379883,-0.8000807762145996
1779998837340523300,1.418523193359375,-0.5480988621711731,-3.6054794788360596,-0.32009339332580566
1779998837356853000,1.43485302734375,-1.1815661191940308,-6.174778461456299,-0.4818199574947357
1779998837373192700,1.451192626953125,-1.9730947017669678,-7.283041000366211,-1.1117748022079468
1779998837389539300,1.467539306640625,-1.6725490093231201,-6.032905101776123,-1.5034921169281006
1779998837405848800,1.483848876953125,-0.48059824109077454,-3.545003652572632,-0.7110471725463867
1779998837422188300,1.500188232421875,-0.32910364866256714,-3.660151720046997,0.42012256383895874
1779998837438499000,1.5164990234375,-0.7191411256790161,-4.08027458190918,0.6218608021736145
1779998837454835000,1.5328349609375,-1.3837624788284302,-4.123493194580078,0.4355469346046448
1779998837471181300,1.549181396484375,-1.754557728767395,-4.376238822937012,0.3819434940814972
1779998837487489500,1.565489501953125,-1.3278683423995972,-3.8452439308166504,0.8442157506942749
1779998837503826200,1.581826171875,-0.7774787545204163,-2.6419920921325684,1.217149019241333
1779998837520150500,1.598150634765625,-0.16569720208644867,-1.7093536853790283,1.6800321340560913
1779998837536487700,1.61448779296875,0.03084869496524334,-2.2340869903564453,1.596496343612671
1779998837552819200,1.630819091796875,0.036193765699863434,-2.5302038192749023,1.042594313621521
1779998837569152500,1.647152587890625,0.36942076683044434,-2.0638082027435303,0.37430769205093384
1779998837585488600,1.663488525390625,0.9657779335975647,-1.4492777585983276,0.154396191239357
1779998837601833200,1.679833251953125,1.8252654075622559,-0.8352054953575134,0.25274550914764404
1779998837618162000,1.696161865234375,1.8358027935028076,-0.5445863604545593,0.22021691501140594
1779998837634495000,1.712494873046875,0.93095862865448,-1.3324497938156128,-0.2710714638233185
1779998837650825700,1.72882568359375,0.9471465349197388,-1.814880609512329,-0.8023715019226074
1779998837667159800,1.745159912109375,1.6042848825454712,-0.7837401032447815,-0.4967861473560333
1779998837683493400,1.761493408203125,2.448042392730713,1.0184650421142578,0.6453791260719299
1779998837699837000,1.7778369140625,3.2288808822631836,2.5022568702697754,1.1162035465240479
1779998837716169200,1.794169189453125,3.3791537284851074,3.230560779571533,0.4703662395477295
1779998837732491000,1.810490966796875,4.064239025115967,3.5808920860290527,-0.156686931848526
1779998837748826000,1.826826171875,4.8029279708862305,3.3542611598968506,-0.03084869496524334
1779998837765164500,1.84316455078125,4.818657875061035,3.3855679035186768,1.2570079565048218
1779998837781504300,1.859504150390625,4.936249256134033,3.478266716003418,3.1035008430480957
1779998837797813500,1.8758134765625,5.176319599151611,4.418999195098877,4.482681751251221
1779998837814145800,1.892145751953125,6.0394721031188965,4.1919097900390625,4.63921594619751
1779998837830492000,1.908491943359375,4.7667341232299805,4.314541339874268,3.2957706451416016
1779998837846814700,1.924814697265625,2.230574369430542,1.383457064628601,1.0432051420211792
1779998837863163100,1.9411630859375,0.8761335015296936,0.35353827476501465,-1.3385584354400635
1779998837879496700,1.95749658203125,1.2570079565048218,1.3521502017974854,-0.7750352621078491
1779998837895839200,1.973839111328125,1.6339118480682373,2.24202823638916,0.5739079117774963
1779998837912160000,1.990159912109375,1.8669569492340088,1.8759671449661255,1.0997101068496704
1779998837928494300,2.006494384765625,1.347110629081726,1.1268936395645142,0.6525567770004272
1779998837944809700,2.022809814453125,1.3431400060653687,0.07254024595022202,0.006261368747800589
1779998837961158700,2.03915869140625,1.6325373649597168,-0.4486805200576782,-0.22632557153701782
1779998837977460700,2.055460693359375,1.1316279172897339,-0.4031710624694824,-0.3741549551486969
1779998837993810000,2.071809814453125,0.8321511745452881,-0.2545780837535858,-0.5551238059997559
1779998838010142000,2.088141845703125,0.6575964093208313,-0.38927388191223145,-0.9810495972633362
1779998838026475000,2.10447509765625,-0.11759155988693237,-0.36789360642433167,-1.3070988655090332
1779998838042806800,2.120806884765625,-0.670577347278595,0.8713992834091187,-1.371850609779358
1779998838059137800,2.1371376953125,-2.0977113246917725,1.021824836730957,-0.8469646573066711
1779998838075456800,2.153456787109375,-2.2044599056243896,1.6673567295074463,0.2961169183254242
1779998838091809300,2.169809326171875,-1.3494013547897339,3.419318199157715,0.6762278079986572
1779998838108139000,2.186138916015625,-1.3252722024917603,3.213762044906616,-0.7539604306221008
1779998838132641000,2.21064111328125,-0.9711230397224426,1.6352862119674683,-1.74356210231781
1779998838148985300,2.2269853515625,-0.7376197576522827,-0.07849618047475815,-1.1953105926513672
1779998838165313800,2.243313720703125,-0.7142542004585266,-0.29107728600502014,-0.4775438904762268
1779998838181631500,2.259631591796875,-0.4179845452308655,0.41370847821235657,0.01725694350898266
1779998838197965600,2.275965576171875,0.4928155243396759,0.8741481900215149,0.3930917978286743
1779998838214309400,2.292309326171875,1.691791296005249,1.1232284307479858,0.9298896193504333
1779998838230643700,2.308643798828125,2.1946861743927,1.6129896640777588,1.327562928199768
1779998838246983400,2.3249833984375,1.930639624595642,1.9949331283569336,1.3513866662979126
1779998838263287800,2.341287841796875,1.490511178970337,1.2803735733032227,0.915534257888794
1779998838279647700,2.357647705078125,1.2136365175247192,-0.15042556822299957,0.2393064647912979
1779998838295958300,2.373958251953125,0.9909761548042297,-1.892460584640503,-0.394008070230484
1779998838312307200,2.39030712890625,1.7450892925262451,-2.1836905479431152,-0.4737260043621063
1779998838328622800,2.406622802734375,1.5080735683441162,-2.1258111000061035,-0.13820825517177582
1779998838344972500,2.42297265625,0.5381723046302795,-3.394272804260254,-0.5962044596672058
1779998838361322500,2.439322509765625,-0.22418753802776337,-1.7064520120620728,-1.5364787578582764
1779998838377634800,2.455634765625,-0.19837848842144012,0.5699372887611389,-1.6308574676513672
1779998838393963500,2.471963623046875,0.4573853611946106,1.1957687139511108,-1.1494957208633423
1779998838410298600,2.488298583984375,0.4694499373435974,1.2980886697769165,-0.004734205547720194
1779998838426633200,2.50463330078125,0.06185010448098183,0.6479753255844116,0.6772968173027039
1779998838442967800,2.5209677734375,-0.32849279046058655,0.37659841775894165,0.21380282938480377
1779998838459301400,2.53730126953125,-0.455705463886261,0.41462478041648865,-0.5795583724975586
1779998838475601700,2.5536015625,-0.3168863356113434,0.313373863697052,-0.9734137654304504
1779998838491951400,2.569951416015625,-0.11850785464048386,0.22999076545238495,-0.9689850211143494
1779998838508284200,2.5862841796875,-0.05100724846124649,0.2984076738357544,-0.8093964457511902
1779998838524602000,2.60260205078125,-0.039706241339445114,0.4804455041885376,-0.6343835592269897
1779998838540951800,2.618951904296875,-0.08429940044879913,0.7828238010406494,-0.470060795545578
1779998838557273900,2.63527392578125,-0.20983220636844635,1.0346530675888062,-0.2952006161212921
1779998838573610800,2.65161083984375,-0.3407101035118103,1.0415252447128296,-0.12950342893600464
1779998838589947100,2.667947021484375,-0.43967026472091675,0.8487972617149353,-0.011759156361222267
1779998838606265000,2.68426513671875,-0.5212207436561584,0.6223189830780029,0.0507018156349659
1779998838622612200,2.7006123046875,-0.5361869931221008,0.3831652104854584,0.056352317333221436
1779998838638944800,2.71694482421875,-0.498924195766449,0.2025018334388733,0.03329215571284294
1779998838655289300,2.733289306640625,-0.4213443100452423,0.12782354652881622,0.0007635815418325365
1779998838671644400,2.74964453125,-0.4196644127368927,-0.003359758760780096,0.04841107130050659
1779998838687956000,2.7659560546875,-0.3744603991508484,-0.14233160018920898,0.12171489745378494
1779998838704265200,2.78226513671875,-0.2909245789051056,-0.2684752643108368,0.18829920887947083
1779998838720609000,2.798609130859375,-0.21013765037059784,-0.3982841372489929,0.299018532037735
1779998838736934100,2.81493408203125,-0.14340060949325562,-0.5210680365562439,0.4335615932941437
1779998838753260500,2.831260498046875,-0.05146539583802223,-0.6284276247024536,0.5493205785751343
1779998838769592800,2.8475927734375,0.04734205827116966,-0.7388415336608887,0.6872233748435974
1779998838785924400,2.86392431640625,0.1722639948129654,-0.8408560156822205,0.8920159935951233
1779998838802256400,2.88025634765625,0.28725937008857727,-0.8626944422721863,1.1562151908874512
1779998838818590200,2.896590087890625,0.34284812211990356,-0.6391177773475647,1.3843733072280884
1779998838834922000,2.912921875,0.28756481409072876,-0.17348572611808777,1.3727669715881348
1779998838851270400,2.9292705078125,0.10491610318422318,0.34437528252601624,1.0542006492614746
1779998838867597800,2.945597900390625,-0.14935655891895294,0.6349944472312927,0.7432702779769897
1779998838883932400,2.961932373046875,-0.299018532037735,0.6143777370452881,0.6152940392494202
1779998838900261400,2.978261474609375,-0.30711251497268677,0.4386012554168701,0.5488623976707458
1779998838916587500,2.99458740234375,-0.2565633952617645,0.13225232064723969,0.47418415546417236
1779998838932928000,3.010927978515625,-0.1996002197265625,-0.3724750876426697,0.3741549551486969
1779998838949266400,3.027266357421875,-0.15363261103630066,-0.940732479095459,0.2499966025352478
1779998838965591600,3.043591552734375,-0.07864890247583389,-1.412778615951538,0.23884831368923187
1779998838981914400,3.059914306640625,0.2877175211906433,-1.6644550561904907,0.3488040566444397
1779998838998252000,3.076251953125,1.0497719049453735,-1.5729780197143555,0.3150537610054016
1779998839014593800,3.09259375,1.902539849281311,-1.0989465713500977,0.12858712673187256
1779998839030924800,3.1089248046875,2.3357958793640137,-0.3442225754261017,-0.14248432219028473
1779998839047258000,3.125258056640625,2.0311269760131836,-0.08429940044879913,-0.1189660057425499
1779998839063593000,3.141593017578125,1.3249666690826416,-0.8235990405082703,0.13408492505550385
1779998839079919600,3.157919677734375,0.44318273663520813,-1.8409950733184814,0.38957929611206055
1779998839096258800,3.1742587890625,-0.15424346923828125,-2.0413589477539062,0.7779368758201599
1779998839112586200,3.190586181640625,-0.7670940160751343,1.1838568449020386,0.7150177955627441
1779998839128936700,3.206936767578125,-1.0103710889816284,3.878077983856201,0.5705481171607971
1779998839145250300,3.223250244140625,-0.9454666972160339,4.434576034545898,0.2880229651927948
1779998839161596700,3.2395966796875,-0.8619308471679688,4.799109935760498,-0.4726569950580597
1779998839177925400,3.25592529296875,-0.5346598029136658,4.063628196716309,-1.1045970916748047
1779998839194267100,3.27226708984375,-0.19043724238872528,2.28937029838562,-1.130711555480957
1779998839210577200,3.2885771484375,0.10018189996480942,0.26419922709465027,-0.6059783101081848
1779998839226937000,3.30493701171875,0.48777589201927185,-0.997848391532898,-0.45952337980270386
1779998839243261700,3.32126171875,0.7820602059364319,-1.6528486013412476,-0.6339253783226013
1779998839259578600,3.33757861328125,0.8984300494194031,-2.1707096099853516,-0.6475171446800232
1779998839275927800,3.353927734375,0.864068865776062,-2.302962064743042,-0.48915034532546997
1779998839292241700,3.37024169921875,0.5366451144218445,-1.5263994932174683,-0.35659259557724
1779998839308574700,3.38657470703125,-0.07238753139972687,0.10323622822761536,-0.39767327904701233
1779998839324905500,3.402905517578125,-0.6348416805267334,1.6175711154937744,-0.4928155243396759
1779998839341240800,3.41924072265625,-1.0754282474517822,2.3070852756500244,-0.5372560024261475
1779998839357564000,3.43556396484375,-1.3674218654632568,3.0364584922790527,-0.736245334148407
1779998839373906700,3.45190673828125,-1.3987287282943726,3.732081174850464,-1.120937705039978
1779998839390240800,3.46824072265625,-1.337031364440918,4.754669666290283,-1.8655824661254883
1779998839406574800,3.484574951171875,-1.6490306854248047,5.891948223114014,-2.417651891708374
1779998839422906000,3.500906005859375,-2.5954136848449707,5.378057479858398,-1.378722906112671
1779998839439237600,3.517237548828125,-3.7226128578186035,1.9788979291915894,-1.4078916311264038
1779998839455571500,3.533571533203125,-4.23008918762207,-3.0952541828155518,-2.493093729019165
1779998839471903000,3.549903076171875,-4.0744709968566895,-4.876689910888672,-3.1305315494537354
1779998839488231400,3.5662314453125,-3.4545955657958984,-3.6497671604156494,-2.864652633666992
1779998839504575000,3.582574951171875,-2.445751667022705,-1.6421585083007812,-2.0974059104919434
1779998839520901400,3.5989013671875,-1.4879150390625,0.6294966340065002,-1.288162112236023
1779998839537218600,3.615218505859375,-0.8633053302764893,2.110081195831299,-0.9353874325752258
1779998839553567700,3.631567626953125,-0.6360634565353394,1.8229745626449585,-1.041372537612915
1779998839569889000,3.647888916015625,-0.6085745096206665,0.7385360598564148,-0.8746063113212585
1779998839586219000,3.664218994140625,-0.3390302062034607,0.3985895812511444,-0.3020728528499603
1779998839602551600,3.680551513671875,0.24037547409534454,0.44028112292289734,0.2477058619260788
1779998839618896600,3.696896728515625,0.7331910133361816,0.31261029839515686,0.6722571849822998
1779998839635226600,3.7132265625,1.1468994617462158,-0.22098049521446228,0.9205739498138428
1779998839651547000,3.729546875,1.4335479736328125,-0.8329147696495056,1.1505646705627441
1779998839667883000,3.745883056640625,1.5709927082061768,-1.3269519805908203,1.4398094415664673
1779998839684214300,3.76221435546875,1.6610952615737915,-1.589929461479187,1.7507398128509521
1779998839700546800,3.778546875,1.747685432434082,-1.4776830673217773,2.0899226665496826
1779998839716878000,3.794878173828125,1.820225715637207,-1.120937705039978,2.434450626373291
1779998839733217800,3.8112177734375,1.8579466342926025,-0.8723155856132507,2.7519478797912598
1779998839749543200,3.827543212890625,1.920865774154663,-0.7956519722938538,2.9324586391448975
1779998839765893400,3.843893310546875,1.8895589113235474,-0.6388123035430908,2.7982208728790283
1779998839782220300,3.86022021484375,1.4324790239334106,-0.32299500703811646,2.4046709537506104
1779998839798550000,3.876550048828125,0.7716755270957947,0.536797821521759,1.8854355812072754
1779998839814891300,3.892891357421875,0.7212791442871094,1.22279953956604,1.7371480464935303
1779998839831219000,3.909218994140625,0.7591527700424194,-0.07162395119667053,1.2087496519088745
1779998839847552500,3.925552490234375,0.5838344693183899,-1.654223084449768,0.41202861070632935
1779998839863901000,3.94190087890625,0.6450737118721008,-3.2287282943725586,0.6722571849822998
1779998839880211000,3.9582109375,0.8885034918785095,-3.414583921432495,1.371850609779358
1779998839896567000,3.974567138671875,1.1397218704223633,-2.048536539077759,1.822821855545044
1779998839912878800,3.99087890625,1.2234103679656982,-1.7886134386062622,1.624901533126831
1779998839929229800,4.007229736328125,1.0506882667541504,-2.66642689704895,0.960280179977417
1779998839945560800,4.023560791015625,0.7240280508995056,-3.050813674926758,0.41233405470848083
1779998839961876200,4.039876220703125,0.00045814894838258624,0.15653422474861145,-0.3289509415626526
1779998839978211000,4.056211181640625,-0.916450560092926,4.05018949508667,-1.0503827333450317
1779998839994546000,4.0725458984375,-0.9534079432487488,3.458566188812256,-0.6798930168151855
1779998840010878000,4.0888779296875,-0.6650795340538025,2.398562431335449,-0.2292271852493286
1779998840027211500,4.10521142578125,-0.323147714138031,1.4903584718704224,0.04932736977934837
1779998840043542000,4.1215419921875,-0.05451972410082817,0.6882924437522888,0.2076941877603531
1779998840059876900,4.137876953125,0.19837848842144012,0.03130684420466423,0.2840523421764374
1779998840076206600,4.15420654296875,0.5109887719154358,-0.4309654235839844,0.35155296325683594
1779998840092542000,4.1705419921875,0.9173668622970581,-0.6597344875335693,0.422871470451355
1779998840108886300,4.18688623046875,1.3883439302444458,-0.7370089292526245,0.4671591818332672
1779998840125208600,4.20320849609375,1.806328535079956,-0.6922630667686462,0.47479501366615295
1779998840141547300,4.21954736328125,1.9436204433441162,-0.508087158203125,0.37537670135498047
1779998840157909800,4.23590966796875,1.6262760162353516,-0.49327367544174194,0.2151772826910019
1779998840174217500,4.252217529296875,0.9784533977508545,0.04505131021142006,-0.19486601650714874
1779998840190529800,4.26852978515625,-0.039095375686883926,1.989129900932312,-1.2370021343231201
1779998840206849800,4.284849853515625,-0.6716463565826416,3.6615262031555176,-1.7163785696029663
1779998840223192300,4.3011923828125,-0.5499314665794373,3.788738965988159,-0.878576934337616
1779998840239553800,4.3175537109375,-0.24617868661880493,2.6726882457733154,0.020616702735424042
1779998840255879700,4.333879638671875,-0.260992169380188,1.3840678930282593,-0.1992947906255722
1779998840272211000,4.3502109375,-0.2528982162475586,-0.37980547547340393,-0.7310529947280884
1779998840288544500,4.36654443359375,-0.2165517359972,-1.7763961553573608,-1.0595457553863525
1779998840304876800,4.382876708984375,-0.4343251883983612,-1.310916781425476,-1.4262176752090454
1779998840321212000,4.3992119140625,-0.7673994898796082,0.21303924918174744,-1.7131716012954712
1779998840337527300,4.41552734375,-0.8298604488372803,0.6453791260719299,-1.5083789825439453
1779998840353869800,4.431869873046875,-0.6794348955154419,0.5593998432159424,-1.1030699014663696
1779998840370233900,4.44823388671875,-0.702800452709198,1.3235923051834106,-1.2307407855987549
1779998840386538000,4.4645380859375,-1.2234103679656982,3.4738378524780273,-2.3742804527282715
1779998840402860800,4.48086083984375,-2.233170509338379,3.8982365131378174,-2.7647759914398193
1779998840419205400,4.497205322265625,-3.3715178966522217,0.750142514705658,-2.4604125022888184
1779998840435522800,4.513522705078125,-3.8817431926727295,-3.234989643096924,-2.743548631668091
1779998840451861800,4.52986181640625,-3.6134207248687744,-3.645338296890259,-2.8102855682373047
1779998840468192300,4.546192138671875,-2.8492281436920166,-0.9059131741523743,-2.549293279647827
1779998840484522500,4.5625224609375,-2.1143572330474854,2.0001256465911865,-2.051590919494629
1779998840500852200,4.578852294921875,-1.496467113494873,2.7714955806732178,-1.4567608833312988
1779998840517188900,4.59518896484375,-1.2716686725616455,1.3897184133529663,-0.9648616313934326
1779998840533504800,4.6115048828125,-1.0430524349212646,0.7124215960502625,-0.7011205554008484
1779998840549857500,4.627857421875,-0.7386888265609741,1.1775954961776733,-0.40775254368782043
1779998840566186000,4.64418603515625,-0.42012256383895874,1.5183055400848389,-0.031001411378383636
1779998840582518300,4.660518310546875,-0.048258353024721146,1.3211487531661987,0.3594942092895508
1779998840598849500,4.676849609375,0.3543018400669098,0.9216429591178894,0.7276932001113892
1779998840615203000,4.693203125,0.6988298296928406,0.7032586336135864,1.0381654500961304
1779998840631530800,4.70953076171875,1.0766500234603882,0.584750771522522,1.3501648902893066
1779998840647860000,4.72585986328125,1.4808900356292725,0.3179553747177124,1.6239852905273438
1779998840664197000,4.742197021484375,1.7941112518310547,-0.13057245314121246,1.9101755619049072
1779998840680516000,4.75851611328125,1.9643899202346802,-0.8145887851715088,2.149176597595215
1779998840696855000,4.77485498046875,2.105347156524658,-1.5905404090881348,2.320066213607788
1779998840713176300,4.79117626953125,2.303114652633667,-2.205070734024048,2.495689868927002
1779998840729525500,4.807525390625,2.4859161376953125,-2.520430088043213,2.635425329208374
1779998840745874400,4.82387451171875,2.4721715450286865,-2.5995371341705322,2.755155086517334
1779998840762185200,4.840185302734375,2.261728525161743,-2.3910791873931885,2.8147144317626953
1779998840778503700,4.856503662109375,1.8703166246414185,-1.6117680072784424,2.716670513153076
1779998840794855000,4.87285498046875,1.313665747642517,-0.21410827338695526,2.470644474029541
1779998840811207700,4.889207763671875,0.6436992287635803,1.8070920705795288,1.8403842449188232
1779998840827526000,4.90552587890625,0.08139779418706894,3.530953884124756,0.9166033267974854
1779998840843864600,4.921864501953125,0.20372356474399567,3.2369749546051025,0.6973026990890503
1779998840860173600,4.938173583984375,0.6360634565353394,2.0807597637176514,0.6768386960029602
1779998840876524500,4.954524658203125,0.7041749358177185,1.4743232727050781,0.5251913666725159
1779998840892874800,4.970874755859375,0.4167627990245819,0.4662429094314575,0.21502456068992615
1779998840909205500,4.98720556640625,0.38957929611206055,-1.31916344165802,-0.6540839672088623
1779998840925516800,5.003516845703125,0.3952298164367676,-3.2811100482940674,-1.132238745689392
1779998840941839000,5.019839111328125,0.35643985867500305,-4.369519233703613,-1.1210904121398926
1779998840958168300,5.036168212890625,0.0027488935738801956,-2.7088818550109863,-1.049924612045288
1779998840974504200,5.052504150390625,-0.5297728776931763,-0.12461651116609573,-0.7345654368400574
1779998840990821600,5.068821533203125,-0.7092145681381226,0.395077109336853,-0.12339477986097336
1779998841007155500,5.085155517578125,-0.6307183504104614,0.5638286471366882,0.4769330322742462
1779998841023487500,5.101487548828125,-0.2776382565498352,1.1271990537643433,0.9877691268920898
1779998841039818500,5.117818603515625,0.13500121235847473,1.6475036144256592,1.3361150026321411
1779998841056153600,5.134153564453125,0.25473082065582275,2.3887884616851807,1.3148874044418335
1779998841072485400,5.1504853515625,0.2704605758190155,3.815769672393799,0.5534439086914062
1779998841088817200,5.166817138671875,0.3501785099506378,4.01262092590332,-0.3813326358795166
1779998841105152500,5.183152587890625,0.27259862422943115,3.0161471366882324,-0.9233227968215942
1779998841121502000,5.199501953125,0.12018773704767227,2.11588454246521,-0.7985535860061646
1779998841137827300,5.215827392578125,-0.21044307947158813,1.04289972782135,0.027183502912521362
1779998841154159900,5.232159912109375,-0.2217440903186798,0.24816401302814484,-0.07177666574716568
1779998841170492700,5.24849267578125,-0.1420261710882187,-0.026419922709465027,-0.5974262356758118
1779998841186822100,5.264822265625,-0.12965615093708038,0.13836097717285156,-0.8856018781661987
1779998841203158500,5.281158447265625,-0.2612976133823395,0.470671683549881,-0.9117164015769958
1779998841219507700,5.2975078125,-0.5025894045829773,1.0766500234603882,-0.8972083330154419
1779998841235814000,5.31381396484375,-0.7399105429649353,1.6759088039398193,-0.8665123581886292
1779998841252172300,5.33017236328125,-0.9149234294891357,1.965153455734253,-0.902553379535675
1779998841268503300,5.34650341796875,-1.1510227918624878,2.4544565677642822,-1.197295904159546
1779998841284812500,5.3628125,-1.6705636978149414,3.277292013168335,-1.598328948020935
1779998841301165600,5.37916552734375,-2.5175282955169678,3.7142133712768555,-1.412778615951538
1779998841317506000,5.395506103515625,-3.623958110809326,3.020270586013794,-0.8729264140129089
1779998841333837600,5.411837646484375,-4.502687931060791,1.3946053981781006,-0.9149234294891357
1779998841350154800,5.42815478515625,-4.520097255706787,-0.46593746542930603,-1.7414240837097168
1779998841366505000,5.4445048828125,-3.5081992149353027,-1.7638733386993408,-2.249511241912842
1779998841382818800,5.46081884765625,-2.116342544555664,-2.18048357963562,-1.9703458547592163
1779998841399164200,5.4771640625,-1.1453723907470703,-2.027156352996826,-1.4721852540969849
1779998841415501000,5.4935009765625,-0.5734497308731079,-0.8784242272377014,-1.153160810470581
1779998841431820300,5.5098203125,-0.4155410826206207,0.5015203952789307,-0.9929614663124084
1779998841448147000,5.52614697265625,-0.4355469346046448,1.3652838468551636,-0.5783366560935974
1779998841464480300,5.542480224609375,-0.24846944212913513,1.3329079151153564,0.039095375686883926
1779998841480802300,5.55880224609375,0.26679539680480957,0.7864890098571777,0.36392298340797424
1779998841497145900,5.575145751953125,0.8112290501594543,0.1160643994808197,0.4034765064716339
1779998841513474800,5.591474853515625,1.1242974996566772,-0.33628132939338684,0.5036584138870239
1779998841529813800,5.607813720703125,1.1910345554351807,-0.5364924073219299,0.7341073155403137
1779998841546143200,5.624143310546875,1.2137892246246338,-0.579405665397644,0.960280179977417
1779998841562475800,5.640475830078125,1.3671164512634277,-0.5618433356285095,1.1510227918624878
1779998841578821400,5.6568212890625,1.649794340133667,-0.5835290551185608,1.3277156352996826
1779998841595159300,5.6731591796875,1.9879082441329956,-0.7345654368400574,1.5050193071365356
1779998841611488000,5.689488037109375,2.261423110961914,-1.0239628553390503,1.71515691280365
1779998841627819300,5.7058193359375,2.3637430667877197,-1.3843733072280884,1.9475910663604736
1779998841644153900,5.72215380859375,2.2432498931884766,-1.6757560968399048,2.155132532119751
1779998841660486700,5.738486572265625,1.9605720043182373,-1.451415777206421,2.28631591796875
1779998841676812800,5.754812744140625,1.6001615524291992,-0.14767667651176453,2.182621479034424
1779998841693153500,5.771153564453125,1.1527026891708374,2.3776402473449707,1.7102699279785156
1779998841709484300,5.787484375,0.5635231733322144,4.913647174835205,1.300837516784668
1779998841725817300,5.8038173828125,0.24388794600963593,4.725653648376465,1.6614007949829102
1779998841742131000,5.820130859375,0.11743884533643723,3.0944905281066895,1.1720976829528809
1779998841758480000,5.83647998046875,0.05467243865132332,2.514779567718506,0.22907446324825287
1779998841774814700,5.852814697265625,-0.060475658625364304,2.4527766704559326,-0.12095131725072861
1779998841791145700,5.869145751953125,-0.2915354371070862,0.7443392872810364,0.0029016099870204926
1779998841807462000,5.8854619140625,-0.3173444867134094,-2.08274507522583,0.2996293902397156
1779998841823812900,5.901812744140625,0.051770828664302826,-3.855475902557373,0.5539020895957947
1779998841840145000,5.918144775390625,0.5907067060470581,-4.293466567993164,0.8568912148475647
1779998841856476200,5.93447607421875,1.1826350688934326,-4.426023960113525,1.0587822198867798
1779998841872808000,5.950807861328125,1.7194329500198364,-4.173125743865967,1.2322678565979004
1779998841889142300,5.967142333984375,2.132530689239502,-3.5443928241729736,1.4155274629592896
1779998841905472500,5.983472412109375,2.046704053878784,-1.2983940839767456,1.1023063659667969
1779998841921806300,5.999806396484375,0.8921687006950378,2.420248031616211,-0.1010981947183609
1779998841938121200,6.016121337890625,-0.055283304303884506,3.1949779987335205,-0.693637490272522
1779998841954460000,6.0324599609375,-0.5325217843055725,3.2985196113586426,-0.7226535677909851
1779998841970792000,6.0487919921875,-0.623235285282135,3.2682816982269287,-0.5499314665794373
1779998841987125500,6.06512548828125,-0.41691553592681885,3.1720705032348633,-0.37140607833862305
1779998842003455500,6.08145556640625,-0.06398813426494598,3.0741794109344482,-0.20983220636844635
1779998842019790300,6.097790283203125,0.20433442294597626,3.048981189727783,-0.06444628536701202
1779998842036122000,6.1141220703125,0.31062498688697815,2.866790533065796,0.1270599663257599
1779998842052454400,6.130454345703125,0.23105977475643158,2.2125539779663086,0.5140430927276611
1779998842068802800,6.146802734375,0.1696678251028061,1.4808900356292725,0.9582948684692383
1779998842085135000,6.163135009765625,0.2073887437582016,1.1433870792388916,1.2707524299621582
1779998842101466000,6.179466064453125,0.27000242471694946,1.1974486112594604,1.4666874408721924
1779998842117782300,6.1957822265625,0.30253100395202637,1.4688254594802856,1.5984816551208496
1779998842134131000,6.212130859375,0.2591595947742462,1.761277198791504,1.644449234008789
1779998842150467800,6.2284677734375,0.11682797968387604,1.7983872890472412,1.5193746089935303
1779998842166795800,6.244795654296875,-0.033139441162347794,1.4906638860702515,1.1861475706100464
1779998842183114000,6.261114013671875,-0.07651086896657944,0.9544769525527954,0.6892086863517761
1779998842199459800,6.2774599609375,0.044287730008363724,0.39385536313056946,0.21273382008075714
1779998842215761400,6.293761474609375,0.23945917189121246,0.020463986322283745,-0.022449297830462456
1779998842232141000,6.31014111328125,0.3321579694747925,-0.20463985204696655,0.025045474991202354
1779998842248457700,6.326457763671875,0.2675589919090271,-0.43829581141471863,0.33108896017074585
1779998842264795100,6.342795166015625,0.05451972410082817,-0.6591235995292664,0.7780895829200745
1779998842281091800,6.359091796875,-0.22770002484321594,-0.7322747111320496,1.2286027669906616
1779998842297441800,6.37544189453125,-0.5146539807319641,-0.6637051105499268,1.6055065393447876
1779998842313788700,6.39178857421875,-0.7283040881156921,-0.34926220774650574,1.845118522644043
1779998842330125800,6.408125732421875,-0.7993171811103821,0.1010981947183609,1.913688063621521
1779998842346452000,6.424451904296875,-0.6973026990890503,0.6540839672088623,1.8061758279800415
1779998842362791400,6.44079150390625,-0.4309654235839844,3.265838384628296,0.7579310536384583
1779998842379137000,6.457136962890625,-0.384845107793808,4.9703049659729,-0.48380526900291443
1779998842395452400,6.473452392578125,-0.9799805879592896,3.9828414916992188,-0.812298059463501
1779998842411782000,6.489781982421875,-1.5934419631958008,3.1609222888946533,-0.8674286603927612
1779998842428108500,6.506108642578125,-1.8194621801376343,4.153730869293213,-1.3258830308914185
1779998842444439800,6.522439697265625,-1.8839083909988403,6.027254581451416,-2.5027148723602295
1779998842460772000,6.538772216796875,-2.0094411373138428,6.718296051025391,-4.0660719871521
1779998842477092900,6.5550927734375,-2.1456642150878906,4.087757587432861,-4.285219669342041
1779998842493433900,6.571433837890625,-2.6510024070739746,1.2304353713989258,-2.7462973594665527
1779998842509759200,6.58775927734375,-2.6062564849853516,1.2721269130706787,-2.389246702194214
1779998842526087400,6.60408740234375,-1.7773123979568481,1.7327193021774292,-2.2267565727233887
1779998842542426000,6.620426025390625,-0.4531092941761017,2.0528125762939453,-1.943009614944458
1779998842558784300,6.6367841796875,0.8536841869354248,3.1416800022125244,-1.8579466342926025
1779998842575111400,6.653111328125,1.412473201751709,4.405407428741455,-2.2046127319335938
1779998842591446800,6.66944677734375,0.5917757153511047,4.333172798156738,-2.7601945400238037
1779998842607783700,6.68578369140625,-0.8257371187210083,2.6053402423858643,-2.266768217086792
1779998842624117200,6.7021171875,-1.3797918558120728,1.345278024673462,-1.1956160068511963
1779998842640443100,6.718443115234375,-1.5094480514526367,1.5702290534973145,-0.6056728959083557
1779998842656773600,6.734773681640625,-1.470963478088379,2.213470220565796,-0.6360634565353394
1779998842673118500,6.751118408203125,-1.1737775802612305,2.341904640197754,-0.8516988754272461
1779998842689440800,6.767440673828125,-0.58062744140625,1.8307631015777588,-0.8498662710189819
1779998842705772800,6.783772705078125,-0.036193765699863434,1.0700831413269043,-0.6528622508049011
1779998842722112000,6.800112060546875,0.2692388594150543,0.6577491760253906,-0.4231768846511841
1779998842738441000,6.81644091796875,0.3952298164367676,0.7029531598091125,-0.1547016203403473
1779998842754756900,6.8327568359375,0.5106833577156067,0.8770498037338257,0.15592335164546967
1779998842771105000,6.84910498046875,0.699288010597229,0.9494373202323914,0.4928155243396759
1779998842787438600,6.8654384765625,0.984867513179779,0.9060658812522888,0.7877107262611389
1779998842803771100,6.881771240234375,1.3255776166915894,0.8376489877700806,1.0172433853149414
1779998842820104400,6.8981044921875,1.621999979019165,0.6614143252372742,1.1779009103775024
1779998842836435000,6.91443505859375,1.7753270864486694,0.0682641938328743,1.266018271446228
1779998842852767000,6.93076708984375,1.7409659624099731,-1.0364855527877808,1.3310753107070923
1779998842869103000,6.94710302734375,1.3880385160446167,-1.701565146446228,1.3040446043014526
1779998842885419300,6.963419189453125,0.24419337511062622,-0.4314235746860504,1.4808900356292725
1779998842901766400,6.979766357421875,-1.4465289115905762,1.7304285764694214,1.8962783813476562
1779998842918082800,6.996082763671875,-2.6529877185821533,3.397021532058716,2.322662353515625
1779998842934421500,7.01242138671875,-2.989421844482422,6.797097682952881,2.548682451248169
1779998842950749000,7.0287490234375,-2.852435350418091,11.171504020690918,1.3254249095916748
1779998842967084500,7.04508447265625,-2.057852268218994,10.36729907989502,0.16951510310173035
1779998842983408000,7.061408203125,-0.9027060866355896,1.6586518287658691,0.19089539349079132
1779998842999745500,7.07774560546875,0.10552696883678436,-2.5468499660491943,-0.4340197443962097
1779998843016087000,7.094087158203125,0.9645562171936035,-3.0162999629974365,-0.6436992287635803
1779998843032403700,7.11040380859375,1.4425582885742188,-2.701704263687134,-0.7301366925239563
1779998843048756200,7.126756103515625,1.5745052099227905,-2.2430970668792725,-0.8347473740577698
1779998843065088000,7.143087890625,1.5512923002243042,-1.9236146211624146,-0.9479101300239563
1779998843081421800,7.159421875,1.5407549142837524,-1.5034921169281006,-1.0422887802124023
1779998843097747700,7.175747802734375,1.5656476020812988,-0.9935722947120667,-1.0932960510253906
1779998843114090500,7.192090576171875,1.4178181886672974,-0.526107668876648,-0.8868235945701599
1779998843130426000,7.208426025390625,0.9292787313461304,-0.5057964324951172,-0.3874412775039673
1779998843146721300,7.22472119140625,0.3013092875480652,-1.0213667154312134,0.3214678466320038
1779998843163089000,7.2410888671875,-0.18127426505088806,-1.6662876605987549,1.0149526596069336
1779998843179419400,7.25741943359375,-0.49724429845809937,-1.9987510442733765,1.5375478267669678
1779998843195760400,7.273760498046875,-0.7231117486953735,-1.5969544649124146,1.884519338607788
1779998843212076000,7.290075927734375,-1.1571314334869385,4.180609226226807,1.5419765710830688
1779998843228418600,7.30641845703125,-1.5891659259796143,9.102502822875977,0.6785185933113098
1779998843244752600,7.322752685546875,-1.716684103012085,7.7512688636779785,0.21670444309711456
1779998843261054500,7.339054443359375,-1.5935946702957153,5.968306064605713,-0.32421672344207764
1779998843277406000,7.355406005859375,-1.4636331796646118,6.621626377105713,-0.9662361145019531
1779998843293762000,7.371761962890625,-0.5064072608947754,4.783533096313477,0.42042800784111023
1779998843310079200,7.388079345703125,0.42378777265548706,1.1074986457824707,0.8912523984909058
1779998843326402000,7.404402099609375,0.21120665967464447,-0.7463245987892151,-0.4121813178062439
1779998843342747400,7.420747314453125,-0.08384125679731369,-1.7737998962402344,-1.0749701261520386
1779998843359077000,7.4370771484375,-0.09636399149894714,-1.7930421829223633,-1.0983357429504395
1779998843375418000,7.453418212890625,-0.028557950630784035,-1.2066116333007812,-0.9332493543624878
1779998843391751200,7.469751220703125,0.12721268832683563,-0.3651446998119354,-0.7296785116195679
1779998843408075300,7.4860751953125,0.29764407873153687,0.47448956966400146,-0.6947064995765686
1779998843424400600,7.502400634765625,0.4017966091632843,1.0658071041107178,-0.8399397134780884
1779998843440732000,7.51873193359375,0.39324450492858887,1.3298536539077759,-1.0083857774734497
1779998843457055200,7.53505517578125,0.18936823308467865,1.3616186380386353,-1.035416603088379
1779998843473395000,7.55139501953125,-0.2562579810619354,1.3107640743255615,-1.1232284307479858
1779998843489734000,7.56773388671875,-0.7684684991836548,1.1102476119995117,-1.500590443611145
1779998843506062800,7.584062744140625,-1.3535246849060059,0.9702067375183105,-1.9234619140625
1779998843522396400,7.600396484375,-2.1401662826538086,0.9321803450584412,-1.9758436679840088
1779998843538741800,7.61674169921875,-2.8968756198883057,0.6772968173027039,-1.6417003870010376
1779998843555074300,7.63307421875,-3.3463199138641357,0.48487427830696106,-1.3003793954849243
1779998843571408400,7.649408447265625,-3.2765283584594727,0.660803496837616,-1.3840678930282593
1779998843587740000,7.665739990234375,-2.565939426422119,0.6953173875808716,-1.3675745725631714
1779998843604070700,7.682070556640625,-1.4278974533081055,1.1720976829528809,-0.912021815776825
1779998843620406500,7.698406494140625,-0.3744603991508484,1.662469744682312,-0.6053674817085266
1779998843636734500,7.714734375,0.010690141469240189,0.8631525635719299,-0.8087855577468872
1779998843653072600,7.73107275390625,0.050854530185461044,-0.11056660860776901,-0.9996809959411621
1779998843669406200,7.74740625,0.18325957655906677,-0.34773504734039307,-0.9161451458930969
1779998843685720600,7.763720458984375,0.5169447064399719,-0.1160643994808197,-0.565203070640564
1779998843702097700,7.78009765625,1.0045678615570068,-0.12538009881973267,-0.1716531366109848
1779998843718400300,7.796400146484375,1.4726433753967285,-0.40485092997550964,0.16982053220272064
1779998843734732500,7.812732666015625,1.7762434482574463,-0.40912699699401855,0.5044219493865967
1779998843751068400,7.829068359375,1.873218297958374,-0.05910121276974678,0.7835873961448669
1779998843767383600,7.845383544921875,1.7328720092773438,0.15286903083324432,0.9737191796302795
1779998843783732700,7.861732666015625,1.516014814376831,-0.20616702735424042,1.0914634466171265
1779998843800063000,7.87806298828125,1.2878566980361938,-0.8701775670051575,1.1986702680587769
1779998843816382000,7.8943818359375,1.0456485748291016,-1.5884023904800415,1.34115469455719
1779998843832728800,7.910728759765625,0.8907942175865173,-2.113593816757202,1.5082262754440308
1779998843849065000,7.92706494140625,0.9094256162643433,-2.163379192352295,1.6672040224075317
1779998843865394200,7.943394287109375,0.9961684942245483,-1.4414892196655273,1.7496707439422607
1779998843881737700,7.95973779296875,0.8289441466331482,0.44852781295776367,1.5474743843078613
1779998843898058000,7.97605810546875,0.44715335965156555,2.610532522201538,1.0352638959884644
1779998843914358300,7.992358154296875,0.1915062516927719,2.492482900619507,0.9358455538749695
1779998843930713900,8.0087138671875,0.323147714138031,-0.43447789549827576,0.5676465034484863
1779998843947046400,8.02504638671875,0.4944954216480255,-2.017993450164795,-0.0010690141934901476
1779998843963364000,8.041364013671876,0.5777258276939392,-2.252718210220337,-0.12064588814973831
1779998843979708700,8.057708740234375,0.513126790523529,-3.065169095993042,0.34697145223617554
1779998843996044000,8.0740439453125,0.5455026626586914,-4.25406551361084,0.7168503403663635
1779998844012375600,8.09037548828125,0.7545713186264038,-4.888449192047119,0.7573201656341553
1779998844028725500,8.1067255859375,0.9317222237586975,-3.782630205154419,0.5820018649101257
1779998844045039400,8.123039306640624,0.6763805150985718,-1.1826350688934326,0.4092797040939331
1779998844061388300,8.13938818359375,0.33108896017074585,0.8052731156349182,0.32757648825645447
1779998844077710300,8.15571044921875,0.15302173793315887,1.8107572793960571,0.33292156457901
1779998844094054700,8.1720546875,0.11392636597156525,2.026392698287964,0.5151121020317078
1779998844110390500,8.188390625,-0.2736676335334778,3.5025486946105957,0.2721404731273651
1779998844126710300,8.204710205078126,-0.9460775256156921,5.616600513458252,-0.5074763298034668
1779998844143026400,8.2210263671875,-0.8830057382583618,4.840649127960205,-0.6954700946807861
1779998844159384300,8.23738427734375,-0.4671591818332672,3.039818286895752,-0.4512766897678375
1779998844175714600,8.253714599609374,-0.013897184282541275,0.6331618428230286,0.8341364860534668
1779998844192040000,8.2700400390625,0.5071708559989929,-0.29016098380088806,0.9592111706733704
1779998844208379000,8.28637890625,0.9008735418319702,-0.7044803500175476,-0.15851953625679016
1779998844224718600,8.302718505859374,0.8776606321334839,-1.633453607559204,-0.6947064995765686
1779998844241023700,8.319023681640624,0.7185302376747131,-1.851074457168579,-0.7594582438468933
1779998844257378300,8.33537841796875,0.39614611864089966,-1.2525792121887207,-0.7195992469787598
1779998844273707500,8.35170751953125,0.00855211354792118,-0.37720927596092224,-0.6983717083930969
1779998844290050800,8.36805078125,-0.2073887437582016,0.5630650520324707,-0.6939429044723511
1779998844306377700,8.384377685546875,-0.15271630883216858,1.2693779468536377,-0.6898195743560791
1779998844322711300,8.400711181640625,-0.04046982154250145,1.568701982498169,-0.6004805564880371
1779998844339029000,8.417029052734375,0.05054909735918045,1.4743232727050781,-0.4893030524253845
1779998844355374000,8.4333740234375,0.1088867336511612,0.9414960741996765,-0.48579058051109314
1779998844371715600,8.449715576171876,0.07635815441608429,0.30482175946235657,-0.5975789427757263
1779998844388045300,8.46604541015625,-0.21135938167572021,0.42180246114730835,-0.8797986507415771
1779998844404358100,8.482358154296875,-0.7564038634300232,1.8813122510910034,-1.549154281616211
1779998844420692500,8.4986923828125,-1.5893186330795288,4.119675159454346,-2.2200369834899902
1779998844437019000,8.515018798828125,-2.59098482131958,3.402672052383423,-1.4700472354888916
1779998844453361700,8.531361572265626,-3.5555412769317627,1.2906055450439453,-1.651168704032898
1779998844469694500,8.547694580078126,-4.009719371795654,-1.7683022022247314,-2.548529863357544
1779998844486024700,8.564024658203126,-3.3646457195281982,-3.528357744216919,-3.1671836376190186
1779998844502357200,8.580357177734374,-2.05433988571167,-2.835941791534424,-2.9162707328796387
1779998844518716000,8.5967158203125,-0.9589056968688965,-0.9393580555915833,-2.175291061401367
1779998844535037000,8.613036865234376,-0.5271766781806946,1.114981770515442,-1.440267562866211
1779998844551369700,8.62936962890625,-0.5815436840057373,1.7927367687225342,-1.0099129676818848
1779998844567701800,8.64570166015625,-0.8717046976089478,1.3365731239318848,-0.7363980412483215
1779998844584035800,8.662035888671875,-1.03037691116333,1.163851022720337,-0.3975205719470978
1779998844600366600,8.67836669921875,-0.8013024926185608,1.1617130041122437,-0.09269879758358002
1779998844616726800,8.694726806640626,-0.2649627923965454,1.0607675313949585,0.11163562536239624
1779998844633028000,8.711028076171875,0.3269656300544739,0.675006091594696,0.19394971430301666
1779998844649370600,8.72737060546875,0.8481863737106323,0.08017606288194656,0.31413745880126953
1779998844665699300,8.74369921875,1.2069170475006104,-0.3219259977340698,0.6476698517799377
1779998844682026000,8.76002587890625,1.3141238689422607,-0.5061018466949463,1.0630582571029663
1779998844698353700,8.776353759765625,1.3199270963668823,-0.7580837607383728,1.3202325105667114
1779998844714681900,8.792681884765624,1.4081971645355225,-1.0658071041107178,1.5092953443527222
1779998844731016200,8.80901611328125,1.6203200817108154,-1.3449726104736328,1.718363881111145
1779998844747348500,8.825348388671875,1.8629863262176514,-1.4966198205947876,1.9509508609771729
1779998844763680300,8.84168017578125,2.0111210346221924,-1.5650367736816406,2.216219186782837
1779998844780013000,8.858012939453126,1.9914207458496094,-1.6149749755859375,2.4584271907806396
1779998844796365600,8.874365478515625,1.766927719116211,-1.4199562072753906,2.61603045463562
1779998844812675600,8.890675537109376,1.4272866249084473,-0.737772524356842,2.7562239170074463
1779998844829027000,8.907027099609374,1.1359039545059204,0.30375275015830994,2.7881417274475098
1779998844845358600,8.923358642578124,0.8602510094642639,0.9518807530403137,2.269822597503662
1779998844861699600,8.939699462890625,0.5297728776931763,0.547182559967041,1.4242323637008667
1779998844878004200,8.956004150390624,0.26419922709465027,-0.40164390206336975,0.831234872341156
1779998844894339800,8.97233984375,0.0734565481543541,-0.6887505650520325,0.5748242139816284
1779998844910662100,8.988662109375,-0.058795779943466187,-0.038637228310108185,0.470060795545578
1779998844927009000,9.005009033203125,-0.3269656300544739,0.9471465349197388,0.5787948369979858
1779998844943340300,9.02134033203125,-0.6322455406188965,1.3403910398483276,0.7780895829200745
1779998844959674400,9.03767431640625,-0.6525567770004272,0.6785185933113098,0.540921151638031
1779998844975991000,9.053990966796874,-0.3627012372016907,-0.4766276180744171,0.1137736514210701
1779998844992340200,9.07034033203125,0.09957103431224823,-0.9860892295837402,-0.41111230850219727
1779998845008682000,9.086681884765625,0.40851613879203796,-1.2311989068984985,-0.6446155309677124
1779998845025019100,9.10301904296875,0.5157229900360107,-1.4063645601272583,-0.6579018831253052
1779998845041322800,9.11932275390625,0.5152648091316223,-1.2353222370147705,-0.6514877676963806
1779998845057667800,9.135667724609375,0.5022839307785034,-0.70692378282547,-0.4660901725292206
1779998845073990100,9.151990234375,0.27840182185173035,0.5867360830307007,-0.1647808998823166
1779998845090350300,9.168350341796875,-0.18784105777740479,2.3373231887817383,0.049785517156124115
1779998845106685700,9.184685791015625,-0.36453384160995483,2.967430591583252,0.1621847152709961
1779998845123011600,9.201011474609375,-0.23945917189121246,2.28631591796875,0.19914206862449646
1779998845139325700,9.21732568359375,-0.017562376335263252,1.151481032371521,0.2002110779285431
1779998845155680500,9.233680419921875,0.2177734673023224,0.19486601650714874,0.1615738570690155
1779998845171993000,9.2499931640625,0.4098905920982361,0.1388191282749176,-0.018936822190880775
1779998845196518100,9.27451806640625,0.38438695669174194,1.8026633262634277,-0.48227810859680176
1779998845212827600,9.29082763671875,-0.12034045159816742,1.8015943765640259,0.05360342562198639
1779998845229181400,9.307181396484374,-0.4778493344783783,1.3715451955795288,0.3651446998119354
1779998845245507600,9.323507568359375,-0.30115658044815063,1.0458012819290161,-0.09834930300712585
1779998845261841400,9.33984130859375,-0.019853120669722557,0.41370847821235657,-0.5984952449798584
1779998845278158800,9.356158935546874,0.12553280591964722,-0.04459316283464432,-0.7997753024101257
1779998845294510000,9.372510009765625,0.14538592100143433,-0.15347988903522491,-0.7669413089752197
1779998845310807800,9.388807861328125,0.0861319974064827,-0.055894169956445694,-0.6507241725921631
1779998845327170800,9.4051708984375,-0.020005837082862854,0.2701551616191864,-0.5771149396896362
1779998845343504100,9.421504150390625,-0.18387043476104736,0.7560984492301941,-0.6487388610839844
1779998845359842300,9.43784228515625,-0.5407684445381165,1.4743232727050781,-0.8972083330154419
1779998845376161800,9.454161865234376,-1.236696720123291,3.1062498092651367,-1.4379768371582031
1779998845392487700,9.47048779296875,-1.9987510442733765,3.8731911182403564,-1.468061923980713
1779998845408819000,9.48681884765625,-2.754849433898926,2.6090054512023926,-1.1241447925567627
1779998845425160400,9.503160400390625,-3.6167802810668945,0.6351471543312073,-1.6398677825927734
1779998845441489400,9.519489501953124,-3.9431352615356445,-2.264630079269409,-2.503783941268921
1779998845457819100,9.535819091796874,-3.550501585006714,-3.743229389190674,-2.931084156036377
1779998845474167800,9.552167724609374,-2.6251933574676514,-3.1419854164123535,-2.559983491897583
1779998845490487600,9.568487548828125,-1.6960673332214355,-2.119244337081909,-1.8475619554519653
1779998845506833200,9.584833251953125,-0.9069821834564209,-0.42867469787597656,-1.1233811378479004
1779998845523167200,9.601167236328125,-0.2539672255516052,1.4862351417541504,-0.6632469296455383
1779998845539478000,9.61747802734375,0.2393064647912979,2.0257818698883057,-0.5151121020317078
1779998845555835400,9.63383544921875,0.4948008358478546,1.1293370723724365,-0.24113905429840088
1779998845572158500,9.650158447265625,0.2246456891298294,1.0960450172424316,0.14584407210350037
1779998845588492500,9.666492431640625,0.029626963660120964,1.3724614381790161,0.447000652551651
1779998845604836900,9.6828369140625,0.3446807265281677,1.2264647483825684,0.7206682562828064
1779998845621160200,9.69916015625,0.8585711121559143,0.761443555355072,0.9714284539222717
1779998845637474000,9.71547412109375,1.3640620708465576,0.15546520054340363,1.1835514307022095
1779998845653829600,9.73182958984375,1.7626516819000244,-0.3205515444278717,1.3006848096847534
1779998845670157300,9.7481572265625,2.0164661407470703,-0.6850853562355042,1.2652546167373657
1779998845686494200,9.764494140625,2.1397082805633545,-1.1024590730667114,1.1728612184524536
1779998845702809900,9.780809814453125,2.203085422515869,-1.3871222734451294,1.2589932680130005
1779998845719146500,9.797146484375,2.1707096099853516,-1.5865697860717773,1.5874860286712646
1779998845735470800,9.813470947265625,2.0526599884033203,-1.6048957109451294,2.018298864364624
1779998845751809800,9.829809814453125,1.8333593606948853,-1.2415835857391357,2.4029910564422607
1779998845768128500,9.84612841796875,1.5114333629608154,-0.5106833577156067,2.673909902572632
1779998845784476400,9.862476318359375,1.095739483833313,0.6197227835655212,2.7256808280944824
1779998845800808400,9.878808349609375,0.7347181439399719,1.938580870628357,2.2621867656707764
1779998845817141000,9.89514111328125,0.7029531598091125,1.7605136632919312,1.7942639589309692
1779998845833470700,9.911470703125,0.856433093547821,-0.5832235813140869,1.4596625566482544
1779998845849809700,9.9278095703125,0.6600399017333984,-2.245082378387451,0.7954992651939392
1779998845866140000,9.944139892578125,0.2776382565498352,-1.8077030181884766,0.31444287300109863
1779998845882459000,9.960458984375,0.13255776464939117,-0.7733554244041443,0.1944078654050827
1779998845898803000,9.976802978515625,0.1290452778339386,-0.8547531962394714,0.2528982162475586
1779998845915133000,9.9931328125,0.2597704529762268,-1.8177822828292847,0.10567969083786011
1779998845931475500,10.009475341796875,0.5908594131469727,-3.3234124183654785,-0.14798210561275482
1779998845947803000,10.025802978515625,0.9297369122505188,-4.345848083496094,-0.19822576642036438
1779998845964135700,10.0421357421875,1.1870639324188232,-4.518723011016846,-0.13240504264831543
1779998845980469200,10.05846923828125,1.2950342893600464,-3.8679988384246826,-0.010690141469240189
1779998845996817000,10.07481689453125,1.236696720123291,-2.436741352081299,0.20036379992961884
1779998846013163500,10.09116357421875,0.9989174008369446,-0.31291571259498596,0.3868304193019867
1779998846029460700,10.107460693359375,0.13026700913906097,2.936276435852051,0.18188512325286865
1779998846045796400,10.12379638671875,-0.6679811477661133,4.56652307510376,0.021380282938480377
1779998846062130400,10.14013037109375,-0.6988298296928406,4.206418037414551,0.12370020896196365
1779998846078450200,10.1564501953125,-0.3888157308101654,3.3203580379486084,0.19654589891433716
1779998846094785300,10.172785400390625,-0.026114489883184433,2.3800837993621826,0.19333885610103607
1779998846111117000,10.189116943359375,0.2541199326515198,1.4457653760910034,0.20723603665828705
1779998846127452400,10.205452392578126,0.3865249752998352,0.15317445993423462,0.4827362596988678
1779998846143783700,10.22178369140625,0.35094207525253296,0.12263119965791702,0.6919575929641724
1779998846160116000,10.238115966796874,0.05955936014652252,1.7638733386993408,0.2747366428375244
1779998846176449000,10.254448974609375,0.05971207842230797,1.2217304706573486,-0.06963863968849182
1779998846192780500,10.270780517578125,-0.018020525574684143,0.1319468915462494,-0.28817567229270935
1779998846209113900,10.28711376953125,-0.2577851414680481,0.23258693516254425,-0.5180137157440186
1779998846225447400,10.303447509765626,-0.3854559659957886,0.6892086863517761,-0.619111955165863
1779998846241782500,10.319782470703124,-0.34086281061172485,0.5899431109428406,-0.5334380865097046
1779998846258112000,10.336112060546874,-0.2496911734342575,0.6878342628479004,-0.48915034532546997
1779998846274445000,10.352445068359375,-0.32498031854629517,1.143081545829773,-0.5919284224510193
1779998846290779000,10.36877880859375,-0.5722280144691467,1.656819224357605,-0.8042041063308716
1779998846307111200,10.385111083984375,-0.915534257888794,2.1319196224212646,-1.133460521697998
1779998846323444500,10.401444580078126,-1.3700180053710938,1.9648480415344238,-1.4309518337249756
1779998846339775500,10.417775390625,-1.871996521949768,1.3116804361343384,-1.884366512298584
1779998846356108000,10.43410791015625,-2.487596035003662,0.7101308703422546,-2.3658812046051025
1779998846372440800,10.45044091796875,-3.0772337913513184,0.03344487398862839,-2.5060746669769287
1779998846388778000,10.466778076171876,-3.389080286026001,-0.6285803318023682,-2.440406560897827
1779998846405106700,10.483106689453125,-3.179095506668091,-0.6826419234275818,-2.319607973098755
1779998846421453600,10.49945361328125,-2.4306328296661377,-0.485027015209198,-2.0448713302612305
1779998846437773800,10.51577392578125,-1.609171748161316,-0.14508049190044403,-1.5341880321502686
1779998846454118000,10.532117919921875,-0.9237809777259827,0.6411030888557434,-0.9466884136199951
1779998846470452000,10.548451904296876,-0.5957463383674622,1.2947288751602173,-0.6417139172554016
1779998846486776800,10.56477685546875,-0.7101308703422546,1.4141530990600586,-0.5780312418937683
1779998846503119600,10.58111962890625,-0.9143125414848328,1.264491081237793,-0.4407392740249634
1779998846519465000,10.59746484375,-0.6351471543312073,0.9862419366836548,-0.23839016258716583
1779998846535771400,10.613771484375,0.0022907445672899485,0.5048801302909851,-0.14217889308929443
1779998846552110300,10.6301103515625,0.5236642360687256,-0.09773843735456467,-0.14126259088516235
1779998846568457000,10.64645703125,0.746019184589386,-0.44745880365371704,-0.008704829961061478
1779998846584798000,10.6627978515625,0.854905903339386,-0.5491678714752197,0.2402227520942688
1779998846601122300,10.679122314453124,0.9841039180755615,-0.45295658707618713,0.5216789245605469
1779998846617467400,10.69546728515625,1.166752576828003,-0.3767511546611786,0.7832819819450378
1779998846633788400,10.711788330078125,1.3933836221694946,-0.3640756905078888,1.0680978298187256
1779998846650103600,10.728103515625,1.6310101747512817,-0.23594669997692108,1.328937292098999
1779998846666461700,10.744461669921876,1.851074457168579,-0.12217304855585098,1.5079208612442017
1779998846682785500,10.76078564453125,1.9842430353164673,-0.18295414745807648,1.6114624738693237
1779998846699122700,10.777122802734375,1.9885190725326538,-0.33505958318710327,1.6635388135910034
1779998846715456000,10.7934560546875,1.886810064315796,-0.2474004179239273,1.704466700553894
1779998846731783700,10.80978369140625,1.7285959720611572,0.24174992740154266,1.7009543180465698
1779998846748122600,10.82612255859375,1.525483250617981,1.0803152322769165,1.6285667419433594
1779998846764454400,10.842454345703125,1.1464413404464722,1.7466164827346802,1.516014814376831
1779998846780790500,10.85879052734375,0.5787948369979858,1.729664921760559,1.715767741203308
1779998846797102000,10.87510205078125,-0.03039054572582245,1.3266465663909912,2.0731239318847656
1779998846813446400,10.8914462890625,-0.661719799041748,1.8017470836639404,1.9094120264053345
1779998846829788400,10.907788330078125,-0.8135197758674622,2.055103302001953,1.3703234195709229
1779998846846116900,10.924116943359374,-0.5007568001747131,1.4926491975784302,0.825584352016449
1779998846862447600,10.940447509765624,-0.26511552929878235,0.2790127098560333,0.47769662737846375
1779998846878765300,10.956765380859375,0.008704829961061478,-2.2843306064605713,0.2018909603357315
1779998846895101700,10.973101806640624,0.34544429183006287,-4.1555633544921875,0.06062837690114975
1779998846911434000,10.98943408203125,0.7698429226875305,-4.756196975708008,0.03955352306365967
1779998846927768300,11.005768310546875,1.2316570281982422,-4.407545566558838,0.002138028386980295
1779998846944095200,11.02209521484375,1.6945401430130005,-2.9440650939941406,-0.10705413669347763
1779998846960432600,11.0384326171875,1.9796615839004517,-0.47051894664764404,-0.26832255721092224
1779998846976782300,11.0547822265625,1.7470746040344238,2.12703275680542,-0.5459607839584351
1779998846993112300,11.0711123046875,0.9071348905563354,3.935804843902588,-0.7903069257736206
1779998847009424100,11.087424072265625,-0.13026700913906097,4.4426703453063965,-0.7389942407608032
1779998847025777700,11.103777587890624,-0.8475755453109741,4.240321159362793,-0.3045163154602051
1779998847042112300,11.1201123046875,-0.8109236359596252,3.774536371231079,0.3237585723400116
1779998847058425300,11.13642529296875,-0.4108068645000458,3.325244903564453,1.0309878587722778
1779998847074772500,11.1527724609375,-0.0754418596625328,2.4549148082733154,1.9268217086791992
1779998847091131600,11.169131591796875,0.04108068719506264,1.458593487739563,2.905885934829712
1779998847107434200,11.185434326171874,0.07819075137376785,1.4329371452331543,3.3396003246307373
1779998847123766800,11.201766845703125,0.006872233934700489,1.777006983757019,3.322343349456787
1779998847140107300,11.218107177734375,-0.30512720346450806,2.1007654666900635,3.020576000213623
1779998847156440600,11.234440673828125,-0.7738135457038879,2.112982988357544,2.4772112369537354
1779998847172767700,11.250767822265624,-1.1647672653198242,2.1224513053894043,1.6713273525238037
1779998847189088300,11.267088134765626,-1.3391693830490112,2.0723602771759033,0.6357579827308655
1779998847205447700,11.28344775390625,-1.0974193811416626,2.252412796020508,-0.3139847218990326
1779998847221771800,11.299771728515625,-0.661719799041748,2.8606820106506348,-0.9046914577484131
1779998847238102500,11.3161025390625,-0.39843684434890747,3.6328155994415283,-1.1076513528823853
1779998847254423000,11.332423095703126,-0.3851505517959595,4.424802303314209,-1.0314459800720215
1779998847270766000,11.34876611328125,-0.5697845816612244,4.76032018661499,-0.8191702961921692
1779998847287093200,11.36509326171875,-0.774118959903717,4.690834045410156,-0.5499314665794373
1779998847303435300,11.381435302734374,-0.9434813857078552,4.34874963760376,-0.2583959996700287
1779998847319766300,11.397766357421874,-1.0911580324172974,3.66228985786438,0.06979135423898697
1779998847336092000,11.414091796875,-1.1696542501449585,2.85274076461792,0.40622538328170776
1779998847352420900,11.4304208984375,-1.173930287361145,1.9775235652923584,0.7402159571647644
1779998847368746500,11.44674658203125,-0.9970847964286804,1.1829406023025513,1.0380127429962158
1779998847385082400,11.463082275390626,-0.6629415154457092,0.598953366279602,1.326035737991333
1779998847401413400,11.479413330078126,-0.22647829353809357,0.28756481409072876,1.6203200817108154
1779998847417727700,11.495727783203124,0.17638733983039856,0.2871066629886627,1.9252945184707642
1779998847434083600,11.51208349609375,0.32268956303596497,0.4605923891067505,2.2032382488250732
1779998847450421500,11.52842138671875,0.23839016258716583,1.0181596279144287,2.3634376525878906
1779998847466750700,11.544750732421875,0.10613783448934555,7.679034233093262,0.4337143301963806
1779998847483090000,11.56108984375,-0.2838996350765228,8.196436882019043,-0.3266601860523224
1779998847499431000,11.577430908203125,-0.7834346890449524,5.943413257598877,-0.31444287300109863
1779998847515753500,11.59375341796875,-0.9731083512306213,3.570201873779297,-0.14538592100143433
1779998847532095500,11.610095458984375,-0.7612907886505127,1.564578652381897,0.12919799983501434
1779998847548421400,11.62642138671875,-0.270766019821167,0.25824329257011414,0.39843684434890747
1779998847564747000,11.6427470703125,0.2996293902397156,-0.08185594528913498,0.6831000447273254
1779998847581092900,11.6590927734375,0.7096726894378662,0.5765040516853333,0.7145596146583557
1779998847597405700,11.67540576171875,0.6953173875808716,1.2635747194290161,0.29107728600502014
1779998847613751000,11.6917509765625,0.33567044138908386,1.1869112253189087,-0.13118331134319305
1779998847630092500,11.708092529296875,-0.3292563557624817,1.1215485334396362,-0.4778493344783783
1779998847646415000,11.7244150390625,-1.220050573348999,2.3489296436309814,-1.6940820217132568
1779998847662756000,11.740756103515626,-2.057088613510132,3.587611675262451,-3.508810043334961
1779998847679083300,11.757083251953125,-2.7311785221099854,3.4127514362335205,-3.674201726913452
1779998847695421400,11.77342138671875,-3.0641000270843506,2.196518659591675,-2.152383804321289
1779998847711757800,11.7897578125,-2.7340800762176514,0.5535966157913208,-1.0897835493087769
1779998847728077600,11.80607763671875,-2.077094554901123,-0.08781187981367111,-0.8575021028518677
1779998847744420400,11.82242041015625,-1.4479033946990967,0.4789183437824249,-1.2185235023498535
1779998847760753000,11.8387529296875,-0.9077457785606384,1.1227703094482422,-2.037540912628174
1779998847777092600,11.855092529296876,-0.36102136969566345,1.152855396270752,-2.9110782146453857
1779998847793417000,11.8714169921875,0.09086620807647705,0.769079327583313,-3.2626311779022217
1779998847809748200,11.887748291015624,0.17989981174468994,0.2554943859577179,-2.8800768852233887
1779998847826073000,11.904072998046875,-0.05146539583802223,0.46960264444351196,-2.4882068634033203
1779998847842412800,11.920412841796875,-0.4560109078884125,1.5917620658874512,-2.5059218406677246
1779998847858729000,11.93672900390625,-0.7544185519218445,2.7757716178894043,-2.643824815750122
1779998847875065600,11.953065673828124,-0.7443392872810364,3.050661087036133,-2.5169174671173096
1779998847891396900,11.96939697265625,-0.3903428912162781,2.7818803787231445,-2.071749448776245
1779998847907731500,11.9857314453125,-0.006261368747800589,2.5647177696228027,-1.6365079879760742
1779998847924062200,12.002062255859375,0.17791450023651123,2.239126443862915,-1.4480561017990112
1779998847940396000,12.01839599609375,0.1270599663257599,2.0227274894714355,-1.3590224981307983
1779998847956726300,12.034726318359375,0.02886338345706463,1.8988746404647827,-1.2829697132110596
1779998847973074400,12.051074462890625,-0.04046982154250145,1.72935950756073,-1.1314750909805298
1779998847989396000,12.06739599609375,-0.09147707372903824,1.5514450073242188,-0.8788823485374451
1779998848005740800,12.08374072265625,-0.06994406878948212,1.4321736097335815,-0.6099489331245422
1779998848022039000,12.1000390625,0.1495092660188675,1.104138970375061,-0.41920626163482666
1779998848038406700,12.11640673828125,0.502436637878418,0.6427829265594482,-0.28817567229270935
1779998848054699800,12.13269970703125,0.8342891931533813,0.2373211532831192,-0.17272214591503143
1779998848071059500,12.1490595703125,1.073595643043518,-0.004886921960860491,-0.024892758578062057
1779998848087389000,12.165388916015624,1.2504411935806274,-0.12400564551353455,0.17623461782932281
1779998848103738400,12.18173828125,1.3926200866699219,-0.3162754774093628,0.4786129295825958
1779998848120066300,12.19806640625,1.4575244188308716,-0.5175555944442749,0.8582656979560852
1779998848136407300,12.2144072265625,1.3631458282470703,-0.5754350423812866,1.2037099599838257
1779998848152729300,12.230729248046876,1.1261301040649414,-0.4928155243396759,1.3684908151626587
1779998848169064000,12.24706396484375,0.7898487448692322,-0.1843285858631134,1.3116804361343384
1779998848185391400,12.263391357421876,0.470060795545578,0.2583959996700287,1.1983648538589478
1779998848201736000,12.27973583984375,0.29993483424186707,0.489608496427536,1.2553280591964722
1779998848218063000,12.29606298828125,0.30253100395202637,0.4043927788734436,1.5190691947937012
1779998848234396400,12.312396484375,0.40622538328170776,0.18631389737129211,1.7623462677001953
1779998848250745000,12.3287451171875,0.49037206172943115,-0.015271631069481373,1.8330538272857666
1779998848267062800,12.345062744140625,0.5193881988525391,-0.13301590085029602,1.69622004032135
1779998848283393500,12.3613935546875,0.5102251768112183,-0.14538592100143433,1.3435981273651123
1779998848299728600,12.377728759765626,0.540921151638031,-0.08368854224681854,0.9010262489318848
1779998848316071700,12.39407177734375,0.632398247718811,-0.052381694316864014,0.7008151412010193
1779998848332394200,12.410394287109375,0.6592763066291809,-0.3959933817386627,1.007927656173706
1779998848348711200,12.426711181640625,0.4407392740249634,-1.2327260971069336,1.5939000844955444
1779998848365047600,12.443047607421875,0.18738290667533875,-2.037540912628174,2.085188627243042
1779998848381359000,12.459359130859376,-0.33658674359321594,-2.0702223777770996,1.863139033317566
1779998848397713000,12.475712890625,-0.7964155673980713,-1.3906347751617432,0.9912815690040588
1779998848414040800,12.492040771484374,-0.6600399017333984,-0.6440047025680542,0.5213735103607178
1779998848430380800,12.508380859375,0.04352414980530739,-0.13148874044418335,0.32070425152778625
1779998848446711300,12.524711181640624,0.683863639831543,0.21334469318389893,-0.03940080851316452
1779998848463060700,12.541060791015624,1.0181596279144287,0.42119157314300537,-0.34804046154022217
1779998848479385000,12.557385009765625,1.2848023176193237,0.8130616545677185,-0.41172316670417786
1779998848495726300,12.573726318359375,1.4230105876922607,1.374599575996399,-0.4153883755207062
1779998848512059100,12.59005908203125,0.6484334468841553,2.439795732498169,-0.9964739084243774
1779998848528386600,12.606386474609375,-0.17592918872833252,1.1158981323242188,-0.156686931848526
1779998848544722000,12.622721923828125,-0.8526151776313782,-1.0430524349212646,0.5641340613365173
1779998848561054200,12.63905419921875,-1.1074986457824707,-2.6569583415985107,0.9091202020645142
1779998848577368600,12.65536865234375,-1.1009318828582764,-2.9936978816986084,1.138958215713501
1779998848593717200,12.67171728515625,-1.0960450172424316,-1.8591684103012085,1.4130840301513672
1779998848610039000,12.6880390625,-0.9963212013244629,-0.04046982154250145,1.5954272747039795
1779998848626397700,12.704397705078126,-0.4207334518432617,1.4840971231460571,0.6863071322441101
1779998848642697700,12.72069775390625,0.35323283076286316,2.275320291519165,-0.7771732807159424
1779998848659052500,12.737052490234374,0.778853178024292,2.2620339393615723,-1.2289081811904907
1779998848675383800,12.7533837890625,0.9807441234588623,2.0384573936462402,-0.9266825914382935
1779998848691713500,12.769713623046876,1.0441213846206665,1.5128077268600464,-0.41431936621665955
1779998848708061200,12.786061279296876,0.8723155856132507,0.6840163469314575,0.15714508295059204
1779998848724369700,12.80236962890625,0.531758189201355,-0.12660181522369385,0.759916365146637
1779998848740715000,12.818715087890626,0.15745051205158234,-0.16798794269561768,0.9028588533401489
1779998848757026000,12.835026123046875,-0.2620611786842346,1.1785117387771606,0.14752395451068878
1779998848773384200,12.85138427734375,-0.30283644795417786,2.2734878063201904,-0.3669773042201996
1779998848789710000,12.8677099609375,0.10323622822761536,2.0169243812561035,-0.4108068645000458
1779998848806033700,12.88403369140625,0.4190535545349121,1.2179125547409058,-0.43768495321273804
1779998848822375200,12.900375244140625,0.5100724697113037,0.6345362663269043,-0.5642867684364319
1779998848838694000,12.91669384765625,0.3959933817386627,0.7903069257736206,-0.8643743395805359
1779998848855029500,12.933029541015625,0.20876319706439972,1.341460108757019,-1.2211196422576904
1779998848871360500,12.949360595703125,0.25992316007614136,0.9960157871246338,-1.0493137836456299
1779998848887705900,12.965705810546876,0.40256020426750183,-0.11652254313230515,-0.6520986557006836
1779998848904012300,12.98201220703125,0.35964691638946533,-0.9202684760093689,-0.5418374538421631
1779998848920347100,12.99834716796875,0.22770002484321594,-0.8443684577941895,-0.646295428276062
1779998848936695800,13.01469580078125,0.026114489883184433,0.26282477378845215,-0.8909469842910767
1779998848953023000,13.03102294921875,-0.07024950534105301,1.080162525177002,-1.0297660827636719
1779998848969357600,13.047357666015625,-0.08292495459318161,1.1618657112121582,-0.9920451641082764
1779998848985691100,13.063691162109375,-0.20494529604911804,1.0790934562683105,-0.9659306406974792
1779998849002019800,13.080019775390625,-0.4834998548030853,1.1545352935791016,-1.2722796201705933
1779998849018372400,13.096372314453125,-0.9269880056381226,1.1888965368270874,-1.825876235961914
1779998849034703400,13.112703369140625,-1.5238033533096313,0.675616979598999,-2.3183863162994385
1779998849051036200,13.1290361328125,-2.2395846843719482,0.09987647086381912,-2.7536277770996094
1779998849067374600,13.14537451171875,-2.7962355613708496,-0.39996400475502014,-2.996141195297241
1779998849083689200,13.161689208984376,-2.869844913482666,-0.11713340878486633,-2.886338233947754
1779998849100037400,13.178037353515625,-2.370157241821289,0.31031954288482666,-2.47873854637146
1779998849116350500,13.1943505859375,-1.7111862897872925,0.5603161454200745,-1.9468275308609009
1779998849132697600,13.210697509765625,-1.236391305923462,1.0685560703277588,-1.3833043575286865
1779998849149013500,13.227013427734375,-1.1508700847625732,1.4860824346542358,-0.8396342992782593
1779998849165351200,13.24335107421875,-1.3048081398010254,1.4216361045837402,-0.28909197449684143
1779998849181683200,13.25968310546875,-1.340238332748413,1.354135513305664,0.14782938361167908
1779998849198016000,13.27601611328125,-1.1898127794265747,1.191950798034668,0.3770565688610077
1779998849214349600,13.292349609375,-0.7455610036849976,0.9669997096061707,0.46379944682121277
1779998849230682000,13.30868212890625,-0.10155634582042694,0.7461718916893005,0.4691445231437683
1779998849247014000,13.325013916015624,0.38011088967323303,0.26343563199043274,0.5053382515907288
1779998849263365600,13.34136572265625,0.6884451508522034,-0.23854288458824158,0.6559165716171265
1779998849279695400,13.3576953125,0.8278751373291016,-0.6991352438926697,0.8074111342430115
1779998849296017200,13.37401708984375,0.917672336101532,-1.0196868181228638,0.8810204267501831
1779998849312353800,13.390353759765626,1.0494664907455444,-1.217454433441162,0.9517280459403992
1779998849328690000,13.40668994140625,1.2261592149734497,-1.3933836221694946,1.079246163368225
1779998849345011700,13.42301171875,1.4019356966018677,-1.6140587329864502,1.252121090888977
1779998849361342500,13.439342529296875,1.5199854373931885,-1.768760323524475,1.4818063974380493
1779998849377677000,13.455677001953125,1.5372424125671387,-1.7579174041748047,1.7449365854263306
1779998849394009600,13.472009521484376,1.4718798398971558,-1.6296358108520508,1.9856175184249878
1779998849410342400,13.48834228515625,1.3755158185958862,-1.3993395566940308,2.1928534507751465
1779998849426677500,13.504677490234375,1.2574660778045654,-1.131933331489563,2.3990204334259033
1779998849443011600,13.521011474609375,1.1282681226730347,-0.7811439037322998,2.6140451431274414
1779998849459354400,13.537354248046874,0.9088147878646851,-0.14828753471374512,2.599231719970703
1779998849475684900,13.553684814453124,0.6913467645645142,0.4996877610683441,2.1655173301696777
1779998849491996700,13.56999658203125,0.5742133259773254,0.48747047781944275,1.635897159576416
1779998849508360200,13.586360107421875,0.4291328489780426,-0.05757404863834381,1.1969904899597168
1779998849524678000,13.602677978515626,0.2119702398777008,-0.4349360466003418,0.9030115604400635
1779998849541023700,13.619023681640625,0.014966198243200779,-0.6310238242149353,0.7437284588813782
1779998849557358600,13.635358642578124,-0.0328340083360672,-0.7915286421775818,0.6905831694602966
1779998849573652700,13.65165283203125,-0.01817324012517929,-1.105207920074463,0.6294966340065002
1779998849590004700,13.668004638671874,-0.05849034711718559,-1.3967434167861938,0.5659666657447815
1779998849606319000,13.684319091796874,-0.19013181328773499,-1.5514450073242188,0.502436637878418
1779998849622655700,13.70065576171875,-0.19394971430301666,-0.956156849861145,-0.15653422474861145
1779998849638988300,13.71698828125,-0.08888089656829834,-0.3124575614929199,-0.9471465349197388
1779998849655321300,13.7333212890625,0.4024074673652649,-0.5123631954193115,-1.2092077732086182
1779998849671654100,13.749654052734375,0.8161159753799438,-0.6852380633354187,-1.3506230115890503
1779998849687986700,13.765986572265625,0.8828529715538025,-0.8035932183265686,-1.3889548778533936
1779998849704318200,13.782318115234375,0.656069278717041,-0.8875871896743774,-1.1093312501907349
1779998849720651500,13.798651611328125,0.4723515510559082,-0.9896016716957092,-0.3827070891857147
1779998849736985300,13.8149853515625,0.3006984293460846,-1.3460415601730347,0.5167919993400574
1779998849753316600,13.831316650390624,-0.168751522898674,0.7449501752853394,1.7168368101119995
1779998849769650700,13.847650634765625,-0.617584764957428,3.707646608352661,1.9504927396774292
1779998849785980200,13.863980224609374,-0.6876815557479858,3.5220963954925537,1.1892019510269165
1779998849802314800,13.880314697265625,-0.6094908118247986,1.9482020139694214,0.328340083360672
1779998849818649000,13.896649169921876,-0.5441282391548157,0.8694139719009399,-0.28527405858039856
1779998849834981400,13.9129814453125,-0.5305364727973938,0.40851613879203796,-0.5523748993873596
1779998849851314000,13.92931396484375,-0.4421137273311615,-0.03894266113638878,-0.38438695669174194
1779998849867645700,13.945645751953125,-0.2200642079114914,-0.6311765313148499,-0.11041389405727386
1779998849883978500,13.961978515625,0.22647829353809357,-1.0514518022537231,-0.025961773470044136
1779998849900310000,13.97831005859375,0.7800748944282532,-1.0222829580307007,-0.03130684420466423
1779998849916644600,13.99464453125,1.035416603088379,-0.531758189201355,-0.07788532227277756
1779998849932976600,14.0109765625,0.6808093190193176,0.8695666790008545,-0.40622538328170776
1779998849949310700,14.027310791015625,0.15347988903522491,2.872593879699707,-0.7519751191139221
1779998849965640200,14.04364013671875,0.14065171778202057,2.849991798400879,-0.25931230187416077
1779998849981975800,14.059975830078125,0.3462078869342804,1.5163202285766602,0.04260785132646561
1779998849998322000,14.076322021484375,0.2915354371070862,0.15363261103630066,-0.2373211532831192
1779998850014653400,14.0926533203125,0.013897184282541275,-0.04612032696604729,-0.6937901973724365
1779998850030985700,14.10898583984375,-0.22708915174007416,0.6400340795516968,-0.9288206100463867
1779998850047318300,14.125318359375,-0.16203200817108154,0.5659666657447815,-0.7609853744506836
1779998850063649300,14.141649169921875,0.05345070734620094,0.1215621829032898,-0.6534730792045593
1779998850079984400,14.157984375,0.16203200817108154,0.22892175614833832,-0.8541423082351685
1779998850096322000,14.174322021484375,0.08750644326210022,0.6368269920349121,-1.1285735368728638
1779998850112644600,14.19064453125,-0.13484850525856018,0.48747047781944275,-1.225395679473877
1779998850128993300,14.2069931640625,-0.5019785165786743,0.5112941861152649,-1.394299864768982
1779998850145328000,14.223328125,-1.1113165616989136,1.247844934463501,-1.9022343158721924
1779998850161626000,14.239626220703125,-1.9199494123458862,1.471421718597412,-2.406656265258789
1779998850177980000,14.25597998046875,-2.554791212081909,0.152105450630188,-2.596940755844116
1779998850194310000,14.272309814453125,-2.6192374229431152,-0.8182539939880371,-2.7589728832244873
1779998850210648000,14.28864794921875,-2.238821029663086,-0.8048149347305298,-2.665968656539917
1779998850226978300,14.304978271484375,-1.6329954862594604,0.03756821155548096,-2.2455406188964844
1779998850243311400,14.321311279296875,-1.1186469793319702,1.2333369255065918,-1.6126842498779297
1779998850259655000,14.337655029296876,-0.969443142414093,1.24647057056427,-1.003804326057434
1779998850275994600,14.35399462890625,-0.9376781582832336,0.47830748558044434,-0.6198754906654358
1779998850292319700,14.37031982421875,-0.8148942589759827,0.13255776464939117,-0.33505958318710327
1779998850308641300,14.386641357421874,-0.849255383014679,0.04092797264456749,-0.05543602257966995
1779998850324974600,14.402974609375,-0.7764097452163696,0.04612032696604729,0.08689557760953903
1779998850341308000,14.419307861328125,-0.4112650156021118,0.024129176512360573,0.1498146951198578
1779998850357638700,14.435638671875,-0.2050980031490326,0.04886921867728233,0.31261029839515686
1779998850373973500,14.451973388671876,-0.13607023656368256,0.06765332818031311,0.5482515692710876
1779998850390304800,14.4683046875,-0.04138612002134323,0.14752395451068878,0.8210029006004333
1779998850406638600,14.484638671875,0.09392052888870239,0.27290403842926025,1.0749701261520386
1779998850422973200,14.50097314453125,0.26313021779060364,0.3168863356113434,1.2162326574325562
1779998850439303700,14.5173037109375,0.503047525882721,0.2347249686717987,1.297935962677002
1779998850455648800,14.533648681640624,0.7954992651939392,0.08903361111879349,1.3855950832366943
1779998850471979800,14.549979736328124,1.0386236906051636,0.028405234217643738,1.531133770942688
1779998850488323800,14.56632373046875,1.1817188262939453,0.06429356336593628,1.734704613685608
1779998850504649500,14.5826494140625,1.3127493858337402,0.05803219974040985,1.8883371353149414
1779998850520979000,14.59897900390625,1.4526375532150269,-0.07009678333997726,1.940413475036621
1779998850537301200,14.61530126953125,1.5751160383224487,-0.31383201479911804,1.9019289016723633
1779998850553648000,14.631648193359375,1.6557502746582031,-0.6359107494354248,1.8154915571212769
1779998850569979400,14.6479794921875,1.6299412250518799,-0.9185886383056641,1.7551685571670532
1779998850586291200,14.664291259765625,1.4191926717758179,-0.9477574229240417,1.7970128059387207
1779998850602628000,14.680628173828126,1.0163270235061646,-0.41722095012664795,1.9167424440383911
1779998850618978300,14.696978271484374,0.5878050923347473,0.7063129544258118,2.0586159229278564
1779998850635279400,14.713279296875,0.5085453391075134,1.560760736465454,2.1904101371765137
1779998850651630000,14.729630126953126,0.593913733959198,1.472490668296814,1.99447500705719
1779998850667961600,14.745961669921876,0.4050036668777466,0.783892810344696,1.4993687868118286
1779998850684295200,14.762295166015624,0.1310305893421173,0.10064005106687546,0.9584475755691528
1779998850700622300,14.778622314453125,-0.007177666760981083,-0.1238529309630394,0.59803706407547
1779998850716957200,14.794957275390624,-0.04886921867728233,-0.22770002484321594,0.4662429094314575
1779998850733295900,14.8112958984375,-0.06780604273080826,-0.35659259557724,0.4764748811721802
1779998850749619700,14.82761962890625,-0.1647808998823166,-0.46410486102104187,0.5952881574630737
1779998850765975600,14.8439755859375,-0.2643519341945648,-0.7924449443817139,0.5761986374855042
1779998850782299100,14.860299072265626,-0.17562375962734222,-0.983340322971344,0.1589776873588562
1779998850798622500,14.87662255859375,0.08628471940755844,-1.0073168277740479,-0.35384368896484375
1779998850814956500,14.89295654296875,0.451123982667923,-0.9526443481445312,-0.5936083197593689
1779998850831289000,14.9092890625,0.6896668672561646,-0.7893906235694885,-0.5264131426811218
1779998850847621600,14.92562158203125,0.788627028465271,-0.6281222105026245,-0.26771169900894165
1779998850863954400,14.941954345703126,0.7463245987892151,-0.5419901609420776,0.08261952549219131
1779998850880287500,14.95828759765625,0.5314527750015259,-0.5448917746543884,0.470060795545578
1779998850896609500,14.974609619140624,0.2938261926174164,-0.5280929803848267,0.9190467596054077
1779998850912955400,14.990955322265625,0.07040221989154816,-0.3536909818649292,1.3449726104736328
1779998850929285400,15.007285400390625,-0.206777885556221,0.1007927656173706,1.4811954498291016
1779998850945635800,15.0236357421875,-0.18356500566005707,3.151606559753418,0.7249443531036377
1779998850961935000,15.03993505859375,-0.19349156320095062,4.808884143829346,-0.2574796974658966
1779998850978304800,15.0563046875,-0.4531092941761017,3.813631772994995,-0.6285803318023682
1779998850994611000,15.07261083984375,-0.6178901791572571,2.4584271907806396,-0.6646214127540588
1779998851010966500,15.088966552734375,-0.44776421785354614,1.0881037712097168,-0.35903605818748474
1779998851027290400,15.105290283203125,0.0024434609804302454,0.15515977144241333,-0.05253441259264946
1779998851043631600,15.121631591796875,0.4986187517642975,-0.3649919927120209,0.11682797968387604
1779998851059928600,15.137928466796875,0.8093964457511902,-0.6450737118721008,0.24617868661880493
1779998851076261000,15.15426123046875,0.7579310536384583,-0.779464066028595,0.3003929853439331
1779998851092624600,15.170624755859375,0.6023131608963013,-0.8587238192558289,0.3724750876426697
1779998851108946000,15.18694580078125,0.39416080713272095,-0.7964155673980713,0.4746423065662384
1779998851125288700,15.203288818359376,0.07971791177988052,-0.2788599729537964,0.5566509366035461
1779998851141609700,15.219609619140625,-0.40256020426750183,2.2814290523529053,0.4915938079357147
1779998851157941200,15.235941162109375,-0.7814493775367737,4.157548904418945,0.2958115041255951
1779998851174273000,15.25227294921875,-0.9288206100463867,3.4465017318725586,0.11438451707363129
1779998851190604300,15.268604248046875,-0.982729434967041,2.0819814205169678,-0.019547687843441963
1779998851206935300,15.284935302734375,-1.0482447147369385,1.8235855102539062,-0.15745051205158234
1779998851223274500,15.3012744140625,-1.1592695713043213,2.9110782146453857,-0.3744603991508484
1779998851239605800,15.317605712890625,-0.9966266751289368,3.134807825088501,-0.5393940210342407
1779998851255933200,15.33393310546875,-0.45875978469848633,1.6939293146133423,-0.275958389043808
1779998851272283600,15.35028369140625,-0.20433442294597626,0.3292563557624817,-0.1411098688840866
1779998851288606000,15.36660595703125,-0.16264286637306213,-0.34574973583221436,-0.5531384944915771
1779998851304938000,15.38293798828125,-0.22999076545238495,-0.7701483368873596,-0.9098837971687317
1779998851321271300,15.399271240234375,-0.47510045766830444,-0.5206099152565002,-1.00197172164917
1779998851337603000,15.41560302734375,-0.944855809211731,0.4634940028190613,-1.0367910861968994
1779998851353934300,15.431934326171875,-1.6314682960510254,1.1627819538116455,-1.0033462047576904
1779998851370271500,15.448271484375,-2.366950035095215,1.543503761291504,-1.05404794216156
1779998851386601200,15.464601318359374,-2.8243355751037598,0.7370089292526245,-1.3127493858337402
1779998851402934800,15.480934814453125,-2.86999773979187,-0.48869219422340393,-1.7256942987442017
1779998851419267000,15.49726708984375,-2.623971700668335,-1.5096007585525513,-2.032959461212158
1779998851435617800,15.51361767578125,-2.196671485900879,-2.1058051586151123,-2.132530689239502
1779998851451945000,15.529945068359375,-1.65834641456604,-2.0760254859924316,-1.9842430353164673
1779998851468278800,15.54627880859375,-1.149037480354309,-1.2191343307495117,-1.6015359163284302
1779998851484611300,15.562611328125,-0.7515169382095337,0.35185837745666504,-1.0157161951065063
1779998851500944000,15.57894384765625,-0.6815729141235352,2.073582172393799,-0.3003929853439331
1779998851517269800,15.595269775390625,-0.8538368940353394,3.0079004764556885,0.33918291330337524
1779998851533641700,15.611641845703126,-0.988379955291748,3.047912120819092,0.4564690589904785
1779998851549941200,15.627941162109375,-0.9086620807647705,2.2963950634002686,0.027183502912521362
1779998851566274000,15.644274169921875,-0.5549710988998413,0.9091202020645142,-0.35262197256088257
1779998851582608100,15.660608154296876,-0.05864306539297104,-0.19975294172763824,-0.5019785165786743
1779998851598938000,15.676938232421875,0.34162637591362,-0.7805330753326416,-0.5844452977180481
1779998851615256800,15.6932568359375,0.7092145681381226,-0.9082038998603821,-0.6294966340065002
1779998851631589000,15.709589111328125,1.010523796081543,-0.9143125414848328,-0.5461135506629944
1779998851647939300,15.725939208984375,1.173930287361145,-1.0186177492141724,-0.3715587854385376
1779998851664267000,15.74226708984375,1.220050573348999,-1.273043155670166,-0.18677204847335815
1779998851680589600,15.758589599609374,1.264796495437622,-1.475545048713684,0.009468411095440388
1779998851696923000,15.7749228515625,1.3555099964141846,-1.4269812107086182,0.2541199326515198
1779998851713255700,15.791255615234375,1.4256067276000977,-1.1100949048995972,0.5606215596199036
1779998851729577500,15.807577392578125,1.4738651514053345,-0.6563746929168701,0.9014843702316284
1779998851745920800,15.823920654296876,1.516014814376831,-0.1849394589662552,1.2365440130233765
1779998851762254300,15.84025439453125,1.5714508295059204,0.076052725315094,1.412473201751709
1779998851778593300,15.85659326171875,1.5978707075119019,-0.05955936014652252,1.3381003141403198
1779998851794918700,15.872918701171875,1.4906638860702515,-0.2822197377681732,1.1285735368728638
1779998851811252200,15.889252197265625,1.2041680812835693,0.1560760736465454,0.8576548099517822
1779998851827593700,15.90559375,0.631481945514679,0.9143125414848328,0.7773260474205017
1779998851843916500,15.92191650390625,0.01618792861700058,2.012190103530884,1.6099354028701782
1779998851860248800,15.938248779296876,-0.5797111392021179,3.8044686317443848,2.0308215618133545
1779998851876584400,15.95458447265625,-0.9558513760566711,4.32675838470459,1.2341004610061646
1779998851892902400,15.97090234375,-0.7560984492301941,2.8597655296325684,0.1498146951198578
1779998851909248000,15.987248046875,-0.4369213581085205,1.97385835647583,-0.5917757153511047
1779998851925592800,16.0035927734375,-0.24266621470451355,-0.275958389043808,-1.0986411571502686
1779998851941926400,16.019926513671876,-0.09193521738052368,-2.9272663593292236,-1.2953397035598755
1779998851958246700,16.03624658203125,0.17867808043956757,-4.367991924285889,-0.6795876026153564
1779998851974592000,16.052592041015625,0.7721336483955383,-4.18137264251709,0.044135015457868576
1779998851990923800,16.068923828125,1.4711161851882935,-2.814561605453491,0.4596760869026184
1779998852007241700,16.08524169921875,1.9961549043655396,-0.8382598161697388,0.6374378800392151
1779998852023579400,16.101579345703126,2.063044548034668,0.8723155856132507,0.6349944472312927
1779998852039910000,16.117909912109376,1.6588045358657837,1.559233546257019,0.6433938145637512
1779998852056240600,16.13424072265625,1.2878566980361938,1.6898059844970703,0.8009970784187317
1779998852072574200,16.15057421875,1.1548407077789307,1.531439185142517,1.0494664907455444
1779998852088905000,16.166905029296874,1.038318157196045,1.1178834438323975,1.410946011543274
1779998852105228800,16.183228759765626,0.6493497490882874,-0.046273041516542435,2.5550966262817383
1779998852121563600,16.199563720703125,0.07895433157682419,-0.3121521472930908,3.338989496231079
1779998852137906000,16.215906005859374,-0.3533855378627777,1.2719742059707642,2.788447141647339
1779998852154239200,16.2322392578125,-0.5328271985054016,2.9046642780303955,1.4230105876922607
1779998852170574300,16.24857421875,-0.7663304209709167,3.41443133354187,0.5564982295036316
1779998852186902300,16.26490234375,-0.7611380815505981,3.6801576614379883,0.3113885521888733
1779998852203237400,16.2812373046875,-0.6455318331718445,3.9735257625579834,0.33536502718925476
1779998852219548200,16.297548095703124,-0.5919284224510193,4.137695789337158,0.460897833108902
1779998852235902200,16.313902099609376,-0.5688682794570923,4.134641647338867,0.5807801485061646
1779998852252231200,16.330231201171873,-0.5613851547241211,3.9538252353668213,0.6522513628005981
1779998852268573400,16.346573486328126,-0.540921151638031,3.7000107765197754,0.6525567770004272
1779998852284899600,16.362899658203126,-0.4508185386657715,3.4271068572998047,0.5911648273468018
1779998852301233700,16.379233642578125,-0.2808452844619751,3.177568197250366,0.4645630121231079
1779998852317568000,16.395568115234376,-0.07116580009460449,2.9124526977539062,0.2756529450416565
1779998852333898500,16.4118984375,0.1264491081237793,2.679560422897339,0.09269879758358002
1779998852350231300,16.428231201171876,0.27870726585388184,2.464535713195801,-0.02580905705690384
1779998852366562800,16.444562744140626,0.3433062732219696,2.2258403301239014,-0.03695734590291977
1779998852382897400,16.4608974609375,0.3404046595096588,1.986228346824646,0.07437284290790558
1779998852399226400,16.477226318359374,0.31780263781547546,1.744478464126587,0.25473082065582275
1779998852415573200,16.4935732421875,0.2519819140434265,1.507157325744629,0.48258355259895325
1779998852431905300,16.5099052734375,0.1293507218360901,1.3269519805908203,0.755793035030365
1779998852448236000,16.526236083984376,0.00855211354792118,1.244027018547058,1.000749945640564
1779998852464578300,16.542578369140625,-0.11026117950677872,1.253800868988037,1.1823296546936035
1779998852480905200,16.5589052734375,-0.20082195103168488,1.3321443796157837,1.2788463830947876
1779998852497237200,16.5752373046875,-0.2480112910270691,1.5596916675567627,1.2386820316314697
1779998852513551600,16.591551513671874,-0.23090706765651703,2.4611761569976807,1.0696250200271606
1779998852529886700,16.60788671875,-0.20341812074184418,3.7672059535980225,0.8978192210197449
1779998852546239200,16.6242392578125,-0.144622340798378,3.629303216934204,0.6397286057472229
1779998852562593800,16.64059375,-0.14446963369846344,3.050813674926758,0.6142250299453735
1779998852578903000,16.656903076171876,-0.16233743727207184,2.358550786972046,0.8292495608329773
1779998852595236900,16.67323681640625,-0.20845776796340942,2.02929425239563,2.375044107437134
1779998852611562200,16.689562255859375,-0.2629774808883667,2.7652342319488525,3.9872701168060303
1779998852627894500,16.70589453125,-0.0429132841527462,5.270698070526123,3.3379204273223877
1779998852644212200,16.722212158203124,0.08918632566928864,6.9296555519104,0.5361869931221008
1779998852660568800,16.73856884765625,-0.6995934247970581,3.57875394821167,-0.7111998796463013
1779998852676878000,16.754878173828125,-1.5538884401321411,0.578489363193512,-0.8232936263084412
1779998852693218600,16.771218505859373,-1.942704200744629,0.7864890098571777,-1.5097534656524658
1779998852709549600,16.787549560546875,-2.381152629852295,1.4039210081100464,-2.121076822280884
1779998852725882000,16.803882080078125,-2.827389717102051,1.3277156352996826,-2.2011001110076904
1779998852742211800,16.8202119140625,-2.9098565578460693,0.9867000579833984,-2.0839667320251465
1779998852758552800,16.836552734375,-2.4810292720794678,0.7250970602035522,-2.040595293045044
1779998852774882000,16.852882080078125,-1.6572774648666382,1.2119566202163696,-1.9245309829711914
1779998852791213800,16.8692138671875,-0.6594290137290955,2.2070560455322266,-1.7064520120620728
1779998852807534600,16.88553466796875,0.21884247660636902,3.626859664916992,-1.595274567604065
1779998852823881000,16.901880859375,0.25702154636383057,4.254676342010498,-1.5688546895980835
1779998852840212700,16.918212646484374,-0.5581781268119812,3.506366491317749,-1.3377948999404907
1779998852856544300,16.934544189453124,-1.3238977193832397,3.082273244857788,-1.238071084022522
1779998852872877300,16.950877197265626,-1.4256067276000977,2.8400652408599854,-1.2705997228622437
1779998852889211100,16.967211181640625,-1.104138970375061,2.16628098487854,-1.4158328771591187
1779998852905542400,16.98354248046875,-0.6852380633354187,1.3153456449508667,-1.6727017164230347
1779998852921887200,16.99988720703125,-0.2393064647912979,0.8823948502540588,-1.856572151184082
1779998852938226700,17.016226806640624,0.1342376321554184,0.946382999420166,-1.7892242670059204
1779998852954553300,17.03255322265625,0.28588494658470154,1.229824423789978,-1.5111279487609863
1779998852970871600,17.04887158203125,0.299476683139801,1.4413365125656128,-1.1870639324188232
1779998852987214300,17.06521435546875,0.3323107063770294,1.3765848875045776,-0.9414960741996765
1779998853003536000,17.081535888671876,0.4528038501739502,1.04289972782135,-0.7548767328262329
1779998853019869400,17.097869384765627,0.6139195561408997,0.6592763066291809,-0.5447390675544739
1779998853036196900,17.11419677734375,0.8219192028045654,0.49464812874794006,-0.2791654169559479
1779998853052542200,17.130542236328125,1.0538952350616455,0.3481931984424591,-0.023060163483023643
1779998853068856000,17.14685595703125,1.2431107759475708,0.15515977144241333,0.23273965716362
1779998853085206000,17.1632060546875,1.31916344165802,-0.14248432219028473,0.4963280260562897
1779998853101519600,17.17951953125,1.2789990901947021,-0.4404338300228119,0.7776314616203308
1779998853117871600,17.19587158203125,1.214400053024292,-0.7469354867935181,1.1691961288452148
1779998853134200800,17.212200927734376,1.2189816236495972,-1.135140299797058,1.765705943107605
1779998853150519000,17.22851904296875,1.1036807298660278,-1.2663236856460571,2.4191792011260986
1779998853166854100,17.244854248046874,0.6861543655395508,-0.9912815690040588,2.7960829734802246
1779998853183186200,17.261186279296876,0.057879481464624405,-0.4210388660430908,2.6539039611816406
1779998853199523300,17.2775234375,-0.44089198112487793,0.152105450630188,2.1905627250671387
1779998853215850000,17.29385009765625,-0.5314527750015259,0.4314235746860504,1.777006983757019
1779998853232185300,17.310185302734375,-0.25473082065582275,0.6579018831253052,1.570534586906433
1779998853248519700,17.326519775390626,0.040164388716220856,1.3063353300094604,1.3750576972961426
1779998853264851500,17.3428515625,0.23777928948402405,1.872912883758545,0.8321511745452881
1779998853281183000,17.359182861328126,0.22159136831760406,0.19898934662342072,0.6860016584396362
1779998853297518000,17.37551806640625,0.12034045159816742,-2.2989914417266846,0.6899722814559937
1779998853313848600,17.3918486328125,0.018325956538319588,-3.0561587810516357,0.3520110845565796
1779998853330182100,17.40818212890625,-0.014202617108821869,-1.7458528280258179,-0.10430523753166199
1779998853346513700,17.424513671875,0.1612684279680252,0.342237263917923,-0.16371189057826996
1779998853362847000,17.440846923828126,0.3634648323059082,2.177734613418579,-0.1459967941045761
1779998853379178800,17.4571787109375,0.294437050819397,2.8515188694000244,-0.34987306594848633
1779998853395513300,17.473513427734375,0.10308351367712021,2.286621332168579,-0.5781839489936829
1779998853411845400,17.489845458984377,0.1823432743549347,1.2809844017028809,-0.4564690589904785
1779998853428178400,17.506178466796875,0.5112941861152649,0.9779952764511108,0.128434419631958
1779998853444510500,17.522510498046874,0.6818783283233643,0.8142833709716797,0.584139883518219
1779998853460843800,17.53884375,0.4184426963329315,0.25534167885780334,0.5140430927276611
1779998853477174300,17.55517431640625,0.1440114825963974,0.04734205827116966,0.38087448477745056
1779998853493508900,17.5715087890625,0.046273041516542435,0.07742717117071152,0.2431243658065796
1779998853509840400,17.58784033203125,-0.018936822190880775,0.5510004758834839,-0.0006108652451075613
1779998853526173200,17.604173095703125,-0.15225815773010254,1.5445728302001953,-0.37568211555480957
1779998853542506000,17.620506103515623,-0.19104810059070587,2.2934935092926025,-0.5765040516853333
1779998853558838800,17.6368388671875,0.029474247246980667,2.5224153995513916,-0.35964691638946533
1779998853575174000,17.653173828125,0.33292156457901,1.9587393999099731,0.14767667651176453
1779998853591520300,17.669520263671874,0.24617868661880493,1.2835805416107178,0.22189679741859436
1779998853607847400,17.685847412109375,-0.11484266817569733,1.0131200551986694,-0.31093040108680725
1779998853624182300,17.702182373046874,-0.22403483092784882,0.8684976696968079,-0.8985827565193176
1779998853640502300,17.718502197265625,-0.10354165732860565,0.5535966157913208,-0.9305005073547363
1779998853656847400,17.734847412109374,-0.021991148591041565,0.328340083360672,-0.5992587804794312
1779998853673180000,17.751179931640625,0.049785517156124115,0.4075998365879059,-0.29397889971733093
1779998853689514200,17.76751416015625,0.11942415684461594,0.6183483600616455,-0.09392052888870239
1779998853705832400,17.78383251953125,0.1621847152709961,0.7620543837547302,0.03237585723400116
1779998853722173400,17.80017333984375,0.07925976812839508,0.801913321018219,0.0607810914516449
1779998853738515500,17.816515380859375,-0.23228150606155396,1.3130548000335693,-0.12858712673187256
1779998853754844000,17.832843994140624,-0.7429648637771606,2.47094988822937,-0.551305890083313
1779998853771173600,17.849173583984374,-1.3460415601730347,3.5056028366088867,-0.950506329536438
1779998853787516400,17.865516357421875,-1.843896746635437,3.61800217628479,-0.8240572214126587
1779998853803828700,17.881828857421876,-2.540435791015625,2.0169243812561035,-0.9857838153839111
1779998853820174000,17.898174072265626,-3.2919528484344482,-0.8976664543151855,-2.143373489379883
1779998853836505300,17.91450537109375,-3.2950072288513184,-2.2342395782470703,-3.140763759613037
1779998853852839000,17.9308388671875,-2.615114212036133,-1.8324429988861084,-3.1760411262512207
1779998853869172200,17.947172119140625,-1.7427985668182373,-0.34987306594848633,-2.4437663555145264
1779998853885511000,17.963510986328124,-1.0709995031356812,1.169806957244873,-1.5215126276016235
1779998853901840600,17.979840576171874,-0.8295549750328064,1.5945110321044922,-0.7429648637771606
1779998853918178300,17.99617822265625,-0.7961101531982422,0.7912232279777527,-0.446389764547348
1779998853934513000,18.012512939453124,-0.727998673915863,0.24083362519741058,-0.5013676285743713
1779998853950854700,18.028854736328125,-0.570242702960968,0.05207626149058342,-0.38179078698158264
1779998853967165200,18.045165283203126,-0.34406983852386475,-0.1466076523065567,-0.09957103431224823
1779998853983519700,18.061519775390625,-0.05421429127454758,-0.39797869324684143,0.16142113506793976
1779998853999843600,18.077843505859374,0.38179078698158264,-0.7670940160751343,0.22479841113090515
1779998854016172000,18.094172119140627,0.8181012868881226,-0.9010262489318848,0.27611109614372253
1779998854032499500,18.11049951171875,0.9085093140602112,-0.8689557909965515,0.46792277693748474
1779998854048831000,18.1268310546875,0.8515461683273315,-0.8581129312515259,0.7473936080932617
1779998854065165000,18.1431650390625,0.8393288254737854,-0.8852964639663696,1.0616837739944458
1779998854081500200,18.159500244140624,0.9443976879119873,-0.9541715383529663,1.3701707124710083
1779998854097823200,18.1758232421875,1.1145236492156982,-0.9975429177284241,1.6366606950759888
1779998854114185500,18.192185546875,1.287245750427246,-0.9428704977035522,1.8849774599075317
1779998854130511600,18.20851171875,1.4326317310333252,-0.9850202202796936,2.090686321258545
1779998854146825500,18.224825439453124,1.483486294746399,-1.0627528429031372,2.249816656112671
1779998854163172600,18.241172607421873,1.4098769426345825,-1.024420976638794,2.345417022705078
1779998854179509200,18.25750927734375,1.2563971281051636,-0.7985535860061646,2.3819162845611572
1779998854195833900,18.273833740234377,1.0610729455947876,-0.37400224804878235,2.302503824234009
1779998854212154400,18.290154296875,0.8437576293945312,0.2961169183254242,2.012037515640259
1779998854228493300,18.306493408203124,0.5203045010566711,1.253800868988037,1.4773776531219482
1779998854244825000,18.3228251953125,0.2838996350765228,1.4802792072296143,1.1655309200286865
1779998854261156900,18.339156982421876,0.27122417092323303,0.726471483707428,1.018770456314087
1779998854277490000,18.355489990234375,0.10674870014190674,-0.19624045491218567,0.6496551632881165
1779998854293823000,18.371822998046873,-0.07757988572120667,-1.0479393005371094,0.370947927236557
1779998854310154800,18.38815478515625,-0.08139779418706894,-2.0482311248779297,0.3462078869342804
1779998854326488600,18.404488525390626,-0.12751811742782593,-3.1506903171539307,0.31810808181762695
1779998854342819000,18.420819091796876,-0.08246681094169617,-3.7762162685394287,0.048258353024721146
1779998854359151600,18.437151611328126,0.20525072515010834,-3.701232433319092,-0.19776763021945953
1779998854375486500,18.453486572265625,0.5090034604072571,-2.928029775619507,-0.3497203588485718
1779998854391819000,18.469819091796875,0.5850561857223511,-1.7250834703445435,-0.484416127204895
1779998854408169000,18.4861689453125,0.40194934606552124,-0.3459024429321289,-0.5201517343521118
1779998854424496400,18.502496337890626,-0.01542434748262167,0.698066234588623,-0.4355469346046448
1779998854440813800,18.518813720703125,-0.4213443100452423,1.3101532459259033,-0.23426681756973267
1779998854457163000,18.5351630859375,-0.8768970370292664,3.6670241355895996,-0.17012597620487213
1779998854473478400,18.551478515625,-0.8315402865409851,4.323246002197266,0.04306599870324135
1779998854489826800,18.567826904296876,-0.4150829315185547,2.2036964893341064,-0.016951510682702065
1779998854506150400,18.584150390625,-0.1872301995754242,0.021991148591041565,-0.09422596544027328
1779998854522490000,18.600489990234376,-0.032070424407720566,-1.3930782079696655,-0.1186605766415596
1779998854538811000,18.616810791015624,0.19853121042251587,-2.0089831352233887,-0.1368338167667389
1779998854555157000,18.633156982421873,0.5093088746070862,-2.0453295707702637,-0.0806342139840126
1779998854571488300,18.64948828125,0.8790351152420044,-1.645671010017395,0.058337632566690445
1779998854587828500,18.665828369140623,1.2315043210983276,-1.1385000944137573,0.23548854887485504
1779998854604140300,18.682140380859376,1.4136948585510254,-0.7014260292053223,0.39645153284072876
1779998854620488000,18.698488037109374,1.3949108123779297,-0.30115658044815063,0.5439754724502563
1779998854636816400,18.71481640625,0.9511171579360962,0.9882272481918335,0.6298020482063293
1779998854653131300,18.73113134765625,0.11514809727668762,3.302643060684204,0.5615378618240356
1779998854669488600,18.747488525390626,-0.12767083942890167,3.4516940116882324,0.7849618196487427
1779998854685834500,18.76383447265625,-0.07360926270484924,2.339003086090088,0.7365507483482361
1779998854702132000,18.780132080078126,-0.14294247329235077,1.3758212327957153,0.026114489883184433
1779998854718467600,18.796467529296876,-0.19562959671020508,0.4031710624694824,-0.7420485615730286
1779998854734805200,18.81280517578125,-0.16554448008537292,-0.55695641040802,-0.9935722947120667
1779998854751140000,18.82914013671875,-0.08277224004268646,-1.1438452005386353,-0.8900306820869446
1779998854767465200,18.84546533203125,-0.05192354694008827,-1.269836187362671,-0.7415903806686401
1779998854783806200,18.86180615234375,-0.14233160018920898,-0.911410927772522,-0.7133378982543945
1779998854800124700,18.878124755859375,-0.3407101035118103,0.001679879380390048,-0.8231409192085266
1779998854816468500,18.894468505859376,-0.5088507533073425,1.3403910398483276,-0.9442449808120728
1779998854832798000,18.9107978515625,-0.5546656250953674,1.8842138051986694,-0.7959573864936829
1779998854849137200,18.92713720703125,-0.7260133624076843,1.2232576608657837,-0.7512115240097046
1779998854865466600,18.943466552734375,-0.9437867999076843,0.43768495321273804,-1.2788463830947876
1779998854881801700,18.9598017578125,-1.1814134120941162,-0.23457226157188416,-2.01509165763855
1779998854898148000,18.976148193359375,-1.5080735683441162,-0.6450737118721008,-2.6085472106933594
1779998854914482200,18.992482177734374,-1.882686734199524,-0.6068946123123169,-2.9611692428588867
1779998854930805000,19.008804931640626,-2.155285358428955,-0.5516113042831421,-2.900846242904663
1779998854947147300,19.025147216796874,-2.0340285301208496,-0.37110063433647156,-2.654515027999878
1779998854963476500,19.0414765625,-1.6672040224075317,0.3271183371543884,-2.2348504066467285
1779998854979807700,19.057807861328126,-1.3129020929336548,1.1023063659667969,-1.7021759748458862
1779998854996121000,19.07412109375,-1.0592403411865234,1.7455474138259888,-1.173624873161316
1779998855012472600,19.09047265625,-1.1548407077789307,1.6517796516418457,-0.7487680912017822
1779998855028811300,19.106811279296874,-1.249372124671936,1.2064588069915771,-0.53328537940979
1779998855045139500,19.123139404296875,-1.0754282474517822,1.027169942855835,-0.36392298340797424
1779998855061471000,19.139470947265625,-0.7531968355178833,0.8141306638717651,-0.16600263118743896
1779998855077805300,19.155805419921876,-0.43188172578811646,0.40653082728385925,0.031001411378383636
1779998855094136800,19.17213671875,-0.13866640627384186,-0.0806342139840126,0.19303341209888458
1779998855110470700,19.188470703125,0.1889100819826126,-0.4014911949634552,0.3168863356113434
1779998855126801000,19.20480078125,0.48197266459465027,-0.489608496427536,0.4306600093841553
1779998855143135000,19.221135009765625,0.679129421710968,-0.49067750573158264,0.6047565937042236
1779998855159454500,19.237454345703124,0.8364272117614746,-0.47678032517433167,0.8400924205780029
1779998855175770600,19.2537705078125,0.9950994849205017,-0.385303258895874,1.1171197891235352
1779998855192143000,19.27014306640625,1.1983648538589478,-0.2893974184989929,1.381624460220337
1779998855208453400,19.286453369140624,1.458593487739563,-0.27809640765190125,1.6055065393447876
1779998855224786000,19.302785888671874,1.7055357694625854,-0.3549126982688904,1.8156442642211914
1779998855241118200,19.3191181640625,1.867567777633667,-0.5070181488990784,2.0230329036712646
1779998855257450800,19.33545068359375,1.8967366218566895,-0.6105598211288452,2.1459696292877197
1779998855273783600,19.351783447265625,1.7527251243591309,-0.6858489513397217,2.149176597595215
1779998855290102500,19.3681025390625,1.4388930797576904,-0.7496843934059143,2.1568124294281006
1779998855306433800,19.384433837890626,1.0406090021133423,-0.6572909951210022,2.2353086471557617
1779998855322784000,19.400783935546876,0.7959573864936829,-0.4106541574001312,2.339766502380371
1779998855339114800,19.41711474609375,0.6482807397842407,-0.017867809161543846,2.16628098487854
1779998855355446300,19.4334462890625,0.41263946890830994,0.042760565876960754,1.466840147972107
1779998855371768300,19.449768310546876,0.1033889427781105,-0.3510948121547699,0.7160868048667908
1779998855388110800,19.46611083984375,-0.05421429127454758,-0.5688682794570923,0.20494529604911804
1779998855404462000,19.482462158203123,-0.0981965884566307,-0.5186246037483215,-0.023365596309304237
1779998855420789500,19.49878955078125,-0.02122756652534008,-0.9395107626914978,0.01817324012517929
1779998855437115000,19.515114990234373,0.11514809727668762,-1.7945693731307983,0.10674870014190674
1779998855453457200,19.53145703125,0.27947086095809937,-2.2146918773651123,-0.0757472887635231
1779998855469774000,19.547774169921876,0.5096143484115601,-2.492482900619507,-0.20265454053878784
1779998855486116000,19.5641162109375,0.65958172082901,-1.6975945234298706,-0.19593502581119537
1779998855502438100,19.580438232421876,0.15775595605373383,1.2589932680130005,-0.485027015209198
1779998855518790700,19.596790771484375,-0.5804746747016907,2.84189772605896,-0.6287330389022827
1779998855535098400,19.613098388671876,-0.7276932001113892,2.6403121948242188,-0.30925053358078003
1779998855551415600,19.62941552734375,-0.41263946890830994,2.500576972961426,0.2921462953090668
1779998855567767800,19.645767822265626,-0.0656680166721344,1.2991576194763184,0.31673362851142883
1779998855584107300,19.662107177734374,-0.08032877743244171,-0.10919216275215149,0.08139779418706894
1779998855600436700,19.678436767578123,-0.14966198801994324,-0.9531024694442749,0.013591751456260681
1779998855616765700,19.694765625,-0.17516560852527618,-1.6314682960510254,0.017867809161543846
1779998855633102300,19.711102294921876,-0.12767083942890167,-2.1823160648345947,0.02474004216492176
1779998855649451800,19.72745166015625,0.11133018881082535,-2.2872321605682373,0.08506298810243607
1779998855665779700,19.74377978515625,0.4928155243396759,-1.8241963386535645,0.2626720666885376
1779998855682112000,19.760112060546874,0.7825183868408203,-0.5366451144218445,0.4957171380519867
1779998855698432000,19.776431884765625,0.8139779567718506,0.8787296414375305,0.6377432942390442
1779998855714766600,19.7927666015625,0.6458373069763184,1.4508049488067627,0.6629415154457092
1779998855731096800,19.809096923828125,0.4205807149410248,1.4268285036087036,0.6378960609436035
1779998855747433200,19.82543310546875,0.2545780837535858,1.3524556159973145,0.5913175344467163
1779998855763763700,19.841763671875,0.275958389043808,1.4732542037963867,0.46273043751716614
1779998855780103400,19.858103515625,0.379652738571167,1.6852245330810547,0.21884247660636902
1779998855796429800,19.874429931640623,0.361174076795578,1.6149749755859375,-0.05757404863834381
1779998855812760300,19.89076025390625,0.28008171916007996,1.1681270599365234,-0.21792617440223694
1779998855829093400,19.90709326171875,0.19425514340400696,0.6372851729393005,-0.3217732608318329
1779998855845427700,19.923427734375,0.0685696229338646,0.531147301197052,-0.4193589985370636
1779998855861757200,19.939757080078124,-0.0913243517279625,0.8978192210197449,-0.5038111209869385
1779998855878112800,19.95611279296875,-0.22479841113090515,1.4454598426818848,-0.5508477091789246
1779998855894434600,19.9724345703125,-0.28466320037841797,1.7438675165176392,-0.5196936130523682
1779998855910775600,19.988775634765624,-0.25335636734962463,1.567785620689392,-0.47968193888664246
1779998855927087000,20.005087158203125,-0.17470745742321014,1.0476338863372803,-0.5893322229385376
1779998855943424500,20.021424560546876,-0.1316414624452591,0.8323038816452026,-0.8394815921783447
1779998855959753500,20.03775341796875,-0.17104226350784302,1.151481032371521,-1.0975720882415771
1779998855976075300,20.0540751953125,-0.41493022441864014,1.5830572843551636,-1.1470521688461304
1779998855992416800,20.070416748046874,-0.8074111342430115,1.4078916311264038,-0.9162978529930115
1779998856008757800,20.0867578125,-1.3599387407302856,1.0209085941314697,-0.8014551997184753
1779998856025102000,20.10310205078125,-2.0819814205169678,1.4504995346069336,-1.0027352571487427
1779998856041429500,20.119429443359376,-2.615725040435791,1.9382754564285278,-1.202946424484253
1779998856057769700,20.135769775390624,-2.5784621238708496,1.1933252811431885,-1.1155925989151
1779998856074081300,20.152081298828126,-2.188119411468506,0.14767667651176453,-1.254717230796814
1779998856090419000,20.1684189453125,-1.6968309879302979,-0.4683809280395508,-1.6067283153533936
1779998856106747100,20.1847470703125,-1.3813190460205078,-0.5169447064399719,-1.611920714378357
1779998856123084800,20.201084716796874,-1.250288486480713,-0.44455718994140625,-1.3303117752075195
1779998856139412000,20.217411865234375,-1.0433578491210938,-0.4369213581085205,-1.0661125183105469
1779998856155750400,20.23375048828125,-0.6951646208763123,-0.06414084881544113,-0.8043568134307861
1779998856172079000,20.2500791015625,-0.4053090810775757,0.1866193264722824,-0.4789183437824249
1779998856188406800,20.26640673828125,-0.19104810059070587,0.3341432809829712,-0.21884247660636902
1779998856204746200,20.282746337890625,-0.048105638474226,0.52702397108078,-0.04795292019844055
1779998856221079600,20.29907958984375,0.005650503560900688,0.7043276429176331,0.17256943881511688
1779998856237411800,20.315411865234374,0.1492038369178772,0.6388123035430908,0.3517056703567505
1779998856253743900,20.331743896484376,0.35246923565864563,0.48747047781944275,0.49098294973373413
1779998856270077400,20.348077392578126,0.5699372887611389,0.3338378667831421,0.5623014569282532
1779998856286401000,20.364401123046875,0.7809911966323853,0.19654589891433716,0.5404630303382874
1779998856302740700,20.38074072265625,0.9853256344795227,0.04932736977934837,0.4671591818332672
1779998856319074800,20.39707470703125,1.200197458267212,-0.07681630551815033,0.4285219609737396
1779998856335407400,20.413407470703124,1.4285084009170532,-0.18646661937236786,0.49617528915405273
1779998856351724000,20.42972412109375,1.6326900720596313,-0.24908030033111572,0.6730207800865173
1779998856368079000,20.4460791015625,1.7866281270980835,-0.22678372263908386,0.898124635219574
1779998856384436000,20.46243603515625,1.8764252662658691,-0.1973094791173935,1.1184942722320557
1779998856400730400,20.47873046875,1.8970420360565186,-0.24007004499435425,1.409724235534668
1779998856417083400,20.49508349609375,1.8445075750350952,-0.39217549562454224,1.8692476749420166
1779998856433409500,20.511409423828123,1.6562083959579468,-0.4709770977497101,2.3524420261383057
1779998856449749500,20.52774951171875,1.313360333442688,-0.10903944820165634,2.6039657592773438
1779998856466078000,20.544077880859376,0.9205739498138428,0.8275696635246277,2.498133420944214
1779998856482413000,20.5604130859375,0.6856962442398071,1.395827054977417,2.250274896621704
1779998856498752300,20.576752197265623,0.6186537742614746,1.3362677097320557,2.009899377822876
