time,seconds_elapsed,z,y,x
1780506457582798000,0.079798095703125,-2.4616391196131704,0.30525720453858374,-1.7297094310455023
1780506457592790800,0.089790771484375,-2.314215100249648,1.2993673185929655,-1.065568353459984
1780506457602783000,0.099782958984375,-2.367188565546274,0.826440009997785,-1.0769013561181724
1780506457612776000,0.10977587890625,-1.7169529714554548,0.5368053220048546,-1.1916527938053012
1780506457622769000,0.119768798828125,-0.48477089112401006,0.7756786677926778,-0.7853234981682151
1780506457632761900,0.129761962890625,0.143721073192358,0.7204036475554109,-0.32369346333071586
1780506457642753800,0.13975390625,-0.09246025703251361,0.32990736940950155,0.30851927507445215
1780506457652747000,0.1497470703125,-0.12420505633950232,0.2856637385353446,0.7869406510412692
1780506457662740000,0.159739990234375,0.45680619487762447,0.6139817929267883,0.5679943871252239
1780506457672732000,0.16973193359375,0.7662666963249445,1.2953393782511353,0.25942440477684137
1780506457682724900,0.179724853515625,0.7740262244105338,1.44522131216079,0.3767433548644185
1780506457692718000,0.189718017578125,-0.4827162966817617,0.859717425699532,-0.2821582146324217
1780506457702710000,0.1997099609375,-2.2119798836559057,0.5948737723529338,-0.9269408040143549
1780506457712703000,0.209702880859375,-1.764508503356576,1.6431199657425284,-1.0465285758167504
1780506457722696200,0.2196962890625,-0.8871773872941732,2.4617364425078034,-0.8247535182155669
1780506457732689000,0.22968896484375,-1.095461825811863,2.585153563340008,-0.34968554432988164
1780506457742681000,0.23968115234375,-0.7730547490298748,3.2547628432035443,0.20600524153932928
1780506457752673800,0.249673828125,0.4380710992693901,2.98855082411319,0.6653731035985052
1780506457762667000,0.2596669921875,1.2521797432214021,2.2042200633093714,1.0407809720754624
1780506457772659000,0.269658935546875,1.5266624547898768,1.9877265993729232,0.9763691440500318
1780506457782652000,0.27965185546875,2.533238959446549,1.97758689815253,0.9947092489913105
1780506457792644900,0.289644775390625,2.8866315416008232,1.5084683341905474,1.4033818198189139
1780506457802636800,0.29963671875,1.2697621616631745,0.5802133788377046,1.4838399427600204
1780506457812630000,0.309630126953125,-0.550361261409521,0.15163929897099732,0.947386795193702
1780506457822623000,0.319623046875,-2.119257176294923,0.23954291561245916,0.9107188602708279
1780506457832616000,0.329615966796875,-3.4079169306516643,0.22816958094388246,1.5517534952960907
1780506457842607900,0.33960791015625,-2.756035322919488,0.9934066419601439,1.1145450042054057
1780506457852601000,0.34960107421875,-1.0202630847036838,1.9166309096693992,0.6586465718224644
1780506457862593800,0.35959375,1.144526008710265,2.341706918287277,0.6504406151436269
1780506457872586000,0.3695859375,2.9083675725907088,2.2841636608570814,1.4893005462534725
1780506457882579000,0.379578857421875,3.5669185750842094,1.6553627767220138,2.5032097318857907
1780506457892572000,0.389572021484375,3.2539696469992396,1.021708022814989,2.5662059940248727
1780506457902564000,0.399564208984375,1.1408499505460261,0.6430275624081492,1.5056705201655625
1780506457912556800,0.409556884765625,-1.9120558568388222,0.5167959686771035,-0.02562712014429271
1780506457922550000,0.419550048828125,-3.47836643140614,0.5303472319066524,-1.044661466770619
1780506457932542000,0.4295419921875,-4.420834328767657,0.5615813052125275,-1.5989426781028508
1780506457942535000,0.439534912109375,-3.8462960729569193,0.8870560990020632,-1.7424321344964204
1780506457952528000,0.44952783203125,-1.0123761308461428,1.4571324069678782,-1.3230281801655888
1780506457962520800,0.459520751953125,0.3817074070125818,1.3199214463219047,-0.8542036307141184
1780506457972513000,0.469512939453125,1.8279665377885101,0.9148550832927227,-1.0177886574141681
1780506457982506000,0.479506103515625,2.8229087187528608,0.43054976385384797,-1.1358920358777045
1780506457992499000,0.4894990234375,2.619240834119916,-0.16370441529601812,-0.33806261881440874
1780506458002491000,0.499490966796875,1.8179717979967593,-0.4406424110621214,0.6459637619905173
1780506458012483800,0.50948388671875,-0.033012627285718917,-0.5049509248435498,1.2282627149306238
1780506458022476800,0.519476806640625,-0.9960989497840403,-0.22336013483554124,1.5666792617492378
1780506458032469000,0.529468994140625,-0.4168634760677814,0.35717648460716006,3.3935745170444247
1780506458042462000,0.5394619140625,-0.20455343529582024,0.40792409054785966,2.837442563278973
1780506458052455000,0.549454833984375,0.5796352866888046,1.155313360184431,-0.7513808234907686
1780506458062446800,0.55944677734375,-0.5390490092784166,0.6300242884501814,-0.45477885376848276
1780506458072439800,0.569439697265625,-0.9044242901712656,0.052799570034444326,0.1434446856700815
1780506458082433000,0.57943310546875,-0.17885083876252172,0.5621905231520533,0.12646763097662478
1780506458092426000,0.589426025390625,0.14778934554457662,0.6237675661429762,0.44217210484743114
1780506458102418000,0.59941796875,0.4354202924996614,0.4321373253062367,0.5184259079664946
1780506458112411100,0.6094111328125,0.5002233117997646,0.24840455972105263,0.38343057754337784
1780506458122403800,0.61940380859375,0.48901510456502434,0.027155133429169653,-0.047191995818354184
1780506458132396000,0.62939599609375,1.1996750644803047,-0.32961306263804435,-0.32413200087845323
1780506458142389000,0.639388916015625,1.9620669651985168,-0.5626008575186133,0.11873621474066748
1780506458152382000,0.6493818359375,2.305498125308752,-0.19552344888299703,0.7498188348710536
1780506458162374100,0.6593740234375,1.5444202297985552,-0.36832331704348326,0.6821513660505414
1780506458172366800,0.669366943359375,0.8933031766980886,-0.3984302860155701,0.0464535254759714
1780506458182359800,0.67935986328125,-0.13019523666501046,-0.4688146125793457,-0.603885748185031
1780506458192352000,0.68935205078125,-0.764072401151061,-0.40935061621963975,-0.8454268884100019
1780506458202345000,0.699344970703125,-1.070392266485095,-0.06305310689285397,-0.6655867463491857
1780506458212338000,0.709337890625,-1.4655144508659839,0.31611060698628424,-0.6131682115215807
1780506458222331100,0.7193310546875,-1.8404647848337887,0.31156127311885357,-0.9262454421613365
1780506458232322800,0.72932275390625,-1.8426485586136578,0.18853709712699054,-0.5656549113269895
1780506458242316000,0.73931591796875,-1.141765896347165,0.4319840344406664,0.2741987435279414
1780506458252308700,0.749308837890625,-0.003289689195156097,0.7527541576705873,0.8879821278057992
1780506458262301000,0.759301025390625,1.1038520530164242,0.632569004496932,1.18948911296539
1780506458272294100,0.769294189453125,1.8859259748041628,0.14912731615006922,1.3828957888901232
1780506458282286800,0.779286865234375,2.440810266596079,-0.34896599788367744,1.6300674458153546
1780506458292279000,0.789279052734375,2.2504449311286208,-0.7721212675720452,1.27204588868618
1780506458302271700,0.799271728515625,1.1880419098317623,-0.9350368705779314,0.34687172901816665
1780506458312265000,0.809264892578125,-1.0954624103337525,-1.0365288675889373,-0.8971401245124637
1780506458322257200,0.819257080078125,-1.7867536529123782,-0.7284408235386014,-1.5539254325076937
1780506458332249900,0.829249755859375,-0.89339377759099,-0.32919191461652514,-0.9924667307615279
1780506458342243000,0.8392431640625,-0.7166027939677238,-0.35658436393290754,-0.20602460382692514
1780506458352234800,0.84923486328125,-0.31035774254798887,-0.8591217978939414,-0.03162816892368719
1780506458362228000,0.85922802734375,0.01066518639922142,-1.072311544109881,0.006893522373400628
1780506458372221000,0.869220947265625,0.09952595763504504,-0.8366273497521877,0.3040751734134741
1780506458382212900,0.879212890625,0.30181963130533696,-0.45134500686228274,0.6445899163540453
1780506458392206000,0.8892060546875,0.23909984802007675,-0.13477321210503576,0.9036568859953433
1780506458402199000,0.899198974609375,-0.11326105299890041,0.03580839548408985,0.8276623183343559
1780506458412191700,0.909191650390625,-0.35245559356510636,0.03711509416848421,0.5478432872392237
1780506458422184000,0.919183837890625,-0.5685568433135748,0.007915303169190884,0.2987495031449944
1780506458432177200,0.92917724609375,-0.8011065390378236,-0.03473258294612169,0.0757884186635958
1780506458442169900,0.939169921875,-0.9072662355989217,-0.2768289824336767,-0.061971334971557365
1780506458452162000,0.949162109375,-0.5749836614906787,-0.5291945547401905,0.05966207621507346
1780506458462154800,0.95915478515625,-0.06678747111558914,-0.5560419373944402,0.25772976622078564
1780506458472148000,0.96914794921875,0.4066910416215658,-0.3769838856220245,0.5612427939731628
1780506458482140200,0.97914013671875,0.6094371352344751,-0.12513766101449728,0.9122874247618019
1780506458492132900,0.9891328125,0.5357090512007474,0.09757102417498827,1.0890644529249518
1780506458502124800,0.999124755859375,0.3604004150897264,0.0871000451736152,0.989424878847599
1780506458512117000,1.009116943359375,-0.00010638298392295837,-0.03904723127484321,0.8402708208210766
1780506458522109700,1.019109619140625,-0.707980511572957,0.039361850181967015,0.5856292664065956
1780506458532103000,1.02910302734375,-1.150505083119869,0.20359993396326898,0.2902700998196378
1780506458542094600,1.039094482421875,-1.1510346599519252,0.24219255333840845,0.3710815297104418
1780506458552087800,1.049087890625,-0.8434785308212042,0.19329758952707052,0.5889390850743279
1780506458562080800,1.059080810546875,-0.4261526979386806,-0.00550751137509942,0.5327628782136365
1780506458572072700,1.06907275390625,0.23339432985484598,0.019254589437693356,0.45874341001790014
1780506458582066000,1.07906591796875,0.9417530270904302,-0.1544083252929151,0.8901246927924453
1780506458592059000,1.089058837890625,0.6198848794907331,-0.3055377750456333,1.0908169226154685
1780506458602050800,1.09905078125,0.5794698669940233,-0.12441168482750653,0.6832371154606341
1780506458612043800,1.109043701171875,0.6392050815105438,0.10738953061699867,0.29659972296627235
1780506458622037000,1.119037109375,0.13474047887921334,0.36437282585203645,-0.09117817219956778
1780506458632029700,1.12902978515625,-0.11137889251410961,0.2493434480063617,0.2189076854713261
1780506458642022000,1.13902197265625,0.014102759632468223,0.029939065059274433,1.137386585284397
1780506458652014800,1.149014892578125,0.05858429091572761,0.46937151580974457,1.45597271553874
1780506458662007800,1.1590078125,0.3066039429724216,0.752104607720673,1.2331193611815572
1780506458672000000,1.169,0.4787421323537826,0.6403092433601617,1.105635137040913
1780506458681992700,1.17899267578125,0.356249725151062,0.17965002631619573,0.670436086076498
1780506458691986000,1.18898583984375,0.003983516678214073,-0.37895986187011,-0.05135974648967385
1780506458701977900,1.198977783203125,-0.278402515360713,-0.7298772860825061,-0.7583220209307968
1780506458711970800,1.208970703125,-0.2306008997440338,-0.9784062028355895,-1.454799141714722
1780506458721963800,1.2189638671875,-0.44506081202626224,-0.7710263119421898,-1.0251942574955522
1780506458731955700,1.228955810546875,-0.6731055975466966,-0.31261765030398964,-0.3231266597608104
1780506458741949000,1.238948974609375,-0.5081038359165191,0.11722425754144787,0.01213438216894865
1780506458751942000,1.24894189453125,-0.578992897132039,0.37736294806748627,0.24362616633810102
1780506458761933800,1.258933837890625,-0.8836176489859819,0.5491207598291337,0.43429077701307833
1780506458771926800,1.2689267578125,-1.1904390341013669,0.67850774885118,0.46423937708567825
1780506458781919700,1.278919677734375,-1.5224316853523254,0.694684976670146,0.33054555771518496
1780506458791912000,1.288911865234375,-1.75178112373054,0.6619089346192777,0.11790113388970494
1780506458801905000,1.29890478515625,-1.8157845170855522,0.5490412648521363,-0.02971745819784701
1780506458811897900,1.30889794921875,-1.715448996633291,0.2665527953520417,-0.26205373036712404
1780506458821889800,1.318889892578125,-1.4492711720734834,0.0571928365573287,-0.3147146956484765
1780506458831882800,1.3288828125,-1.2525374706178902,-0.07814780017212032,-0.14922726939320563
1780506458841875700,1.338875732421875,-1.245574061346054,-0.15566826222613453,-0.09778379014283418
1780506458851868000,1.348867919921875,-1.2460060230225325,-0.03463014548495412,-0.11388678368180989
1780506458861860900,1.35886083984375,-1.2206459563165903,0.24285627794414757,0.06574767973907292
1780506458871853800,1.368853759765625,-1.2995727780371904,0.527963697770983,0.38735388846695423
1780506458881845800,1.378845703125,-1.4463982469856738,0.6702643827714025,0.49043271627798674
1780506458891838700,1.388838623046875,-1.4294073646962642,0.6356326298512518,0.3097122842513025
1780506458901832000,1.39883203125,-1.31109896517992,0.5807173828370868,0.07273739249594509
1780506458911824000,1.408823974609375,-1.4000772253155707,0.546504585981369,-0.03695690793208778
1780506458921816800,1.41881689453125,-1.5587024376511573,0.5510735013321042,-0.2109516849655658
1780506458931809800,1.428809814453125,-1.572448054409027,0.5884016537293791,-0.28623452416062356
1780506458941802800,1.438802734375,-1.4971908611118792,0.5855218605093657,-0.27477351120859383
1780506458951795000,1.448794921875,-1.3494114524394274,0.4687548452161252,-0.18324147493690252
1780506458961788000,1.458787841796875,-1.2725894940435885,-0.042002720079571,0.5186569402433931
1780506458971780900,1.46878076171875,-0.22356442523598669,-0.34366248464807864,0.5834346789717674
1780506458981772800,1.478772705078125,0.6352735872805119,0.09299377938732505,0.180221615659073
1780506458991765800,1.488765869140625,0.6735346366137266,0.3286769508317113,0.09521225915439427
1780506459001758700,1.4987587890625,0.33253216495513915,0.37319618377685543,-0.05430770957507193
1780506459011751000,1.5087509765625,0.059414896520972246,0.4000057186387479,-0.15740962600074707
1780506459021743900,1.518743896484375,0.11019523568749427,0.4634672602020204,-0.08792860495224594
1780506459031736800,1.52873681640625,0.36812896351516244,0.6075457685299217,-0.027399025187641382
1780506459041728800,1.538728759765625,0.22893793496787546,0.7841754241116344,0.2584549752227962
1780506459051721700,1.5487216796875,-0.38993046095669265,0.6900796748317778,-0.19332301622927187
1780506459061715000,1.55871484375,-0.5385948357701301,0.548379878333956,-0.8829374116368591
1780506459071707000,1.568706787109375,-0.40377836904525755,0.4739981526970863,-1.7749189843423663
1780506459081699800,1.578699951171875,-0.2749514981240034,0.5261661468297243,-2.5424770356521007
1780506459091692800,1.58869287109375,0.3757604813069105,0.8206526587679982,-2.4849551132708787
1780506459101684700,1.598684814453125,0.8808826710641383,1.0903621645852923,-2.037940536828339
1780506459111678000,1.608677978515625,1.577711089503765,1.2546540243804454,-1.3497770708814263
1780506459121670700,1.618670654296875,2.18209386395812,1.4228066512569784,-0.630784166906774
1780506459131662800,1.628662841796875,2.509009358075261,1.4049446852214633,-0.4186874766245484
1780506459141655800,1.63865576171875,2.1364824518620966,0.8443402622170746,-0.6226560977697372
1780506459151648800,1.648648681640625,0.9995639955461024,0.10461173646673559,-1.1117682329684495
1780506459161641000,1.658640869140625,0.26511925541758535,0.055170390819013114,-2.0263833700254557
1780506459171633700,1.668633544921875,-0.042488311639428136,0.4956844993263483,-2.8586896417081356
1780506459181627000,1.678626953125,-0.3793471076220274,0.7911671826951205,-2.311775305882096
1780506459191618800,1.688618896484375,-0.15383914710283278,1.071597696752101,-1.6045666554644702
1780506459201611800,1.69861181640625,0.6601309651613235,0.8438893035791813,-1.3588070572942494
1780506459211604700,1.708604736328125,1.3635714952170848,0.7877627810791135,-0.5203343719363213
1780506459221596700,1.7185966796875,1.8871610695570706,0.3182219000518322,-0.053764323413372034
1780506459231590000,1.72858984375,1.8669184919953346,0.011686053879559039,-0.032062194693088526
1780506459241582800,1.738582763671875,1.2765730107218027,0.3167217246219516,-0.1379199856981635
1780506459251574800,1.74857470703125,0.7045856084376573,0.05532806559875607,-0.5875345155060291
1780506459261567700,1.758567626953125,0.21557284196019172,0.16171733313202857,-0.21897826648950575
1780506459271561000,1.76856103515625,0.452761887922883,0.3811187934696674,-0.1857771308943629
1780506459281553000,1.778552978515625,1.682975883051753,-0.4297529143877327,0.2365551319733262
1780506459291545900,1.7885458984375,2.3425468762427566,-0.8934405393421649,0.8096870281174778
1780506459301538800,1.798538818359375,1.8886603682041168,-0.11236322737634181,0.940891734085977
1780506459311530800,1.80853076171875,1.0476023425281047,-0.410609091848135,0.846530027346313
1780506459321524000,1.81852392578125,0.30750527572631836,-1.0189604776725172,0.15222674347013235
1780506459331516700,1.8285166015625,0.38308629415035245,-0.8345300852119922,0.10043196656405926
1780506459341508900,1.8385087890625,1.3628449345082043,-0.9645622402697801,0.07004705743342637
1780506459351501800,1.848501708984375,2.4987094978570936,-1.673377595231682,-0.4159107053875923
1780506459361494800,1.858494873046875,3.2167893786400557,-1.7678518224351107,-0.17703385246843098
1780506459371487000,1.868487060546875,2.9423627811729904,-1.2583593086391687,0.32237405129522084
1780506459381479700,1.878479736328125,1.887622841849923,-0.6749613084159791,0.6562792581692337
1780506459391473000,1.888472900390625,1.211961130079627,-0.07978767633363604,1.2491148026928305
1780506459401464800,1.89846484375,1.5036784695655108,0.5425649084448814,1.6689803831860421
1780506459411457800,1.908457763671875,1.5443699609160422,0.4754496666796505,1.5327967197611927
1780506459421450800,1.91845068359375,1.5214350755304098,0.03638604924157262,0.15951514691263435
1780506459431442700,1.928442626953125,2.1037650081306696,-0.8908226119287311,-0.6714318191155791
1780506459441436000,1.938435791015625,1.989633017516136,-0.9834726924449205,-1.0241615534469484
1780506459451428900,1.948428955078125,2.2143857757538554,-0.6083978553146123,-0.8454822718590498
1780506459461420800,1.9584208984375,3.0722815389841793,0.1432835585579276,-0.48985973869562144
1780506459471413800,1.968413818359375,3.0789544408768412,1.0137427430242298,0.9747153854936361
1780506459481407000,1.978406982421875,1.3459475757211445,0.9410983625739813,3.418190195123851
1780506459491399000,1.98839892578125,0.40970717457234856,1.5168807732269167,3.4238884067654607
1780506459501395700,1.998395751953125,0.41699733158051966,1.5559028700605033,2.645430337387323
1780506459511388700,2.008388671875,0.5627759218245745,1.5375991516068577,1.7230165092781184
1780506459521380600,2.018380615234375,-0.26095395243167874,1.6972145440235733,0.1945323920190334
1780506459531373800,2.028373779296875,-0.9889040698438882,0.5429878100320696,-1.579049936892092
1780506459541366800,2.03836669921875,-0.27968554090857506,-0.6238302561156451,-3.087873075869679
1780506459551358700,2.048358642578125,1.446765326732397,-0.6426289915446192,-3.4612557221293447
1780506459561351700,2.0583515625,3.9230665934264657,0.2388829173337668,-2.986425210261345
1780506459571344600,2.0683447265625,6.603921295416355,0.8907619677826761,-2.2671605036079883
1780506459581336800,2.0783369140625,7.501026787006855,0.49271476280055937,-0.7280874800562858
1780506459591329800,2.088329833984375,5.764409914660454,-0.25743374241627753,1.5986983479529617
1780506459601322800,2.09832275390625,3.3002257867395874,0.27388080015257,8.419214229592681
1780506459611314700,2.108314697265625,0.4181944324105978,2.701365575098991,12.273077522933482
1780506459621307600,2.1183076171875,-0.09722323365062474,4.209953736276924,6.275016673308611
1780506459631300600,2.128300537109375,-1.7697896586298942,2.265892383368313,0.7698620904684066
1780506459641292800,2.138292724609375,-2.911412639375031,-0.6560297403875738,-3.4816350778132676
1780506459651285800,2.14828564453125,-4.266850220236182,-2.988246580469608,-5.687309139323234
1780506459661278700,2.15827880859375,-2.965959929859638,-4.485405877399445,-3.109253717550635
1780506459671270700,2.168270751953125,3.6386990321815014,-2.2978747908234594,0.5659294174194336
1780506459681263600,2.178263671875,7.611222022694349,0.6316254400365054,1.2630804919421672
1780506459691256800,2.1882568359375,8.899150540167092,1.3464587401136756,1.4962725772231817
1780506459701248800,2.198248779296875,7.836633537101745,2.219875313080847,3.063508449941873
1780506459711241700,2.20824169921875,3.3256697323366997,2.6092671371161935,2.4791151550710198
1780506459721234700,2.218234619140625,-7.618771122899651,0.5073706993363797,-0.40363457666039465
1780506459731226600,2.2282265625,-7.3853849763512605,0.31902006469219923,-3.9667695415526625
1780506459741219800,2.2382197265625,-7.0526669334352015,1.248946898780018,-4.991316587185859
1780506459751212500,2.248212646484375,-4.87557306972146,1.5353154245838523,-3.18265154671669
1780506459761204700,2.258204833984375,-2.6786779424726963,5.032664496618509,-4.7796769930213685
1780506459771197700,2.26819775390625,-1.6488672772228716,0.3273419028356671,-5.179478275129199
1780506459781190700,2.278190673828125,-1.7843148814581333,-2.595831316959858,-2.785429175186157
1780506459791182800,2.288182861328125,3.9066087951004502,-2.4140742353618143,-14.066729703187942
1780506459801175600,2.298175537109375,3.2553985107585786,-6.0117170345336195,-21.825691971588135
1780506459811168800,2.308168701171875,2.803903574031591,-2.345136308214068,-10.29356608645916
1780506459821160700,2.31816064453125,3.0769138749599456,-0.310277370788157,-5.8046121611893176
1780506459831153700,2.328153564453125,1.3224714230656622,0.016923370011150837,-2.782363357874751
1780506459841146600,2.338146728515625,0.48544776747226714,0.1721226995512843,-1.514131474518776
1780506459851138600,2.348138671875,-1.0847101301729678,0.6343672860905528,-3.175652481609583
1780506459861131800,2.3581318359375,-1.7150214188709854,1.272603522568941,-4.430294815552235
1780506459871124700,2.368124755859375,-3.185397338293493,1.3292244044572115,-5.080707519775629
1780506459881116700,2.37811669921875,-3.7074016892686483,2.033856190124154,-4.168833498120308
1780506459891109600,2.388109619140625,-3.7700904928937553,2.9466213154003023,-2.532377958703041
1780506459901102800,2.398102783203125,-4.080162988759577,3.3154587194457648,-0.8579770117729901
1780506459911094800,2.4080947265625,-3.9358126777529714,3.873939866685867,1.2642922058194874
1780506459921087700,2.418087646484375,-3.5996897948294877,4.204411591979861,2.92707051949501
1780506459931080700,2.428080810546875,-3.1621985412746665,4.189719926543534,2.8398662832945583
1780506459941072600,2.43807275390625,-2.7531904548823833,4.527528278335929,1.6238187606841326
1780506459951065900,2.44806591796875,-1.3883727589964865,3.920722076126933,-0.17559680540263653
1780506459961057500,2.4580576171875,-3.117294400665164,9.827516262418031,-0.46346039206981654
1780506459971050800,2.46805078125,-6.16608225133717,6.763894415229559,-1.313887134593725
1780506459981043700,2.478043701171875,-2.483815003325045,0.41860184416770935,-5.861275128653645
1780506459991036700,2.48803662109375,2.9046123117104172,2.0455711778372523,-5.298793221339583
1780506460001028900,2.49802880859375,3.3857159124985334,3.2830455193579193,-3.481181488826871
1780506460011021600,2.508021484375,8.992363661393522,0.5158697937428951,-0.6392658717870712
1780506460021013800,2.518013671875,8.253223456925154,0.17656302008628844,2.681689983770251
1780506460031006700,2.5280068359375,5.212852721464634,1.0676549504756927,2.8814988548874854
1780506460040999700,2.537999755859375,6.598337942326069,0.8466875559955834,2.83126562820971
1780506460050991900,2.547991943359375,4.374411015766859,1.1407687020033597,-0.04073357692658901
1780506460060984600,2.557984619140625,2.946063681517541,-0.2060708541214466,-3.569851121404767
1780506460070977800,2.567977783203125,3.4965865632295605,-0.39102936210930345,-4.066759025046229
1780506460080969700,2.5779697265625,1.7141573493875562,-0.22221125706136224,-3.975368443071842
1780506460090962700,2.587962646484375,0.9328897755466401,-0.9395055404245853,-3.3764784208148715
1780506460100955600,2.59795556640625,-3.5770471703886986,1.6776128947138784,-3.3061364720880984
1780506460110947600,2.607947509765625,-5.261723427617549,2.3358815731346607,-4.628607310631871
1780506460120940800,2.61794091796875,-4.063528372561931,1.475149125173688,-2.9139176079332825
1780506460130933800,2.627933837890625,-2.0473241589844227,3.059764002716541,-0.4102992952466011
1780506460140925700,2.63792578125,1.2101789228379725,-3.56249725151062,1.5861264511495827
1780506460150918700,2.647918701171875,-5.5636903584390875,-3.4415175869584083,-1.5810042858302593
1780506460160912000,2.657911865234375,1.877473788279295,-4.60520363869071,-2.7692408414512872
1780506460170903800,2.66790380859375,2.083676159825921,-1.457634511271119,3.134136814394593
1780506460180896800,2.677896728515625,4.155042873176932,-3.127338240295648,3.7260920689523216
1780506460190889500,2.687889404296875,4.882674426159262,-7.132424360761046,4.102478573203086
1780506460200881700,2.697881591796875,4.748991347378492,-7.4616031236350535,3.943116863286495
1780506460210875000,2.707875,3.076927318963408,-6.764816206249594,3.478338374355435
1780506460220867600,2.71786767578125,4.814299393591284,-6.42776042639017,3.512072886174917
1780506460230859800,2.72785986328125,3.784381760835647,-6.438274221619963,2.6850164978444573
1780506460240852500,2.7378525390625,1.6824784549236296,-6.619657209208607,2.477056468975544
1780506460250845700,2.747845703125,-0.6998552189148962,-6.18212153199017,2.8140163872450588
1780506460260838000,2.757837890625,-3.161106654384732,-5.308177720278501,3.3621476976454256
1780506460270830600,2.76783056640625,-2.9079835417091844,-5.410114246186613,3.710795131099224
1780506460280823800,2.77782373046875,-1.5459692128062248,-5.216750313425064,3.8431794022411108
1780506460290815500,2.7878154296875,1.0193711773652583,-4.24419415179193,4.352891842398047
1780506460300808700,2.79780859375,3.004306319388747,-3.1133710897415874,5.495088531377911
1780506460310801700,2.8078017578125,3.639486383166909,-2.2400375188827515,5.7737622648954385
1780506460320793600,2.817793701171875,3.559734801059961,-1.5386556749224662,4.363843444523215
1780506460330786800,2.827786865234375,2.7364509170055387,-0.7393249133855104,1.8648498690277338
1780506460340779800,2.83777978515625,1.1064397314220666,0.8788356754064559,0.22183190235495567
1780506460350771700,2.847771728515625,-1.4966197832256554,3.8700007736712694,-0.6596352905988693
1780506460360764700,2.8577646484375,-12.178776606470345,3.9535903265058994,-3.2628143399730325
1780506460370756600,2.867756591796875,-9.462954051473735,-1.8950263961046934,-11.081370660853386
1780506460380749800,2.877749755859375,2.2608716325968503,2.0470506027400495,-10.904342361342906
1780506460390742800,2.88774267578125,6.758387634506821,2.890440286234021,-6.4312050138860934
1780506460400734700,2.897734619140625,8.175716438874602,1.3510259018987416,-2.3439129038989543
1780506460410727700,2.907727783203125,6.650117229402065,3.7898733439892527,-2.268777291154861
1780506460420721000,2.917720947265625,3.4080420183360576,5.189170232582092,-1.9368448456585405
1780506460430712600,2.927712646484375,0.4672002361852675,6.062687927836179,-2.075951118531823
1780506460440705800,2.937705810546875,-1.4122494552768765,7.893103027820587,-1.9958587601631879
1780506460450698500,2.947698486328125,-2.092448664346337,9.366902491950988,0.4968687406748533
1780506460460690700,2.957690673828125,-2.219792749363929,8.969659077632427,1.451582663886249
1780506460470684000,2.967683837890625,-4.291571404516697,8.313043427115678,4.482315802429616
1780506460480676600,2.977676513671875,3.443159508946538,4.84992834085524,0.43602936430871486
1780506460490668800,2.987668701171875,2.2320647864378986,3.8129216266214847,-4.6287633779764175
1780506460500658000,2.997657958984375,-4.082146563792229,4.05006507987678,-2.837183620081842
1780506460510651100,3.007651123046875,-5.080395385086536,4.80757563829422,-0.5289677602469921
1780506460520643000,3.01764306640625,-2.842182743543386,3.4461288801461456,0.06984189025014638
1780506460530636000,3.027635986328125,0.5403659370958804,0.1029746367841959,-1.6424655934870243
1780506460540629200,3.037629150390625,0.17307532410100102,-3.721249889618158,-2.1565409050285815
1780506460550621000,3.047620849609375,2.933912348213792,-6.104688163697719,-6.718043349158764
1780506460560614100,3.0576142578125,4.300098409843445,-14.92614756141901,-15.87875223739147
1780506460570607000,3.067607177734375,0.3216108118377626,-11.052850668811798,-8.20941938651204
1780506460580599000,3.07759912109375,0.10167685205861926,-4.811271570202708,-3.0347555259272454
1780506460590592300,3.08759228515625,-0.3976819518662989,-7.3482467935681335,-3.175131380344927
1780506460600584000,3.097583984375,2.0724071623146534,-7.818390608924627,-1.9362755213379859
1780506460610577200,3.1075771484375,3.164734781754017,-6.5588365375429385,-0.6032181145891546
1780506460620570000,3.117570068359375,2.913316719430685,-4.8585184745460746,0.8820300875335931
1780506460630562000,3.12756201171875,2.0942606822043657,-3.5538837369441985,0.6313467692255973
1780506460640555300,3.13755517578125,1.8311644570469856,-2.3823475562334058,1.5011428136080502
1780506460650548000,3.1475478515625,-0.27026538613438605,-2.75909003431499,2.2950527191400525
1780506460660540200,3.1575400390625,1.8693746529757975,-1.1840408574968575,3.175494952960312
1780506460670533000,3.167533203125,2.6530092482089995,0.7436790169417857,-0.24011808515191077
1780506460680526000,3.177526123046875,-0.3607411913514137,4.5968882302880285,-2.571490364168584
1780506460690518000,3.18751806640625,-2.869007622104883,6.017464053753018,-0.07064268523901701
1780506460700511000,3.197510986328125,-0.9517771391071379,4.866109660327434,2.439517596437037
1780506460710504000,3.20750390625,-0.11195713079348206,3.14430691075325,0.5594917855873703
1780506460720496000,3.21749609375,-0.46943069865107534,2.9345377866357563,0.030600597707927224
1780506460730489000,3.227489013671875,0.9433201302766799,2.5827351040214297,0.19443185425400733
1780506460740482000,3.23748193359375,-0.2880290063619613,1.7733657635509967,-0.9572525017783046
1780506460750474000,3.247473876953125,-0.6029204468168318,2.545430917021632,-0.389862656417489
1780506460760467000,3.257467041015625,-0.9880408771432936,2.4446219338387247,0.14076368469148873
1780506460770460200,3.267460205078125,-0.7889198421597481,1.5151052879869937,0.6920587198197842
1780506460780452000,3.2774521484375,-0.5064703894957899,0.5812824693739413,0.194559280025959
1780506460790445000,3.287445068359375,-1.1043808991961181,-0.7906839292228222,0.8478457861199975
1780506460800438300,3.297438232421875,-3.0056407828629017,-1.7736340590983628,-0.10382336256802081
1780506460810430000,3.307429931640625,-2.0214543891906738,-2.2565742276638745,0.09170096309781074
1780506460820423200,3.317423095703125,-2.1848200740516184,-3.4818361533433198,0.9891855171337723
1780506460830415000,3.3274150390625,-3.533424594022333,-3.0245038887649773,11.604199772214889
1780506460840408000,3.337407958984375,-1.000920670852065,-4.513490985155105,2.081857712227106
1780506460850401300,3.3474013671875,4.07246395868957,-6.64016749779582,-2.508033791041374
1780506460860393000,3.35739306640625,-2.4334125575602052,-2.847828640475869,2.8067978341683744
1780506460870386200,3.36738623046875,-2.3892937221094965,1.625490493288636,-0.8221756305515766
1780506460880379000,3.37737890625,-1.5379451885655522,4.519659444656968,2.1340935108989476
1780506460890371000,3.38737109375,0.13485884456187486,3.045099517548084,2.846881422753632
1780506460900364300,3.3973642578125,1.6951275086164475,1.829350685623288,2.3795073643714186
1780506460910357000,3.40735693359375,0.32992256697863337,2.2751690380185843,1.160188272744417
1780506460920349200,3.41734912109375,-0.7768745995789765,2.2385960879027844,0.4649599829778075
1780506460930342000,3.427341796875,-1.2159312027543783,0.11393442221581936,-0.415943877004832
1780506460940335000,3.437335205078125,-1.5893129722312092,-2.409313889092207,-2.5854817723810672
1780506460950327000,3.4473271484375,0.6667012834623456,-1.4945061520725489,-2.6337773089945316
1780506460960320000,3.457320068359375,1.208117314133048,3.8252158755272623,0.3187668205834925
1780506460970313000,3.46731298828125,-0.8078302943348884,7.1065429005295035,2.960518031066656
1780506460980305000,3.477304931640625,-1.4599185305550693,5.707877295577526,3.4888135911405085
1780506460990298000,3.487298095703125,-1.2202069803774356,5.578751733970642,2.672268659952283
1780506461000291000,3.497291015625,-1.3732885871112346,4.718488657087088,1.8021008596479893
1780506461010283000,3.507282958984375,-1.300740945033729,0.979797803324461,0.8229420848794281
1780506461020276000,3.51727587890625,0.10433540374338626,0.13337269765734672,0.876216286688298
1780506461030268000,3.527267822265625,-1.692123358364403,1.9051631747156381,-0.46649639876484866
1780506461040261000,3.53726123046875,-0.1827849633410573,0.7738163810521363,-1.1786471817597746
1780506461050254000,3.547254150390625,-1.1754188673630357,-3.4217221686422823,-0.929673882240057
1780506461060246000,3.55724609375,-1.4684507965788245,-3.835882230970263,-0.6374667134106159
1780506461070239000,3.567239013671875,0.8576260063782334,-3.701436351123452,2.5230925362244245
1780506461080232200,3.577232177734375,0.5066963072061539,-2.534959207367897,5.8143017805546515
1780506461090224000,3.58722412109375,1.009333694410324,-0.8192536056250334,2.658718858027458
1780506461100217000,3.597217041015625,2.19776986425668,-1.3769447715312242,1.2076377139225603
1780506461110210300,3.607210205078125,2.1735718270674345,-0.7495061156600713,2.086342748686671
1780506461120202000,3.617201904296875,-1.2316767611578106,-0.5758452467560767,0.2516691144749522
1780506461130195200,3.6271953125,-2.6488039054736494,0.34993104352355003,-1.4090513898879289
1780506461140188000,3.63718798828125,-2.0111396236643193,0.3713023328542709,-2.742755570107698
1780506461150180000,3.64718017578125,-0.48512949530333277,-1.1541910781562328,-2.164528981173038
1780506461160173000,3.657173095703125,-0.28730682956725356,-1.796688771471381,0.7841706018060446
1780506461170166000,3.667166015625,-0.7732759905651211,-6.032816521185636,0.6030784138575196
1780506461180158200,3.677158203125,0.2785273107841611,-16.639872218477723,-0.976670026692748
1780506461190151000,3.68715087890625,1.3375982650488614,-16.013491547226906,-0.3216685333743691
1780506461200143000,3.69714306640625,1.4312956626608966,-3.6584488577902317,1.5332760277107358
1780506461210136000,3.707135986328125,-0.9122194740921259,-0.2121662483870983,1.8872215675726531
1780506461220129000,3.71712890625,-2.466113634678721,-0.35657355027794835,4.367577662615478
1780506461230121200,3.727121337890625,-0.7124234624564647,-1.5516390751361846,9.694716396212577
1780506461240114000,3.737114013671875,2.0334487783670423,-4.009084834712744,9.557526770615578
1780506461250107100,3.747107177734375,-4.585717432454228,12.129815883946417,4.082049240897596
1780506461260099000,3.75709912109375,-3.202086899548769,6.1001832534939044,-8.938266745024919
1780506461270092000,3.767092041015625,0.5533955145388841,6.504279602447152,-3.240386235065758
1780506461280085000,3.7770849609375,2.276642617702484,6.7950184522897,-2.071130274246633
1780506461290077000,3.787076904296875,1.9067916527003048,4.782603694123029,-4.794646598616242
1780506461300070100,3.797070068359375,2.1679013802155853,3.9794595117777583,-5.579996765595674
1780506461310063000,3.80706298828125,1.888499624684453,1.7961936814308166,-5.062715936011076
1780506461320055000,3.817054931640625,1.1160191684111953,0.3616419395834207,-3.2217092993855476
1780506461330048000,3.827048095703125,0.7286553430721163,-0.8252794417858124,-1.4593305015340448
1780506461340040000,3.8370400390625,0.15450374849140644,-2.504208679795265,-0.7040884725704789
1780506461350033200,3.847033203125,-0.781683753426373,-3.607582009384036,0.09569397825673222
1780506461360026000,3.857026123046875,-1.1496440823763607,-4.595965270224213,0.17877251282930373
1780506461370018000,3.86701806640625,-1.2362293098956345,-4.275761256444454,0.1688181050479412
1780506461380011000,3.877010986328125,-0.8102902547076344,-3.6264673271179197,0.20094050549566744
1780506461390004200,3.887004150390625,-0.3204246707931161,-2.8221728056937456,0.39820889834985135
1780506461399996200,3.89699609375,0.886554871481657,-1.5648223818361757,0.4827029988087713
1780506461409989000,3.906989013671875,2.5397169232890007,0.10612053359448909,0.06254603415355085
1780506461419982000,3.916982177734375,2.8201933223143216,2.117299612486362,-0.48192923795729875
1780506461429974000,3.92697412109375,-0.7581736985012888,2.720661227199435,-0.5161554788164794
1780506461439967200,3.93696728515625,-1.139454989056289,2.353577388823032,-0.32390710608139633
1780506461449960000,3.9469599609375,0.8485188630759716,2.5669407380402087,-0.6978181601293385
1780506461459952000,3.9569521484375,1.6243185268998146,3.215280143120885,-0.6687448450539261
1780506461469944800,3.96694482421875,1.362202252690494,3.0860704103618857,-0.7624662080634385
1780506461479938000,3.97693798828125,0.28692542903423307,2.5160206981420514,-0.4934074943050742
1780506461489930200,3.98693017578125,-0.16501842050403356,1.9103315172642468,0.6992702586337923
1780506461499922400,3.99692236328125,-1.1813833287253974,1.860761138409376,1.178281709448248
1780506461509914600,4.00691455078125,-0.9992743649497627,1.6600328143596648,1.4009756354600191
1780506461519907600,4.016907470703125,-0.7547630132749676,1.9560469742566347,1.8493954025253652
1780506461529900500,4.026900634765625,-0.07537351315319538,2.153117944842577,1.7860110178515314
1780506461539892500,4.036892578125,0.7910968939378857,1.6433675107628105,0.5797215036675334
1780506461549885400,4.046885498046875,1.1467620971992611,1.6852105102360249,-0.37738384472504255
1780506461559878700,4.056878662109375,1.087740583910048,1.4090303470999002,-0.3635029111497104
1780506461569870600,4.06687060546875,1.1960437222406268,0.6354319927126169,-0.5661040433339775
1780506461579863600,4.076863525390625,1.4705822556495665,-0.5199807361930608,-0.3232103559888899
1780506461589856500,4.0868564453125,0.649456718672812,-1.5094658207952976,0.4997494106777012
1780506461599848400,4.096848388671875,-0.5219771707072853,-1.0579740989387034,1.115896711075306
1780506461609841700,4.106841552734375,0.0018061726391315459,-0.305597980800271,1.866809770923853
1780506461619834400,4.11683447265625,-0.7816801001645625,-1.1595143190056085,1.5605524494320153
1780506461629826600,4.12682666015625,-2.0554097041539845,-1.112975855192542,-0.29088322674930095
1780506461639819500,4.136819580078125,-3.2927859921276568,-1.4488433020502327,-1.7264505753800272
1780506461649811500,4.1468115234375,-3.255606600551307,-1.7057652224868536,-2.219978773455322
1780506461659804700,4.1568046875,-3.4167385350108144,-0.6961322528690099,-2.165110872714221
1780506461669797400,4.16679736328125,-3.5468554457426067,0.09804945534169673,-2.4509213262438774
1780506461679789600,4.17678955078125,-2.9692762148007747,0.3413859180182218,-2.498893622252345
1780506461689782500,4.186782470703125,-2.479745269668102,0.7133224571228027,-2.0277152031511068
1780506461699775500,4.196775390625,-1.9350281516253947,1.225387013363838,-1.6997895090781152
1780506461709767700,4.206767578125,-0.9924562093675136,1.118914013069868,-1.3267762806527317
1780506461719760400,4.216760498046875,-0.5006101191602647,0.6367103420853615,-0.9617711482465267
1780506461729753600,4.226753662109375,0.26209479302987454,0.7070821014285087,-0.8556322022125125
1780506461739745500,4.23674560546875,1.7459724374517798,0.5870289040714503,-0.8039011381924152
1780506461749738500,4.246738525390625,4.057938005208969,0.14178630573749543,0.10714841533750295
1780506461759731500,4.2567314453125,4.770917932504415,-1.0541261913388966,0.29569267285764217
1780506461769723400,4.266723388671875,1.8394658369243144,-2.0801409714370966,-0.9892457228884101
1780506461779716600,4.276716552734375,-1.622825657993555,-1.4947791237950323,-1.10713268212229
1780506461789709600,4.28670947265625,-2.9160663103997706,-0.6896271087586879,-0.526921933633089
1780506461799701500,4.296701416015625,-2.470474752497673,-0.0107663086861372,0.7890083972260356
1780506461809694500,4.306694580078125,-1.182421147340536,0.6766992381244897,2.3103479034274814
1780506461819686400,4.316686279296875,-0.2426478958904743,0.9851496857464312,2.9407030312672258
1780506461829679600,4.3266796875,-0.5235714541614055,0.8259276765614747,2.7519886778771876
1780506461839672600,4.336672607421875,-0.8431926996171474,0.7614736168295144,2.0879567597545683
1780506461849664500,4.34666455078125,-0.49308739550523456,0.6073515611320733,0.9385242012370377
1780506461859657500,4.356657470703125,-0.2662671833436936,0.4992600197255611,0.1844949821293354
1780506461869650700,4.366650634765625,-0.16450426043681798,0.5135352133154869,-0.38773127041198313
1780506461879642400,4.376642333984375,0.07578450510688126,0.44581835239529605,-0.7919214351285249
1780506461889635600,4.386635498046875,0.2840226933300495,0.6594751316010952,-0.8036960440743715
1780506461899628500,4.396628662109375,0.4410018189590424,0.6464993301719427,-0.6143295834511519
1780506461909620500,4.406620361328125,0.6542412495356053,0.6243138018488884,-0.41587848361842333
1780506461919613700,4.41661376953125,0.6828712047576904,0.8533487674504519,-0.1743173600513488
1780506461929606400,4.4266064453125,0.36550387570858,0.9845856221228837,-0.21961305726170538
1780506461939598600,4.4365986328125,0.06263970378637314,1.0744213758707046,-0.2122952085290104
1780506461949591600,4.446591552734375,-0.15591069267988203,0.7987515003442763,-0.1868888915285468
1780506461959584500,4.45658447265625,-0.21268764191269873,0.527313563299179,-0.14470884212069213
1780506461969576700,4.46657666015625,-0.31631979275755584,0.3895943608701229,0.02787935605049133
1780506461979569400,4.4765693359375,-0.24905191771388052,0.34471535470187664,0.19295316000357268
1780506461989561600,4.4865615234375,0.06276135740466415,0.18020576050281523,0.10138444498330354
1780506461999554600,4.496554443359375,0.540473562188819,0.060955696222186086,-0.19659166263639927
1780506462009547500,4.506547607421875,0.5922481000244617,-0.039194530791044235,-0.5715392201252282
1780506462019539700,4.516539794921875,0.7441139012277126,-0.08870470389127731,-1.1342653114587067
1780506462029532400,4.526532470703125,0.5736041898310185,-0.2945353195160627,-1.5100203859381376
1780506462039525600,4.536525634765625,0.560915388649702,-0.4507616540163755,-1.7058314195908606
1780506462049517600,4.546517578125,0.48775078371763225,-0.5366244124799967,-1.5687961077727377
1780506462059510500,4.556510498046875,0.5047452096709981,-0.4768488659530878,-1.3487709625788031
1780506462069503500,4.56650341796875,0.7876736414909362,-0.3179337307602167,-1.2966321945406496
1780506462079495400,4.576495361328125,1.010305169790983,-0.19665654456615447,-1.2368079865664243
1780506462089488400,4.58648828125,0.7561456998050212,-0.12050211016833781,-1.2569148089192808
1780506462099481600,4.596481689453125,0.4871650927841663,-0.0822831464111805,-1.4181709542803465
1780506462109473500,4.6064736328125,0.8077718421459198,-0.006941781961917877,-1.6805395958155394
1780506462119466500,4.616466552734375,0.646696314048767,-0.013421791630983351,-1.688048364010453
1780506462129459700,4.626459716796875,0.6970528748452663,-0.046454292660951614,-1.5369862804055212
1780506462139451400,4.636451416015625,1.3107026593387126,0.2865881599038839,-1.546084071357548
1780506462149444600,4.646444580078125,1.2886287746965885,0.6181938576638698,-1.3519913859300314
1780506462159436500,4.6564365234375,1.4717875397861002,1.0599825161516665,-1.424708100964129
1780506462169429500,4.666429443359375,1.9421511353731153,1.559063087657094,-1.870892510192841
1780506462179422700,4.676422607421875,1.183163490140438,1.7120248674035072,-2.06715406409204
1780506462189414400,4.686414306640625,0.7124059267997741,1.850883887517452,-2.165986194244027
1780506462199407600,4.69640771484375,1.3687947828233242,2.4624761549592016,-2.4237962956920263
1780506462209400300,4.706400390625,0.8632078981637954,3.0251018546581268,-2.4162647311434147
1780506462219392500,4.716392578125,0.47173488394021984,3.577928629398346,-2.752700041016936
1780506462229385700,4.7263857421875,0.15596563773751257,3.7651182574391364,-2.703442089112103
1780506462239378400,4.73637841796875,0.8087713745772838,3.351587140664458,-2.1390552249595522
1780506462249370600,4.74637060546875,1.6533844623863696,2.7822634046316144,-0.7138710309162736
1780506462259363300,4.75636328125,2.0499708741009233,2.536158061763644,0.559499968893826
1780506462269356500,4.7663564453125,1.9483260246157645,2.298382740345597,0.909343334133923
1780506462279348700,4.7763486328125,1.910982090127468,2.196274365001917,1.161848607172072
1780506462289341400,4.786341552734375,2.0151310313880444,2.124100524672866,1.5294365956783293
1780506462299334400,4.79633447265625,1.3283809393703936,1.6857354108929634,1.8483356643393634
1780506462309326600,4.80632666015625,0.8410381519317627,1.3221703942924736,2.0915708585985002
1780506462319319600,4.816319580078125,0.20483166771531103,0.9902899712443352,2.0745349681235847
1780506462329311500,4.8263115234375,-0.619074220694974,0.6428279481828212,1.8726149500712752
1780506462339304400,4.836304443359375,-1.2211552210129797,0.3739022862195968,1.6703846970260143
1780506462349297400,4.84629736328125,-1.4713235755361616,0.40964287716448305,1.6109550413273275
1780506462359289600,4.85628955078125,-1.260952832263708,0.2717494872123003,1.430376648119837
1780506462369282600,4.866282470703125,-1.0201403351068496,-0.06456687245666981,1.223020284232497
1780506462379275500,4.876275634765625,-0.9745219087481498,-0.14543547589480876,0.9296852804169058
1780506462389267500,4.886267333984375,-0.3468450602069497,0.16042086358070373,0.624990532066673
1780506462399260400,4.896260498046875,-0.11326412173882126,0.4263192866772413,0.027507892389595508
1780506462409253600,4.906253662109375,-0.20914207826033232,0.8388812661588192,-0.4176796147562563
1780506462419245600,4.91624560546875,0.3591933773875236,0.8021656927019357,-0.6180228850111364
1780506462429238500,4.926238525390625,0.9401962991677224,0.6953530851900577,-0.05545804865397513
1780506462439231700,4.936231689453125,1.1955392798498272,0.37109482758343215,0.7195213848281651
1780506462449223400,4.946223388671875,0.20194529862403868,-0.11725801368057727,1.0439307413432746
1780506462459216600,4.956216552734375,-0.48230508553236723,-0.286472424569726,1.3823802405834198
1780506462469208600,4.96620849609375,-0.6409668304860592,-0.4019061454325914,1.858676879481226
1780506462479201500,4.976201416015625,-0.6599693448588252,-0.5118722485393286,2.178062416484952
1780506462489194800,4.98619482421875,-0.7209680034399032,-0.47817397707700726,2.1842970730908213
1780506462499186400,4.9961865234375,-0.8245175175026058,-0.6393699166834355,2.229350851304084
1780506462509180400,5.006180419921875,-0.8217667574897408,-0.7328793905079364,2.4328657373324036
1780506462519173400,5.01617333984375,-0.8379214812159538,-0.683966598778963,2.702367153356969
1780506462529165300,5.026165283203125,-1.040360116314888,-0.5238029248297215,1.7571153243653475
1780506462539158300,5.036158203125,-1.2668363373443483,-0.1763069994986057,0.4249011269750073
1780506462549151500,5.0461513671875,-0.9763236974731088,0.047511108237504956,0.008764686540141701
1780506462559143400,5.056143310546875,-0.8567141522303223,0.30972236725389957,-0.2287295529142022
1780506462569136400,5.066136474609375,-0.6768988523498177,0.3178764476150274,-0.17990706981718538
1780506462579129300,5.07612939453125,-0.4911155839756131,-0.03881985225975513,0.3530780363123864
1780506462589121300,5.086121337890625,-0.20976415568143128,-0.5321569116771221,0.6989919531490654
1780506462599114500,5.096114501953125,-0.5444646045863628,-0.8501730600237846,0.8601322170455008
1780506462609106200,5.106106201171875,-0.6129162095218896,-1.3263602471977471,0.5786359003879129
1780506462619099400,5.116099365234375,-1.7451637514173983,-1.3547270945042371,0.31662045620456336
1780506462629092000,5.126092041015625,-1.3748831628262996,-1.4216723865300416,0.5322903287984431
1780506462639084300,5.136084228515625,-1.9696020368784666,-1.846441521155834,0.6753168438553809
1780506462649077500,5.146077392578125,-1.9431828165084122,-2.0066636472940442,0.8120942353896796
1780506462659070200,5.1560703125,-1.8916390917539596,-2.0968179654717445,0.9390032899908721
1780506462669062400,5.1660625,-1.4706418768823146,-2.165499287509918,1.3908587305933235
1780506462679055000,5.17605517578125,-1.5102221921205519,-2.2795775021106004,1.2195938169151543
1780506462689048300,5.18604833984375,-1.5564321546316147,-2.4057249246895314,1.1210522672075778
1780506462699040500,5.19604052734375,-1.712463258820772,-2.470931264093518,1.0197433716785163
1780506462709033200,5.206033203125,-1.7378502135336398,-2.536644968497753,0.7560556834340095
1780506462719026400,5.2160263671875,-1.3499153103083372,-2.860177249917388,0.5515723176997155
1780506462729018000,5.22601806640625,-1.3672650890380142,-2.7495757715165614,0.44287879181206224
1780506462739011300,5.23601123046875,-0.9867173734545707,-2.58566297416687,0.24657982851192353
1780506462749004300,5.24600439453125,-0.76629358433187,-2.411408231022954,0.08848477753028273
1780506462758996200,5.255996337890625,-0.606684621655941,-2.235310490360856,-0.058982058061659334
1780506462768989400,5.265989501953125,-0.4755144024789333,-2.1002181293040514,-0.2554727445416152
1780506462778981000,5.275981201171875,-0.37277240540683265,-2.0551520761311055,-0.4890760409720242
1780506462788974300,5.285974365234375,-0.3123042004406452,-2.0993594666481017,-0.6643564739018678
1780506462798967300,5.29596728515625,-0.17022446471452712,-2.1090297967910767,-0.7646663484562188
1780506462808959200,5.305959228515625,0.04372165282666683,-2.077196734678745,-0.8625510416902601
1780506462818952400,5.315952392578125,0.3753723587721586,-2.0598498785585164,-0.7423362240307033
1780506462828945400,5.3259453125,0.5397422522395849,-2.0478513977289197,-0.9388680462386458
1780506462838937300,5.335937255859375,0.7074649632662534,-2.015740687718987,-0.9872601020291447
1780506462848930300,5.345930419921875,0.7109709255605936,-1.923410194545984,-1.2320765741303563
1780506462858923500,5.355923583984375,0.7163114098057151,-1.5538807165831328,-1.2278741540044544
1780506462868915200,5.365915283203125,1.9679329346224665,-0.1106909102499485,-0.26935652766115964
1780506462878908400,5.375908447265625,3.9156206613346933,2.1081810710072517,0.5113807386953383
1780506462888901000,5.385901123046875,4.377591399368644,4.499521496513486,0.06211473006419837
1780506462898893300,5.395893310546875,3.436640920832753,5.653156109830737,0.069916964780353
1780506462908886500,5.405886474609375,5.098678060752153,5.6138926054567095,0.1754623288353905
1780506462918878200,5.415878173828125,5.4021361069142815,5.417050767451524,-0.5621553787734359
1780506462928871400,5.425871337890625,2.512179804804921,4.432091051319241,-0.7957425277866422
1780506462938864000,5.435864013671875,-0.6114227560937404,2.7216362097114324,-1.0660394781030713
1780506462948856300,5.445856201171875,-1.7797347140610218,0.6893968071341514,-0.6579027677178383
1780506462958849500,5.455849609375,-2.411850129571557,-1.6531763725936413,0.4659024149270728
1780506462968842200,5.46584228515625,-2.2537316977143287,-3.305322817617655,1.6016405388846993
1780506462978834400,5.47583447265625,-1.2566197714954614,-3.8246266774624584,1.9427359495237468
1780506462988827100,5.4858271484375,-1.3823989452838896,-3.8213942714124918,2.4025511169590055
1780506462998820400,5.4958203125,-1.2350520828098057,-2.9855419976860285,2.199056689196825
1780506463008812500,5.5058125,-1.1125269423812627,-1.531714477482438,1.8241459565870464
1780506463018805200,5.51580517578125,-1.8713392310470343,0.09145371033847331,1.6958355107553302
1780506463028797400,5.52579736328125,-1.2572417027860878,1.7161872477799653,1.3446036137662827
1780506463038790100,5.5357900390625,-0.9721537183120846,3.263877877551317,1.370755269241333
1780506463048783400,5.545783447265625,-0.8587287069231271,4.4100195047646755,1.3398821382023394
1780506463058775600,5.555775634765625,-0.6705635118484496,4.774123450547457,0.9386655094038695
1780506463068768300,5.565768310546875,-0.8340823414444923,4.37640481993258,0.057809196623694145
1780506463078761200,5.57576123046875,-1.0180188129082322,3.7665725479006764,-0.5354395135443657
1780506463088753200,5.585753173828125,-1.0750316167235374,3.0009073246002194,-0.7653581301126628
1780506463098746400,5.595746337890625,-1.0748296644106508,2.1537842997968197,-0.6629143853347748
1780506463108739300,5.6057392578125,-0.9819418296158313,1.3218664429098368,-0.43892493961974977
1780506463118731300,5.615731201171875,-0.7582669297426938,0.3877957870155573,-0.35374826372414825
1780506463128724200,5.62572412109375,-0.7585472079887986,-0.31972645939588545,-0.05906498710475862
1780506463138717400,5.635717529296875,-0.6998536114796996,-0.7119710425138474,0.43973852102495725
1780506463148709400,5.64570947265625,-0.9046154288291931,-0.8471376378506421,0.7712828439865261
1780506463158702300,5.655702392578125,-1.0182789251491426,-0.8903834898591041,0.7607149074167012
1780506463168694300,5.6656943359375,-1.075578729212284,-0.8517454239070416,0.6075380966801196
1780506463178687200,5.675687255859375,-1.0782491174653173,-0.7708692216843366,0.32981223847195507
1780506463188680400,5.685680419921875,-1.1508426445111632,-0.6271499020576476,0.09812383575215936
1780506463198672400,5.69567236328125,-1.2025626026153564,-0.4960837277770042,-0.14406243397593496
1780506463208665300,5.705665283203125,-1.091916116029024,-0.40139118164777754,-0.15976963313035666
1780506463218658300,5.715658203125,-1.0499272783443332,-0.43335868379473685,0.01459441560693085
1780506463228650200,5.725650146484375,-0.9547652150072157,-0.5557201580941676,-0.016822978376597165
1780506463238643500,5.7356435546875,-1.137196688735485,-0.9189677793085574,0.07040449256896972
1780506463248636200,5.74563623046875,-1.206179331807792,-1.3869722445487975,0.20352401918284593
1780506463258628400,5.75562841796875,-0.9382721992373466,-1.6889947049498557,0.34886326816156504
1780506463268621300,5.765621337890625,-0.8236272906646132,-1.7982371699571609,0.30644604899697003
1780506463278613200,5.77561328125,-1.14005003233999,-1.920980337050557,0.21186134715639054
1780506463288606500,5.7856064453125,-1.4374034780167042,-1.663579693186283,0.5947847788952291
1780506463298599200,5.79559912109375,-1.6547335389077662,-1.538822263661027,0.6270039177156984
1780506463308591400,5.80559130859375,-1.7855236727260053,-1.5508587384134531,0.07646949169635772
1780506463318584300,5.815584228515625,-1.4482183020196855,-1.619912400895357,0.1367939773429185
1780506463328577300,5.825577392578125,-0.9362601287625729,-1.6294956372767686,0.7182949848383665
1780506463338569500,5.835569580078125,-0.5224909654483199,-1.4375667057543993,1.0094600972689687
1780506463348562200,5.845562255859375,-0.1721827591754496,-1.0940157186567783,0.8232554616775363
1780506463358555400,5.855555419921875,-0.060142334012687204,-0.8500392045110463,0.7037614325731992
1780506463368547300,5.86554736328125,0.08783610436320305,-0.6809311766058206,0.6411603072315454
1780506463378540300,5.875540283203125,0.5835866546630859,-0.2722358094245195,0.6094680418293923
1780506463388532500,5.885532470703125,0.445271093776077,0.18309972837865351,0.2999357903201133
1780506463398525200,5.895525146484375,0.1799650836147368,0.523038954719901,-0.2170808353703469
1780506463408518400,5.905518310546875,0.05500109866671264,0.7080173364520073,-0.6962084599103778
1780506463418510300,5.91551025390625,-0.044082302832603455,0.6911088717490435,-0.7528444663025439
1780506463428503300,5.92550341796875,0.1341455817259848,0.5270552046239376,-0.7547324720062315
1780506463438496300,5.935496337890625,0.3180418673098087,0.36179800692796704,-0.7957629860527813
1780506463448488200,5.94548828125,0.7718784717921167,0.33680268188118934,-1.1356754705175758
1780506463458481400,5.9554814453125,0.7048585070949047,0.1428285082668066,-1.468164380852878
1780506463468474400,5.965474365234375,0.555173045605421,0.007850713500380515,-1.7889315814733504
1780506463478466300,5.97546630859375,0.773751426057145,0.07711363481879234,-2.1317869875222444
1780506463488459300,5.985459228515625,0.9396188646059482,0.10238836132884024,-2.412761545328051
1780506463498451200,5.995451171875,0.6282089095912874,-0.07013736606538296,-2.3236960453003643
1780506463508443600,6.005443603515625,0.828517693054676,-0.05929390048980712,-2.098437967889011
1780506463518436600,6.0154365234375,0.8950152413129806,0.15471592993736266,-1.6945923788264392
1780506463528428800,6.0254287109375,1.264405018544197,0.48285482836961746,-1.6050614532440899
1780506463538421500,6.03542138671875,1.0144751489520072,0.7270002693414688,-1.4705926309131085
1780506463548414700,6.045414794921875,0.8544611856717615,0.8536801913619041,-1.3711325781211257
1780506463558406700,6.05540673828125,0.8868810346961021,1.084329021900892,-1.4306519579298793
1780506463568399600,6.065399658203125,0.7830733811538666,1.2312480143517255,-1.353312405400723
1780506463578392800,6.075392822265625,0.4099964398425072,1.2005968555003403,-0.795129364324361
1780506463588384500,6.085384521484375,1.0153507627427578,1.3260820147782564,-0.937805166247487
1780506463598377700,6.095377685546875,0.405787955302,1.3622434614837169,-0.5438910424821078
1780506463608369700,6.10536962890625,0.5779881040036678,1.6731033083349465,-0.7521126448966562
1780506463618362600,6.115362548828125,0.34653504440970717,2.1864479675143955,-1.2216446119651199
1780506463628355800,6.12535595703125,-0.3292004267165437,2.786146968066692,-1.6094332385875283
1780506463638347500,6.135347412109375,-0.6704559598207473,3.4161434917271136,-2.0640726108200846
1780506463648340700,6.1453408203125,0.1648188062787056,4.008254813629389,-2.6876743188768626
1780506463658333700,6.155333740234375,1.0925590901076794,3.566291967618465,-2.281614853157103
1780506463668325600,6.16532568359375,2.296720944613218,2.72514684818089,-1.1875744384504854
1780506463678318800,6.17531884765625,2.3268565551579,2.4944991866856814,0.33121713683381676
1780506463688310500,6.185310546875,2.515536714017391,2.5861680010795594,0.8410087797068059
1780506463698303700,6.1953037109375,1.743461623674631,2.3320342500567435,1.1091028131514786
1780506463708296700,6.205296630859375,1.8114274909198282,2.477456866469979,0.8602972714141011
1780506463718288600,6.21528857421875,1.1519932758510112,2.3444103320270777,1.0863351010262965
1780506463728281900,6.22528173828125,1.141955792896077,2.0396867959737777,1.3280582832872867
1780506463738274800,6.23527490234375,0.9917373205084353,1.6520272025585174,1.3998795107863842
1780506463748266800,6.245266845703125,0.6594448095280677,1.3383920457750558,1.258788786097616
1780506463758259700,6.255259765625,0.3164601510763168,1.0547843629866838,0.9567202945977449
1780506463768252700,6.265252685546875,-0.09483290444798767,0.828881265670061,0.5699325155809521
1780506463778244600,6.27524462890625,-0.41850364449024197,0.7298825467795134,0.12418094481155276
1780506463788237800,6.28523779296875,-0.679228610471636,0.4562298562943935,-0.6431459280908107
1780506463798229800,6.295229736328125,-1.0112683157347142,0.03331424058079719,-0.917282602700591
1780506463808222700,6.30522265625,-0.813738495465368,-0.07984978178441524,-0.0710477589085698
1780506463818215700,6.315215576171875,-0.12272402400150895,-0.4669406354010105,0.2332736260846257
1780506463828207600,6.32520751953125,0.680082889213413,-0.6552689120829105,0.0176819332934916
1780506463838200800,6.335200927734375,0.7078092466592788,0.24803192701637744,0.4474684576898813
1780506463848193500,6.345193603515625,0.8434934361293911,0.9111837013036012,0.47428179194405673
1780506463858185700,6.355185791015625,0.8913010430954397,1.2033183894187212,0.5027041688300669
1780506463868178700,6.3651787109375,0.7597809875674545,1.2362585359901188,0.4304446229789406
1780506463878170600,6.375170654296875,0.28818434305414553,1.0891998428076506,0.10924852942191064
1780506463888163800,6.385163818359375,0.025312135910987854,0.9248334564715623,0.10370360864587128
1780506463898156500,6.395156494140625,-0.3575859421908855,0.6257593244820833,0.5775989950882271
1780506463908148700,6.405148681640625,-0.5365259205415844,0.1907563806116581,1.088597639130801
1780506463918141700,6.4151416015625,-0.42151831613630053,-0.017536825734376905,1.5205737825259567
1780506463928134700,6.425134765625,-0.18659604606181382,-0.266722014439106,2.082762259851396
1780506463938126800,6.435126953125,-0.26600568286329507,-0.6640069298118353,2.3724575919903814
1780506463948119600,6.44511962890625,-0.6352583897113799,-0.759464030572772,2.2432231631815434
1780506463958111700,6.45511181640625,-0.7936401486799121,-0.731565385299921,1.8275699396863578
1780506463968104700,6.465104736328125,-1.1414943859294056,-0.7616442972213029,0.8332295240074395
1780506463978097700,6.47509765625,-0.993964275842905,-0.76711425306499,-0.05801138639859855
1780506463988089900,6.48508984375,-0.8239835567563771,-0.5692600231468677,0.22514387644715605
1780506463998082600,6.49508251953125,-0.7960580234766006,-0.45322190665006634,0.42937260983325537
1780506464008075800,6.50507568359375,-0.6533218696683645,-0.5829921959012746,0.6643429568331688
1780506464018067700,6.515067626953125,-1.1022703367829323,-0.8357195872575044,0.3580165156278759
1780506464028060700,6.525060791015625,-1.4168497886791824,-0.8281500287860631,0.5291074609786272
1780506464038052900,6.535052978515625,-1.2364713019579647,-0.7155676057010889,1.025636740566045
1780506464048045600,6.545045654296875,-1.2322960620999335,-0.9207248521089554,0.9959823376670479
1780506464058038800,6.555038818359375,-1.2438596586436033,-0.9109966542989015,1.4161312651462852
1780506464068030700,6.56503076171875,-1.2730050891071558,-1.1342378389298915,1.3582048536173998
1780506464078023700,6.575023681640625,-1.180936461740732,-1.4857634581685066,1.1981798574864864
1780506464088016600,6.5850166015625,-1.8032728260368107,-1.7403204030394552,1.1462864425115287
1780506464098008600,6.595008544921875,-1.5628367609769105,-2.129842283195257,1.2387315019749103
1780506464108001800,6.605001708984375,-1.7470833213031292,-2.1463187862217423,1.2188045662336051
1780506464117993500,6.614993408203125,-1.8366314902812242,-2.0451503220766782,1.0527972808226942
1780506464127986700,6.624986572265625,-1.4996037674725056,-2.424145547521114,1.0961788880400358
1780506464137979600,6.634979736328125,-1.5005617988497018,-2.882252888125181,0.6881529445528983
1780506464147971600,6.6449716796875,-1.4337725741684435,-3.0104005446106195,0.43649318242818114
1780506464157964800,6.65496484375,-1.1413754357248544,-3.0826638167887923,0.44978922878764566
1780506464167957800,6.664957763671875,-0.924977833378315,-3.0358722549974915,0.3141950556885451
1780506464177949700,6.67494970703125,-0.7436345932781696,-2.928900657531619,-0.014922259321808814
1780506464187942700,6.684942626953125,-0.5160813906669617,-2.733563378870487,-0.403915074102208
1780506464197934600,6.6949345703125,-0.34092706833481784,-2.6702771938741208,-0.880681887795031
1780506464207927800,6.704927734375,-0.2120534356623888,-2.611877611875534,-1.2061369539707898
1780506464217920800,6.714920654296875,-0.05440028322935104,-2.542818688696623,-1.2742796390876174
1780506464227912700,6.72491259765625,0.02820259665548801,-2.522321259590983,-1.176835456162691
1780506464237905700,6.73490576171875,0.11299568006098269,-2.4203479088038207,-1.018712201999873
1780506464247898600,6.744898681640625,0.2503904728412628,-2.195307565796375,-0.9649672408740967
1780506464257890800,6.754890869140625,0.42374563679695126,-1.9353730195403098,-1.0457108296930788
1780506464267883800,6.7648837890625,0.4917483289211988,-1.6452730521231889,-1.1085465675082058
1780506464277875700,6.774875732421875,0.7166413724124431,-1.5777257025510072,-0.8914724541395902
1780506464287868700,6.78486865234375,0.8424562020361424,-1.6218664575725792,-0.3990468835439533
1780506464297862000,6.79486181640625,0.9909539881110191,-1.5448136130303143,-0.08683569514900445
1780506464307853800,6.804853759765625,2.3557442114681004,-0.7351186938673258,0.5437034840207546
1780506464317846800,6.8148466796875,5.42101324134171,1.5096774177193641,1.443834387847036
1780506464327838700,6.824838623046875,4.493203983929753,5.575377873623371,0.9364727485999464
1780506464337831700,6.834831787109375,2.025930365560949,9.506843462082744,0.8437311904080211
1780506464347825000,6.844824951171875,2.7725547883048653,10.762579436480998,0.6641857935100793
1780506464357816600,6.854816650390625,1.4050839475616812,7.646761538109183,-0.6816557645533233
1780506464367809800,6.864809814453125,0.15973405036032198,3.175255006724596,-0.11012122060321271
1780506464377802500,6.874802490234375,0.18151567405760288,0.1335878017127514,1.418146550491452
1780506464387794700,6.884794677734375,0.6516150657504797,-1.9137784428477287,1.4849028958164154
1780506464397788000,6.894787841796875,-1.6781223055407404,-2.6793045499384402,0.8937189909573644
1780506464407779600,6.904779541015625,-2.3512810945793987,-2.6867805849075315,0.808146228416264
1780506464417772800,6.914772705078125,-2.0218536176413298,-1.9436042567908762,1.4640582607083021
1780506464427765500,6.924765625,-1.398741592797637,-1.0878922673404217,2.109787483290583
1780506464437757700,6.9347578125,-0.8874006746560335,0.21722586986422537,2.3717693174652754
1780506464447751000,6.9447509765625,-0.7760948473781347,1.3907956022292374,2.0736445951551197
1780506464457743600,6.95474365234375,-0.9574462707847357,2.180409856393933,1.5467673774465918
1780506464467735800,6.96473583984375,-1.4345342061907052,2.9731448729276657,1.3543351725772022
1780506464477728500,6.974728515625,-1.1978221300899983,3.3993086767822502,1.1861007857013492
1780506464487720700,6.984720703125,-1.2475424388095735,3.0744723270267245,0.8453794690717011
1780506464497714000,6.9947138671875,-1.6348659321382641,2.166214157781005,0.5149863254392519
1780506464507709400,7.00470947265625,-1.6466650910034775,0.9799801741540431,0.17297778201065955
1780506464517701600,7.01470166015625,-1.42144237716645,-0.02729424963891506,0.09361666052602231
1780506464527694300,7.0246943359375,-1.4001190186306833,-0.7099316456407309,0.07480784209445118
1780506464537686500,7.0346865234375,-1.5061328769803046,-1.0812386546701191,0.09250183115191757
1780506464547679700,7.0446796875,-1.5197645119696854,-1.120311020386219,0.17247476439196616
1780506464557672400,7.05467236328125,-1.5480474803850053,-1.0575152492552995,0.18187402250859885
1780506464567664600,7.06466455078125,-1.6008923508659003,-0.8021522486984729,0.03224942436087876
1780506464577657300,7.0746572265625,-1.0408063987776637,-0.5494505763053894,-0.19454028306454418
1780506464587649500,7.0846494140625,-0.3987628789708018,-0.3108352969318628,-0.2401161854557693
1780506464597642800,7.094642822265625,-0.28901158765852447,-0.17782792545557022,-0.17074505452252922
1780506464607635500,7.104635498046875,-0.3258779677629471,-0.1454863292992115,-0.33461562016569074
1780506464617627600,7.114627685546875,-0.4493450652167201,-0.1484323196232319,-0.4456397078927606
1780506464627620400,7.124620361328125,-0.5421686026036739,-0.3512766129136085,-0.5426308132879436
1780506464637613600,7.134613525390625,-0.6511562160670757,-0.4747814120292663,-0.6622923079136759
1780506464647605800,7.144605712890625,-0.7343165837042033,-0.7050923889160156,-0.6925874198690056
1780506464657598500,7.154598388671875,-0.692985771536827,-0.8928554329305887,-0.6353230524454265
1780506464667590700,7.164590576171875,-0.5386015577718615,-1.037387237983942,-0.6663813307929783
1780506464677583400,7.174583251953125,-0.5471254943586885,-0.9737491708099841,-0.6093350630994886
1780506464687576600,7.18457666015625,-0.5295151649966836,-0.8740069400757551,-0.5333108309525996
1780506464697568800,7.19456884765625,-0.6460378501400351,-0.8534633337408304,-0.2901741286318749
1780506464707561500,7.2045615234375,-0.9757131643593311,-0.7693190696328878,-0.0614108195785433
1780506464717553700,7.2145537109375,-1.078072007332742,-0.718879506728053,0.34370142841897905
1780506464727546600,7.224546630859375,-1.0326048260129987,-0.9423030621886253,0.4996447081942111
1780506464737539600,7.23453955078125,-0.9550947392225265,-0.8971183510720729,0.7966445181276649
1780506464747531800,7.24453173828125,-1.392074974515289,-1.0183616349965334,0.9175522864874451
1780506464757524500,7.2545244140625,-1.5989223659671843,-1.077719832894206,0.6512835687737911
1780506464767517400,7.264517333984375,-0.7372026605345309,-0.9801385795861483,1.0541400737337767
1780506464777509600,7.274509521484375,-0.5013445709146559,-0.9870131415307521,0.771430801089853
1780506464787502600,7.284502685546875,-0.6680570819854736,-0.78287354773283,0.6128277275208384
1780506464797494500,7.29449462890625,-0.6505949289225041,-0.5227805960446595,0.43032830312289294
1780506464807487500,7.304487548828125,-0.2158103039778769,-0.2945768205702305,0.2980443505503237
1780506464817480400,7.31448046875,-0.020705080506950614,-0.06501286265850066,0.025061960542201993
1780506464827472600,7.32447265625,-0.04472162364944816,0.47436990861892697,-0.14136873791255056
1780506464837465600,7.334465576171875,0.12834361744895575,0.8498504039406776,-0.4106438709005713
1780506464847457500,7.34445751953125,0.24959903020262716,0.6045978785097599,-0.5363792055472731
1780506464857450500,7.354450439453125,0.3443837846599519,0.45488662499189375,-0.2568570385068655
1780506464867443500,7.364443359375,0.249107885684818,0.3003863836318254,-0.14795798010975122
1780506464877435600,7.374435546875,0.28305348297171296,0.1555295844078064,-0.22881357793584464
1780506464887428600,7.3844287109375,0.31070129528865215,0.16346680714786052,-0.39708369371220464
1780506464897420500,7.394420654296875,0.4976174401503056,0.2999854016155004,-0.7900503074944019
1780506464907413500,7.40441357421875,0.08664594473056494,0.2721452085316181,-1.0382825793884694
1780506464917406500,7.414406494140625,0.4573603216290474,0.13645195897221565,-1.328697457973659
1780506464927398700,7.424398681640625,0.7107526797000319,-0.02514496265053749,-1.2952423476174473
1780506464937391600,7.4343916015625,1.0238298372745513,-0.06408990259468555,-1.2048115505859256
1780506464947383600,7.444383544921875,1.3700772238492964,0.0631686960965395,-0.9954153514340519
1780506464957376500,7.45437646484375,1.2422444785319269,0.23422551998198032,-0.783922618394345
1780506464967369500,7.464369384765625,1.3872433165751397,0.5058592718601227,-1.106320927347988
1780506464977361700,7.474361572265625,0.8663548178873955,0.5967307983964681,-1.1152163275957108
1780506464987354600,7.484354736328125,0.8315618830561637,0.6823164934843778,-1.2923828665331005
1780506464997346600,7.4943466796875,0.6121813924413174,0.7642115173608064,-1.2296743352942168
1780506465007339500,7.504339599609375,0.8298761949915439,1.00033322635293,-1.420410696031153
1780506465017332500,7.51433251953125,0.6221873112142086,1.1180308004945516,-1.1404713264919817
1780506465027324700,7.52432470703125,0.6130079794585704,1.3162310673713684,-0.8285081945739686
1780506465037317600,7.534317626953125,1.259874973899126,1.8447627742886543,-1.0530386883631349
1780506465047310600,7.544310546875,0.9107903180718422,2.2384201468139886,-0.9819808464519679
1780506465057302500,7.554302490234375,1.0249579645216464,2.601806884238124,-1.2098634271480142
1780506465067295500,7.56429541015625,0.8807575833797454,2.9390204850077626,-1.4930574145689606
1780506465077287700,7.57428759765625,1.0468892258226872,3.635452597606182,-2.2942200677081943
1780506465087280400,7.5842802734375,0.5884674124419689,3.798918235710263,-2.5036896243572233
1780506465097273600,7.594273681640625,1.1122597428124397,3.27752354106605,-2.25069890588969
1780506465107265500,7.604265625,1.857650312912464,3.0728017634660003,-1.5390889517731963
1780506465117258500,7.614258544921875,2.063781957310438,2.715621479466557,-0.2552756145343184
1780506465127250700,7.624250732421875,1.6502596083641052,1.8591642246067523,0.8736879372544586
1780506465137243400,7.634243408203125,2.1455577387213705,1.7078852833807467,0.945895533722639
1780506465147236600,7.644236572265625,1.4300877481758594,1.6630945400178432,1.065001367226988
1780506465157228500,7.654228515625,1.3449077112793921,1.8729817375570534,1.1316688652247189
1780506465167221500,7.664221435546875,1.235653409703821,1.9682219806969166,1.1644314632721244
1780506465177213700,7.674213623046875,1.039249670854956,1.7582149561703204,1.1887671553663908
1780506465187206400,7.684206298828125,0.7754020428083837,1.3844149612814187,1.0473843158632516
1780506465197199600,7.69419970703125,0.3720166186034679,1.070675759601593,0.8496843997240066
1780506465207191600,7.704191650390625,0.021206308027356863,0.8972790945917367,0.6599601386390626
1780506465217184500,7.7141845703125,-0.5170635335721075,0.6565197889268398,0.3858262405082583
1780506465227176700,7.7241767578125,-1.2933859060958026,0.18424656032621858,-0.09677081370800733
1780506465237169400,7.73416943359375,-1.8742064570464192,-0.2431406478434801,0.045389439908415076
1780506465247162600,7.74416259765625,-1.486696208973974,-0.45645080556869505,0.2401870587348938
1780506465257154600,7.754154541015625,-0.19587869206145406,0.11900690317451953,0.5256529366105794
1780506465267147500,7.7641474609375,0.38829073092564936,0.6322311508446932,0.6173036308258771
1780506465277139700,7.7741396484375,-0.02007628108412027,1.0153916792750357,1.2208967162072657
1780506465287132400,7.78413232421875,0.10951704416498541,1.0795429566681385,1.2628192106574774
1780506465297125600,7.794125732421875,0.09412892089709639,0.6439315255105496,1.3569631829932332
1780506465307117600,7.80411767578125,-0.21527327449172734,0.2795224593013525,1.7596373901888727
1780506465317110500,7.814110595703125,-0.062006666579842565,-0.16534429145753382,2.0548080849990247
1780506465327102700,7.824102783203125,-0.24701632023304698,-0.41627895417809485,2.2874891520179808
1780506465337095400,7.834095458984375,-0.7000175698697566,-0.4327233085006475,2.5967344032794237
1780506465347088600,7.844088623046875,-0.6772650553137064,-0.608954320153594,2.763092547954619
1780506465357080600,7.85408056640625,-0.8489081546545029,-0.9292764073550701,2.656922914521396
1780506465367073500,7.864073486328125,-1.1904942714199422,-0.9067278909385204,2.383316985787451
1780506465377065700,7.874065673828125,-1.4528762108281255,-0.7441016262680291,1.8275443668536842
1780506465387058400,7.884058349609375,-1.2881740166664122,-0.6396183384865523,1.4563583538554608
1780506465397050600,7.894050537109375,-1.0267515699401497,-0.637526334643364,1.4941294277146457
1780506465407043600,7.904043701171875,-0.7006444695964456,-0.6759311763614416,0.9577630085837096
1780506465417036500,7.91403662109375,-0.3627718203961849,-0.6371814667284488,0.4629973776679486
1780506465427028700,7.92402880859375,-0.6655225950717926,-0.41363808428049087,0.4819099487349391
1780506465437021400,7.934021484375,-1.0284820469945668,-0.5694751272022723,-0.07083959605060518
1780506465447013600,7.944013671875,-1.058258176577091,-0.7836468701928854,-0.1008738651126623
1780506465457006300,7.95400634765625,-1.1738865432292223,-0.8456096976310015,0.17607830530926585
1780506465466999600,7.96399951171875,-0.8175491397947072,-0.8339274431437254,0.9982245636358856
1780506465476991700,7.97399169921875,-1.0691118712857366,-0.6048726037979125,0.5518718121029437
1780506465486984400,7.983984375,-1.1327233427137136,-0.6014227556049824,0.1675536380700767
1780506465496976600,7.9939765625,-1.3541934260189532,-0.8577186530977488,0.3908610198050737
1780506465506966800,8.003966796875,-1.0284265174150466,-1.4764344888091085,0.5265690285421908
1780506465516960000,8.0139599609375,-1.7081988793745635,-1.9113900864064692,1.0649899690501392
1780506465526952000,8.023951904296876,-1.8760557381749152,-2.2425047857791185,1.3645612369067965
1780506465536945000,8.03394482421875,-1.4750333898395298,-2.658506676581502,1.4195863740362227
1780506465546937000,8.04393701171875,-2.160465384995937,-2.964465891909599,1.5732069099523127
1780506465556930000,8.053929931640624,-2.2453397169440983,-3.262196208074689,1.4870342087566852
1780506465566923000,8.063923095703124,-1.6010931341350079,-3.498277000534534,1.2746169082179666
1780506465576915000,8.0739150390625,-2.1039549777448174,-3.3991093548178672,0.831119399985671
1780506465586908000,8.083907958984375,-1.9524030647963284,-3.2053105377703903,0.46478155767098067
1780506465596900000,8.093900146484375,-1.7334236292630434,-2.77117502438426,-0.021358429849147795
1780506465606893000,8.10389306640625,-1.4395932431459426,-2.299638293364644,-0.43613677020594477
1780506465616886000,8.113885986328125,-1.0034820457726716,-1.8659803343623875,-0.7432000012531876
1780506465626878000,8.1238779296875,-0.6577069528847932,-1.626876394689083,-0.8457448683179914
1780506465636871000,8.133870849609375,-0.41200376107692716,-1.571028835260868,-0.8867182453498244
1780506465646863000,8.143863037109375,-0.26854630725681783,-1.742435787758231,-1.1013856629028915
1780506465656856000,8.15385595703125,-0.16171382600069045,-1.9294985745489597,-1.3445930923722684
1780506465666849000,8.16384912109375,0.04497895941138267,-1.9822458298742769,-1.537177126802504
1780506465676841000,8.173841064453125,0.30220658479630946,-1.9738596943229436,-1.697120143738389
1780506465686834000,8.183833984375,0.47993104987740515,-1.921537970933318,-1.8307777958169578
1780506465696825900,8.193825927734375,0.5957523087531328,-1.8686919314086436,-1.9041344161897897
1780506465706819000,8.203819091796875,0.689433047491312,-1.8323732483148574,-1.9617451858982442
1780506465716811000,8.21381103515625,0.7181546995848417,-1.8555583090692758,-1.9680929474897682
1780506465726804000,8.223803955078125,0.7294780576318503,-1.9390034849971531,-1.7290689411848783
1780506465736797000,8.233796875,0.6600327654838561,-2.1205279268831014,-1.2313166956737638
1780506465746788900,8.243788818359375,1.0357304106876253,-1.950340871569514,-0.8775961236741393
1780506465756782000,8.253781982421875,2.733729383087158,-0.6405377914190292,-0.2549466748408973
1780506465766774000,8.26377392578125,5.409023528340459,2.153504898333549,0.09642273092269897
1780506465776767000,8.27376708984375,5.468676909792423,6.615854894316196,-0.7484355638191104
1780506465786760000,8.283760009765626,3.028760961687565,10.131473490273953,-0.46558279105126854
1780506465796752000,8.293751953125,4.494806158429384,9.53057154367268,0.8473477734699845
1780506465806745000,8.3037451171875,5.02553917478323,6.806400262525678,-0.15885967867858708
1780506465816737000,8.313737060546876,2.0213281324625014,3.8143577969044444,-0.7864860391415656
1780506465826730000,8.32372998046875,0.30568449003994463,0.8561901283562183,-0.31076548309866336
1780506465836722000,8.333721923828126,0.09232406343221664,-1.421985105741024,0.258066048970446
1780506465846715000,8.34371484375,-1.443154735019803,-3.1397482245355843,0.7669708990715444
1780506465856708000,8.3537080078125,-2.3993597735717893,-4.290643768277764,1.0228153264697641
1780506465866700000,8.363699951171874,-3.133963211393356,-4.601363914397359,1.393994982792437
1780506465876693000,8.37369287109375,-2.0613737271249293,-4.0444343805134295,2.294318121255189
1780506465886685000,8.383684814453124,-0.941661841675639,-2.5715607990562916,3.590987725196779
1780506465896678000,8.393677978515624,-0.6332482189327479,-0.43876843388378617,3.6220842897281047
1780506465906671000,8.403671142578125,-0.7481479790493846,1.8444640836030244,3.3771541281193493
1780506465916663000,8.4136630859375,-0.2674450680166483,3.9962627625405784,3.0867683294981716
1780506465926656000,8.423656005859375,-0.22514760277420282,5.281223662379384,2.21487604348883
1780506465936648000,8.43364794921875,-0.2617947871699929,5.681562704625725,1.3275626087248324
1780506465946641000,8.443640869140625,-0.30489743131548164,5.11630840998888,0.7350489896319806
1780506465956634000,8.453634033203125,-0.47498745599538084,3.6926755370408295,0.3512580908762291
1780506465966626000,8.4636259765625,-0.748921009248495,2.1104636289864778,0.3189442960422486
1780506465976619000,8.473618896484375,-0.868874545623362,0.6135445705533027,0.44674434466641394
1780506465986611000,8.48361083984375,-1.286619480700791,-0.5555915632784366,0.7332707279130816
1780506465996604000,8.49360400390625,-1.6409946441516279,-1.305198216703534,1.1210751366265117
1780506466006595800,8.503595947265625,-1.5670587625861168,-1.7233359504908323,1.4047894946597517
1780506466016588800,8.5135888671875,-1.7450827951356767,-1.9393091899454593,1.482094122005999
1780506466026582000,8.52358203125,-1.8336068817630409,-1.835940000885725,1.58645816732198
1780506466036574000,8.533573974609375,-1.803199468539655,-1.5586761341661215,1.5389454516492782
1780506466046567000,8.54356689453125,-1.7231141244336963,-1.2631167322993277,1.2656728465229272
1780506466056558800,8.553558837890625,-1.5184092979684471,-1.0049252303183078,0.8479732118919491
1780506466066551800,8.5635517578125,-1.3082125960886477,-0.8109720994919538,0.24260471433587372
1780506466076545000,8.573544921875,-1.1338416792191564,-0.659227294319868,-0.42300219801850614
1780506466086537000,8.583536865234375,-0.9312064986348152,-0.7302046183407306,-1.0185576690252869
1780506466096530000,8.593530029296875,-0.7528061801187693,-0.7513859380573034,-1.4252052368313073
1780506466106521900,8.60352197265625,-0.6470274456992745,-0.7634089688062667,-1.6675535652533173
1780506466116514800,8.613514892578126,-0.579798660556972,-0.7331009243041277,-1.8021810852773485
1780506466126507000,8.623507080078125,-0.4568865666374564,-0.7622416785925626,-1.888571374746412
1780506466136500000,8.6335,-0.3777218445077538,-0.8740063555538654,-1.9185230070263146
1780506466146493000,8.643492919921876,-0.351031405980885,-0.9850795431196689,-1.994183812688291
1780506466156484900,8.65348486328125,-0.34390827610269187,-0.9492501048475503,-2.2728929097801447
1780506466166477800,8.663477783203126,-0.145237322974205,-1.1423369742333889,-2.3147344479486347
1780506466176470000,8.673469970703126,-0.18959683531299232,-1.3208704176098107,-2.1665204472512007
1780506466186463000,8.683462890625,-0.2524339613676071,-1.2986235144883393,-1.4630568285807966
1780506466196455000,8.693454833984376,-0.39051103732362386,-1.149112167456746,-0.9058134064421057
1780506466206447900,8.70344775390625,-0.33935601962581274,-1.0683820957064627,-0.5451698302462696
1780506466216440800,8.71344091796875,-0.06021729894503951,-0.9668044662386178,-0.17053133870661258
1780506466226433000,8.72343310546875,-0.17716142437085508,-0.7288169633746147,0.23104031407460568
1780506466236426000,8.733426025390624,-0.6324843949533998,-0.508911645168066,0.2968206539742648
1780506466246418000,8.74341796875,-0.822827664719522,-0.03236731511950493,0.5794784886918962
1780506466256411000,8.753410888671874,-0.4753589196562767,0.4277648093104362,1.1626203221969307
1780506466266403800,8.76340380859375,-0.041256577887386084,0.7786480389922856,1.8672158675067125
1780506466276396000,8.77339599609375,-0.20499533384442328,0.6259551393151283,1.2925579308390616
1780506466286389000,8.783388916015625,-0.31070597146376966,0.21263854207396507,0.13487769539281724
1780506466296381000,8.793380859375,-0.35452407040223477,0.20775135455429553,0.002162146469950676
1780506466306374000,8.803373779296875,0.37083361936397846,0.25421032339036465,-0.20628741948157547
1780506466316366000,8.813365966796875,0.5936287407279014,0.35228315960764883,-0.09497998476848006
1780506466326359000,8.823359130859375,0.4864298373121768,0.5174059172689914,-0.4840435997627675
1780506466336351700,8.833351806640625,0.6092623631894588,0.465557656610012,-0.7347768946923315
1780506466346344000,8.843343994140625,0.2842402085382491,0.5565203685611486,-0.6164873460069299
1780506466356337000,8.8533369140625,0.26488551972694696,0.688151775509119,-0.9377806163281202
1780506466366328800,8.863328857421875,0.17674670609012244,0.5382517214208841,-1.1480329939179121
1780506466376322000,8.873322021484375,0.8254383586745708,0.48124154795408247,-1.4608540578395128
1780506466386314000,8.88331396484375,0.7496119141221046,0.5831657989025115,-1.3225292907327413
1780506466396307000,8.893306884765625,1.1926748303294181,0.5353828879863023,-1.5523010461762548
1780506466406300000,8.9032998046875,1.2398784800529479,0.47244332447052,-1.6478291663467883
1780506466416291800,8.913291748046875,1.2180489255607128,0.36581951752901076,-1.6060570401526986
1780506466426285000,8.92328515625,1.011288335609436,0.29069968687593933,-1.6488443347387014
1780506466436277000,8.933277099609375,0.8157482278525828,0.17996084583103655,-1.7052675020977854
1780506466446270000,8.94327001953125,0.8261667460143566,0.17969196576178073,-1.8505520252145826
1780506466456263200,8.95326318359375,0.4801321254074573,0.11683715792000293,-1.6227131375297903
1780506466466254800,8.9632548828125,0.6178665254056454,0.28103111029863354,-1.336395465130359
1780506466476248000,8.973248046875,0.8340659748315811,0.7624404160350561,-1.1562218533314763
1780506466486240000,8.983239990234376,0.8335586098313331,1.3509277022212742,-1.0573612277373672
1780506466496233000,8.99323291015625,0.3140285400152206,1.7783815458863972,-0.8025479700177908
1780506466506225400,9.003225341796876,0.12048749712109565,2.1169220113456246,-0.6463574374832213
1780506466516218400,9.01321826171875,0.9281085326194762,2.666749604269862,-1.2066995562896132
1780506466526211600,9.023211669921874,1.0381097070395946,2.8489158511906862,-1.0911677818797527
1780506466536203300,9.033203369140624,1.2268202610373495,2.961670123711228,-1.2929950070820748
1780506466546196500,9.043196533203124,0.9938684142529964,2.8136668431550262,-1.5888836409032343
1780506466556188400,9.0531884765625,1.314892512243986,2.8090725011020896,-1.7525566381476818
1780506466566181400,9.063181396484374,2.2522306455016134,3.1484593542575836,-1.7632935746088623
1780506466576173300,9.07317333984375,1.7949907353818415,3.36767902828753,-0.5619646054416895
1780506466586166300,9.083166259765624,2.0763012471437454,3.803806592273712,0.20899434035271405
1780506466596159500,9.093159423828125,1.6539537867069243,4.111986406260729,0.7210185645833611
1780506466606151400,9.1031513671875,0.6358581091701984,3.7276504043102263,1.4533885442644356
1780506466616144400,9.113144287109375,0.45628823541812596,3.3231337841182946,1.8922190835990012
1780506466626136300,9.12313623046875,0.18703177059795706,2.649453601554036,2.063577374649048
1780506466636129300,9.13312939453125,0.11094342370629309,2.1116870333015916,2.1704539873078463
1780506466646121500,9.14312158203125,0.12751703043170273,1.7528011144280433,2.06892574993968
1780506466656114400,9.153114501953125,0.05232764167375862,1.5825234582215546,1.813855156458169
1780506466666107400,9.163107421875,-0.24543840339183806,1.3732289658784866,1.4191874378465115
1780506466676099300,9.173099365234375,-0.6342493587993085,1.0546937620937824,0.9920786082267761
1780506466686092300,9.18309228515625,-0.8652024329818785,0.1644172397404909,0.5623034820072352
1780506466696084500,9.19308447265625,-0.9671450963698327,-1.2833809371709823,0.01002513493001461
1780506466706077400,9.203077392578125,-0.6070213062644004,-1.6923352475494144,0.41512817670777435
1780506466716069400,9.2130693359375,0.7329672149218619,-1.5492133092939853,-0.6421466879203915
1780506466726062300,9.223062255859375,2.1443618069350716,-0.11399696605801582,-0.4153323209777474
1780506466736055300,9.23305517578125,2.2023267969086766,0.1343061791151762,-0.483392223181948
1780506466746047500,9.243047607421875,1.847450698198378,0.893041310891509,0.10702741930633783
1780506466756040400,9.25304052734375,1.42576900819391,1.1329805323451756,0.3399902258761227
1780506466766032400,9.263032470703125,0.718339554632455,1.1554168205589055,0.3534868363089859
1780506466776025300,9.273025390625,-0.01918298550620675,1.246713294509053,0.45107192554194475
1780506466786017500,9.283017578125,-0.7665119032576679,0.9164110805630683,0.9070280429288744
1780506466796010500,9.293010498046876,-1.2391393521234393,0.44801498565673825,1.2757071876727044
1780506466806002400,9.30300244140625,-1.1338482550904154,-0.15578794308304786,1.8160311853229998
1780506466815995400,9.312995361328126,-1.1737795757234095,-0.7210849078178405,2.9663460065677763
1780506466825988400,9.32298828125,-1.1315478691935539,-1.3505004167199135,3.1052056112036106
1780506466835980300,9.332980224609376,-0.7181462240174412,-1.8568343203544615,2.991438069987297
1780506466845973500,9.342973388671876,-0.10108224716633557,-1.818233663803339,2.016438899116218
1780506466855965400,9.35296533203125,-0.12283347572535276,-1.4817460392206907,1.1235624233976005
1780506466865958400,9.36295849609375,-0.3365396470308304,-0.8838456125229597,1.0378195649866013
1780506466875950300,9.372950439453126,-0.5587298613041639,-0.6700526397168636,1.2548530540838836
1780506466885943300,9.382943359375,-0.4954822547525167,-0.583773117145896,1.1984644465815275
1780506466895936500,9.3929365234375,-0.907420549377799,-0.29878245556652544,1.3428653917968272
1780506466905928400,9.402928466796874,-1.1619763252049684,-0.08626315595805645,1.242269466842711
1780506466915921400,9.41292138671875,-1.1874646944656968,0.29231647442281244,0.3242328309044242
1780506466925913300,9.422913330078124,-1.1885483980491756,0.6534270836085081,0.12569843670241534
1780506466935906300,9.43290625,-0.8961588583901524,0.2545814947903156,-0.45038113026618953
1780506466945898200,9.442898193359374,-0.44502486393004653,-0.6895189722090959,-0.0630640666782856
1780506466955891500,9.452891357421874,-1.063972754831612,-0.9908575419992208,0.7860052698872984
1780506466965884400,9.462884521484375,-0.7759931405693292,-1.5212772546201943,0.9326241103477776
1780506466975876400,9.47287646484375,-2.2501152607828376,-1.5323159505069255,1.3265939098231494
1780506466985869300,9.482869384765625,-1.1293360383629798,-2.430501638549566,1.2047855393618345
1780506466995861200,9.492861328125,-1.8915081588506697,-3.143825264716148,1.012186307362467
1780506467005854500,9.5028544921875,-2.1647651280164717,-3.3035850340396165,1.000547015234083
1780506467015846400,9.512846435546875,-2.0462819564551116,-3.581759001341462,0.7839213032200932
1780506467025839400,9.52283935546875,-1.5899106458634138,-4.124528492447734,0.5075841228913516
1780506467035832300,9.532832275390625,-1.7888666995435951,-4.352820530727506,0.3768501031745225
1780506467045824300,9.54282421875,-1.3598825775712728,-4.308973790216446,0.3024357904423028
1780506467055817500,9.5528173828125,-0.9801800806403159,-4.0752614804536105,-0.029600042363256213
1780506467065809400,9.562809326171875,-0.7711638207167386,-3.6397926726371046,-0.4483286547157913
1780506467075802400,9.57280224609375,-0.535832969841361,-3.3672862295776604,-0.8346209053006023
1780506467085794600,9.582794677734375,-0.344364057046175,-3.428397993144393,-1.1555416890475898
1780506467095787500,9.59278759765625,-0.3271259219974279,-3.5208003825098273,-1.421722070890665
1780506467105779500,9.602779541015625,-0.35238252832889555,-3.514672255018353,-1.5792662099912762
1780506467115772400,9.6127724609375,-0.05673077200353145,-3.4772523326843974,-1.5606009647488592
1780506467125765400,9.622765380859375,0.20029402428567408,-3.398922892335057,-1.4659236161887645
1780506467135757600,9.632757568359375,0.28768939914405345,-3.204702635005116,-1.4018911428697407
1780506467145750500,9.64275048828125,0.54469373716712,-3.092787735918164,-1.1071584010854363
1780506467155742500,9.652742431640625,1.4317951366156338,-2.8643384612500666,-0.7222894613020122
1780506467165735400,9.6627353515625,2.472776599699259,-1.8113661161214112,-0.6332598363053054
1780506467175727400,9.672727294921875,5.757744027030467,1.7029916661202906,0.06451642091106623
1780506467185720300,9.68272021484375,7.03773181463182,8.504197867134213,1.6155686726026237
1780506467195713500,9.692713623046876,2.1858879955440758,14.340260228598117,2.7071470811098814
1780506467205705500,9.70270556640625,3.844894389465451,11.97372983469963,2.7676564948692914
1780506467215698400,9.712698486328126,4.542531201678514,4.673311544755101,-0.17818415501471607
1780506467225690400,9.7226904296875,-0.661299424418807,0.25368366916775703,0.04522724421718158
1780506467235683300,9.732683349609376,-2.1094003836691377,-2.321443882459402,0.9386018695831299
1780506467245675300,9.74267529296875,-2.8686060555666684,-3.7392882351338863,1.062705365244299
1780506467255668500,9.75266845703125,-3.5761224567592143,-4.706114328682422,2.548066233961284
1780506467265660400,9.762660400390626,-3.75175784060657,-4.791640987059473,3.632867257288098
1780506467275653400,9.7726533203125,-2.921544449549913,-3.8663936890900135,3.982193905177712
1780506467285646300,9.782646240234374,-2.3697090239346026,-1.776177898362279,3.8393452309057112
1780506467295638300,9.79263818359375,-1.6993366507440804,0.9989449868649244,3.505506075005233
1780506467305631500,9.802631591796874,-0.8458522742152214,3.7274785548746583,3.0647917677506804
1780506467315623400,9.81262353515625,-0.4378618404328823,5.773631916514039,2.4135443662688134
1780506467325616400,9.822616455078125,-0.646595776283741,6.333638373625278,1.4475965168595313
1780506467335608600,9.832608642578125,-1.1825041494488715,5.66462033765316,0.7176273877751081
1780506467345601300,9.842601318359375,-1.5724287651866673,4.134480562141538,0.22056053071226922
1780506467355593500,9.852593505859375,-1.81047296667397,2.557978848427534,0.18159915108997374
1780506467365586400,9.86258642578125,-1.8832558788120746,1.2666495826005935,0.39678975226692853
1780506467375579400,9.872579345703125,-2.01054165777117,0.25311142223775385,0.5830275594756007
1780506467385571600,9.882571533203125,-2.344551201802492,-0.26448154203593727,0.6295604703307152
1780506467395564300,9.892564208984375,-2.5167262160629034,-0.3990700452238321,0.5091295987676829
1780506467405556500,9.902556396484375,-2.3245047313347458,-0.22797581193745134,0.26017200827375053
1780506467415549400,9.912549560546875,-1.982186208641529,0.10037877507209778,-0.2448236690269783
1780506467425541400,9.922541259765625,-1.4841574842765926,0.41119828991293905,-0.7514470205947756
1780506467435534600,9.93253466796875,-0.9070695439830422,0.6902139687359332,-1.0973447169490158
1780506467445527300,9.94252734375,-0.3705029991701245,0.921214096930623,-1.3907768975287675
1780506467455519500,9.95251953125,0.24228403101414442,0.9354524656414985,-1.8672168904200195
1780506467465512400,9.962512451171875,0.7246177581191062,0.9512871636331081,-1.935645845132321
1780506467475504400,9.97250439453125,0.7485784794211388,0.856613906726241,-1.7046315422818064
1780506467485497600,9.98249755859375,0.3259890269219875,0.5148398661732674,-1.4813054558463394
1780506467495489300,9.9924892578125,-0.10699731642901897,0.09157996706664562,-1.1205697443876415
1780506467505482500,10.002482421875,-0.44070758525282144,-0.3184942872524261,-0.6594826573204249
1780506467515473400,10.012473388671875,-0.6538005930960178,-0.6971680256575346,-0.29572036458216605
1780506467525466400,10.02246630859375,-0.7841036740496754,-1.1565882024258374,-0.15428338373899458
1780506467535459600,10.03245947265625,-0.8563947110176086,-1.5751502991050481,0.01704619267322123
1780506467545451500,10.042451416015625,-0.851483558100462,-1.6239532007187605,0.4246894204530865
1780506467555444500,10.052444580078125,-0.8412038638874888,-1.2697516402691602,0.6732740129161626
1780506467565436400,10.0624365234375,-1.2898539325773715,-1.054733509582281,0.21606164839044212
1780506467575429400,10.072429443359376,-1.1195005807861684,-1.196640226829052,0.18709654292985795
1780506467585421300,10.08242138671875,-0.8883344483748078,-1.2462170354247093,0.22442827552370725
1780506467595414500,10.09241455078125,-0.9940519541263579,-1.0344827487140893,0.15510551377683876
1780506467605406500,10.102406494140626,-0.8915002189293503,-1.0784738661319018,0.13532719272598623
1780506467615399400,10.1123994140625,-0.8188616836979985,-1.5245879866033791,0.29372254182845353
1780506467625392400,10.122392333984376,-0.6455731552377343,-1.8627888448446988,0.10646934703215956
1780506467635384300,10.13238427734375,-0.7861119451321661,-2.132083924642205,0.47484074100106954
1780506467645377300,10.142377197265626,-1.2180151694215833,-2.074381092736125,0.29645620457604527
1780506467655369500,10.152369384765626,-0.7544434259317815,-1.290931206420064,0.8005901870135217
1780506467665362400,10.162362548828124,-0.16754852350354194,-0.6020522856801748,0.7099018350243568
1780506467675354400,10.172354248046876,-0.062244566988945,-0.2756406494319439,0.4238832917019725
1780506467685347300,10.182347412109374,-0.13400748842954635,-0.0006482347756624221,0.3063670654766261
1780506467695339500,10.192339599609374,0.01452069278359413,0.05696282719373703,-0.354046223757416
1780506467705332500,10.20233251953125,0.03850727917924523,0.20895839225649832,-0.8238358188487589
1780506467715325400,10.212325439453124,0.2528936878338456,0.26597850259542466,-1.1938972117312252
1780506467725317400,10.2223173828125,0.3171944567002356,0.16931202604472637,-1.1667653130471705
1780506467735310300,10.232310302734374,0.24207170343771575,0.0920166049182415,-0.9686791740693151
1780506467745302500,10.242302490234374,0.2504734749495983,0.2012339354842901,-0.6738076083362102
1780506467755295500,10.25229541015625,0.14635390591397882,0.42362873241901394,-0.4238213323816657
1780506467765287400,10.262287353515624,-0.041485856598615645,0.3189922999024391,-0.4304543406553566
1780506467775280400,10.2722802734375,0.3718552905619144,0.23138591264188288,-1.1643573751226066
1780506467785272300,10.282272216796875,0.2640927619140595,0.10509235959053038,-1.3904789374954998
1780506467795265500,10.292265625,0.3593861234806478,0.02656710440814495,-1.4847171639859675
1780506467805258500,10.302258544921875,0.7331236475925892,0.08051438317298888,-1.450995219387114
1780506467815250400,10.31225048828125,1.1726654039364308,0.08997136282622814,-1.3308131349533796
1780506467825243400,10.322243408203125,1.2450643582582472,0.07068915472924708,-1.0693870349653065
1780506467835235300,10.3322353515625,1.453970143544674,0.3916197292178869,-1.4648346519082784
1780506467845228500,10.342228515625,0.9338939841531216,0.6154863522708416,-1.699743039587885
1780506467855220200,10.35222021484375,0.8697637495480477,0.7930278620004654,-1.8804713626600802
1780506467865213400,10.36221337890625,0.6970762557208537,0.9429226553916931,-1.6437316679000853
1780506467875205600,10.37220556640625,1.054260046851635,1.3833797730147839,-1.7011293793797493
1780506467885198300,10.3821982421875,0.5841372742831706,1.703598984363675,-1.248984308180958
1780506467895191600,10.392191650390625,0.4606383569190278,1.9049141683906317,-0.9411442475423216
1780506467905183200,10.402183349609375,0.6176069976866245,2.339666352370381,-0.9607799452520907
1780506467915176400,10.412176513671875,0.6393021121442317,2.8182933339118956,-1.0889312549993395
1780506467925168600,10.422168701171875,0.7309738491475581,3.1289591194957493,-1.1451847648799418
1780506467935161300,10.432161376953125,0.9440005137562751,3.328914121085405,-1.2362161581531166
1780506467945153500,10.442153564453125,0.7756511952638626,3.0650545103400946,-1.082941659195721
1780506467955146200,10.452146240234375,1.4431833765923976,2.855035210853815,-1.327352765366435
1780506467965138400,10.462138427734375,1.3858955552279948,2.3934546411812305,-0.6148612061098218
1780506467975131400,10.47213134765625,2.335892094528675,2.858931049248576,-0.30117373461723324
1780506467985123300,10.482123291015625,2.3152339219033715,3.37032632792592,0.11207710391134024
1780506467995116500,10.492116455078126,1.7329028202593326,3.603082944399118,0.7306950322061777
1780506468005109200,10.502109130859376,1.5046458532929419,3.666579557275772,1.1356199409380554
1780506468015101400,10.512101318359376,1.1146072557866573,3.4602427456945177,1.138127247583866
1780506468025094400,10.522094482421876,0.7608651295423507,2.8614737194687128,1.036825804708898
1780506468035086300,10.53208642578125,0.7074129408180714,2.290698615583777,1.0947302966669201
1780506468045079600,10.54207958984375,0.8999766631126404,1.9662258384436369,1.116746898163855
1780506468055071200,10.5520712890625,1.02273904636316,1.8920716379523277,0.9442908750049769
1780506468065064400,10.562064453125,0.9993349360305815,1.8751134888887404,0.8154751099996268
1780506468075056400,10.572056396484374,0.5913736552774905,1.7480296622425318,0.5947673893690109
1780506468085049300,10.58204931640625,0.14154292543567717,1.2498492544472217,0.13474237857535482
1780506468095042600,10.59204248046875,-0.5243045907415449,0.4881196170300245,-0.49990971580594773
1780506468105034200,10.6020341796875,-0.8767116689898073,-0.1698509552270174,-1.2067907417044044
1780506468115027500,10.61202734375,-0.6244133167006075,-0.4049538425654173,-1.4524256905816495
1780506468125019400,10.622019287109374,-0.21643121235519647,-0.6997264779686927,-0.9241342221610248
1780506468135012400,10.632012451171875,-0.9028468117214739,-0.7152607317090034,-1.2539480680681765
1780506468145004500,10.642004638671875,-0.059915977910906075,0.33956162520051003,-1.262971917001158
1780506468154997200,10.651997314453125,0.6828989695474506,0.8114508229196071,0.47305254241004585
1780506468164989400,10.661989501953125,0.47439679662585255,0.4604916053920984,1.0108684296969324
1780506468174982400,10.671982421875,0.5402592618510127,0.2329705514848232,1.1567503341849892
1780506468184974300,10.681974365234375,0.5134139250233769,0.11444295625984668,1.7939216448456048
1780506468194967600,10.691967529296875,-0.27525983342081306,-0.03612637539207935,2.1462182484567163
1780506468204960300,10.701960205078125,-0.8203007765904069,-0.15430150391757488,2.386429710980505
1780506468214952400,10.711952392578125,-1.1547075032457708,-0.3183037331163883,2.1773843710929155
1780506468224945400,10.7219453125,-1.4242869529426097,-0.4054553623467684,1.9877891432151198
1780506468234937300,10.731937255859375,-1.3162789981663225,-0.5302151299595832,2.2423478416517377
1780506468244930600,10.7419306640625,-1.3703183391287923,-0.7436398539751767,2.483557521432638
1780506468254922500,10.751922607421875,-1.4742849095597863,-1.0136077184677124,2.3502562815763053
1780506468264915500,10.76191552734375,-0.8169102573692798,-1.419133223441243,1.6017719101794063
1780506468274907400,10.771907470703125,-0.5343748799875379,-1.2200018131941557,0.947181335749477
1780506468284900400,10.781900390625,-1.027204282143712,-0.8329530451536178,0.6621170244120061
1780506468294892300,10.791892333984375,-1.1426637219697235,-0.9271084156662225,0.6954397405602037
1780506468304885500,10.801885498046875,-1.309437169447541,-0.9781143802821636,0.2583321160281077
1780506468314877400,10.81187744140625,-1.748083145995438,-0.5214683444023132,-0.004091434032097459
1780506468324870400,10.821870361328125,-1.582326766605675,-0.25878479169905183,0.42695948427692054
1780506468334863400,10.83186328125,-1.3367980545818805,-0.12364391532540321,0.6848908009517938
1780506468344855300,10.841855224609375,-1.2875190598890185,-0.19686989505589006,1.1192374728705734
1780506468354848500,10.8518486328125,-1.5027268679291008,-0.42867374084889887,1.20682668980062
1780506468364840400,10.86184033203125,-1.6649445517987012,-0.6242705472290515,1.0896318044841289
1780506468374833400,10.87183349609375,-1.5547440554141998,-1.1340478693157434,0.9085972650069742
1780506468384825300,10.881825439453126,-1.7893816633284092,-1.3225626084804534,1.2732523418664932
1780506468394818300,10.891818359375,-1.3554536552131176,-1.6689532029181717,1.3456298880741
1780506468404810500,10.901810546875,-1.708528257459402,-1.6444611512184142,1.5731727154217658
1780506468414803500,10.911803466796876,-1.5120137517124415,-1.805460106948018,1.5562158815324305
1780506468424796400,10.92179638671875,-1.0075596704751253,-2.1875836935460566,1.5835921103663742
1780506468434788400,10.931788330078126,-1.0819219607591628,-2.6627409531503914,1.8914488298788665
1780506468444781300,10.94178125,-1.538822263661027,-2.828891300293803,1.5777862005665897
1780506468454773500,10.9517734375,-1.1173235290080308,-2.896747277423739,1.0316063164949416
1780506468464766500,10.961766357421874,-1.4467910456955433,-2.9718863972991705,0.6002302578847855
1780506468474758400,10.97175830078125,-1.2946359061568975,-2.7841531639009713,0.4901596714902669
1780506468484751400,10.98175146484375,-0.9228063345581292,-2.4546716186881063,0.4709994823377579
1780506468494743300,10.991743408203124,-0.619224954277277,-2.4031489367216823,0.05825637413561344
1780506468504736500,11.001736572265624,-0.361229267129302,-2.4448054737120866,-0.37614911529831585
1780506468514728400,11.011728515625,-0.2685153275966644,-2.2111159603029487,-0.8414374534476547
1780506468524721700,11.0217216796875,-0.09989303738176822,-2.093542304801941,-1.31344874317646
1780506468534713900,11.0317138671875,0.05916179854273796,-2.1039421182632445,-1.6584887997880577
1780506468544706600,11.04170654296875,0.24858371568024157,-2.096809782165289,-1.954209968087822
1780506468554699800,11.05169970703125,0.42536710051894183,-2.097588949844241,-2.2160522476613522
1780506468564691500,11.06169140625,0.6682604956030845,-2.0717092431783675,-2.4213557706721125
1780506468574684700,11.0716845703125,0.779857999303937,-2.0906471678823233,-2.4838418913319704
1780506468584676900,11.0816767578125,0.8375707680821418,-2.2689222525835038,-2.4160519651755687
1780506468594669600,11.091669677734375,0.9422112922519444,-2.5947142956286666,-2.221160092194378
1780506468604661800,11.101661865234375,1.0340215609431267,-2.9282319644898176,-1.711053684283793
1780506468614654500,11.111654541015625,1.0114511249557137,-3.17021175186038,-1.1647107916701585
1780506468624646700,11.121646728515625,2.1647399935752154,-2.6455770523816344,-0.3649693304404616
1780506468634639600,11.1316396484375,5.008238495892286,0.05457330170869827,0.7614648490011692
1780506468644631600,11.141631591796875,5.808830071145295,5.532258278343082,0.7826664808534085
1780506468654624800,11.151624755859375,3.0012878483504055,11.440033292365074,0.7832094286236911
1780506468664616700,11.16161669921875,3.170070005302131,13.80549868738055,0.9557711771793663
1780506468674609700,11.171609619140625,2.384973813083768,9.97032314337492,-1.1608956172961742
1780506468684602600,11.1816025390625,0.563802634523809,3.978217402762174,-0.8922104130253196
1780506468694594600,11.191594482421875,0.1616878147765994,-0.3015735475897789,0.6885119871236384
1780506468704587800,11.201587890625,-0.11828092698752879,-2.9931197394639253,0.9802505155280232
1780506468714579500,11.211579345703125,-1.8492381661370396,-4.163291061562299,0.740737410531938
1780506468724572700,11.22157275390625,-2.8553604972854254,-4.294628453999757,0.9156804282009601
1780506468734564600,11.231564697265625,-2.6842630491286514,-3.9101743786275382,1.257688423640281
1780506468744557600,11.2415576171875,-2.2598691775560376,-2.7221897519409657,1.628133409012854
1780506468754549800,11.2515498046875,-1.3990499280944466,-1.1162257968991993,2.268808416945487
1780506468764542500,11.26154248046875,-1.1243962438732384,0.8515303198516369,2.458393269559741
1780506468774534700,11.27153466796875,-1.1236670528158546,2.668404385739565,2.236632386614382
1780506468784527600,11.281527587890626,-0.9667945293664931,3.9822494347572324,1.7862034716837107
1780506468794519600,11.29151953125,-0.710675449745357,4.484883314830064,0.9273805106058717
1780506468804512800,11.3015126953125,-0.627345132368803,4.1662820600718256,0.11816566657740622
1780506468814505500,11.31150537109375,-0.5649959359616041,3.291899272421002,-0.3100753088774159
1780506468824497700,11.32149755859375,-0.5424272535398602,1.9906062464624643,-0.45592086341045795
1780506468834490600,11.33149072265625,-0.7744248683393001,0.6806342394858599,-0.3966937080139294
1780506468844482600,11.341482666015626,-0.9746095870316028,-0.383933850890398,-0.14316431609243155
1780506468854475800,11.351475830078124,-1.1749062416657805,-0.9315227249771356,0.0635171076754108
1780506468864467700,11.3614677734375,-1.2328338222384452,-1.1026841782808303,0.3045234103713184
1780506468874460700,11.371460693359374,-1.3418719968453048,-1.0447802708446978,0.5103371479265392
1780506468884452600,11.38145263671875,-1.3577628089383245,-0.8550719379812478,0.5685456643324345
1780506468894445600,11.391445556640624,-1.2382938412100075,-0.6978127533018589,0.5074127849124371
1780506468904437500,11.4014375,-1.0698673658281563,-0.6213537829995155,0.32804413282088934
1780506468914430700,11.4114306640625,-0.9601043840780854,-0.5314905567228794,0.10473602043353021
1780506468924422700,11.421422607421874,-0.809321117414534,-0.45836043858230113,-0.13342625447548925
1780506468934415600,11.43141552734375,-0.8033595786616206,-0.2822100909501314,-0.28156434039250017
1780506468944407800,11.44140771484375,-0.9084379097267985,-0.19538053328096866,-0.46925863001979884
1780506468954400500,11.451400390625,-0.9442717319130897,-0.19601707761883735,-0.6560954260349273
1780506468964393700,11.461393798828125,-0.8598360836431383,-0.3148644063174724,-0.8209879551369696
1780506468974385700,11.4713857421875,-0.7479087634660303,-0.5769271967738866,-0.7352758571904152
1780506468984378600,11.481378662109375,-0.8192522904507815,-0.8562836518585681,-0.7702880607955157
1780506468994370800,11.491370849609375,-0.8703481253072619,-1.0195955607056617,-0.8875801228761673
1780506469004363500,11.501363525390625,-0.857483090776205,-1.0792734920769929,-0.7973574156373738
1780506469014355700,11.511355712890625,-0.8706678587809205,-1.2675339642196892,-0.7150418282613158
1780506469024348700,11.5213486328125,-0.7547406553126871,-1.506163856640458,-0.2140782194882631
1780506469034340600,11.531340576171875,-0.906662278356403,-1.440295253935456,0.4126484887212515
1780506469044333800,11.541333740234375,-1.1639632612384856,-1.3049848662137984,0.5668756122283637
1780506469054325500,11.551325439453125,-1.1128830623425543,-1.1595745247602463,0.6503435845099389
1780506469064318700,11.561318603515625,-1.1721559200443328,-0.8651876738041638,0.8102480230011045
1780506469074310700,11.571310546875,-1.0270702805005014,-0.6569242780745029,0.7614043509855866
1780506469084303600,11.5813037109375,-0.8082417977452278,-0.4623164827316999,1.3822099985830485
1780506469094295800,11.5912958984375,-0.7183927461244165,-0.3001291940003633,1.442720873647183
1780506469104288500,11.60128857421875,-0.5390919716373086,-0.17472469874322413,1.186208849185705
1780506469114281700,11.61128173828125,-0.5765666928984224,-0.10310732325315475,1.0183477526016533
1780506469124273700,11.621273681640625,-0.06895823928341269,-0.0797515821069479,0.835143102543801
1780506469134266600,11.6312666015625,0.1128209080159664,-0.08292144431471825,0.7909693220354617
1780506469144258800,11.6412587890625,-0.07996376355290412,-0.25775720221698284,0.25100173660740255
1780506469154251500,11.65125146484375,0.0010602496426552533,-0.38111645538210864,-0.13048340595662594
1780506469164243700,11.66124365234375,0.12539762712493538,-0.15962825189828872,-0.124462099840492
1780506469174236700,11.671236572265625,0.16203896630182862,-0.0765226831883192,-0.4401654412001371
1780506469184228600,11.681228515625,0.1352478438794613,-0.03985270243883133,-0.5611370685763657
1780506469194221800,11.691221923828126,-0.029745149922370907,0.030364743125438687,-0.3307131328344345
1780506469204213500,11.701213623046876,0.388994495280832,0.07953297092020511,-0.835125420756638
1780506469214206700,11.711206787109376,0.300784443038702,-0.020257190608978272,-0.8173146003864705
1780506469224198700,11.72119873046875,0.2598199069004506,0.10858253979384898,-0.8494922381527721
1780506469234191600,11.731191650390626,0.5099543591540306,0.2520207043915987,-1.0404114081107079
1780506469244183600,11.74118359375,0.511464836782217,0.29943536651730535,-1.1185232601866126
1780506469254176500,11.751176513671876,1.0448528246242552,0.43263504569530487,-1.6903996033117175
1780506469264169700,11.761169677734374,0.7065665531218052,0.4001777142047882,-1.490328281866014
1780506469274161700,11.77116162109375,0.9460264666259288,0.3364829484075308,-1.3530816653847693
1780506469284154600,11.781154541015624,1.0952280170559883,0.36130233236551285,-1.1888717847846448
1780506469294146600,11.791146484375,0.9835388164836912,0.3282376826316118,-0.9399109063550829
1780506469304139500,11.801139404296874,1.2161211723685263,0.5737164180338382,-1.2019867024235427
1780506469314131700,11.811131591796874,0.8736813613831996,0.6611141309797763,-1.2759931650072336
1780506469324124700,11.821124755859374,0.7212754619538784,0.6739660137683153,-1.1694508988693355
1780506469334116600,11.83111669921875,1.0046610264241695,0.8023451409220695,-1.1608622264832258
1780506469344109800,11.84110986328125,1.5273638810575008,1.0555465795308352,-1.3852246702291071
1780506469354101800,11.851101806640624,0.9722469495534897,1.2961001334905624,-1.1717167979747056
1780506469364094700,11.8610947265625,0.6121475632369517,1.553900590327382,-1.0204263124413788
1780506469374086700,11.871086669921874,0.940425577878952,2.0615636967390776,-1.690665999162942
1780506469384079600,11.88107958984375,0.5986755027234554,2.4248241774350405,-1.5657196229368446
1780506469394071600,11.891071533203124,0.5972867152461782,2.837963080021739,-1.4419754621073604
1780506469404064800,11.901064697265625,0.7220563831984996,3.435906761339307,-1.2456531179316341
1780506469414056400,11.911056396484375,0.5792144309282302,3.7873657450824973,-1.0302734604559838
1780506469424049700,11.921049560546875,0.5748164516976103,3.433056632605195,-0.44612464186549183
1780506469434041900,11.931041748046875,1.3896341572344302,3.1611820577085017,0.033113165050745005
1780506469444034600,11.94103466796875,1.8964216498553752,2.8447879576057193,0.9332216378495096
1780506469454027800,11.95102783203125,2.000931825643778,2.406312953710556,1.4647951966807244
1780506469464019500,11.96101953125,1.973840405100584,1.9522861604183912,1.617639925918728
1780506469474012700,11.9710126953125,1.657712262457609,1.6539362510502338,1.7087860316127537
1780506469484004600,11.981004638671875,1.346824943077564,1.422423497158289,1.783333907596767
1780506469493997600,11.99099755859375,1.0696539422731846,1.307770113018155,1.7581706786371767
1780506469503989800,12.00098974609375,0.908547945972532,1.3117349249958992,1.6998142051279543
1780506469513983200,12.010983154296875,0.5711445217192173,1.3152595919907093,1.5428871750123798
1780506469523975200,12.02097509765625,0.3200280726909637,1.2272487155824898,1.353606273780763
1780506469533968100,12.030968017578125,-0.117073889285326,1.071442067798972,0.8183380982153117
1780506469543960000,12.0409599609375,-0.7239455579459667,0.9689099140852689,0.2701569573238492
1780506469553953300,12.050953369140625,-1.001559699407965,0.6248690976440906,0.026461013685166835
1780506469563945200,12.0609453125,-0.9136476071991025,-0.05064706817567348,-0.8475038408145308
1780506469573938200,12.070938232421875,0.08054492444172501,-0.01988718825280666,-1.211851239964366
1780506469583930400,12.080930419921875,0.5472548198267817,0.5061532863706351,-1.066753617721796
1780506469593923000,12.090923095703126,0.3019944033503532,1.4960270780295133,-0.892432385212928
1780506469603915300,12.100915283203125,1.0939886845193803,2.026871738064289,-0.26763503763079644
1780506469613908200,12.110908203125,1.0690928743243218,1.5113725311994552,0.15544205225482582
1780506469623900200,12.120900146484376,0.6338366863451897,0.7217214521557093,0.4219675942737609
1780506469633893400,12.130893310546876,0.1914206897392869,0.08861527204215526,0.9657916359342634
1780506469643885000,12.140885009765626,-0.7621592610061169,-0.42640521139502524,1.237540538624674
1780506469653878300,12.150878173828126,-1.4331144025206566,-0.9102256699264049,1.8910100000701844
1780506469663870200,12.1608701171875,-1.5215397049486636,-1.3415823662489652,2.454915364316106
1780506469673863200,12.17086328125,-1.2228031343504786,-1.6581132444739342,3.1339290168628096
1780506469683856100,12.180856201171874,-0.7587500370845198,-1.6949539056152105,3.7174855686485766
1780506469693848000,12.19084814453125,-0.7650158194810152,-1.5454004730075597,3.913422566768527
1780506469703841300,12.20084130859375,-1.04764851975739,-1.4247440490603447,3.6181329217538236
1780506469713833200,12.210833251953124,-1.4241761860445141,-1.3109995964586734,2.299902058867365
1780506469723826200,12.220826171875,-1.4327932077422738,-1.137741463136673,0.9209172328758984
1780506469733818400,12.230818359375,-1.6382506061404942,-0.7486287483036518,0.27982264782432464
1780506469743811000,12.24081103515625,-1.4449112232983112,-0.5413444267392158,0.31852899323962625
1780506469753803300,12.25080322265625,-1.0008137033462523,-0.5615080938458442,0.5325605971071868
1780506469763796000,12.2607958984375,-0.870228590580821,-0.6596762071311474,0.4644409275397658
1780506469773788200,12.2707880859375,-1.0589622331932187,-0.6240513515204191,0.06634674161076545
1780506469783781400,12.280781494140625,-1.2169307351857424,-0.2972948473572731,0.2734901203345507
1780506469793773000,12.29077294921875,-0.8426660453945398,-0.049859717190265655,0.2680452989321202
1780506469803766300,12.300766357421875,-0.7240124857023358,0.07056757417619228,0.03284560015574097
1780506469813758200,12.31075830078125,-0.48247284331470724,-0.09879588979482651,0.2576685010202229
1780506469823751200,12.320751220703125,-0.562396274857223,-0.9754302557647228,0.22945216810032723
1780506469833743000,12.3307431640625,-0.9894260478913783,-1.2998685461133719,0.46860111595913767
1780506469843736000,12.340736083984375,-0.5841372742831706,-1.381943602731824,0.9534013793081044
1780506469853728300,12.350728271484375,-0.7572229736477136,-1.5064426735818386,1.1166558588795363
1780506469863721200,12.36072119140625,-1.1272621546983719,-1.6707488541632889,1.0159579348556698
1780506469873713200,12.370713134765625,-1.7736030794382094,-1.8758797970861196,1.050483158661425
1780506469883706000,12.3807060546875,-1.804070698416233,-2.1649247024923564,0.8538624160610139
1780506469893698300,12.3906982421875,-1.896504067441821,-2.2900720081180332,0.4707818209990859
1780506469903691300,12.400691162109375,-1.6047773756057022,-2.296174416646361,0.25709157791510223
1780506469913683200,12.41068310546875,-1.2697773592323065,-2.5107389583468436,0.09066928196251392
1780506469923676200,12.42067626953125,-0.9212368932843208,-2.6817501895248888,-0.11089373934566973
1780506469933668000,12.430668212890625,-0.6153852299839258,-2.7788901288062333,-0.40366614084243774
1780506469943661300,12.440661376953125,-0.2983668605029583,-2.7172306682288645,-0.55630804098472
1780506469953654300,12.450654296875,-0.07816518969833851,-2.5010733043789863,-0.7353487762961536
1780506469963646200,12.460646240234375,0.05511573802232742,-2.283541145044565,-0.8957095071874558
1780506469973639200,12.47063916015625,0.053878305181860923,-2.0583277835577727,-1.0826483753375709
1780506469983631000,12.480631103515625,0.06645137102901935,-1.907181528800726,-1.3077845799349248
1780506469993624300,12.490624267578125,0.07853168492317199,-1.7868734798997639,-1.3471500833787022
1780506470003616000,12.500615966796875,0.1559165378987789,-1.7142852135509252,-1.2298178354181348
1780506470013609200,12.510609130859375,0.2553016257584095,-1.7371254063904285,-1.1144937124095857
1780506470023601400,12.520601318359375,0.2703402049362659,-1.658313150960207,-1.0491139892000705
1780506470033594000,12.530593994140625,0.3468693178653717,-1.612808706369996,-0.9781649414256215
1780506470043586300,12.54058642578125,0.4997878429919481,-1.3124316750884055,-1.07871936532557
1780506470053579000,12.5505791015625,1.4631974060952662,-0.28250878163576126,-0.5677425312560052
1780506470063571200,12.5605712890625,2.678102188411355,1.4078005130439997,-0.08357976209297775
1780506470073564400,12.570564453125,3.7769887279748913,3.487868419244885,-0.3824355751566589
1780506470083556000,12.58055615234375,3.689069036981463,4.812774375981093,-0.832439469608292
1780506470093549300,12.59054931640625,4.229655923351645,4.396480224233866,-0.17342472206056117
1780506470103541200,12.600541259765626,4.831103813397884,3.0364965243756767,0.48102753987722097
1780506470113534200,12.6105341796875,2.3770406819969416,1.7528057906031607,0.34516375605650246
