time,seconds_elapsed,z,y,x
1779988815733725200,0.13272509765625,-2.3922934532165527,-0.11846780776977539,-0.6018099784851074
1779988815750054700,0.1490546875,-3.5385823249816895,-0.861940860748291,1.3095130920410156
1779988815766404000,0.165404052734375,-4.275915622711182,-2.610653877258301,0.6364939212799072
1779988815782723800,0.181723876953125,-3.6977782249450684,-2.6040241718292236,-1.779295563697815
1779988815799073300,0.1980732421875,-2.9900760650634766,-2.991164207458496,-3.081692934036255
1779988815815421000,0.2144208984375,-3.113858222961426,-4.238067150115967,-1.792533040046692
1779988815831732700,0.230732666015625,-3.8147926330566406,-2.8488712310791016,-1.8346576690673828
1779988815848073500,0.247073486328125,-5.999256610870361,-1.9949719905853271,-4.087666034698486
1779988815864400100,0.263400146484375,-8.563281059265137,-4.309986591339111,-5.923835277557373
1779988815880734000,0.27973388671875,-10.602559089660645,-7.05825138092041,-2.9686646461486816
1779988815897073400,0.296073486328125,-6.4960784912109375,-4.622908592224121,-4.90268087387085
1779988815913399800,0.31239990234375,-3.213545322418213,-3.4786698818206787,-5.141438007354736
1779988815929734100,0.328734130859375,-6.96795129776001,-8.023101806640625,-2.135195732116699
1779988815946071600,0.345071533203125,-9.04388427734375,-7.958940505981445,-4.202539443969727
1779988815962401800,0.36140185546875,-12.052068710327148,-8.914703369140625,-3.8287241458892822
1779988815978735600,0.377735595703125,-12.10169792175293,-11.335238456726074,-1.9073758125305176
1779988815995072000,0.394072021484375,-6.749096393585205,-13.996973991394043,2.0804009437561035
1779988816011398100,0.410398193359375,-4.505142688751221,-13.935957908630371,4.1002960205078125
1779988816027737600,0.426737548828125,-0.36040401458740234,-9.971407890319824,6.227495193481445
1779988816044068900,0.44306884765625,3.456054449081421,-8.527328491210938,10.747331619262695
1779988816060404500,0.459404541015625,5.557590961456299,-7.940459251403809,15.13988971710205
1779988816076734000,0.47573388671875,5.2120890617370605,-7.526788234710693,19.446346282958984
1779988816093066000,0.49206591796875,4.707818984985352,-4.414345741271973,21.28717041015625
1779988816109400300,0.508400390625,2.4901750087738037,-2.9413976669311523,22.944129943847656
1779988816125733000,0.524733154296875,1.4206976890563965,1.2792541980743408,22.6885986328125
1779988816142072000,0.541072021484375,1.1223838329315186,6.091042995452881,20.410018920898438
1779988816158401300,0.5574013671875,1.4262893199920654,8.481607437133789,18.519760131835938
1779988816174734600,0.573734619140625,0.7050268054008484,8.300159454345703,15.745720863342285
1779988816191073000,0.590072998046875,1.4561424255371094,4.366692066192627,13.701939582824707
1779988816207400200,0.606400146484375,-5.746840000152588,6.80893087387085,12.155182838439941
1779988816223735600,0.622735595703125,-17.41124725341797,1.6467227935791016,6.763429641723633
1779988816240072700,0.63907275390625,-11.339451789855957,3.8494527339935303,4.084085464477539
1779988816256399400,0.6553994140625,-3.8374550342559814,1.8599498271942139,2.9635934829711914
1779988816272721700,0.6717216796875,3.386229991912842,-7.935535430908203,8.164793014526367
1779988816289070300,0.6880703125,2.998502254486084,-2.251657009124756,1.915400505065918
1779988816305393000,0.704392822265625,3.4930579662323,4.823352336883545,-2.0258359909057617
1779988816321729500,0.7207294921875,8.695881843566895,0.23271965980529785,1.3025836944580078
1779988816338078200,0.737078125,7.022917747497559,-4.790654182434082,0.6024398803710938
1779988816354398500,0.7533984375,2.9282593727111816,-0.2268533706665039,-6.818792819976807
1779988816370738700,0.76973876953125,-5.55585241317749,-2.114612579345703,-4.302990436553955
1779988816387076900,0.786076904296875,9.550448417663574,-1.0104498863220215,-2.306593418121338
1779988816403387600,0.8023876953125,0.9444541931152344,-1.245837688446045,-5.398396968841553
1779988816419735600,0.818735595703125,-0.7298778295516968,0.11889410018920898,-7.179483413696289
1779988816436080000,0.835080078125,-4.698026657104492,3.040306329727173,-8.39895248413086
1779988816452399900,0.85139990234375,-0.5458488464355469,3.194939136505127,-7.1549458503723145
1779988816468718600,0.867718505859375,-1.7950215339660645,2.9362263679504395,-5.706853866577148
1779988816485081900,0.884081787109375,-7.594271659851074,5.648232936859131,-5.106694221496582
1779988816501399300,0.9003994140625,-3.084458112716675,3.6255252361297607,-4.068821907043457
1779988816517736400,0.916736328125,-2.8145601749420166,4.54554557800293,-3.3256468772888184
1779988816534068000,0.93306787109375,0.6768163442611694,4.382659912109375,-2.791299343109131
1779988816550401800,0.94940185546875,-2.372973918914795,4.910149097442627,-1.2040858268737793
1779988816566735600,0.965735595703125,-0.6900932788848877,3.7475483417510986,1.8524765968322754
1779988816583076000,0.982076171875,0.7173138856887817,-0.8986096382141113,5.677834510803223
1779988816599401700,0.998401611328125,2.165933609008789,-2.6255860328674316,8.340417861938477
1779988816615735000,1.014735107421875,-0.16409432888031006,0.36608076095581055,8.916074752807617
1779988816632075800,1.03107568359375,-0.726186990737915,-1.4603242874145508,7.154712677001953
1779988816648399000,1.047399169921875,-3.0329227447509766,3.531006097793579,1.3284754753112793
1779988816664734500,1.063734375,-1.1650049686431885,2.585324764251709,-1.6120038032531738
1779988816681081900,1.080081787109375,1.2418943643569946,-1.42559814453125,0.15301227569580078
1779988816697396500,1.096396484375,1.945001244544983,-2.559164047241211,1.326258659362793
1779988816713731000,1.11273095703125,0.2928503751754761,-0.5332198143005371,0.6792922019958496
1779988816730074600,1.12907470703125,-1.587506890296936,0.21680402755737305,-0.26227426528930664
1779988816746398200,1.145398193359375,-0.38806867599487305,-0.4738583564758301,0.2508974075317383
1779988816762735900,1.16173583984375,0.82607102394104,-1.9733757972717285,0.33169078826904297
1779988816779074800,1.17807470703125,1.8069617748260498,-3.2700953483581543,-0.10369873046875
1779988816795418600,1.194418701171875,1.9488303661346436,-3.729702949523926,0.3220391273498535
1779988816811738600,1.210738525390625,2.1125540733337402,-4.1526198387146,1.1765389442443848
1779988816828075000,1.227074951171875,2.756321430206299,-1.4823527336120605,0.0743856430053711
1779988816844403700,1.24340380859375,4.18717098236084,1.5997929573059082,-0.26806640625
1779988816860736800,1.25973681640625,3.1900217533111572,3.913550615310669,-2.2893834114074707
1779988816877075200,1.2760751953125,1.403324842453003,6.673178672790527,-5.504654407501221
1779988816893403400,1.2924033203125,1.3769817352294922,5.837430000305176,-5.941190719604492
1779988816909736000,1.30873583984375,2.3220202922821045,4.968151092529297,-5.104157447814941
1779988816926077400,1.325077392578125,0.06408381462097168,4.659472942352295,-4.575048446655273
1779988816942401800,1.34140185546875,-2.1778945922851562,1.0957746505737305,-4.079429626464844
1779988816958728400,1.357728515625,0.25923633575439453,2.4109930992126465,-6.853614330291748
1779988816975072000,1.374072021484375,-3.8311033248901367,0.3864459991455078,-9.750937461853027
1779988816991406800,1.39040673828125,-3.6754281520843506,0.2905430793762207,-9.781950950622559
1779988817007738000,1.406738037109375,1.3994286060333252,-1.3069133758544922,-8.214954376220703
1779988817024074800,1.42307470703125,-0.1047898530960083,-3.6972732543945312,2.678678035736084
1779988817040400600,1.439400634765625,1.6375030279159546,-3.8376407623291016,13.786924362182617
1779988817056727300,1.455727294921875,0.8651731014251709,-5.207860946655273,15.116338729858398
1779988817073075700,1.47207568359375,-2.9049527645111084,0.19541549682617188,9.09158706665039
1779988817089395000,1.48839501953125,-3.7889552116394043,2.4361119270324707,2.7113542556762695
1779988817105740000,1.504739990234375,-1.2675546407699585,2.973543643951416,1.3792314529418945
1779988817122076700,1.52107666015625,-0.2586095929145813,2.584859848022461,2.3354697227478027
1779988817138402800,1.53740283203125,-4.642961502075195,2.7083029747009277,0.39412450790405273
1779988817154738000,1.553738037109375,-0.8971695899963379,4.08853816986084,2.065023422241211
1779988817171071500,1.570071533203125,2.101580858230591,3.3282737731933594,8.085631370544434
1779988817187405000,1.586405029296875,-0.6819231510162354,0.4033393859863281,7.190150260925293
1779988817203739100,1.6027392578125,-1.0475101470947266,2.321922779083252,7.431032180786133
1779988817220074200,1.61907421875,4.946091175079346,-1.0768404006958008,6.943614482879639
1779988817236406000,1.635406005859375,1.4451195001602173,-5.520835876464844,3.1645259857177734
1779988817252726000,1.65172607421875,4.0616536140441895,-6.698219299316406,2.213805675506592
1779988817269074400,1.668074462890625,6.7485551834106445,2.9705872535705566,-0.9214847087860107
1779988817285409300,1.6844091796875,0.12253603339195251,7.278347969055176,-3.880938768386841
1779988817301738000,1.700738037109375,-3.2820310592651367,8.10863971710205,-4.786496162414551
1779988817318077700,1.71707763671875,-4.1314544677734375,8.727185249328613,-9.723273277282715
1779988817334403300,1.7334033203125,-1.81312894821167,7.4934515953063965,-15.112817764282227
1779988817350737200,1.749737060546875,-0.2948124408721924,-5.303874969482422,-13.603532791137695
1779988817367078700,1.76607861328125,2.886573076248169,-6.333063125610352,-9.657377243041992
1779988817383405000,1.782405029296875,-2.2363853454589844,-5.259570121765137,-9.478129386901855
1779988817399732500,1.798732421875,-6.304778099060059,-12.369063377380371,0.3574097156524658
1779988817416071700,1.81507177734375,-3.1882472038269043,-49.732147216796875,13.583864212036133
1779988817432405800,1.83140576171875,3.474724769592285,-14.467717170715332,5.805924415588379
1779988817448742100,1.8477421875,2.0270838737487793,5.481410503387451,2.7722818851470947
1779988817465064200,1.864064208984375,3.070251226425171,10.877942085266113,2.226182222366333
1779988817481406700,1.88040673828125,3.5037007331848145,7.325345039367676,2.9493651390075684
1779988817497741600,1.896741455078125,3.3361318111419678,1.97367525100708,1.453993558883667
1779988817514075600,1.91307568359375,3.1831979751586914,1.2520041465759277,-0.38656020164489746
1779988817530408200,1.929408203125,4.527605056762695,2.7639122009277344,-2.0327818393707275
1779988817546740500,1.945740478515625,5.05511999130249,5.037125587463379,-3.4240667819976807
1779988817563076600,1.96207666015625,3.8476688861846924,5.784527778625488,-3.833456039428711
1779988817579406300,1.97840625,2.527282238006592,6.114314079284668,-3.5427446365356445
1779988817595740700,1.99474072265625,1.0491487979888916,6.204270362854004,-2.0604898929595947
1779988817612076000,2.011075927734375,1.1415631771087646,6.347921371459961,-0.9710314273834229
1779988817628405000,2.027405029296875,1.8402397632598877,5.616081237792969,-1.060544729232788
1779988817644744400,2.043744384765625,2.0554776191711426,4.74568510055542,-0.9836885929107666
1779988817661077000,2.060076904296875,1.5546174049377441,3.7336764335632324,-0.419217586517334
1779988817677398800,2.076398681640625,-0.9350714683532715,1.9365081787109375,0.5973625183105469
1779988817693742800,2.092742919921875,-4.480264186859131,-1.212127685546875,2.6464221477508545
1779988817710062300,2.109062255859375,-3.6734156608581543,-1.8529958724975586,3.2308812141418457
1779988817726411000,2.125410888671875,-2.2676377296447754,0.037036895751953125,2.584821939468384
1779988817742730800,2.141730712890625,-0.5508983135223389,2.6502089500427246,0.1609783172607422
1779988817759077600,2.15807763671875,-1.7687695026397705,2.038024425506592,-1.1355162858963013
1779988817775398700,2.174398681640625,-2.41987681388855,0.8146505355834961,-2.0059168338775635
1779988817791743700,2.19074365234375,0.24911820888519287,-3.615154266357422,-1.3237128257751465
1779988817808076800,2.207076904296875,7.578080177307129,-8.5626802444458,0.2857968807220459
1779988817824410600,2.22341064453125,7.040585041046143,-6.953976631164551,0.09013009071350098
1779988817840743200,2.2397431640625,-1.114135980606079,0.6208963394165039,-1.730605125427246
1779988817857078300,2.256078369140625,-6.185049533843994,-1.0092620849609375,-3.5294253826141357
1779988817873409000,2.272408935546875,-14.684860229492188,-14.648049354553223,0.5616621971130371
1779988817889744100,2.288744140625,-0.24495840072631836,-20.65988540649414,7.653280258178711
1779988817906076000,2.305075927734375,16.887985229492188,-2.1265316009521484,2.879922866821289
1779988817922414000,2.3214140625,-0.8029115200042725,0.8483009338378906,2.6116080284118652
1779988817938742500,2.337742431640625,0.600753664970398,2.7497825622558594,-1.4664534330368042
1779988817955079700,2.35407958984375,1.6769583225250244,4.923788547515869,-0.9593906402587891
1779988817971407400,2.370407470703125,2.453230619430542,2.6049509048461914,-0.03829824924468994
1779988817987748400,2.386748291015625,0.5132679343223572,0.31002044677734375,1.3627699613571167
1779988818004078800,2.403078857421875,-0.33463776111602783,-0.12339019775390625,2.446059226989746
1779988818020410600,2.41941064453125,-0.701723575592041,1.2568902969360352,2.1108407974243164
1779988818036744400,2.435744384765625,0.4392094612121582,3.5523691177368164,-0.49239349365234375
1779988818053069800,2.45206982421875,-0.5166525840759277,3.263021469116211,-0.7400617599487305
1779988818069410000,2.46841015625,-2.361893892288208,2.9022984504699707,0.15841221809387207
1779988818085744000,2.484744140625,-2.0806427001953125,2.879176139831543,0.06859958171844482
1779988818102079200,2.501079345703125,-0.6529179215431213,3.7843704223632812,-0.951326310634613
1779988818118400000,2.51739990234375,-2.9752392768859863,3.331768035888672,-2.0669941902160645
1779988818134745600,2.53374560546875,-4.089602947235107,0.46079254150390625,-2.065859079360962
1779988818151081000,2.5500810546875,-0.5650992393493652,-0.638911247253418,-0.21345388889312744
1779988818167412200,2.566412109375,0.8395000696182251,0.5167760848999023,1.2990421056747437
1779988818183747000,2.5827470703125,-0.11402702331542969,1.9162631034851074,1.4847921133041382
1779988818200081000,2.599080810546875,-1.195582389831543,2.333754539489746,1.5340362787246704
1779988818216414000,2.6154140625,-1.7204768657684326,1.6142339706420898,1.9532192945480347
1779988818232744400,2.631744384765625,0.023838520050048828,-2.6040496826171875,2.578545093536377
1779988818249081600,2.64808154296875,1.5071401596069336,-5.143125534057617,3.4796032905578613
1779988818265435100,2.66443505859375,1.1338887214660645,-5.64940071105957,4.338412284851074
1779988818281738800,2.68073876953125,2.854015588760376,-4.061746597290039,1.4652241468429565
1779988818298084900,2.6970849609375,2.862971544265747,-1.8194074630737305,-0.5320584774017334
1779988818314414600,2.71341455078125,2.9390478134155273,-0.4429049491882324,-2.3409409523010254
1779988818330747400,2.729747314453125,1.6095571517944336,0.12672138214111328,-3.7511751651763916
1779988818347080400,2.74608056640625,1.736584186553955,-0.2155895233154297,-3.1007180213928223
1779988818363420400,2.76242041015625,1.8050622940063477,1.771341323852539,-1.4221136569976807
1779988818379748400,2.778748291015625,2.1252903938293457,3.624927043914795,-0.3895680010318756
1779988818396068900,2.79506884765625,1.4353294372558594,4.296334743499756,0.2293681502342224
1779988818412415500,2.81141552734375,2.704159736633301,4.616254806518555,0.5459266304969788
1779988818428723500,2.827723388671875,2.149467706680298,4.496110916137695,0.3227211833000183
1779988818445086200,2.844086181640625,1.319199562072754,3.920358657836914,-0.10700160264968872
1779988818461414100,2.8604140625,-0.45972657203674316,2.102443218231201,0.12385618686676025
1779988818477750000,2.87675,-2.9658336639404297,0.23621177673339844,0.7325460314750671
1779988818494082600,2.89308251953125,-3.397709369659424,-1.7244691848754883,1.8100320100784302
1779988818510414800,2.909414794921875,-2.3022775650024414,-5.124164581298828,3.1149611473083496
1779988818526745000,2.9257451171875,-0.5996509790420532,-2.3778295516967773,1.2054837942123413
1779988818543083500,2.94208349609375,-3.254605770111084,1.6995596885681152,-0.5682531595230103
1779988818559416600,2.95841650390625,-3.316091299057007,3.4536190032958984,-0.9719780683517456
1779988818575748900,2.974748779296875,-0.40558481216430664,2.0837974548339844,-0.4076268672943115
1779988818592083500,2.99108349609375,5.611467361450195,0.25185585021972656,0.6582461595535278
1779988818608414200,3.007414306640625,7.574893951416016,0.20829296112060547,0.24948394298553467
1779988818624750800,3.023750732421875,4.603640556335449,-3.283940315246582,-2.831699848175049
1779988818641087000,3.0400869140625,-8.115346908569336,-4.111894607543945,-5.300103187561035
1779988818657420800,3.0564208984375,3.0776524543762207,-7.418807029724121,-2.361271381378174
1779988818673746200,3.07274609375,-22.145648956298828,-18.95800018310547,4.493363380432129
1779988818690085000,3.089085205078125,9.027976036071777,-7.790013313293457,2.915205478668213
1779988818706396000,3.10539599609375,7.986809730529785,-0.6276388168334961,0.21177899837493896
1779988818722752000,3.121751953125,0.9325903654098511,-0.052417755126953125,-1.7919914722442627
1779988818739083300,3.138083251953125,1.3813843727111816,3.1696200370788574,-1.52712082862854
1779988818755442200,3.154442138671875,3.4216790199279785,5.037294387817383,-0.0697404146194458
1779988818771741400,3.170741455078125,2.053316593170166,4.274272441864014,0.9153224229812622
1779988818788085200,3.187085205078125,0.6057759523391724,0.9021463394165039,1.8316831588745117
1779988818804419800,3.203419921875,-1.852607250213623,-2.9131994247436523,2.772677183151245
1779988818820753000,3.2197529296875,-4.368803024291992,-3.5289201736450195,4.919527053833008
1779988818837075500,3.236075439453125,-1.932798147201538,-1.7503900527954102,4.739894866943359
1779988818853420300,3.252420166015625,-2.337090015411377,1.5107755661010742,1.6085727214813232
1779988818869753300,3.26875341796875,-2.1835668087005615,2.1745071411132812,-0.6990295052528381
1779988818886085400,3.28508544921875,-3.178718090057373,2.053864002227783,-3.025998592376709
1779988818902419500,3.30141943359375,-3.8354883193969727,1.7901954650878906,-3.854410171508789
1779988818918754000,3.317754150390625,-1.8747141361236572,2.4339518547058105,-1.2297334671020508
1779988818935083500,3.33408349609375,0.5490157604217529,1.982856273651123,-0.22267386317253113
1779988818951419100,3.350419189453125,0.9046261310577393,2.8664846420288086,1.7627854347229004
1779988818967760600,3.3667607421875,4.114965438842773,3.948727607727051,3.0023787021636963
1779988818984086300,3.383086181640625,0.9533751010894775,0.5138711929321289,-0.22450509667396545
1779988819000421600,3.399421630859375,5.25250244140625,-3.9414939880371094,-1.8995823860168457
1779988819016755200,3.415755126953125,5.270435333251953,-5.5369768142700195,-0.9669746160507202
1779988819033087500,3.43208740234375,2.727457284927368,-4.047874450683594,-0.09492138028144836
1779988819049421800,3.448421875,4.523547172546387,-3.7763891220092773,-0.5721395611763
1779988819065754600,3.464754638671875,3.360194683074951,0.6562118530273438,0.7054983377456665
1779988819082088000,3.481087890625,1.996305227279663,2.5791850090026855,1.4149121046066284
1779988819098423300,3.49742333984375,2.4674746990203857,3.135329246520996,-1.185883641242981
1779988819114755800,3.513755859375,0.9655017852783203,1.6232404708862305,-1.801731824874878
1779988819131089000,3.5300888671875,-1.3292193412780762,1.5354976654052734,0.6162070631980896
1779988819147422700,3.546422607421875,-1.8069286346435547,2.1043601036071777,1.1860440969467163
1779988819163757800,3.5627578125,-1.8633532524108887,1.9770808219909668,0.860511302947998
1779988819180088600,3.579088623046875,0.2566533088684082,1.966442584991455,0.450956255197525
1779988819196424400,3.595424560546875,-1.5035078525543213,1.2000341415405273,0.5953363180160522
1779988819212744000,3.611743896484375,-2.387852191925049,-1.056610107421875,0.6729222536087036
1779988819229089800,3.62808984375,-2.537132978439331,-3.052764892578125,1.0514397621154785
1779988819245429000,3.644428955078125,-2.7571213245391846,-2.578746795654297,1.3868440389633179
1779988819261758000,3.660758056640625,-3.1641314029693604,-0.7046661376953125,1.4487621784210205
1779988819278090200,3.67709033203125,-3.939279556274414,2.4374589920043945,0.494003564119339
1779988819294425300,3.69342529296875,-2.5205941200256348,3.37246036529541,-0.3593381345272064
1779988819310758100,3.709758056640625,-0.5663866996765137,2.97360897064209,-2.2480673789978027
1779988819327078100,3.726078125,-0.35832810401916504,1.429945945739746,-3.6255970001220703
1779988819343424000,3.742424072265625,0.25293028354644775,-1.682107925415039,-3.9525246620178223
1779988819359759600,3.758759521484375,3.1564791202545166,-5.32269287109375,-0.5745838284492493
1779988819376091100,3.775091064453125,6.254838943481445,-2.7548303604125977,1.612614631652832
1779988819392418300,3.791418212890625,5.509868144989014,1.5011510848999023,2.103269577026367
1779988819408767000,3.80776708984375,2.6717638969421387,-0.851038932800293,0.18646878004074097
1779988819425095700,3.824095703125,-5.2535247802734375,-2.9596710205078125,-2.77396821975708
1779988819441426700,3.8404267578125,0.07455670833587646,1.6338253021240234,1.3763175010681152
1779988819457761000,3.856760986328125,-4.404165267944336,-4.166694641113281,4.242308616638184
1779988819474092300,3.87309228515625,-6.973629951477051,-15.561049461364746,2.0590591430664062
1779988819490424600,3.889424560546875,1.5973514318466187,-8.303793907165527,0.9946931600570679
1779988819506759700,3.905759765625,6.291170120239258,-0.5538845062255859,-1.753868579864502
1779988819523091200,3.92209130859375,1.241126537322998,3.655337333679199,-1.629836082458496
1779988819539428400,3.938428466796875,1.571274757385254,5.267821788787842,-0.26998665928840637
1779988819555772000,3.95477197265625,1.5876362323760986,6.2252092361450195,0.21725404262542725
1779988819572081400,3.971081298828125,0.33959174156188965,5.196165561676025,0.7244372367858887
1779988819588431600,3.987431640625,0.09405696392059326,1.1513452529907227,2.1217806339263916
1779988819604759800,4.003759765625,0.27520835399627686,-1.7288904190063477,2.132544755935669
1779988819621100000,4.02010009765625,-5.8653364181518555,-3.2439584732055664,2.0880587100982666
1779988819637423900,4.036423828125,-3.1437828540802,-0.8141365051269531,2.605736017227173
1779988819653769700,4.052769775390625,-3.3122079372406006,1.918734073638916,2.0580086708068848
1779988819670099700,4.069099609375,-3.6510627269744873,1.4646730422973633,-0.6505101919174194
1779988819686429000,4.085428955078125,-3.008408546447754,1.0280561447143555,-2.571308135986328
1779988819702766300,4.101766357421875,-2.0081088542938232,1.8417792320251465,-2.9274463653564453
1779988819719096300,4.118096435546875,-1.5587804317474365,2.4626517295837402,-2.5781137943267822
1779988819735438300,4.134438232421875,0.0857248306274414,1.1683764457702637,-0.18833494186401367
1779988819751764700,4.1507646484375,1.694352388381958,-0.4003124237060547,1.4076957702636719
1779988819768096300,4.16709619140625,4.731065273284912,-2.7969608306884766,1.404869556427002
1779988819784429000,4.183428955078125,3.102881669998169,-5.520854949951172,1.8707886934280396
1779988819800766200,4.19976611328125,1.8580269813537598,-3.9779844284057617,2.7360875606536865
1779988819817097500,4.216097412109375,2.250102996826172,-3.472579002380371,1.5892153978347778
1779988819833431600,4.232431640625,2.2752888202667236,-1.9482765197753906,0.6797705888748169
1779988819849765600,4.248765625,4.273008346557617,0.30498266220092773,-0.5185099244117737
1779988819866097400,4.265097412109375,5.049013137817383,2.0499987602233887,-2.4579575061798096
1779988819882433000,4.28143310546875,4.969459533691406,3.064896583557129,-3.83880352973938
1779988819898765800,4.297765869140625,2.56796932220459,2.8595361709594727,-1.8771109580993652
1779988819915098000,4.31409814453125,1.2326674461364746,2.5194501876831055,-0.42601174116134644
1779988819931433000,4.330432861328125,-0.047632694244384766,3.8319759368896484,-0.5150416493415833
1779988819947766300,4.346766357421875,-1.029853343963623,4.948590278625488,-0.1735033094882965
1779988819964098800,4.363098876953125,-1.5668325424194336,5.635219573974609,0.19428269565105438
1779988819980434000,4.379433837890625,-1.5281834602355957,5.648523330688477,0.8606395721435547
1779988819996767200,4.395767333984375,-0.7905063629150391,3.1584057807922363,1.5060573816299438
1779988820013088000,4.412087890625,-1.1012303829193115,-2.337897300720215,2.8764727115631104
1779988820029434600,4.4284345703125,2.220269203186035,-2.5070581436157227,3.5788424015045166
1779988820045767000,4.444766845703125,2.933248996734619,-2.134697914123535,3.3560357093811035
1779988820062100500,4.4611005859375,1.720454454421997,-3.3150720596313477,-1.1421737670898438
1779988820078435600,4.477435546875,-2.972517251968384,-3.1950817108154297,-3.8030166625976562
1779988820094765000,4.49376513671875,-9.204188346862793,-6.035099983215332,-5.435443878173828
1779988820111105500,4.51010546875,-10.713533401489258,-5.100876808166504,-3.808877944946289
1779988820127435300,4.526435302734375,1.3860325813293457,-0.13992786407470703,0.4116864800453186
1779988820143769600,4.54276953125,11.725772857666016,2.4517712593078613,2.2896573543548584
1779988820160102400,4.559102294921875,10.058077812194824,-0.40518665313720703,0.8904473781585693
1779988820176436700,4.575436767578125,-7.685801982879639,-0.8827085494995117,-2.680772304534912
1779988820192758000,4.591758056640625,2.6812210083007812,-4.850346565246582,4.911510944366455
1779988820209103000,4.60810302734375,-9.273744583129883,-11.862196922302246,5.1413068771362305
1779988820225436200,4.624436279296875,-6.855668544769287,-8.45100212097168,2.314236640930176
1779988820241769200,4.640769287109375,5.8301801681518555,-3.655299186706543,-2.864042043685913
1779988820258103800,4.657103759765625,3.840487480163574,-0.35025501251220703,-2.225905656814575
1779988820274438400,4.6734384765625,3.4590868949890137,3.1791982650756836,-0.5708099603652954
1779988820290771200,4.689771240234375,2.6018829345703125,5.73486328125,0.48768866062164307
1779988820307104300,4.706104248046875,1.3992457389831543,5.567631244659424,1.007785677909851
1779988820323429000,4.72242919921875,-2.4472522735595703,2.765854835510254,1.8970086574554443
1779988820339772400,4.7387724609375,-6.393141269683838,-0.9188203811645508,2.0716500282287598
1779988820356106200,4.755106201171875,-2.8767313957214355,-0.31393909454345703,1.1592049598693848
1779988820372417000,4.7714169921875,0.06402814388275146,0.3399772644042969,1.660925030708313
1779988820388772000,4.787772216796875,-1.565972089767456,0.3766937255859375,0.6806422472000122
1779988820405104000,4.804104248046875,-4.674338340759277,2.477907657623291,-1.2328287363052368
1779988820421439700,4.820439697265625,-3.8836429119110107,2.6513495445251465,-1.3640198707580566
1779988820437774600,4.836774658203125,-1.5112793445587158,2.753711700439453,-0.2989029288291931
1779988820454105300,4.853105224609375,-0.23148870468139648,3.4217429161071777,0.9661487340927124
1779988820470441000,4.86944091796875,1.403266191482544,2.2693099975585938,0.5275113582611084
1779988820486756600,4.885756591796875,3.2237348556518555,0.45128536224365234,-0.9913387298583984
1779988820503108400,4.9021083984375,6.176450729370117,-3.604079246520996,-0.6946808695793152
1779988820519441400,4.91844140625,2.2538249492645264,-5.7988691329956055,-0.7878260016441345
1779988820535773700,4.934773681640625,1.9628753662109375,-3.804966926574707,-0.9742425680160522
1779988820552106800,4.951106689453125,3.350994110107422,-1.6731090545654297,-0.48726385831832886
1779988820568441600,4.967441650390625,2.56445050239563,0.292572021484375,0.21160532534122467
1779988820584776700,4.983776611328125,2.9267501831054688,1.225667953491211,-1.2332278490066528
1779988820601107200,5.000107177734375,3.5729258060455322,1.3110408782958984,-1.6518064737319946
1779988820617442800,5.01644287109375,2.4195494651794434,1.7183294296264648,-1.5276398658752441
1779988820633775900,5.03277587890625,0.21545839309692383,2.265183448791504,-0.2641059160232544
1779988820650112500,5.049112548828125,-1.1986231803894043,2.194521903991699,0.4154973030090332
1779988820666443800,5.06544384765625,-2.4026708602905273,1.3217620849609375,0.33351272344589233
1779988820682776800,5.08177685546875,-3.718722105026245,1.9733829498291016,0.785696268081665
1779988820699110700,5.098110595703125,-4.126235008239746,2.437297821044922,1.3477137088775635
1779988820715442700,5.114442626953125,-2.7877683639526367,1.751680850982666,1.8837321996688843
1779988820731778000,5.130778076171875,-1.3314193487167358,-0.9488868713378906,1.330336093902588
1779988820748110600,5.147110595703125,-0.5193054676055908,-1.19219970703125,0.3846219480037689
1779988820764445700,5.16344580078125,-0.537771463394165,1.0889167785644531,0.28177976608276367
1779988820780779500,5.179779541015625,-0.9354938268661499,1.8762407302856445,-1.201200246810913
1779988820797110500,5.196110595703125,-2.935763359069824,-0.943079948425293,-1.2662495374679565
1779988820813445600,5.212445556640625,0.20826947689056396,-2.0645055770874023,0.5362468361854553
1779988820829778200,5.228778076171875,7.329999923706055,-1.6586933135986328,1.255253553390503
1779988820846108400,5.2451083984375,7.7254638671875,-2.1469287872314453,-1.0457696914672852
1779988820862450200,5.2614501953125,-4.25148868560791,-2.792074203491211,-5.535299777984619
1779988820878778000,5.277778076171875,2.503394603729248,-2.7447404861450195,-3.969783067703247
1779988820895113500,5.294113525390625,0.14988338947296143,-8.275227546691895,3.849273681640625
1779988820911447000,5.310447021484375,-8.441767692565918,-10.940342903137207,1.8049452304840088
1779988820927778300,5.3267783203125,4.093008518218994,-6.7305908203125,-0.12096637487411499
1779988820944117200,5.3431171875,3.4744601249694824,-1.1312732696533203,-0.9915235042572021
1779988820960448500,5.359448486328125,0.7811939120292664,3.0487818717956543,0.2569981813430786
1779988820976781600,5.375781494140625,-0.6236844062805176,4.848294734954834,1.1995978355407715
1779988820993115000,5.392114990234375,-2.292879581451416,3.309875965118408,2.603579044342041
1779988821009446400,5.4084462890625,-1.4822497367858887,2.2053961753845215,3.0777428150177
1779988821025781200,5.42478125,-1.6505793333053589,1.7690296173095703,2.344095468521118
1779988821042115600,5.441115478515625,-2.785093307495117,0.09837532043457031,-0.3065982162952423
1779988821058450000,5.457449951171875,-2.9472219944000244,-1.1327571868896484,-1.0306813716888428
1779988821074782500,5.473782470703125,-2.612783908843994,0.8196601867675781,-2.317228317260742
1779988821091116500,5.490116455078125,-1.3433961868286133,2.1014490127563477,-1.9901498556137085
1779988821107449900,5.506449951171875,0.22786164283752441,3.439877986907959,-1.2086999416351318
1779988821123783700,5.52278369140625,1.9204336404800415,4.174452781677246,0.849371075630188
1779988821140117200,5.5391171875,1.354546308517456,4.114560604095459,1.3010834455490112
1779988821156451300,5.555451416015625,3.6934618949890137,3.3140220642089844,0.32533973455429077
1779988821172771000,5.57177099609375,6.067567348480225,0.3461923599243164,0.31470972299575806
1779988821189107000,5.58810693359375,2.588350772857666,-4.039804458618164,1.4813673496246338
1779988821205449700,5.60444970703125,1.9308555126190186,-5.446654319763184,1.3696746826171875
1779988821221772000,5.62077197265625,3.419187545776367,-3.9931411743164062,-0.052768319845199585
1779988821238119400,5.637119384765625,1.419602870941162,-2.123455047607422,-0.30770188570022583
1779988821254452700,5.65345263671875,1.2645440101623535,0.5070619583129883,-0.9656298160552979
1779988821270784000,5.669783935546875,2.362088918685913,2.1854467391967773,-1.6877723932266235
1779988821287121400,5.686121337890625,2.4027504920959473,1.8273534774780273,-1.4082947969436646
1779988821303452400,5.702452392578125,0.34151172637939453,0.9965238571166992,-0.8822752237319946
1779988821319786800,5.718786865234375,-2.014354944229126,1.6283230781555176,-0.4200463593006134
1779988821336118300,5.7351181640625,-4.691411972045898,3.1299171447753906,-0.17173443734645844
1779988821352452000,5.7514521484375,-5.902490615844727,3.8497724533081055,0.20046046376228333
1779988821368787000,5.767786865234375,-4.743427276611328,2.772339344024658,0.7550671696662903
1779988821385107700,5.784107666015625,-2.469780921936035,0.43747615814208984,1.4651439189910889
1779988821401454000,5.8004541015625,0.4986380338668823,-1.5083751678466797,2.0595364570617676
1779988821417788700,5.81678857421875,3.0324196815490723,0.4663734436035156,2.3530001640319824
1779988821434120200,5.8331201171875,0.9160641431808472,1.8755617141723633,1.2498610019683838
1779988821450442200,5.849442138671875,-1.9073987007141113,0.1199636459350586,0.2216215431690216
1779988821466788400,5.865788330078125,-1.0809999704360962,-1.2433643341064453,-0.8584142923355103
1779988821483110000,5.88210986328125,5.8542866706848145,-1.8139915466308594,0.00560528039932251
1779988821499455200,5.898455322265625,6.283977031707764,-4.961629867553711,-4.400363922119141
1779988821515787300,5.914787353515625,-10.722042083740234,-5.737112998962402,-10.995494842529297
1779988821532124700,5.931124755859375,5.814845085144043,-2.823981285095215,-1.3669183254241943
1779988821548444700,5.947444580078125,6.975302696228027,-0.8624429702758789,5.66627836227417
1779988821564790000,5.9637900390625,-13.543885231018066,-9.618644714355469,6.402294158935547
1779988821581126100,5.980126220703125,-1.163671851158142,-6.2226057052612305,2.2979774475097656
1779988821597456000,5.996455810546875,5.263589382171631,-3.558483123779297,0.5801084041595459
1779988821613791200,6.012791259765625,0.9380292296409607,-0.08493423461914062,-0.4374414086341858
1779988821630125300,6.029125244140625,-0.8256378173828125,1.6624879837036133,0.19377952814102173
1779988821646446800,6.04544677734375,-0.4897792339324951,2.707103729248047,1.2897170782089233
1779988821662791400,6.06179150390625,-0.8859245777130127,2.1467995643615723,2.539776563644409
1779988821679124200,6.078124267578125,-2.1335344314575195,0.07714176177978516,3.309203624725342
1779988821695461000,6.094461181640625,-2.962867021560669,-1.411172866821289,2.9364235401153564
1779988821711791400,6.110791259765625,-3.4496781826019287,-0.9640359878540039,1.190248966217041
1779988821728127500,6.12712744140625,-4.132829666137695,0.5584964752197266,-1.307922601699829
1779988821744460000,6.1434599609375,-4.254570960998535,1.082016944885254,-2.8769290447235107
1779988821760793300,6.15979345703125,-0.8257672786712646,0.8398323059082031,-2.7522947788238525
1779988821777128700,6.176128662109375,0.6647300720214844,2.239867687225342,-0.7440044283866882
1779988821793460700,6.192460693359375,2.222466468811035,3.5813045501708984,0.9656622409820557
1779988821809794600,6.208794677734375,4.006166458129883,4.669496059417725,1.812315583229065
1779988821826126300,6.225126220703125,7.402537822723389,5.404909133911133,-0.10831201076507568
1779988821842457000,6.24145703125,6.58821439743042,3.9591360092163086,-1.1117544174194336
1779988821858797300,6.25779736328125,3.131969690322876,-1.4832735061645508,-0.15868952870368958
1779988821875130400,6.27413037109375,1.260819673538208,-6.765883445739746,0.6729435920715332
1779988821891461600,6.290461669921875,2.007941484451294,-5.37058162689209,1.5020275115966797
1779988821907796000,6.3067958984375,1.882962942123413,-2.4422903060913086,2.04007887840271
1779988821924131300,6.32313134765625,2.295701503753662,0.1337594985961914,1.9283066987991333
1779988821940462600,6.339462646484375,4.061805725097656,3.1254162788391113,-0.28957635164260864
1779988821956796700,6.355796630859375,3.3470702171325684,2.1735711097717285,-2.3236491680145264
1779988821973129000,6.37212890625,1.107142448425293,0.09502315521240234,-1.0063447952270508
1779988821989463300,6.38846337890625,-0.6271266937255859,0.0886526107788086,-0.011414170265197754
1779988822005795800,6.4047958984375,-2.3780651092529297,0.9925680160522461,-0.5254077315330505
1779988822022132200,6.42113232421875,-3.6825637817382812,0.41931629180908203,-1.0571608543395996
1779988822038470000,6.437469970703125,-6.941743850708008,-1.5094614028930664,-0.8313252925872803
1779988822054797600,6.453797607421875,-5.553471565246582,-2.662112236022949,-1.201903223991394
1779988822071133700,6.4701337890625,-0.8773307800292969,-1.6389999389648438,-0.9875425100326538
1779988822087465000,6.48646484375,1.77335786819458,-0.7551136016845703,1.215914011001587
1779988822103797500,6.502797607421875,0.9899527430534363,3.486696720123291,1.0017385482788086
1779988822120118500,6.519118408203125,-0.3166365623474121,5.0191168785095215,-0.005368530750274658
1779988822136456700,6.535456787109375,-2.474045991897583,5.636878490447998,-0.5619584321975708
1779988822152788200,6.551788330078125,0.4543757438659668,2.9913692474365234,-1.1519341468811035
1779988822169135000,6.568135009765625,6.955297946929932,0.6436700820922852,-0.2913423776626587
1779988822185464800,6.58446484375,8.073726654052734,-2.017916679382324,-0.2906303107738495
1779988822201800000,6.600800048828125,1.678235411643982,-5.127093315124512,-4.1759209632873535
1779988822218135300,6.61713525390625,-10.522852897644043,-8.283904075622559,-4.842433452606201
1779988822234468400,6.63346826171875,3.9602270126342773,-1.492732048034668,4.071061611175537
1779988822250801000,6.64980078125,-9.081151008605957,-5.552407264709473,3.8274340629577637
1779988822267135200,6.66613525390625,-3.798552989959717,-14.069954872131348,0.48760730028152466
1779988822283467500,6.682467529296875,4.812335968017578,-6.611819267272949,-0.6599047183990479
1779988822299801900,6.6988017578125,0.3960908055305481,0.2906360626220703,-0.44482898712158203
1779988822316135700,6.7151357421875,-0.5629961490631104,2.694434642791748,0.5066401362419128
1779988822332456200,6.731456298828125,-0.30603981018066406,4.644494533538818,1.3516168594360352
1779988822348800500,6.747800537109375,-0.7452617287635803,4.4717888832092285,2.4110686779022217
1779988822365139000,6.764138916015625,0.06716352701187134,1.6836061477661133,3.384561061859131
1779988822381469200,6.78046923828125,0.49591565132141113,-1.9319705963134766,4.306934356689453
1779988822397803800,6.7968037109375,-2.7017922401428223,-3.587885856628418,4.058347702026367
1779988822414135600,6.813135498046875,-7.209951877593994,-0.053917884826660156,1.3090680837631226
1779988822430474000,6.829473876953125,-6.001472473144531,2.4921603202819824,-0.42398932576179504
1779988822446803500,6.845803466796875,-3.034764289855957,3.321709156036377,-1.2139780521392822
1779988822463141400,6.862141357421875,-1.9903484582901,3.6213502883911133,-1.8285305500030518
1779988822479469300,6.87846923828125,-1.7757340669631958,3.2660083770751953,-1.516068458557129
1779988822495804000,6.894803955078125,0.2885197401046753,3.3755340576171875,-0.7648292183876038
1779988822512140500,6.911140625,1.56221342086792,3.6584787368774414,0.44156861305236816
1779988822528471800,6.927471923828125,3.6834380626678467,3.6820144653320312,0.501800000667572
1779988822544791600,6.94379150390625,2.9059901237487793,3.420562267303467,0.1764928102493286
1779988822561141200,6.960141357421875,-0.02431631088256836,-0.22755050659179688,0.15069231390953064
1779988822577472800,6.97647265625,1.3025197982788086,-4.054266929626465,1.5661866664886475
1779988822593806300,6.992806396484375,-1.394174575805664,-5.48923397064209,1.3510326147079468
1779988822610138600,7.009138671875,-2.2194275856018066,-6.154626846313477,0.7395884990692139
1779988822626460400,7.02546044921875,-0.6399049758911133,-2.374593734741211,0.5561830997467041
1779988822642807000,7.04180712890625,0.24337387084960938,-0.17801570892333984,2.011125326156616
1779988822659142700,7.058142578125,1.7188937664031982,1.042243480682373,1.8968031406402588
1779988822675469800,7.0744697265625,2.428856372833252,1.6106829643249512,-0.7856642603874207
1779988822691811300,7.090811279296875,1.718893051147461,1.1909031867980957,-1.6614222526550293
1779988822708143600,7.1071435546875,2.0702545642852783,1.0663080215454102,-1.9587922096252441
1779988822724475100,7.12347509765625,1.6848571300506592,1.4928336143493652,-2.167170286178589
1779988822740804400,7.139804443359375,1.0930557250976562,2.538364887237549,-1.9105521440505981
1779988822757144000,7.15614404296875,0.46518683433532715,2.84635066986084,-1.0741912126541138
1779988822773475800,7.172475830078125,-0.7449154853820801,2.5800137519836426,-0.6561287641525269
1779988822789810000,7.188809814453125,-2.9777603149414062,2.1674795150756836,-0.3343415856361389
1779988822806142500,7.205142578125,-5.047384262084961,-0.45283031463623047,0.3863193392753601
1779988822822476300,7.221476318359375,-5.614250183105469,-2.8602352142333984,0.9408015608787537
1779988822838807000,7.23780712890625,-6.59782600402832,-2.5437002182006836,1.3196566104888916
1779988822855149600,7.254149658203125,-7.956833362579346,-1.712961196899414,0.8253433108329773
1779988822871475700,7.270475830078125,-6.739702224731445,-1.411137580871582,-0.12118422985076904
1779988822887811300,7.286811279296875,-3.406790018081665,1.5584535598754883,0.19620102643966675
1779988822904142000,7.30314208984375,-2.962542772293091,3.2439002990722656,0.1729753613471985
1779988822920481800,7.319481689453125,-1.808819055557251,-0.06346988677978516,0.5165331959724426
1779988822936811500,7.3358115234375,7.9618401527404785,-2.470050811767578,3.220949411392212
1779988822953132800,7.3521328125,14.8966064453125,-5.862635612487793,1.2743602991104126
1779988822969478700,7.368478759765625,13.759495735168457,-9.491602897644043,-2.403752565383911
1779988822985811000,7.38481103515625,8.526922225952148,-7.210831642150879,-4.9718122482299805
1779988823002133000,7.401133056640625,3.132784843444824,-4.0592145919799805,-7.986963272094727
1779988823018479600,7.417479736328125,-0.5024781227111816,-2.3605127334594727,-5.7584052085876465
1779988823034813200,7.433813232421875,-3.449641704559326,-2.6224231719970703,-2.3185253143310547
1779988823051156200,7.45015625,0.45476746559143066,-3.456775665283203,0.5438075661659241
1779988823067480800,7.466480712890625,2.3748667240142822,-5.44126033782959,4.639547824859619
1779988823083815000,7.48281494140625,4.884033203125,-4.179440498352051,6.67468786239624
1779988823100151800,7.49915185546875,2.450615644454956,-1.412984848022461,5.161615371704102
1779988823116486000,7.51548583984375,-0.8831405639648438,-0.3983125686645508,3.420224189758301
1779988823132801800,7.5318017578125,-1.2319579124450684,2.9335451126098633,-0.1793537139892578
1779988823149149700,7.548149658203125,0.8447909951210022,3.610039710998535,-1.4779152870178223
1779988823165480200,7.564480224609375,1.780027151107788,2.152130603790283,-1.7113134860992432
1779988823181815300,7.580815185546875,1.8282108306884766,1.0676307678222656,-4.08441162109375
1779988823198147800,7.59714794921875,-3.8394150733947754,1.4363317489624023,-6.067988395690918
1779988823214471200,7.61347119140625,-4.564074516296387,2.299172878265381,-1.8573110103607178
1779988823230816000,7.62981591796875,-3.138251304626465,0.8721084594726562,2.016671657562256
1779988823247151400,7.6461513671875,-3.6166484355926514,-0.3187532424926758,2.310225248336792
1779988823263483400,7.6624833984375,-4.784549713134766,1.613729476928711,1.9317547082901
1779988823279817700,7.678817626953125,-2.7963006496429443,1.8932695388793945,3.0277345180511475
1779988823296148500,7.6951484375,-1.7972415685653687,-0.14724254608154297,3.7855451107025146
1779988823312471800,7.711471923828125,-1.8257932662963867,-1.5341424942016602,3.1787309646606445
1779988823328818200,7.727818115234375,-2.8883376121520996,0.03808784484863281,4.224259376525879
1779988823345154000,7.744154052734375,-4.274655342102051,-0.17595767974853516,5.674618244171143
1779988823361485300,7.7604853515625,-5.171432018280029,-1.3481359481811523,6.020568370819092
1779988823377799700,7.776799560546875,-5.2778472900390625,-1.8973102569580078,5.029285430908203
1779988823394156000,7.793156005859375,-3.048354387283325,-3.698380470275879,4.414241313934326
1779988823410484000,7.80948388671875,-2.0131969451904297,-3.9280967712402344,3.228320598602295
1779988823426821400,7.8258212890625,-1.5902273654937744,-1.8464012145996094,2.7886509895324707
1779988823443152100,7.842152099609375,0.4617357552051544,-1.6369152069091797,1.7465423345565796
1779988823459486500,7.858486572265625,-0.6862733960151672,-3.69287109375,-0.5856635570526123
1779988823475819500,7.874819580078125,-0.6306896209716797,-5.257831573486328,-4.670177459716797
1779988823492155000,7.89115478515625,3.2932486534118652,-6.3137712478637695,-4.983390808105469
1779988823508487400,7.9074873046875,5.158968925476074,-6.415920257568359,-4.194855213165283
1779988823524821200,7.9238212890625,4.29927396774292,-4.926117897033691,-4.006803035736084
1779988823541145900,7.940145751953125,3.342430353164673,-5.109406471252441,-3.900007963180542
1779988823557488600,7.956488525390625,2.203009843826294,-4.1654205322265625,-3.1865475177764893
1779988823573822500,7.972822509765625,2.036533832550049,-2.253946304321289,-2.3708720207214355
1779988823590154200,7.989154296875,1.457751989364624,-0.7116832733154297,-1.3482074737548828
1779988823606489300,8.0054892578125,2.224320411682129,0.7364411354064941,1.1859962940216064
1779988823622822400,8.021822509765625,4.263920783996582,-0.06566810607910156,3.5733718872070312
1779988823639155000,8.038155029296876,2.5012154579162598,-0.28586387634277344,3.6359806060791016
1779988823655488500,8.054488525390624,2.1344759464263916,0.7000570297241211,1.9771955013275146
1779988823671823400,8.0708232421875,3.5516045093536377,2.7822718620300293,0.671138346195221
1779988823688166700,8.087166748046876,7.34785270690918,5.300666809082031,-0.22828537225723267
1779988823704492800,8.103492919921875,7.71558952331543,8.138816833496094,-0.5778330564498901
1779988823720822300,8.119822265625,6.45565128326416,10.013055801391602,-1.432623267173767
1779988823737159200,8.1361591796875,5.031493186950684,10.235336303710938,-1.9013893604278564
1779988823753490400,8.152490478515626,4.7633209228515625,9.41131591796875,-2.0394389629364014
1779988823769825500,8.168825439453125,5.002729415893555,8.406562805175781,-1.5753111839294434
1779988823786158600,8.18515869140625,4.741577625274658,6.463719844818115,-2.0630605220794678
1779988823802493400,8.201493408203126,4.136402130126953,4.175083637237549,-2.5254788398742676
1779988823818825500,8.217825439453126,2.6779661178588867,-0.9982995986938477,-2.0257532596588135
1779988823835161600,8.23416162109375,-0.5267336368560791,-16.464529037475586,-2.6249873638153076
1779988823851492600,8.25049267578125,-1.932236671447754,-8.901154518127441,0.6376177668571472
1779988823867827000,8.266826904296876,-1.679001808166504,-2.4554967880249023,1.1905639171600342
1779988823884160300,8.28316015625,-4.598050117492676,2.963616371154785,-0.42763835191726685
1779988823900493800,8.299493896484375,-5.864504814147949,4.997756481170654,-1.444002389907837
1779988823916827000,8.315826904296875,-4.392995834350586,6.208467483520508,-1.0201623439788818
1779988823933161200,8.3321611328125,-2.3099260330200195,7.510880470275879,-1.5277321338653564
1779988823949492500,8.348492431640626,4.681643962860107,6.71812105178833,2.064363479614258
1779988823965827300,8.364827392578125,11.227351188659668,5.672248840332031,4.2059431076049805
1779988823982161400,8.381161376953125,7.986549377441406,2.3278918266296387,4.044923782348633
1779988823998495700,8.397495849609374,7.076033592224121,-6.249615669250488,2.608154535293579
1779988824014828000,8.413828125,-11.557966232299805,-16.27516746520996,-1.9550992250442505
1779988824031163000,8.430162841796875,-25.43283462524414,-26.887954711914062,-0.8672745823860168
1779988824047496000,8.446495849609375,14.90727424621582,-13.336276054382324,-3.382734537124634
1779988824063829800,8.462829833984374,10.202733993530273,4.1865339279174805,-3.8514769077301025
1779988824080161300,8.479161376953124,-0.06792783737182617,7.377162933349609,-2.2216057777404785
1779988824096497400,8.495497314453125,-1.2578089237213135,5.012497425079346,0.2871989905834198
1779988824112818400,8.511818359375,0.06754660606384277,1.059159278869629,0.9834702014923096
1779988824129164300,8.528164306640624,3.5001587867736816,-3.924241065979004,1.5765657424926758
1779988824145495800,8.544495849609374,-4.602273941040039,-3.7486114501953125,4.472825527191162
1779988824161831400,8.56083154296875,-6.698676586151123,-4.368124961853027,6.068726062774658
1779988824178164700,8.577164794921876,-4.940338134765625,-0.5060253143310547,2.6669278144836426
1779988824194498300,8.593498291015624,-3.4597363471984863,1.1059646606445312,-0.3416108191013336
1779988824210834700,8.609834716796875,-2.9213531017303467,1.5520009994506836,-3.260727643966675
1779988824227165700,8.626165771484375,-1.3334105014801025,2.5104422569274902,-2.031216621398926
1779988824243502300,8.64250244140625,2.439030408859253,3.4859023094177246,0.5494517087936401
1779988824259836000,8.6588359375,4.135105609893799,4.2697649002075195,1.2766292095184326
1779988824276149800,8.675149658203125,3.85184907913208,4.311920166015625,1.9570426940917969
1779988824292486100,8.691486083984374,7.998941421508789,4.575863838195801,0.7778680920600891
1779988824308835600,8.707835693359375,5.107304096221924,0.5094680786132812,0.0728607177734375
1779988824325170000,8.724169921875,0.43157243728637695,-7.702126502990723,0.20222365856170654
1779988824341499000,8.740498779296875,2.87044095993042,-5.170866966247559,0.3347572386264801
1779988824357834800,8.756834716796876,4.253631114959717,-1.6077938079833984,0.3222774863243103
1779988824374154800,8.77315478515625,4.168149471282959,1.4127388000488281,-0.8420618176460266
1779988824390501400,8.78950146484375,3.3303918838500977,2.7286815643310547,-2.082157611846924
1779988824406819800,8.80581982421875,2.372535228729248,2.613633155822754,-2.5714564323425293
1779988824423168800,8.822168701171876,0.7227301597595215,1.514981746673584,-0.2740119695663452
1779988824439499000,8.8384990234375,-1.052396297454834,1.5018806457519531,1.0073027610778809
1779988824455837400,8.85483740234375,-2.158411741256714,2.103126049041748,0.6494725942611694
1779988824472155400,8.8711552734375,-3.579864740371704,1.41162109375,0.19971412420272827
1779988824488503300,8.88750341796875,-5.210026741027832,-0.38576602935791016,-0.12497502565383911
1779988824504833300,8.903833251953126,-3.812782049179077,-1.6948671340942383,-0.3201095461845398
1779988824521172000,8.920171875,-0.6491042375564575,-2.794210433959961,-0.5300076007843018
1779988824537503700,8.936503662109375,1.6402751207351685,-2.8289670944213867,-1.1847360134124756
1779988824553837300,8.95283740234375,-1.0625885725021362,0.8727626800537109,-1.038160800933838
1779988824570159000,8.9691591796875,-1.4539047479629517,3.7685718536376953,-0.8865756988525391
1779988824586504200,8.985504150390625,-1.7845202684402466,1.949544906616211,-0.4569780230522156
1779988824602840600,9.001840576171874,-1.435180425643921,-0.30492591857910156,0.5769988894462585
1779988824619169800,9.018169677734376,6.853623390197754,0.44374752044677734,3.0386648178100586
1779988824635503900,9.03450390625,9.510841369628906,0.32021427154541016,2.1415793895721436
1779988824651838700,9.050838623046875,0.8779112696647644,-0.5740823745727539,-1.959317922592163
1779988824668172800,9.0671728515625,-5.483153343200684,-5.193011283874512,-0.36576610803604126
1779988824684505000,9.083505126953124,-13.678413391113281,-10.223386764526367,4.146214962005615
1779988824700839400,9.09983935546875,-2.2011215686798096,-10.732240676879883,2.11596941947937
1779988824717173200,9.11617333984375,8.47232437133789,-3.742776870727539,-0.9593049883842468
1779988824733506800,9.1325068359375,0.8694809675216675,-0.8367385864257812,-1.1837620735168457
1779988824749840100,9.148840087890624,-0.01141667366027832,0.7232294082641602,0.03595982491970062
1779988824766171100,9.165171142578124,1.3547970056533813,2.469599723815918,0.13173379004001617
1779988824782509300,9.18150927734375,1.144250750541687,3.0953845977783203,0.5870407819747925
1779988824798840600,9.197840576171876,0.05462658405303955,3.209850788116455,1.3851041793823242
1779988824815187700,9.214187744140625,-4.509148597717285,0.6780605316162109,3.46285343170166
1779988824831507700,9.2305078125,-3.3922414779663086,-3.3072853088378906,2.9488425254821777
1779988824847842000,9.246842041015626,-0.6951477527618408,-0.6392097473144531,1.5612995624542236
1779988824864175900,9.26317578125,-5.907177925109863,-0.4056110382080078,-0.017678871750831604
1779988824880509200,9.27950927734375,-8.678115844726562,-0.1408405303955078,-3.482949733734131
1779988824896842500,9.295842529296875,-0.8959660530090332,1.186513900756836,-3.1518871784210205
1779988824913174500,9.312174560546875,0.7691974639892578,3.2930917739868164,0.2154645025730133
1779988824929510100,9.32851025390625,3.094350576400757,4.227009296417236,1.5209691524505615
1779988824945842000,9.344842041015625,2.903874158859253,4.328261375427246,1.1581566333770752
1779988824962175500,9.361175537109375,6.476059913635254,3.008152484893799,-0.7775880098342896
1779988824978510600,9.377510498046876,6.321249485015869,-0.9044132232666016,-1.011980414390564
1779988824994844200,9.39384423828125,3.213092565536499,-6.904452323913574,-0.7661445736885071
1779988825011177500,9.410177490234375,1.6660888195037842,-6.994958877563477,-0.6879218816757202
1779988825027511300,9.42651123046875,4.449018478393555,-4.042732238769531,-0.3047584593296051
1779988825043843600,9.442843505859376,3.656667709350586,-0.552337646484375,-0.7110812664031982
1779988825060176000,9.45917578125,3.008962392807007,1.4847993850708008,-0.8270300626754761
1779988825076512500,9.475512451171875,4.152334213256836,3.2660093307495117,-1.2402350902557373
1779988825092832000,9.49183203125,2.1362881660461426,2.6072821617126465,-0.7421579957008362
1779988825109177600,9.508177490234376,0.13805866241455078,2.051903247833252,0.3770899772644043
1779988825125511400,9.524511474609374,-1.3599648475646973,2.5981335639953613,0.8952590227127075
1779988825141833000,9.5408330078125,-3.2390387058258057,3.5521459579467773,0.8349683284759521
1779988825158180400,9.557180419921876,-4.530513286590576,2.9478182792663574,0.8286802768707275
1779988825174512400,9.573512451171876,-7.16160249710083,-0.5250215530395508,1.3216962814331055
1779988825190846200,9.58984619140625,-5.28197717666626,-3.1252222061157227,1.539637804031372
1779988825207181000,9.60618115234375,1.8387932777404785,-1.519740104675293,1.2964831590652466
1779988825223513900,9.622513916015626,5.922313213348389,0.05048847198486328,1.7622177600860596
1779988825239848200,9.63884814453125,2.3032689094543457,2.613346576690674,0.4648109972476959
1779988825256183000,9.65518310546875,-1.7559834718704224,3.5359487533569336,-0.974648118019104
1779988825272523000,9.67152294921875,-1.0460511445999146,2.9870824813842773,-1.8727760314941406
1779988825288848400,9.687848388671876,3.9176416397094727,1.2482337951660156,-1.2701245546340942
1779988825305169700,9.704169677734376,4.880158424377441,-2.209578514099121,-3.070803165435791
1779988825321502000,9.720501953125,-7.186739921569824,-6.366419792175293,-7.9709062576293945
1779988825337847800,9.736847900390625,-2.243255138397217,-10.34909439086914,0.4112609922885895
1779988825354187500,9.7531875,-3.984837532043457,-13.552692413330078,1.7272849082946777
1779988825370516700,9.769516845703125,-7.743659496307373,-11.943968772888184,0.3239173889160156
1779988825386850000,9.78585009765625,6.5372395515441895,-3.161370277404785,-2.351050853729248
1779988825403182300,9.802182373046875,1.1637769937515259,3.117699146270752,-1.620093584060669
1779988825419517200,9.81851708984375,0.12434899806976318,3.7318596839904785,0.13763538002967834
1779988825435846400,9.834846435546876,2.3098764419555664,6.081101417541504,1.344851016998291
1779988825452187100,9.851187255859376,1.161397933959961,5.254605770111084,1.9934511184692383
1779988825468526600,9.867526611328126,-0.981242299079895,0.3587684631347656,3.630467176437378
1779988825484851700,9.883851806640624,0.522804319858551,-3.935117721557617,4.7021636962890625
1779988825501188000,9.90018798828125,0.5537577867507935,-4.024301528930664,4.1443986892700195
1779988825517508000,9.916508056640625,-4.94551944732666,-0.5221920013427734,1.9997198581695557
1779988825533852700,9.932852783203124,-8.595741271972656,2.0222983360290527,-0.7041031718254089
1779988825550184200,9.94918408203125,-6.112036228179932,2.688114643096924,-3.039411783218384
1779988825566518000,9.96551806640625,-4.245177745819092,1.8177204132080078,-3.035135507583618
1779988825582852900,9.981852783203125,-0.5634377002716064,0.8261404037475586,-1.8651814460754395
1779988825599185000,9.998184814453126,1.8770203590393066,2.518613815307617,-0.11614111065864563
1779988825615509200,10.01450927734375,3.305849075317383,4.168210029602051,1.0426125526428223
1779988825631854300,10.030854248046875,3.5134055614471436,4.969488620758057,1.4269615411758423
1779988825648187400,10.0471875,3.9796764850616455,3.258899211883545,0.6858370304107666
1779988825664523800,10.063523681640625,4.955140590667725,-1.4577970504760742,-0.10719829797744751
1779988825680850000,10.079849853515626,2.4692821502685547,-7.382096290588379,0.5975949764251709
1779988825697188900,10.09618896484375,-0.59503173828125,-7.382118225097656,0.6283866167068481
1779988825713521400,10.112521484375,3.309720993041992,-4.847265243530273,1.8277127742767334
1779988825729854000,10.12885400390625,3.134369134902954,-2.271969795227051,1.9379048347473145
1779988825746188000,10.14518798828125,1.5841965675354004,-0.5128312110900879,1.7826281785964966
1779988825762523100,10.161523193359375,1.4558582305908203,2.1735095977783203,-0.6788936853408813
1779988825778855400,10.17785546875,1.405745506286621,3.0915918350219727,-1.708412528038025
1779988825795190000,10.19418994140625,0.3471536636352539,2.500492572784424,-1.1566376686096191
1779988825811521500,10.210521484375,0.060254573822021484,2.8224592208862305,-0.1823362112045288
1779988825827857200,10.226857177734376,1.2893495559692383,2.513733386993408,0.266765832901001
1779988825844189700,10.243189697265626,0.9005374908447266,2.5325098037719727,0.140425443649292
1779988825860524000,10.25952392578125,-0.5357258319854736,1.73822021484375,-0.06770676374435425
1779988825876857000,10.275857177734375,-2.676236152648926,0.6856460571289062,-0.21022456884384155
1779988825893191200,10.292191162109376,-3.320366621017456,0.02663135528564453,-0.4959872364997864
1779988825909524200,10.308524169921874,-3.1481285095214844,0.6060409545898438,0.31305131316185
1779988825925858300,10.3248583984375,-0.6172980070114136,0.08594799041748047,1.228989839553833
1779988825942189800,10.34118994140625,3.249131202697754,-2.1948184967041016,0.9835667610168457
1779988825958525200,10.357525146484376,0.04270750284194946,1.129134178161621,-0.11052443087100983
1779988825974861800,10.37386181640625,-4.014132499694824,3.4684033393859863,-0.3376223146915436
1779988825991195600,10.390195556640625,-6.010735034942627,2.3115382194519043,-0.8385063409805298
1779988826007524400,10.4065244140625,-4.822335243225098,-0.37767696380615234,0.9727884531021118
1779988826023859700,10.422859619140626,13.307791709899902,0.0859537124633789,1.2668988704681396
1779988826040192800,10.43919287109375,14.083141326904297,-0.9338178634643555,0.5820506811141968
1779988826056526800,10.45552685546875,1.7933588027954102,-2.4742984771728516,-2.8955767154693604
1779988826072860000,10.47185986328125,-11.570310592651367,-5.955327987670898,-8.867692947387695
1779988826089194200,10.4881943359375,-7.042385101318359,-10.239090919494629,1.7600845098495483
1779988826105525500,10.504525390625,-6.817666053771973,-14.829621315002441,4.533938407897949
1779988826121861000,10.520861083984375,7.351861476898193,-5.674949645996094,-0.5492934584617615
1779988826138194000,10.53719384765625,1.384980320930481,-0.5097475051879883,-1.8158836364746094
1779988826154529300,10.553529296875,-0.2812364101409912,1.907613754272461,-1.0409045219421387
1779988826170858800,10.569858642578126,1.3847739696502686,4.862032890319824,1.257261872291565
1779988826187195000,10.58619482421875,0.16847753524780273,5.7645769119262695,2.3390681743621826
1779988826203528400,10.602528564453126,-2.2715816497802734,1.964034080505371,3.651266574859619
1779988826219862800,10.61886279296875,-3.0857973098754883,-3.3937864303588867,4.285599231719971
1779988826236195000,10.635195068359375,-2.3622772693634033,-3.3398523330688477,3.7166450023651123
1779988826252530400,10.651530517578125,-2.641735315322876,-1.971780776977539,2.699172258377075
1779988826268862500,10.667862548828126,-4.830589294433594,0.21122264862060547,0.6048802733421326
1779988826285198300,10.6841982421875,-4.196848392486572,1.5532522201538086,-1.5194767713546753
1779988826301531100,10.70053125,-1.216693639755249,2.4731459617614746,-1.899900197982788
1779988826317864200,10.7168642578125,0.09048080444335938,3.6411266326904297,-1.2948529720306396
1779988826334200800,10.733200927734375,1.886874794960022,4.5706329345703125,-0.14813590049743652
1779988826350527700,10.74952783203125,2.6639504432678223,5.1873393058776855,0.5847077369689941
1779988826366864000,10.76586376953125,4.7246270179748535,4.585794925689697,0.38440173864364624
1779988826383198500,10.782198486328125,7.131274223327637,2.6430482864379883,0.9464930295944214
1779988826399531300,10.79853125,3.424255847930908,-2.228936195373535,1.0653456449508667
1779988826415865900,10.814865966796875,0.6929359436035156,-6.820143699645996,1.5307284593582153
1779988826432198400,10.831198486328125,2.1663084030151367,-6.705617904663086,1.4772231578826904
1779988826448527400,10.84752734375,3.2262086868286133,-3.218334197998047,2.5113608837127686
1779988826464856300,10.863856201171876,2.668783187866211,0.36591339111328125,1.9074877500534058
1779988826481199400,10.880199462890625,2.7672622203826904,2.9191675186157227,-0.4565924406051636
1779988826497536800,10.896536865234374,2.655709743499756,3.5064220428466797,-2.1083908081054688
1779988826513861600,10.912861572265625,0.3969149589538574,2.1917524337768555,-1.795382022857666
1779988826530200000,10.929199951171874,-0.9502730369567871,1.6287822723388672,-0.12825405597686768
1779988826546534100,10.9455341796875,-1.1984353065490723,0.6618185043334961,-0.07017922401428223
1779988826562867000,10.961866943359375,-3.0538339614868164,0.7370719909667969,-0.42580485343933105
1779988826579196400,10.978196533203125,-5.9427170753479,1.4567670822143555,-0.19345450401306152
1779988826595536100,10.9945361328125,-5.993707656860352,0.8391017913818359,0.21599066257476807
1779988826611866600,11.01086669921875,-1.3184363842010498,-0.17359161376953125,0.49837207794189453
1779988826628201500,11.027201416015625,1.7895175218582153,-1.1025714874267578,0.7681646347045898
1779988826644536800,11.043536865234374,2.159914493560791,-2.0262556076049805,1.1818865537643433
1779988826660865000,11.059864990234376,0.8111839294433594,1.5446281433105469,-0.1682397425174713
1779988826677203700,11.07620361328125,-1.2107385396957397,3.7245707511901855,-0.6771246194839478
1779988826693536000,11.092535888671875,-2.829329013824463,3.736565589904785,-1.0824189186096191
1779988826709868000,11.108867919921876,-5.572912216186523,-0.4881868362426758,-3.115149736404419
1779988826726194000,11.12519384765625,3.2194671630859375,-2.6982526779174805,-0.7004185914993286
1779988826742534700,11.14153466796875,11.623788833618164,-2.383037567138672,1.2623265981674194
1779988826758872000,11.1578720703125,7.306572437286377,-2.248476982116699,-0.3822248578071594
1779988826775204900,11.174204833984374,-6.523056983947754,-2.678208351135254,-5.8211445808410645
1779988826791536600,11.19053662109375,1.4381816387176514,-3.3073720932006836,1.3558506965637207
1779988826807871700,11.206871826171875,-3.422004222869873,-0.6061773300170898,3.9897751808166504
1779988826824204300,11.223204345703126,-9.391831398010254,-10.333772659301758,1.6169707775115967
1779988826840537900,11.239537841796874,1.8626103401184082,-14.162940979003906,-0.07618637382984161
1779988826856871400,11.255871337890625,4.212536811828613,-2.595658302307129,-2.4252848625183105
1779988826873205200,11.272205322265625,0.5907598733901978,2.0261459350585938,-0.3638906478881836
1779988826889538300,11.288538330078126,-1.0387872457504272,4.309062957763672,1.251518964767456
1779988826905872600,11.30487255859375,-0.6236497163772583,4.717360019683838,2.5116660594940186
1779988826922205700,11.321205810546875,-1.0543802976608276,1.7499008178710938,3.07787823677063
1779988826938539500,11.33753955078125,-1.8801515102386475,-2.6003074645996094,2.7953009605407715
1779988826954872000,11.3538720703125,-0.6804326772689819,-3.159674644470215,2.259531259536743
1779988826971207000,11.37020703125,-3.4458205699920654,-2.686161994934082,2.1286814212799072
1779988826987537000,11.386536865234374,-5.557146072387695,0.15510845184326172,1.4384512901306152
1779988827003876900,11.402876953125,-5.026956558227539,2.422074317932129,-0.17873096466064453
1779988827020203800,11.419203857421875,-1.8956823348999023,2.4404711723327637,-2.4359850883483887
1779988827036544300,11.435544189453125,-0.4426755905151367,2.788583278656006,-2.0843453407287598
1779988827052859000,11.45185888671875,1.889344334602356,3.2362241744995117,-0.8756555914878845
1779988827069197000,11.468197021484375,2.4441354274749756,3.9483895301818848,-0.1333632469177246
1779988827085539300,11.484539306640626,5.763181209564209,4.340088367462158,0.23912370204925537
1779988827101875500,11.50087548828125,6.228769302368164,1.642563819885254,1.7797975540161133
1779988827118191900,11.51719189453125,3.2351813316345215,-2.3422985076904297,0.24856895208358765
1779988827134550000,11.533550048828126,1.9838571548461914,-8.43321418762207,0.8967876434326172
1779988827150873900,11.549873779296876,1.1066045761108398,-8.039621353149414,1.7487918138504028
1779988827167209500,11.56620947265625,1.1158275604248047,-3.9338369369506836,1.826467514038086
1779988827183542800,11.582542724609375,1.97617769241333,-0.5976414680480957,2.994536876678467
1779988827199877000,11.598877197265624,3.1033577919006348,3.751293659210205,-1.0429179668426514
1779988827216208100,11.6152080078125,1.7213945388793945,5.688418865203857,-1.4540659189224243
1779988827232544300,11.631544189453125,1.4264817237854004,5.460248947143555,-2.2991514205932617
1779988827248876800,11.647876708984375,0.5352082252502441,4.3743157386779785,-1.8303765058517456
1779988827265212700,11.664212646484375,1.2737536430358887,3.7490997314453125,-0.06995701789855957
1779988827281542100,11.680542236328124,1.7662222385406494,5.12661075592041,-1.0406924486160278
1779988827297875200,11.696875244140625,1.222533941268921,5.464666843414307,-1.0251737833023071
1779988827314215000,11.71321484375,-0.7971787452697754,3.931407928466797,-0.31417274475097656
1779988827330543600,11.729543701171876,-0.6459031105041504,-2.66339111328125,0.5153634548187256
1779988827346879500,11.74587939453125,-1.154801368713379,-9.695738792419434,1.6501559019088745
1779988827363208200,11.762208251953124,0.022948741912841797,-4.576715469360352,4.402224540710449
1779988827379550000,11.778550048828125,1.9167340993881226,-0.0549163818359375,4.355684757232666
1779988827395878000,11.7948779296875,1.8638873100280762,1.9785022735595703,1.2289257049560547
1779988827412203300,11.811203369140625,-0.6808887720108032,3.6889209747314453,-0.2552185654640198
1779988827428549400,11.82754931640625,-4.923854827880859,5.158815383911133,0.017181396484375
1779988827444875500,11.84387548828125,-2.0824227333068848,2.651496410369873,0.5594501495361328
1779988827461213400,11.86021337890625,3.878126382827759,-0.9833612442016602,-0.25559136271476746
1779988827477554000,11.876553955078125,6.150734901428223,-6.322112083435059,-3.888448715209961
1779988827493879800,11.8928798828125,-19.4925479888916,-16.742630004882812,-11.706724166870117
1779988827510214400,11.90921435546875,9.541891098022461,-8.17709732055664,1.0819827318191528
1779988827526548200,11.92554833984375,6.386392116546631,1.452122688293457,3.7541117668151855
1779988827542880000,11.9418798828125,-4.003859996795654,-0.7455377578735352,1.2289217710494995
1779988827559214600,11.958214599609375,-5.030361175537109,-5.414966583251953,-0.15154752135276794
1779988827575547400,11.97454736328125,0.8028881549835205,-5.157774925231934,-2.1189141273498535
1779988827591882500,11.990882568359375,2.1737051010131836,-1.6259422302246094,0.32300737500190735
1779988827608215300,12.00721533203125,0.3503808081150055,3.882343292236328,-0.25638478994369507
1779988827624549600,12.023549560546876,-2.009908676147461,4.437230587005615,2.150656223297119
1779988827640879000,12.039879150390625,-3.9319093227386475,4.267638683319092,2.742004871368408
1779988827657218600,12.056218505859375,-2.4563310146331787,1.617680549621582,2.7202341556549072
1779988827673548300,12.07254833984375,-1.7884252071380615,-1.7476387023925781,2.5177195072174072
1779988827689870800,12.088870849609375,-1.942310094833374,-1.5931997299194336,2.2552812099456787
1779988827706219500,12.105219482421875,-3.2033588886260986,0.7989902496337891,-0.2987217903137207
1779988827722535200,12.12153515625,-4.552816390991211,1.5258417129516602,-1.1559278964996338
1779988827738884000,12.137884033203125,-4.990746021270752,1.8869686126708984,-1.3749723434448242
1779988827755229000,12.15422900390625,-0.04529929161071777,1.9444246292114258,-1.074575424194336
1779988827771551000,12.170551025390624,1.6899933815002441,2.468846321105957,0.27572518587112427
1779988827787878400,12.18687841796875,4.759756565093994,2.402482509613037,0.9252239465713501
1779988827804218600,12.203218505859375,8.132802963256836,1.4742999076843262,-0.45331358909606934
1779988827820552200,12.21955224609375,3.0457394123077393,-5.479221343994141,0.7233639359474182
1779988827836883200,12.23588330078125,-1.1141362190246582,-9.370391845703125,1.524510145187378
1779988827853222000,12.252221923828126,1.4261360168457031,-8.530654907226562,1.8151624202728271
1779988827869552600,12.268552734375,2.280763626098633,-5.367656707763672,1.7558345794677734
1779988827885885000,12.284885009765626,1.9817962646484375,-1.823439121246338,1.092299222946167
1779988827902219500,12.301219482421875,2.3410141468048096,1.14923095703125,-0.5491204261779785
1779988827918553600,12.3175537109375,1.803478717803955,3.888453483581543,-1.8022143840789795
1779988827934886000,12.333885986328125,1.106757640838623,5.2015557289123535,-1.0259504318237305
1779988827951220500,12.350220458984374,0.8955798149108887,4.9958672523498535,0.7351090312004089
1779988827967554300,12.36655419921875,1.3786287307739258,5.079590797424316,0.6556274890899658
1779988827983886300,12.38288623046875,1.9284093379974365,5.180825233459473,1.0074976682662964
1779988828000223000,12.399222900390624,1.2539944648742676,4.136849880218506,0.4468398094177246
1779988828016555800,12.4155556640625,1.997918963432312,1.2951626777648926,-0.41365814208984375
1779988828032897000,12.43189697265625,-1.0087714195251465,-4.587069511413574,-0.21631693840026855
1779988828049218600,12.448218505859375,-3.6287338733673096,-4.39045524597168,1.4123530387878418
1779988828065570000,12.464570068359375,-1.2540249824523926,-2.1549482345581055,2.2271523475646973
1779988828081889000,12.480888916015624,1.6976600885391235,1.7767176628112793,1.8645808696746826
1779988828098202400,12.497202392578124,0.7223107814788818,2.661585807800293,0.16381797194480896
1779988828114556000,12.513555908203125,-3.817425489425659,4.741406440734863,-0.2500781714916229
1779988828130893800,12.529893798828125,-6.6551432609558105,6.1429948806762695,-0.013882260769605637
1779988828147223800,12.546223876953125,-3.286808729171753,4.346787452697754,0.8478442430496216
1779988828163556900,12.562556884765625,10.177438735961914,1.8162331581115723,1.2074289321899414
1779988828179889400,12.578889404296875,10.60040283203125,-1.2710542678833008,-0.8831081390380859
1779988828196223200,12.59522314453125,-0.3835868835449219,-9.793376922607422,-3.1964454650878906
1779988828212557800,12.611557861328125,-8.329116821289062,-13.772281646728516,-4.774277210235596
1779988828228891100,12.62789111328125,2.83842134475708,-1.9175443649291992,-1.7883658409118652
1779988828245226000,12.64422607421875,-0.641412079334259,2.5645785331726074,-1.0875263214111328
1779988828261557800,12.660557861328124,-4.20800256729126,-5.363645553588867,-1.822465181350708
1779988828277892600,12.676892578125,-1.0454652309417725,-13.363468170166016,-0.9847744107246399
1779988828294222000,12.69322216796875,0.6656510233879089,-3.7903547286987305,0.3550480604171753
1779988828310561300,12.709561279296874,-0.31375187635421753,2.1055688858032227,2.093068838119507
1779988828326889200,12.72588916015625,-2.758450508117676,4.585413932800293,4.175358295440674
1779988828343229700,12.742229736328126,-10.406328201293945,0.9555025100708008,6.116876125335693
1779988828359558000,12.758557861328125,-6.116690635681152,-1.7792186737060547,4.453795909881592
1779988828375894300,12.774894287109374,-4.813205242156982,-0.6092233657836914,0.4489021897315979
1779988828392226800,12.791226806640625,-2.324472427368164,2.156341552734375,-0.5957303047180176
1779988828408561200,12.80756103515625,2.1633667945861816,2.315034866333008,0.21997933089733124
1779988828424894700,12.823894775390626,6.83037805557251,3.7032127380371094,0.9260468482971191
1779988828441215500,12.840215576171875,3.233670473098755,6.662434101104736,0.9084041714668274
1779988828457561000,12.85656103515625,3.724411964416504,5.880277633666992,-0.3070670962333679
1779988828473895200,12.872895263671875,2.690173387527466,5.314180374145508,-1.6100895404815674
1779988828490228500,12.889228515625,5.7000250816345215,2.6724510192871094,-1.9431488513946533
1779988828506546400,12.90554638671875,3.361764430999756,-7.997023582458496,-2.381345510482788
1779988828522882000,12.921882080078126,6.477199554443359,-8.738900184631348,-0.7000715732574463
1779988828539231200,12.938231201171876,3.4436004161834717,-3.3442564010620117,-0.10228860378265381
1779988828555560400,12.954560546875,1.2463223934173584,1.2500419616699219,0.6525623798370361
1779988828571896800,12.970896728515624,-2.1860806941986084,0.9302940368652344,1.7749882936477661
1779988828588230100,12.987230224609375,-1.0204894542694092,-1.8218441009521484,1.919678807258606
1779988828604563500,13.0035634765625,-1.8092739582061768,-5.489351272583008,1.8615467548370361
1779988828620897000,13.01989697265625,-3.18587064743042,-5.412182807922363,1.0848735570907593
1779988828637231600,13.036231689453125,-9.424978256225586,-5.0947980880737305,-1.8564729690551758
1779988828653563400,13.0525634765625,-8.255603790283203,-3.249307632446289,-2.8797473907470703
1779988828669898000,13.06889794921875,0.2187148928642273,-2.6526565551757812,-0.7429405450820923
1779988828686231000,13.08523095703125,-0.23155170679092407,2.8929429054260254,1.503542423248291
1779988828702566700,13.101566650390625,-3.348527431488037,9.431435585021973,3.034449577331543
1779988828718886000,13.117885986328124,-4.946138381958008,11.485878944396973,3.544149398803711
1779988828735231000,13.13423095703125,2.505768299102783,13.32145881652832,2.6674485206604004
1779988828751562000,13.15056201171875,8.632556915283203,13.627571105957031,2.7008800506591797
1779988828767900200,13.166900146484375,15.000629425048828,14.860551834106445,1.4086003303527832
1779988828784219100,13.18321923828125,11.224029541015625,10.240007400512695,-2.0606327056884766
1779988828800566500,13.19956640625,0.05925726890563965,5.950883865356445,-1.8129221200942993
1779988828816899300,13.2158994140625,-13.038785934448242,-28.104703903198242,-4.673923969268799
1779988828833234200,13.232234130859375,-0.9227076768875122,-18.439260482788086,-0.8545985221862793
1779988828849566700,13.248566650390625,-15.211759567260742,0.30151939392089844,-5.032502174377441
1779988828865899300,13.264899169921875,3.3955888748168945,0.9766416549682617,1.0743436813354492
1779988828882232000,13.281232177734376,0.422033429145813,-3.7743911743164062,6.3163604736328125
1779988828898568200,13.297568115234375,-4.7740349769592285,-3.7381277084350586,6.066080570220947
1779988828914914300,13.313914306640624,-4.2897844314575195,-2.1996870040893555,4.218108177185059
1779988828931234800,13.33023486328125,-3.0056800842285156,0.0005483627319335938,4.631666660308838
1779988828947565000,13.34656494140625,-7.48158597946167,-1.1454954147338867,5.131630897521973
1779988828963905300,13.3629052734375,-12.066239356994629,-1.5698566436767578,3.2008697986602783
1779988828980234000,13.37923388671875,-4.517659664154053,-0.3617591857910156,2.111635208129883
1779988828996569600,13.395569580078124,-2.206116199493408,0.8435182571411133,1.0356121063232422
1779988829012889000,13.41188916015625,0.39253711700439453,-2.8888072967529297,0.42969030141830444
1779988829029233400,13.4282333984375,4.974738597869873,-6.165297508239746,2.1324031352996826
1779988829045571300,13.4445712890625,1.0242655277252197,-4.84694766998291,-0.5535035133361816
1779988829061904100,13.460904052734374,0.10728776454925537,-10.771960258483887,0.8787764310836792
1779988829078236700,13.477236572265625,4.595549583435059,-13.718155860900879,2.7908167839050293
1779988829094570200,13.4935703125,-3.777750015258789,-19.511594772338867,1.5191737413406372
1779988829110910000,13.509909912109375,-3.9966979026794434,-13.096948623657227,0.014882206916809082
1779988829127238000,13.52623779296875,19.45977210998535,6.386166572570801,-2.1598877906799316
1779988829143569000,13.54256884765625,-10.954277038574219,0.9075450897216797,3.8000595569610596
1779988829159906000,13.558906005859376,14.559789657592773,1.9097328186035156,-3.948706865310669
1779988829176238000,13.575238037109376,10.856191635131836,-6.454007148742676,2.854027271270752
1779988829192572000,13.591572021484374,-1.3466215133666992,-5.579618453979492,1.7965270280838013
1779988829208902100,13.607902099609374,-4.39932107925415,0.5295915603637695,-1.1751023530960083
1779988829225241000,13.624240966796876,2.3313612937927246,2.4083518981933594,-3.014660596847534
1779988829241571800,13.64057177734375,3.7430319786071777,4.424942493438721,-5.330979347229004
1779988829257906700,13.65690673828125,0.41532135009765625,7.0743937492370605,-9.813617706298828
1779988829274238200,13.67323828125,-0.9386172294616699,6.401592254638672,-10.34054183959961
1779988829290573300,13.6895732421875,6.892240524291992,4.077690601348877,1.934391975402832
1779988829306903600,13.705903564453125,2.1830713748931885,6.284402370452881,3.8809125423431396
1779988829323243500,13.722243408203125,3.5387518405914307,8.700666427612305,5.394880771636963
1779988829339574000,13.738573974609375,5.112090587615967,7.260762691497803,2.0349371433258057
1779988829355906300,13.75490625,4.117166996002197,5.065117359161377,0.3202039897441864
1779988829372241000,13.771240966796874,1.3647559881210327,2.446364402770996,-1.852095365524292
1779988829388571400,13.7875712890625,-8.464288711547852,-7.049894332885742,1.4838541746139526
1779988829404911900,13.803911865234374,-24.941804885864258,-7.303887367248535,3.940995931625366
1779988829421241900,13.820241943359376,-17.545063018798828,1.6572818756103516,3.5950136184692383
1779988829437574100,13.83657421875,6.263286590576172,-2.93074893951416,1.4991651773452759
1779988829453909200,13.8529091796875,16.497156143188477,-17.71741485595703,4.381737232208252
1779988829470242300,13.8692421875,7.577872276306152,-14.256087303161621,1.7340710163116455
1779988829486575900,13.885575927734376,-3.8811147212982178,-3.119044303894043,0.10837244987487793
1779988829502910000,13.901909912109375,-9.435816764831543,-4.580216407775879,-0.12557697296142578
1779988829519241700,13.91824169921875,2.343205451965332,2.1030406951904297,-14.989773750305176
1779988829535575800,13.934575927734375,17.267417907714844,-6.268646240234375,-1.748720407485962
1779988829551910700,13.95091064453125,8.589516639709473,-3.7194395065307617,-3.9746155738830566
1779988829568244200,13.967244140625,5.935118198394775,-7.736105918884277,-0.919579267501831
1779988829584576000,13.983575927734375,-2.9095191955566406,-9.676936149597168,-3.8605639934539795
1779988829600911000,13.9999111328125,4.28952693939209,-8.794560432434082,-3.190918207168579
1779988829617244700,14.01624462890625,3.154175281524658,-3.3777198791503906,0.14581727981567383
1779988829633578000,14.032577880859375,-2.541090726852417,-2.1982860565185547,2.550769805908203
1779988829649910300,14.04891015625,1.1932446956634521,0.7144298553466797,3.0365524291992188
1779988829666245400,14.065245361328126,-4.52365255355835,0.17378807067871094,0.7847609519958496
1779988829682578400,14.081578369140624,-3.117868661880493,-0.4996147155761719,0.9824833869934082
1779988829698911000,14.097910888671874,-10.710865020751953,-1.3938264846801758,-1.0144073963165283
1779988829715246600,14.11424658203125,2.6683261394500732,0.16421985626220703,-0.734452486038208
1779988829731565800,14.13056591796875,-4.411541938781738,2.561408042907715,1.5495405197143555
1779988829747913500,14.14691357421875,-3.0001254081726074,4.140987396240234,1.137263298034668
1779988829764246800,14.163246826171875,0.9325118064880371,3.0282115936279297,1.348520278930664
1779988829780579000,14.1795791015625,-1.376680612564087,2.079897403717041,-0.11337423324584961
1779988829796914000,14.195913818359376,-10.181205749511719,10.002927780151367,18.86288833618164
1779988829813248300,14.212248291015625,-9.385885238647461,7.927539825439453,19.07632827758789
1779988829829580300,14.228580322265625,-6.168747901916504,6.911165714263916,18.59567642211914
1779988829845922800,14.2449228515625,-0.6194326877593994,-0.12227249145507812,12.455999374389648
1779988829862246700,14.26124658203125,3.0078043937683105,-4.954219818115234,5.3486528396606445
1779988829878584000,14.277583984375,0.27138233184814453,-1.4244041442871094,3.9145455360412598
1779988829894913000,14.2939130859375,-1.8859586715698242,4.319631099700928,5.861267566680908
1779988829911248400,14.310248291015625,2.047314167022705,5.610808849334717,7.133300304412842
1779988829927581200,14.326581298828126,6.007128715515137,2.6677963733673096,6.245365142822266
1779988829943916500,14.34291650390625,2.5520215034484863,-1.0526124238967896,5.553181171417236
1779988829960249300,14.359249267578125,-1.0739483833312988,-7.182621479034424,3.4632153511047363
1779988829976583700,14.375583740234376,-1.2038030624389648,-12.963927268981934,-0.6832566261291504
1779988829992916500,14.39191650390625,-1.2585668563842773,-15.729726791381836,-3.68501877784729
1779988830009233700,14.408233642578125,-3.6183643341064453,-11.83293342590332,-4.8904829025268555
1779988830025582000,14.42458203125,-6.089721202850342,-7.361688613891602,-4.198338031768799
1779988830041921000,14.440921142578125,-4.22539758682251,-3.7317135334014893,-2.476445198059082
1779988830058247700,14.45724755859375,-0.2538337707519531,-2.7185492515563965,-1.2095947265625
1779988830074584600,14.47358447265625,3.0613560676574707,-5.162313461303711,-2.0558021068573
1779988830090918100,14.489918212890625,3.3520545959472656,-7.840330123901367,-1.9523180723190308
1779988830107252500,14.50625244140625,0.3170433044433594,-6.179113864898682,-1.0122551918029785
1779988830123586000,14.5225859375,-2.9061923027038574,-3.5453121662139893,0.14724159240722656
1779988830139916800,14.538916748046875,-5.229186058044434,-2.0577640533447266,0.8812540173530579
1779988830156253200,14.555253173828126,-4.653003692626953,-0.7034263610839844,0.07982078194618225
1779988830172586500,14.57158642578125,-3.3359122276306152,-1.789947509765625,0.24311214685440063
1779988830188919600,14.58791943359375,-2.235790252685547,-3.86124324798584,0.5621637105941772
1779988830205247200,14.604247314453126,-1.942887783050537,-5.400403022766113,-0.22993087768554688
1779988830221590800,14.6205908203125,-1.863616943359375,-5.295958518981934,0.42566952109336853
1779988830237921300,14.63692138671875,-2.1411070823669434,-4.584351539611816,0.47512421011924744
1779988830254253800,14.65325390625,-2.7817769050598145,-4.273167610168457,1.721944808959961
1779988830270587400,14.66958740234375,-1.323939323425293,-2.5631861686706543,2.6704769134521484
1779988830286917600,14.685917724609375,-1.8894753456115723,-0.9255063533782959,2.280287742614746
1779988830303253200,14.702253173828124,-3.015120506286621,-0.3554201126098633,0.3617851138114929
1779988830319591400,14.71859130859375,-1.8991565704345703,-0.8472819328308105,0.017571866512298584
1779988830335920600,14.734920654296875,-1.283970832824707,-1.7883872985839844,0.5715588331222534
1779988830352253700,14.751253662109375,-2.139272689819336,-1.906409502029419,0.947329044342041
1779988830368585700,14.767585693359376,-1.3785347938537598,-0.7027828693389893,0.5905221700668335
1779988830384925200,14.78392529296875,-1.1743364334106445,-0.8022425174713135,0.584492564201355
1779988830401257500,14.800257568359376,-0.7337217330932617,-1.0285673141479492,0.8994461894035339
1779988830417588000,14.816587890625,-0.37526416778564453,-0.4580659866333008,0.6650247573852539
1779988830433923300,14.83292333984375,-0.3767433166503906,0.12030315399169922,0.36249828338623047
1779988830450256600,14.849256591796875,-0.8308000564575195,0.08041048049926758,0.8417340517044067
1779988830466589200,14.865589111328125,-1.6826343536376953,0.23112106323242188,0.845512866973877
1779988830482910500,14.881910400390625,-0.8137736320495605,1.0143418312072754,0.28536295890808105
1779988830499257600,14.898257568359375,-1.2472305297851562,0.8419208526611328,-0.0478595495223999
1779988830515589400,14.91458935546875,-1.2920165061950684,1.8054041862487793,-0.9985767602920532
1779988830531924200,14.93092431640625,0.8469171524047852,0.631591796875,-0.03794240951538086
1779988830548258000,14.947258056640624,3.3648176193237305,0.561065673828125,0.5462207794189453
1779988830564589600,14.963589599609374,3.4687929153442383,2.1380863189697266,0.8538607358932495
1779988830580927500,14.979927490234376,2.440225601196289,2.8661723136901855,0.7452324628829956
1779988830597256700,14.996256591796875,0.5617198944091797,3.409852981567383,0.4872283935546875
