time,seconds_elapsed,z,y,x
1778968214361977600,0.0759775390625,0.05165186130404472,-0.454552278470993,0.04021583666279912
1778968214371971600,0.0859716796875,-0.5165039999932051,-0.15766192026138304,-0.2497250494687818
1778968214381965600,0.095965576171875,-1.00050098413527,0.15066723906844853,-0.44068617713861163
1778968214391958800,0.105958740234375,-1.2523153522998094,0.4032601903900504,-0.5353184444479644
1778968214401952800,0.115952880859375,-1.339717741420865,0.7400833305373787,-0.5540618329605087
1778968214411946500,0.125946533203125,-1.1885177106499671,1.0877917295753956,-0.42549123835526403
1778968214421940500,0.1359404296875,-0.7590262236773967,1.3599638261139393,-0.21231194046810267
1778968214431933700,0.14593359375,-0.1100064351171255,1.5588178807243704,0.09141182569181545
1778968214441927700,0.155927734375,0.5918231526106595,1.6069608571246266,0.2982998048824258
1778968214451921700,0.165921630859375,1.3424287539452313,1.463490543822944,0.3403697632456198
1778968214461915600,0.17591552734375,2.104299261137843,1.2015820671454072,0.2493278485784307
1778968214471908600,0.18590869140625,2.7383950368106365,1.0416741215229033,0.1983857429789379
1778968214481902600,0.195902587890625,3.1522505632340905,0.9611784430503845,0.1777777113719843
1778968214491896600,0.205896484375,3.3962995580941437,0.856703630836308,0.13270174872637724
1778968214501890600,0.215890625,3.4825077689945694,0.7170344633832574,0.056131568567943754
1778968214511883800,0.2258837890625,3.4163100804656743,0.5276955483540893,-0.11827833317164331
1778968214521877500,0.23587744140625,3.1915684281438588,0.32668402344882486,-0.3434305390557274
1778968214531871500,0.24587158203125,2.839469977453351,0.24987960070967674,-0.47817236964181065
1778968214541865500,0.255865478515625,2.451947746682167,0.18364333373606204,-0.5515513114443048
1778968214551858700,0.265858642578125,2.1139012022197243,0.10203034167140722,-0.6064082889325917
1778968214561852700,0.275852783203125,1.9321154790490864,-0.006707680945098399,-0.6752500622294842
1778968214571846700,0.2858466796875,1.8670184452384708,-0.18829992737025023,-0.7499504984267056
1778968214581839600,0.295839599609375,1.8121873693764208,-0.3376230583533644,-0.8443141779277473
1778968214591833600,0.30583349609375,1.61336049503386,-0.4370423407435417,-0.8689287600286304
1778968214601827600,0.31582763671875,1.328732821547985,-0.3159726598203182,-0.7607380690965801
1778968214611821600,0.325821533203125,1.207958908700943,-0.023677228185534475,-0.7897784317504614
1778968214621814800,0.335814697265625,0.9824959563672542,0.46767041098028417,-1.3381861479394137
1778968214631808800,0.345808837890625,0.5986597206324339,1.029244555799663,-0.5622574143758043
1778968214641802500,0.355802490234375,-0.2670382407814264,0.2876464367851615,0.15662413817886262
1778968214651796500,0.36579638671875,0.5687725318908691,0.09335749813318252,0.75505220547989
1778968214661790700,0.375790771484375,1.109997131642699,0.45091655231714245,0.661460241003707
1778968214671783700,0.38578369140625,0.7557564082264899,-0.137411743915081,0.3134895012350753
1778968214681777700,0.395777587890625,0.645411534935236,-0.4460632670670748,0.1464210985318292
1778968214691771600,0.405771728515625,0.6292144333720207,-0.48140229147374625,-0.09188009165753609
1778968214701764600,0.4157646484375,0.09628010758161544,-0.6885980579718947,-0.29233720668358726
1778968214711758600,0.425758544921875,-0.6719079121947288,-0.931305575095117,-0.3399592462159693
1778968214721752600,0.435752685546875,-1.4019476953625678,-1.1891083700194953,-0.3426171403136104
1778968214731746600,0.44574658203125,-1.9446371069699524,-1.3737231791362166,-0.3344966699611395
1778968214741739800,0.45573974609375,-1.9389841957747935,-1.3454738207295536,-0.2951371578667313
1778968214751733500,0.4657333984375,-1.7391344081252813,-1.307706692393124,-0.22262683385862037
1778968214761727500,0.4757275390625,-1.6610533895790576,-1.2816057441920041,-0.21633597181979566
1778968214771721700,0.4857216796875,-1.7087416079491375,-1.3124629470095037,-0.1459392972311005
1778968214781715700,0.4957158203125,-1.7682202173560857,-1.3636246867090462,-0.18356588458567857
1778968214791708700,0.505708740234375,-1.641430989742279,-1.3741761836007236,-0.3617613647120073
1778968214801702700,0.51570263671875,-1.503328925475478,-1.3591121777206658,-0.6601546382978558
1778968214811696600,0.525696533203125,-1.4916455019444226,-1.3327400113627315,-1.0497319019027054
1778968214821690600,0.535690673828125,-1.611419297838211,-1.245880058555305,-1.4043483267635106
1778968214831683600,0.54568359375,-1.647568469583988,-0.9661565237239003,-1.7086428237497806
1778968214841677600,0.555677490234375,-1.9265292033493517,-0.6415349857628345,-1.9029770628482103
1778968214851671800,0.565671875,-2.5435300518363713,-0.2994830050513148,-1.7437882252804935
1778968214861665800,0.575665771484375,-3.2524878840088842,0.06609510493725537,-1.4912442276671527
1778968214871658500,0.585658447265625,-3.5620208661705255,0.3581242868512869,-1.463940333417058
1778968214881652500,0.595652587890625,-3.041758974948525,0.680277681133151,-1.5474071366548536
1778968214891646700,0.605646728515625,-2.1955945660442113,0.9199582516506314,-1.517054522358626
1778968214901640700,0.615640625,-1.4493050743430853,1.0031254874199629,-1.248669981534779
1778968214911633700,0.625633544921875,-0.6732704327195882,0.975355144701898,-1.0029393171980976
1778968214921627600,0.635627685546875,0.11830489238500594,0.8765008027181029,-0.9006785277716814
1778968214931621600,0.64562158203125,0.6826525935709477,0.7764774169549346,-0.9687333884745836
1778968214941615600,0.65561572265625,1.0709586681962013,0.7811576837256551,-1.1018213509064168
1778968214951608600,0.665608642578125,1.2399872011244297,0.8049208366289734,-1.1788253148056567
1778968214961602600,0.6756025390625,1.382829153394699,0.7713485296338796,-1.2224093127273021
1778968214971596800,0.6855966796875,1.613377446168661,0.7136480358153581,-1.2139687435749917
1778968214981590800,0.6955908203125,1.9302409173488615,0.6785685391277074,-1.0714254819903521
1778968214991583500,0.70558349609375,2.1503508182168005,0.6355924439713359,-0.7347850779987871
1778968215001577700,0.71557763671875,2.217842638209462,0.6205979961961507,-0.37141375733949245
1778968215011571700,0.72557177734375,2.2093448589771985,0.6385296664670109,-0.09320721207545138
1778968215021565700,0.735565673828125,2.232892907825112,0.6879954159036278,0.08444295479357242
1778968215031558700,0.74555859375,2.2290970226734874,0.6935936743021011,0.2422958493161015
1778968215041552600,0.755552734375,2.0621938113361598,0.6290604118540882,0.38811767591368407
1778968215051546600,0.765546630859375,1.8118857560813426,0.45201633025258775,0.38702966148126866
1778968215061540600,0.77554052734375,1.6200257981419561,0.1667503588631749,0.3024632629711181
1778968215071533600,0.785533447265625,1.6765332827836275,-0.10431056156307458,0.19833994934214277
1778968215081527800,0.79552783203125,1.8108967450439928,-0.340893166065216,0.1901933033687994
1778968215091521800,0.805521728515625,1.806371961095929,-0.6130506495565176,0.2825518535925075
1778968215101515500,0.815515625,1.7290274401307104,-0.6712094085365533,0.4264860215462744
1778968215111508500,0.825508544921875,1.7123352485269308,-0.5519198890283703,0.4504834946621209
1778968215121502700,0.835502685546875,1.733646332103014,-0.4451835616230964,0.4159233456734568
1778968215131496400,0.845496337890625,1.7403548898309469,-0.37723610681742425,0.5104157295880839
1778968215141490400,0.855490478515625,1.829783231821656,-0.30125147602856156,0.6850410230774432
1778968215151483400,0.8654833984375,1.8373399308115244,-0.2057745015233755,0.8423529608573764
1778968215161477400,0.875477294921875,1.7501432933956385,-0.12889993615746498,0.8738891589149832
1778968215171471400,0.885471435546875,1.6034639549195766,-0.09829875392764806,0.8775466585092246
1778968215181465300,0.89546533203125,1.1877613393247126,-0.2946443328484893,0.8635323078125715
1778968215191458600,0.90545849609375,1.1438427026212215,-0.43693888036906714,0.8560343532726168
1778968215201452500,0.91545263671875,1.2800146756082773,-0.6184983935683965,0.6960548037186265
1778968215211446300,0.9254462890625,1.215133330374956,-0.8406079438209533,0.5462712521495298
1778968215221440300,0.935440185546875,1.4667635741442442,-0.633195611962676,0.37483459863364693
1778968215231433500,0.94543359375,1.4020359581679105,-0.5964262624919414,0.5380548836745321
1778968215241427500,0.955427490234375,1.3514999491512774,-0.5502049018040299,0.9178948163148015
1778968215251421400,0.96542138671875,1.7064193024814127,-0.05985358019918203,1.2542365296207367
1778968215261415400,0.97541552734375,1.6473130335181951,0.22967355576604603,1.4085276582747697
1778968215271408400,0.985408447265625,1.1011451321452856,0.188102651232481,1.7498216602258383
1778968215281402400,0.99540234375,-0.15240414586365222,-0.1553480903610587,2.14878970637992
1778968215291396400,1.005396240234375,-2.315928333908319,-0.7990800016462802,1.9223162618294356
1778968215301390300,1.015390380859375,-3.698703711289167,-1.013042339669913,0.9194655727628618
1778968215311383600,1.025383544921875,-3.330738998425007,-0.7246594053037464,-0.22528489235304294
1778968215321377300,1.035377197265625,-3.4872762985706327,-0.6474786965981125,-0.6169749103281646
1778968215331371300,1.045371337890625,-3.262370980119705,-0.7705722845643759,-0.611240312198922
1778968215341365200,1.055365234375,-3.240499924573302,-0.909598770199716,-0.09098857704475521
1778968215351358500,1.0653583984375,-3.9211633901536462,-0.9256174464561044,-0.03434730995558202
1778968215361352400,1.0753525390625,-4.597093397471308,-1.26659083815068,-0.839393453464657
1778968215371346400,1.085346435546875,-4.377662126517295,-1.4706277022264898,-1.4914824203372001
1778968215381340400,1.09534033203125,-3.37985695733726,-1.7837632389247415,-1.3104635898858308
1778968215391333400,1.10533349609375,-2.7229490458756684,-1.4251910621754824,-1.1613360545400528
1778968215401327400,1.115327392578125,-2.8793349548518656,-0.5878901970759034,-0.9454390951920301
1778968215411321300,1.1253212890625,-2.5170991410285235,0.08457067282646893,-0.6288933116588741
1778968215421315300,1.1353154296875,-2.0043471870452163,0.6820281780622899,-0.41383302233070135
1778968215431308500,1.14530859375,-1.1598299608260392,1.1950419978521765,0.04207498159818351
1778968215441302300,1.15530224609375,-0.06652677435278892,1.3791411125317214,0.8377594955872744
1778968215451296300,1.165296142578125,0.7636047836393117,1.503762494587153,1.6007582030922174
1778968215461290200,1.175290283203125,1.0398217716544866,1.579489351222664,1.9236685532212257
1778968215471283500,1.185283447265625,1.003257589367032,1.5499869240149855,1.8734663062036037
1778968215481277400,1.19527734375,0.5626829828441142,1.5147256410196424,1.7428234719015656
1778968215491271400,1.205271484375,-0.23396774582862853,1.4114490986794233,1.4271315287187694
1778968215501265400,1.215265380859375,-0.8013374251842499,0.9740458156690001,1.024080304904282
1778968215511258400,1.22525830078125,-0.9334282663375139,0.16649170792698859,0.638824265499413
1778968215521252400,1.23525244140625,-0.8652636616498232,-0.6445984649866819,0.40367096314802764
1778968215531246300,1.245246337890625,-0.19087094690203665,-0.5799412838980555,0.38681481315419075
1778968215541240600,1.255240478515625,1.00113519038558,0.24098902276754378,0.38202202591970563
1778968215551233300,1.2652333984375,1.8199807997316122,1.2520111086562276,0.23043986396342514
1778968215561227300,1.275227294921875,2.3945716625124214,1.8279715062245725,0.4228979339264333
1778968215571221200,1.28522119140625,3.032693624961376,1.7590625129103659,0.5033545955628156
1778968215581215500,1.295215576171875,3.4427579424083232,1.509854527851939,0.7007679498456418
1778968215591208400,1.30520849609375,3.090857644638419,1.0204086306542157,1.1695149040162562
1778968215601202400,1.315202392578125,2.3940216274142263,0.5202072384253144,1.2719801299735902
1778968215611196200,1.325196044921875,1.5170225197851657,0.057145782545208926,1.3162766600787639
1778968215621190400,1.3351904296875,0.8316279340296984,-0.45325025596171614,1.237741906415671
1778968215631183400,1.345183349609375,1.000439609336853,-0.9869178644627332,1.255073564966768
1778968215641177300,1.35517724609375,1.3792752603054046,-1.4476336339995264,1.1050187587082385
1778968215651171300,1.36517138671875,1.3016706270992755,-1.5940128204852342,0.9843887843765318
1778968215661165600,1.37516552734375,1.6543781495988368,-1.183400221505761,1.1181005047298966
1778968215671158300,1.385158203125,2.6872154691934584,-0.12567717471867798,0.631904987630248
1778968215681152300,1.39515234375,3.4256256058216095,0.3841141758933663,0.04013882590383291
1778968215691146500,1.405146484375,3.3285575627326964,0.014771160413324833,0.037381051628291605
1778968215701140500,1.415140380859375,2.930450225061178,-0.5431672582522035,0.23142302978187798
1778968215711133400,1.425133544921875,2.4284487976729867,-0.767539492739737,0.3991132998436689
1778968215721127200,1.435127197265625,1.666649602150917,-0.5099596929162741,-0.11230652875304221
1778968215731121400,1.445121337890625,0.2216431017845869,0.06854454391598701,-1.057530739085376
1778968215741115400,1.455115478515625,-1.472978210875392,-0.12454407903552055,0.10140658374987542
1778968215751109400,1.465109375,-2.4523230097353457,0.026370412792265412,0.5936096707012504
1778968215761102300,1.475102294921875,-3.2325264614760876,0.69975950345546,0.5816280679412186
1778968215771096600,1.4850966796875,-2.020557148090005,1.3055144430458545,0.09106602619513869
1778968215781090600,1.495090576171875,0.2119885537326336,0.7426628256365656,0.20236893086358904
1778968215791083300,1.505083251953125,2.7843483942121265,-1.0899594290032981,0.028112288023531436
1778968215801077200,1.5150771484375,4.677573293852806,-2.555585815811157,-1.0040160065189003
1778968215811071500,1.525071533203125,3.454464746814966,-3.5815640632912515,-2.3122595822677017
1778968215821065500,1.5350654296875,2.346488891866803,-3.1743118806555866,-3.4899639302194116
1778968215831059500,1.5450595703125,0.7535510071367025,-2.1364058794945477,-3.2378064477056263
1778968215841052400,1.555052490234375,-0.7888456078797579,-1.1163234120547771,-1.8239786371961235
1778968215851046400,1.56504638671875,-0.8679664908677339,-0.09092267220169305,-1.1929979248039424
1778968215861040400,1.575040283203125,-0.277091432762146,0.08633329858481884,-1.3962329709775745
1778968215871034400,1.585034423828125,-0.173928579929471,-0.15798808347582816,-2.086781578495353
1778968215881027600,1.595027587890625,-0.3941723363101482,0.20779753178358076,-3.2675042513549326
1778968215891647200,1.605647216796875,-1.2730261318951845,0.7669380197152494,-3.291823284575343
1778968215901640400,1.615640380859375,-4.359907274118066,1.05719726934731,-1.5449959838598966
1778968215911634400,1.625634521484375,-6.826427151510119,0.34239597184360027,0.5417877865925431
1778968215921628400,1.63562841796875,-7.118174301612377,0.1726397091627121,0.6322118616223334
1778968215931622400,1.645622314453125,-6.379850674223899,0.5696402546361088,0.03449015249237418
1778968215941616400,1.655616455078125,-4.167650425815582,1.0072592262238262,-1.6989023509800434
1778968215951609300,1.665609375,-2.850478862723708,0.7108348780907691,-2.290030360933393
1778968215961603300,1.675603271484375,-2.3924504325747487,-0.06248509774655103,-2.2804124916300177
1778968215971597300,1.685597412109375,-1.817351035749912,-0.26687998147979375,-1.7399021776273846
1778968215981591600,1.695591552734375,-0.6050181497484445,-0.02521788175627589,-1.394111448778957
1778968215991584300,1.705584228515625,-0.019688450810313222,-0.584720334868133,-1.0532979238212108
1778968216001578200,1.715578125,0.4571031319975853,-1.4294643555805087,-0.8859384931489824
1778968216011572500,1.725572509765625,1.1721791547894478,-1.713420121154189,-1.1621684867762028
1778968216021566500,1.73556640625,1.893480920228362,-1.1787170321255922,-1.9154427227981388
1778968216031559400,1.745559326171875,1.5835715059697628,-0.8925456363290548,-1.9728589928478002
1778968216041553400,1.755553466796875,1.3640052104592322,-0.9323423707969486,-1.491627966287732
1778968216051547400,1.76554736328125,1.672979389694333,-0.6111874860331415,-1.0220004298903047
1778968216061541400,1.775541259765625,2.0086551133722064,-0.3414886477403343,-0.5075755742587149
1778968216071534300,1.785534423828125,2.53478501984477,-0.2054850170575082,-0.6675007632769644
1778968216081528300,1.7955283203125,3.6704274648755786,0.18248568813353777,-1.704928771662712
1778968216091522600,1.8055224609375,3.1089749006092546,-0.10721095917969942,-1.087703174509108
1778968216101516500,1.8155166015625,3.2758155681043863,-0.49594899548143145,-0.6674323742158711
1778968216111509200,1.82550927734375,3.9525843643337484,-0.7335233874998986,-0.42849020097553725
1778968216121503200,1.835503173828125,4.497715908396244,-0.8373978957332671,-0.09211173585578798
1778968216131497500,1.84549755859375,4.5279158163487905,-0.765251089541614,0.39149186505451794
1778968216141491500,1.855491455078125,4.136206070759893,-0.7183148585826158,1.032249290573597
1778968216151484400,1.865484375,3.539136249667406,-0.7944258922301233,1.585051515394449
1778968216161478400,1.875478515625,2.845448467341065,-0.9870777311995625,1.9933153592906891
1778968216171472600,1.88547265625,2.024297503662109,-1.1761163481079042,2.4396818470880386
1778968216181466400,1.89546630859375,1.5975824956655502,-1.4214518756471572,2.57820330581069
1778968216191459300,1.905459228515625,1.821374299916625,-1.6551022260896862,2.1778747849583624
1778968216201453600,1.91545361328125,2.2055630023509263,-1.8446755343966186,1.7163666960000992
1778968216211447600,1.925447509765625,2.3880554124861955,-1.944700673725456,1.4107196153610944
1778968216221441500,1.935441650390625,1.4729267729490993,-1.6811512979730963,1.5842409296639264
1778968216231434200,1.945434326171875,0.5103437237977981,-1.2928439081735907,1.9783023529455064
1778968216241428500,1.955428466796875,0.09850655145943164,-1.1357825841538607,2.165021733126044
1778968216251422500,1.96542236328125,-0.31201836923658843,-1.1378021072827278,2.4237293679356573
1778968216261416400,1.97541650390625,-0.5282657494574785,-1.2246767462026327,2.6625705650195477
1778968216271409400,1.985409423828125,-0.5382715951651335,-1.5667255851089954,2.701926131591201
1778968216281403600,1.995403564453125,-0.5089841258823872,-1.8174824070446192,2.9120453843206167
1778968216291397400,2.0053974609375,-0.5656652135252952,-1.9141949146941304,3.441196976701915
1778968216301391400,2.015391357421875,-0.9882435601085424,-2.0388690498501063,3.814382346823811
1778968216311384300,2.02538427734375,-1.2821972803443669,-2.2640566923737526,3.457998766160011
1778968216321378600,2.035378662109375,-1.2300696182221174,-1.5795914964228868,2.3016597161896524
1778968216331372500,2.04537255859375,-1.35729548368752,-0.516073864947632,0.8256608423188329
1778968216341366500,2.055366455078125,-2.4625205786228177,-0.4518348362058401,0.1477646494947374
1778968216351359500,2.065359375,-3.5390029786765576,-1.0883742787037045,0.19790055327787995
1778968216361353500,2.075353515625,-3.6509757454305887,-1.4645090732157229,0.3883139656707644
1778968216371347500,2.085347412109375,-2.605312262010574,-1.687192331703007,0.8021424579568207
1778968216381341400,2.095341552734375,-0.9605196868807077,-1.6358393072150648,0.3151759564846754
1778968216391334700,2.105334716796875,-0.4901964233040809,-2.4138354581698773,0.9174196000184863
1778968216401328400,2.115328369140625,-0.5009340904176235,-3.1258035780742763,1.675746077928692
1778968216411322400,2.125322265625,-0.49249242528676984,-2.882314555184543,2.104554404942691
1778968216421316400,2.13531640625,-0.5739379518300295,-1.4415104749441146,1.6958781808532772
1778968216431310300,2.145310302734375,-1.4495546651899813,-0.3133784786086529,1.3393525613702832
1778968216441303600,2.155303466796875,-2.5864830583781004,0.09113660721331834,1.6206375002995133
1778968216451297500,2.165297607421875,-2.8895336927831172,0.5096184782631695,2.034099789621681
1778968216461291300,2.175291259765625,-3.464485205569863,0.9654489599764347,2.284512474294752
1778968216471284500,2.185284423828125,-4.016229445770382,0.8768998119730502,2.599944889758527
1778968216481278500,2.195278564453125,-3.5538597715467213,0.43711898617632683,2.6978195730552077
1778968216491272400,2.2052724609375,-2.7705793965786696,0.08520385616347194,2.515227501937747
1778968216501266400,2.215266357421875,-2.076701060116291,0.10747019463777542,1.6078025686457753
1778968216511260400,2.225260498046875,-2.6405601010024546,-0.7957394590467214,1.688598691369593
1778968216521253400,2.23525341796875,-3.674593352383375,-1.866400897862017,1.994455176975578
1778968216531247400,2.245247314453125,-4.59664331561625,-1.6068388381801544,2.4433637504711747
1778968216541241300,2.255241455078125,-5.024371300047636,0.484154658921808,1.6253056382410227
1778968216551235300,2.2652353515625,-5.88353313769102,1.286717241986841,1.3055894079782069
1778968216561228500,2.275228515625,-7.227708443042635,0.9545222000315785,1.5355451416864991
1778968216571222500,2.285222412109375,-7.13512017571628,1.1496722855575383,1.4024649972349403
1778968216581216300,2.29521630859375,-6.584292465838789,1.1295591795943676,1.0578799178492277
1778968216591209500,2.30520947265625,-5.5947875074923035,0.7696922868594527,0.27742146843411025
1778968216601203500,2.315203369140625,-4.838611997070908,0.19370850841552018,-0.35796438358183946
1778968216611197400,2.325197509765625,-3.985601667794585,0.0036022622756659984,-0.5176791081871837
1778968216621191400,2.33519140625,-2.448310851484537,-0.05310556724369526,-0.5387779007194563
1778968216631185400,2.345185302734375,-0.566695141094923,0.2267306341819465,-1.2675202279552817
1778968216641178400,2.355178466796875,0.8430261108785867,0.7839050827376544,-1.8062788759849964
1778968216651172400,2.36517236328125,1.4838766215085983,-0.027470336858183144,-1.5556651157818733
1778968216661166300,2.375166259765625,1.8475182104766368,-0.8427791503801941,-1.5631544486239553
1778968216671160600,2.38516064453125,2.4965906060069796,-1.040434350594878,-1.5678034434735775
1778968216681153500,2.395153564453125,2.7722949683248994,-1.0902952368289232,-0.8189446127410978
1778968216691147300,2.405147216796875,4.164803219690919,-0.9246713977776467,0.004268105773255228
1778968216701141200,2.415141357421875,6.002814181631803,-0.6626451399393379,-0.08105543124713004
1778968216711134500,2.425134521484375,6.902645298793911,-0.07613353774026035,-1.0370179662801324
1778968216721128400,2.43512841796875,7.532414443439245,0.7192649989143014,-2.111799553765356
1778968216731122400,2.445122314453125,7.688491724857688,1.5401856609687208,-2.5095722526550293
1778968216741116400,2.455116455078125,6.966518928289413,2.040309019525349,-2.7211694689825174
1778968216751109400,2.465109375,6.616580285981297,1.7641878931000827,-3.0064649587273595
1778968216761103400,2.475103271484375,7.730183333161473,0.9506625289287417,-3.965409359115362
1778968216771097300,2.485097412109375,8.983364946901798,0.6230269038435071,-4.911631056052446
1778968216781091300,2.49509130859375,9.27163594532609,0.1857061845500022,-5.323991375482082
1778968216791084500,2.50508447265625,8.854687713584303,-0.6370158278379588,-5.253028079986572
1778968216801078300,2.515078369140625,8.491282855981588,-1.2304159474417566,-4.921047119173407
1778968216811072300,2.525072265625,7.553188935920596,-0.6956044296026229,-4.815700784821808
1778968216821066500,2.53506640625,6.252030349996685,0.31084567219540477,-5.405491262561083
1778968216831059500,2.5450595703125,4.214649492877721,0.6490728339217603,-5.2172144238054745
1778968216841053400,2.555053466796875,3.3216327319055794,0.28934023509100076,-4.5220185750037425
1778968216851047400,2.56504736328125,3.2392478786855934,-0.4231460634686053,-4.117530596384406
1778968216861041700,2.575041748046875,3.220043411999941,-0.9458891039818524,-4.016520537671447
1778968216871034400,2.585034423828125,3.14173267635107,-1.2430410357370971,-4.642349420258403
1778968216881028400,2.5950283203125,2.2289964849084614,-1.4743223189607262,-5.086330620354413
1778968216891022300,2.605022216796875,0.3678746964931488,-1.353444799608737,-5.282865584367514
1778968216901016600,2.6150166015625,-1.8971692533522844,0.5477313512973487,-6.226163502812385
1778968216911009500,2.625009521484375,-4.680712176400423,4.063481318549812,-7.379957106083631
1778968216921003300,2.635003173828125,-9.556355973270534,7.511495574051141,-7.013612687897682
1778968216930997200,2.644997314453125,-12.522795795601606,9.229140034902095,-5.372116816225647
1778968216940991500,2.654991455078125,-13.438406081175803,8.476353582397103,-3.5812837850451467
1778968216950984400,2.664984375,-12.007270869773626,5.91589226950407,-1.6299195617772637
1778968216960978400,2.674978515625,-8.387985563114285,3.389066391970217,-0.3260844501204789
1778968216970972400,2.684972412109375,-5.277041992780566,1.4443193948850035,0.5154692501179874
1778968216980966400,2.69496630859375,-2.4371768785297867,-1.1688153043795377,0.7493148308716714
1778968216990959400,2.70495947265625,-0.12305413273870944,-4.016631012308597,0.7751268791288137
1778968217000953300,2.714953369140625,0.39478783785998817,-6.251148306465149,1.1362357347488403
1778968217010947600,2.724947509765625,-0.723512427225709,-8.226773841416835,2.30646653194949
1778968217020941600,2.734941650390625,-1.9409148715764284,-8.14759567528367,2.6027473799586294
1778968217030934300,2.744934326171875,-3.0753806740432976,-6.73364131578505,3.0878432652533054
1778968217040928300,2.75492822265625,-4.0055771188527345,-5.842819434508681,4.8176440278440715
1778968217050922500,2.764922607421875,-3.579828325539827,-5.286826304692029,6.544715073210001
1778968217060915500,2.77491552734375,-2.8578485147088766,-4.822015667057037,7.675406033313274
1778968217070909400,2.784909423828125,-0.3744306940078735,-4.9263347041875125,7.510313670790195
1778968217080903400,2.7949033203125,1.2003460956096648,-5.009857037004828,6.057002283415198
1778968217090897400,2.8048974609375,2.2155337767452,-4.4848459054291245,4.9213212599396705
1778968217100890400,2.814890380859375,1.8792384598642586,-3.245423936972022,4.854111764019727
1778968217110884400,2.82488427734375,4.5631870362162585,-2.3349169658862055,2.6634885566473008
1778968217120878300,2.83487841796875,3.6263989380568264,0.07317096160762011,2.3779053360022604
1778968217130876400,2.84487646484375,2.9667046107470987,1.7279786617301403,3.5462796916812658
1778968217140869400,2.854869384765625,3.0832039150148627,1.8653299076296388,5.024596340975165
1778968217150863000,2.864863037109375,3.298050780788064,1.8434324024677275,6.5910477853178975
1778968217160857000,2.874857177734375,4.105526270335912,2.0258988013789057,7.346936880013346
1778968217170851300,2.884851318359375,5.1826434611618515,2.724436069563031,7.037254260247946
1778968217180844300,2.89484423828125,5.742323755058646,2.8485619231864807,5.833350764417648
1778968217190838300,2.90483837890625,6.062801325082779,2.2206731854602695,4.008747857843339
1778968217200832300,2.914832275390625,6.792251910185813,1.8908187152817844,2.012900495857
1778968217210825200,2.9248251953125,7.30989105168879,1.4926622777715324,1.4255486434414981
1778968217220819200,2.934819091796875,7.0211267167896025,0.7810957244053482,2.6211440373927353
1778968217230813200,2.944813232421875,6.210349847608804,0.2263755371339619,4.1106773694887755
1778968217240807200,2.95480712890625,4.004725470459461,0.0440671052634716,5.0724628385215995
1778968217250800400,2.96480029296875,1.902811643153429,0.14796777085140347,5.613791483169794
1778968217260794000,2.974794189453125,2.930612722146511,-0.30927009344175455,6.027596740710735
1778968217270788000,2.9847880859375,1.8680670775085686,-1.2784161543704569,5.773929438155889
1778968217280782300,2.9947822265625,-1.1227847170233727,-2.6243127305567264,3.706729196834564
1778968217290775300,3.004775390625,-4.690293659216166,-3.2611037366628643,1.9409651404589414
1778968217300769300,3.014769287109375,-8.93475902916491,-1.8097566350981593,0.8998702801287174
1778968217310763300,3.02476318359375,-13.377943136906623,0.4480631356474012,-0.4847825815618038
1778968217320756200,3.034756103515625,-16.907057174253463,1.4793335712514817,-1.8146672034934161
1778968217330750200,3.044750244140625,-18.674929601085186,1.3313769063159822,-2.1372934759840367
1778968217340744200,3.054744140625,-18.757061940848825,1.5302835678964852,-2.0508666538968683
1778968217350738200,3.06473828125,-15.878595585525035,1.9356389770001172,-1.404481890015304
1778968217360731400,3.0747314453125,-12.783636350786685,1.4117019043967127,-0.502718051224947
1778968217370725000,3.08472509765625,-10.569605379819869,0.2941528230044991,-0.1043053008660674
1778968217380719000,3.094718994140625,-8.543462540552019,-0.3456404336575418,-0.5965010812938213
1778968217390713000,3.104713134765625,-7.213347324734926,-1.0435350200239568,-1.9192995443567633
1778968217400706300,3.114706298828125,-6.4363622505187985,-1.616202732722461,-2.4980586327329277
1778968217410700300,3.1247001953125,-5.3778913079738615,-1.6996671978726983,-2.107186068620533
1778968217420694300,3.1346943359375,-3.8524709621995683,-1.864675681504607,-2.4849089360415935
1778968217430688300,3.144688232421875,-0.5690922653645276,-1.5428808914020657,-5.07729215837419
1778968217440681200,3.15468115234375,2.375781037324667,-0.02932370963990688,-7.918340929451585
1778968217450675200,3.16467529296875,2.2383593565374613,-2.240272058290988,-5.988470014458894
1778968217460669200,3.174669189453125,4.128143175813555,-4.148328762491047,-0.8076571297250688
1778968217470662400,3.184662353515625,5.461039546781778,-3.581358019325137,3.1974098476484416
1778968217480656100,3.19465625,6.440603541350364,-1.376224202171713,2.0332124853931366
1778968217490650000,3.204650146484375,7.851147215622663,0.27713775612190367,-0.46853506498560304
1778968217500644000,3.21464404296875,7.909582453456521,0.825579447645694,-2.041986305087805
1778968217510637300,3.22463720703125,6.6745309551686045,1.193169043587148,-3.8030984440043567
1778968217520631300,3.23463134765625,6.015279110929369,2.498973701751232,-4.061797895507514
1778968217530625300,3.244625244140625,6.201077576872706,4.137239505460858,-3.3449066399872303
1778968217540619300,3.254619384765625,6.933036929926276,4.708104625716805,-3.5456828948318955
1778968217550612200,3.2646123046875,8.168508699452877,4.422159147630632,-3.9988387505084275
1778968217560606200,3.274606201171875,10.223585956782102,4.216201983016729,-4.208408552661538
1778968217570600200,3.28460009765625,12.903951998472213,4.578324399593472,-4.0488136185109616
1778968217580593400,3.294593505859375,15.335132851457596,5.216951388955116,-3.565063302606344
1778968217590587400,3.30458740234375,16.531963632422684,5.889574755942821,-3.4860236681610344
1778968217600581000,3.3145810546875,15.52205009229779,5.924343286985159,-4.369050073255599
1778968217610575000,3.3245751953125,12.793573222911357,5.64747981775999,-6.161771402400731
1778968217620568300,3.334568359375,9.858290170866251,6.197573952665925,-7.83895525804758
1778968217630562300,3.344562255859375,7.513135742473602,7.222858664923906,-7.99406924739182
1778968217640556300,3.354556396484375,6.8950003369987005,7.97581053712368,-6.911009222513437
1778968217650549200,3.36454931640625,6.679654289531707,8.242191775301098,-5.230041756674647
1778968217660543200,3.374543212890625,6.13855419294238,7.277125092640519,-4.263541534079611
1778968217670537200,3.384537109375,5.003029821333289,4.069367746239901,-4.331168670889735
1778968217680531200,3.39453125,3.1219577163010834,1.0073200165003537,-4.877126144382357
1778968217690524400,3.4045244140625,-1.327666069099307,1.504516966216266,-5.983226853108405
1778968217700518400,3.414518310546875,-7.641698409500718,5.172860902816057,-8.363370761817693
1778968217710512000,3.42451220703125,-13.458527662706373,7.244038815596699,-10.503580125248432
1778968217720505300,3.43450537109375,-17.550052295696734,6.504314673760533,-9.990945075643062
1778968217730499300,3.444499267578125,-18.546168781137464,5.265138204497099,-7.113772851783037
1778968217740493300,3.454493408203125,-17.379858226120472,3.5706498705670238,-3.8449738844424486
1778968217750487300,3.4644873046875,-15.606512336313724,0.8790653925091028,-2.4375129786163567
1778968217760480300,3.474480224609375,-14.308800091451406,-1.8382547075688838,-2.5509119787812233
1778968217770474200,3.48447412109375,-13.376818516790866,-4.09300785728544,-2.382407177466154
1778968217780468200,3.49446826171875,-12.324693143880367,-5.62636922519207,-1.4063976605087518
1778968217790462200,3.504462158203125,-11.561488757735491,-6.135736797434091,-0.9870815305918454
1778968217800455400,3.514455322265625,-11.665139686346054,-6.545671351021528,-0.7630015570491552
1778968217810449400,3.524449462890625,-11.263858394813537,-8.389348083639144,-0.4481961874425411
1778968217820443100,3.534443115234375,-10.045835188215971,-9.44215208646357,0.17184885104596614
1778968217830436400,3.544436279296875,-8.236659275615215,-10.108367339974642,0.4253396279901266
1778968217840430300,3.554430419921875,-5.182579163753986,-10.031171872091292,0.8164835563898086
1778968217850424300,3.56442431640625,-2.1319863094866274,-10.057316367173195,3.1341186942160126
1778968217860418300,3.574418212890625,0.4883154318630695,-10.867077921831607,6.302969094595313
1778968217870411300,3.584411376953125,2.7143489753127095,-10.518860696488618,8.831790237599611
1778968217880405200,3.5944052734375,4.112203848403692,-8.556119777551293,9.873999781173467
1778968217890399200,3.604399169921875,3.8550872821778057,-6.392846933919191,9.962046313416957
1778968217900392200,3.61439208984375,2.649574597585201,-3.78834949542284,9.027024055886269
1778968217910386400,3.624386474609375,0.5678080707728862,-1.0838709028698503,9.395915820467472
1778968217920380400,3.63438037109375,-0.6262602597415446,0.10579661713605747,9.659590722295642
1778968217930374400,3.64437451171875,-0.295493350893259,1.4441766254134476,9.078259153082966
1778968217940367000,3.6543671875,0.9764531690716743,2.412489888779819,8.594530464488267
1778968217950361300,3.664361328125,2.940336828303337,1.386284116154164,9.371880280363559
1778968217960355300,3.674355224609375,5.744076736205816,-0.19832133597321808,10.82684644920826
1778968217970348300,3.684348388671875,9.137385880312323,-0.8480649087633937,12.115661101865769
1778968217980342300,3.69434228515625,11.57601646478176,-0.839866185542941,12.447108394193648
1778968217990336300,3.704336181640625,11.733428209674358,-0.5505863023370504,11.276669945591687
1778968218000330200,3.714330322265625,9.569564998933672,-1.1998432606540619,9.335379810962081
1778968218010323200,3.7243232421875,6.8538114175200455,-1.5104880034498869,7.863674688762426
1778968218020317400,3.7343173828125,3.7566409364730116,-1.027602487681061,7.269940734094381
1778968218030311400,3.7443115234375,0.06609013650119304,0.0797111039660871,8.069498290124535
1778968218040304000,3.75430419921875,-2.6853525979310273,1.1994652211219072,9.550309094321728
1778968218050298000,3.764298095703125,-4.072285679513215,0.9300517756417394,9.805450561082363
1778968218060292400,3.774292236328125,-8.564809279963374,0.09547156767770647,7.209916765764355
1778968218070285300,3.784285400390625,-13.742832095587254,-0.45284883555397387,2.7220383607715366
1778968218080279300,3.794279296875,-17.85234363616705,-0.44654988154023884,-3.6156823137313125
1778968218090273300,3.804273193359375,-22.381329127573967,0.38172655010446904,-8.77127527088225
1778968218100267300,3.814267333984375,-24.51997781755924,1.8605773062750697,-12.009114451813698
1778968218110260200,3.82426025390625,-24.21047581505775,3.527666468887031,-13.618662110561132
1778968218120254200,3.834254150390625,-21.854090383076667,4.744328908525407,-13.89082602379322
1778968218130244600,3.84424462890625,-18.864706323009727,5.014660053372383,-13.28654495614767
1778968218140237800,3.85423779296875,-15.571042379003762,4.514385303646326,-11.750290497148036
1778968218150231800,3.864231689453125,-11.497379565918445,3.8052307798579332,-10.129546906125546
1778968218160225800,3.874225830078125,-7.035365670022368,3.4890111595392224,-8.739728039973974
1778968218170219800,3.8842197265625,-2.9327286913871764,3.5920693829536434,-6.975139457118511
1778968218180212700,3.894212646484375,0.3085094843327999,3.8761166262030597,-4.764059152650833
1778968218190206700,3.904206787109375,2.1177754133045674,4.551854325819015,-2.368061256727576
1778968218200200700,3.91420068359375,3.3346067797690626,5.140669528785348,-0.9792974525868892
1778968218210194000,3.92419384765625,5.076054141011834,5.829343282341957,-0.6219266144514084
1778968218220187600,3.934187744140625,7.133301728117465,6.743051533687114,0.48773441710472104
1778968218230181600,3.944181640625,9.558010754740238,7.574395974600314,2.3828239415735006
1778968218240175600,3.954175537109375,11.380308014720677,8.764095588511228,4.6643759586274625
1778968218250168800,3.9641689453125,13.028880692911148,10.853916826963424,6.8421747557401655
1778968218260162800,3.974162841796875,13.496486514222621,13.75958449294567,9.241257758197188
1778968218270156800,3.98415673828125,12.926126420879363,15.92483828126192,10.988978792881966
1778968218280149800,3.994149658203125,14.643496156442165,17.909173192369938,11.422757163393497
1778968218290143700,4.004143798828125,12.352144629907608,15.679911919045447,10.58724858853817
1778968218300137700,4.0141376953125,12.948745079922675,13.839924688595532,10.362888044488429
1778968218310131700,4.024131591796875,14.557000945293902,14.11020761038661,9.54981926497817
1778968218320125000,4.034125,15.282303763067722,13.78955643736124,9.582560089585185
1778968218330118700,4.04411865234375,16.00960564570427,12.772475489825009,9.844081612771749
1778968218340112600,4.054112548828125,15.588463469403981,11.893895835006237,10.46729066824913
1778968218350105900,4.06410595703125,13.853229575848578,10.624669679915904,10.881645376366377
1778968218360099800,4.074099853515625,9.697455465787648,10.525569838738441,9.774498373457789
1778968218370093800,4.08409375,7.533382996210455,14.484460609740019,7.453186008423566
1778968218380086800,4.094086669921875,7.644829108741879,18.168505681079626,5.2219209940612314
1778968218390080800,4.104080810546875,6.2878235479116436,19.76895116496086,4.1875966507792475
1778968218400074800,4.11407470703125,4.07542923823595,19.23514940868616,3.4107144524157045
1778968218410068700,4.12406884765625,0.9081541243493556,16.93293395830989,-2.281407640147209
1778968218420062000,4.13406201171875,-1.1999800387762487,15.123729988658427,-10.529044236850737
1778968218430056000,4.144055908203125,-2.0814869792185724,12.681987994170187,-17.16542286375761
1778968218440049700,4.154049560546875,-6.321871947985887,12.762998051905631,-22.453985198462007
1778968218450042600,4.164042724609375,-10.315615421181917,13.604577471107243,-28.491970062196252
1778968218460036900,4.174036865234375,-13.608540529519319,14.642642754483223,-33.41294528517723
1778968218470030800,4.18403076171875,-16.23782286518216,11.0461684145689,-33.759933845508094
1778968218480023800,4.19402392578125,-15.012414809030293,8.54575678896904,-31.574284919416904
1778968218490017500,4.204017578125,-11.456959877246618,6.906302652257681,-29.113307478582858
1778968218500011800,4.21401171875,-8.461817692044377,2.9293448941677807,-26.810492308747765
1778968218510005800,4.224005859375,-4.067320166060329,-2.7319173652291298,-23.134607162988186
1778968218519998700,4.233998779296875,4.341409494397044,-8.327729539594054,-20.112007062017916
1778968218529992700,4.24399267578125,10.438629221910238,-13.043919272089004,-18.789107768929004
1778968218539987000,4.253987060546875,13.260368896883726,-15.825719735383986,-20.254363861119746
1778968218549979600,4.263979736328125,15.19946298277378,-16.26871017087698,-20.315207913661002
1778968218559973600,4.2739736328125,11.883950779575109,-14.47356395267248,-15.21040990872383
1778968218569967900,4.2839677734375,10.546299323034287,-9.601991935285925,-10.008774162322283
1778968218579961900,4.2939619140625,7.9461758618384595,-5.027184019380807,-4.336371500229835
1778968218589954800,4.303954833984375,5.114664734435081,-2.3320845189392565,0.646979807165265
1778968218599948800,4.31394873046875,4.092611259183287,-1.8974685285598039,4.939222242811322
1778968218609942800,4.32394287109375,6.021961949694156,-1.0220119741976261,7.173606850498914
1778968218619935700,4.333935791015625,6.134158588331937,-5.281035446330905,5.150370838588476
1778968218629929700,4.3439296875,5.4627358293056485,-8.106816505649686,3.8477375039368864
1778968218639923700,4.353923828125,5.107876097208261,-8.182120460698009,3.1532986109822985
1778968218649916700,4.363916748046875,5.124524449670314,-4.126577826192975,5.113922391635179
1778968218659910700,4.37391064453125,3.0472517271459103,-3.2752830686628815,8.141266472262144
1778968218669904600,4.383904541015625,2.4153777191758152,-2.052006763842702,11.308230620503425
1778968218679897900,4.39389794921875,1.5252432356417178,-2.589144971063733,13.695064966762065
1778968218689891800,4.403891845703125,0.3147451638519764,-5.389603957599401,14.734895506244897
1778968218699885800,4.4138857421875,-1.142009495844692,-7.118991463214159,15.419867482674121
1778968218709879800,4.4238798828125,-1.59778342506513,-6.685197310611605,16.47956124501228
1778968218719872800,4.433872802734375,-3.428300377988815,-5.577925220018625,12.212794611406325
1778968218729866800,4.44386669921875,-4.5873044093847275,-5.36452270783484,6.208438461029529
1778968218739860700,4.45386083984375,-8.733046954774856,-3.7138399056226015,1.0130921701610087
1778968218749854000,4.46385400390625,-12.695893769925831,-1.673773754942417,-4.018993649786711
1778968218759848000,4.473847900390625,-16.720590015268325,-1.2945336148262023,-6.968025825721025
1778968218769841700,4.483841552734375,-15.711128895086048,-1.4801397730678318,-9.953802216684817
1778968218779834600,4.493834716796875,-12.479468695050477,-1.303122579473257,-12.66005205669403
1778968218789828900,4.503828857421875,-8.070243555533885,-1.7320616932600736,-14.161668917554616
1778968218799822800,4.51382275390625,-1.0273035777997226,-2.3740549441844223,-14.288665650439262
1778968218809816800,4.52381689453125,4.673458844271302,-1.5495283665925264,-15.435217027497291
1778968218819809800,4.533809814453125,3.306457959127426,1.3847458006709814,-17.10245933484435
1778968218829803800,4.5438037109375,3.014159020361304,4.474216374865174,-17.360886983668802
1778968218839797800,4.5537978515625,2.3675492155522107,7.195507132139801,-15.515518644702434
1778968218849790700,4.563790771484375,3.371695278191566,7.011626482516527,-12.580503303682804
1778968218859785000,4.573784912109375,5.8460202763766045,4.854284197977185,-11.076693316692113
1778968218869779000,4.583779052734375,8.65819775775671,3.9019232676327227,-8.938065669494867
1778968218879771600,4.593771728515625,8.318699260920285,1.888154172247648,-9.407838313451409
1778968218889765600,4.603765625,5.925618713748455,1.683516565799713,-9.119459178477525
1778968218899759900,4.613759765625,4.853299278593063,3.169430246093869,-5.864720300671458
1778968218909752800,4.6237529296875,2.9342098698556422,1.6508283481627701,-4.543333165711164
1778968218919746800,4.633746826171875,6.764551417833566,4.793288169744611,2.212831532049179
1778968218929740500,4.643740478515625,4.205716829359531,-0.8332792083680629,-0.9738017777800559
1778968218939733800,4.653733642578125,0.36169600785821676,-4.868855159643292,-7.456965526962279
1778968218949727700,4.663727783203125,-0.04867547584176063,-4.363585085847974,-6.4276967135041945
1778968218959721700,4.6737216796875,-0.09347732512056826,-3.458256540313363,-3.9507366906404493
1778968218969715700,4.6837158203125,0.26367972413375973,-2.7587814067572354,-2.670061505296826
1778968218979708700,4.693708740234375,-0.08743205360695719,-1.8133850547283887,-0.7233470075309276
1778968218989702700,4.70370263671875,2.25436356587708,0.4563607891976833,2.8897996502429244
1778968218999696600,4.713696533203125,4.491261033168435,2.49453834965229,7.669317653310299
1778968219009689900,4.72368994140625,5.052683202296495,3.0196476809054613,11.0800379509449
1778968219019683800,4.733683837890625,6.533717878377437,4.931549808487296,15.12448752902746
1778968219029677800,4.743677734375,0.8755968396157026,7.3002423488557335,19.780337651371955
1778968219039670800,4.7536708984375,-4.03693613371253,7.547029828768968,17.803519691765306
1778968219049664800,4.763664794921875,-4.510625658851862,6.454014811587333,14.092934988546371
1778968219059658800,4.77365869140625,-2.672139480614662,4.423521375894547,12.605488107335567
1778968219069652000,4.78365185546875,-1.982828013676405,1.5811200211644172,11.046460675513744
1778968219079646000,4.79364599609375,0.15925518080219625,0.6168418585330248,9.937163216573
1778968219089639700,4.8036396484375,2.7605226974666115,-0.6254620951011777,8.494009066075087
1778968219099632600,4.813632568359375,3.392775475621223,-1.8180957166373728,7.284264443001151
1778968219109627000,4.823626953125,2.236152786403894,-1.8481331275045871,7.695918075466156
1778968219119620900,4.833620849609375,-0.7661420470319688,0.26465280694961546,8.591855107799171
1778968219129614800,4.84361474609375,-4.038413805049657,2.7009549484714865,7.191665654280781
1778968219139607600,4.853607666015625,-7.178713233727216,3.4326994897305965,5.382179360556602
1778968219149601800,4.863601806640625,-8.026362328231334,2.2840663379624484,3.4254420659482476
1778968219159595800,4.873595703125,-4.191149082563817,0.09394581941515207,0.9554413607031106
1778968219169588700,4.883588623046875,2.1453625084102153,-2.081708074623346,-1.9929934338599442
1778968219179582700,4.893582763671875,9.195238934344053,-5.8161851100832225,-7.566301515471935
1778968219189577000,4.903576904296875,7.2842404776036735,-2.237175407449901,-6.003822481891513
1778968219199569700,4.913569580078125,12.191302910566328,4.314413058660924,-14.835904395914078
1778968219209563600,4.923563720703125,-10.498091464704274,12.544164746844768,-15.961570805853604
1778968219219558000,4.933557861328125,-9.485838667976855,8.950628213948011,-12.314807709681988
1778968219229550800,4.94355078125,-3.7884021023929115,19.12280079435706,-18.509729686534403
1778968219239544800,4.953544921875,-0.188162272465229,17.450129447698593,-14.649633636283873
1778968219249538600,4.96353857421875,3.589700023473799,14.015308143508433,-9.893711028337478
1778968219259531800,4.97353173828125,7.622436659669876,9.059294340372086,-4.648397468250989
1778968219269525800,4.98352587890625,11.86822830978632,0.4153799595117569,-0.42700259276628494
1778968219279519700,4.993519775390625,13.185213410395383,-3.773845753774047,1.3855711455792188
1778968219289513000,5.003512939453125,12.69019000532627,-4.737895952868461,0.9147942930161952
1778968219299506700,5.013506591796875,6.427952149569988,-3.670933660832047,-1.2749948016196488
1778968219309500700,5.023500732421875,0.5254828407406806,-1.9709609041415155,-1.7622656928658484
1778968219319494000,5.033493896484375,-1.6099284747585654,-1.5143705439716577,-0.11937515196502207
1778968219329488000,5.04348779296875,-2.746358855296671,-2.0431933427900075,2.0291402675181627
1778968219339481900,5.05348193359375,-3.491826216959953,-2.3284447011321783,3.239726602113247
1778968219349475800,5.063475830078125,-3.509851702994108,-2.8193992493271827,4.169841798380017
1778968219359468800,5.07346875,-2.2997335704326627,-3.050589639396965,5.436335898157954
1778968219369462800,5.083462890625,-1.118447564601898,-2.7820950623273846,6.869118292245268
1778968219379456800,5.093456787109375,-0.9820186942443251,-2.76255858720839,7.611812974324822
1778968219389449700,5.10344970703125,-2.1897204133138057,-3.3829990547552704,7.679660183626413
1778968219399444000,5.11344384765625,-3.516485441920161,-3.2848587062597274,7.302346627658605
1778968219409437700,5.123437744140625,-3.6664337190642953,-3.082942633730173,7.188840659987926
1778968219419430700,5.1334306640625,-4.47027085210979,-2.843499963621795,7.260816931918263
1778968219429424600,5.143424560546875,-5.6478714474260805,-3.5035841670319434,8.70396465267539
1778968219439419000,5.1534189453125,-6.916433001127839,-4.066759609568119,8.58085615940094
1778968219449411800,5.163411865234375,-6.89802289969027,-4.393018685603142,7.23728641872704
1778968219459405600,5.173405517578125,-5.8274307267189025,-4.907313777375221,6.463655915635824
1778968219469399800,5.18339990234375,-4.923728321081399,-4.846718731158972,6.423119322586059
1778968219479392800,5.193392822265625,-4.6561470594644545,-4.313747872750461,6.020030689370632
1778968219489386800,5.20338671875,-4.568286405181884,-3.545245380197465,5.21625405434072
1778968219499380700,5.213380615234375,-5.895119530588388,-2.5515076065868136,3.9775720905959604
1778968219509373700,5.223373779296875,-6.810990512925386,-2.3522309426501393,1.9736632949680089
1778968219519367700,5.23336767578125,-6.023657063174247,-2.6554166016116736,0.2246317622065544
1778968219529361700,5.243361572265625,-5.850783545255661,-2.2623273843631146,-0.9332827203869819
1778968219539355000,5.25335498046875,-5.191703550451994,-0.26060148573219777,-2.9432471627920864
1778968219549348900,5.263348876953125,-3.5711733099192378,2.672555075678229,-5.242576828598976
1778968219559342800,5.2733427734375,1.0043664273917674,3.7773096304923293,-9.427835976341367
1778968219569335800,5.283335693359375,6.97929891488552,6.785864254975318,-13.823583794647455
1778968219579329800,5.293329833984375,8.574562027692794,8.952348461869358,-19.34091747558117
1778968219589323800,5.30332373046875,3.940962023340165,6.180603528642654,-25.42540222468376
1778968219599316700,5.313316650390625,-0.3106698772370815,4.838415597715974,-27.305411668920517
1778968219609311000,5.32331103515625,-1.157101997166872,7.07101975172758,-23.627791662192344
1778968219619304700,5.3333046875,0.3888511412873864,7.245134794139862,-18.691020319664478
1778968219629297700,5.343297607421875,1.5159902541279793,6.216583189040422,-14.773241311252116
1778968219639291600,5.353291748046875,3.2716391592025755,6.165849611625075,-10.512166751807927
1778968219649286000,5.363285888671875,4.26059671279937,5.527918787834048,-6.768406924217939
1778968219659278800,5.37327880859375,4.964886845421791,4.059164916655421,-3.6572032416433093
1778968219669272600,5.3832724609375,6.402613125652074,3.036735009306669,0.018899346259236335
1778968219679266800,5.393266845703125,7.456435950130224,1.5883394510239361,2.316115965434909
1778968219689259800,5.403259765625,8.150847955077886,0.42649318193942304,3.05879661898911
1778968219699253800,5.413253662109375,9.185666803878545,-0.26889702039062974,4.899432084214687
1778968219709247700,5.423247802734375,9.930546428781748,-0.09967910237014294,7.061988888531923
1778968219719240700,5.43324072265625,11.692482451301812,0.0755357179775834,8.390516542896627
1778968219729234700,5.443234619140625,9.257880976217985,-0.07119242807626724,9.466059031751751
1778968219739228700,5.453228759765625,6.0682023073434825,-0.1762394872203469,9.89029625145793
1778968219749222000,5.463221923828125,4.017144222527742,-0.598340571680665,10.467760623848438
1778968219759215900,5.4732158203125,1.901054570353031,-1.5043462858244776,11.66357784385681
1778968219769209900,5.4832099609375,-0.0722257166467607,-1.9830600688666105,12.134639358580111
1778968219779202800,5.493202880859375,-1.5179814279451966,-1.660692447312176,12.006346156144142
1778968219789196800,5.50319677734375,-2.4939751628115774,-1.4423346508085726,12.463236522173881
1778968219799190800,5.513190673828125,-2.5834283469825983,-1.0804141865447163,12.90498075699806
1778968219809183700,5.523183837890625,-2.972961333054304,0.14521657244712113,12.415981434524058
1778968219819178000,5.533177978515625,-3.055769672383368,0.9427145655989646,11.6661742900908
1778968219829171700,5.543171630859375,-3.4934383283317088,1.7275570753172038,10.34358479360342
1778968219839164700,5.55316455078125,-6.48570817296803,2.965423338764906,7.7583496894598
1778968219849158700,5.56315869140625,-8.962367167058586,3.7498178124547,4.8735716667711735
1778968219859152000,5.57315185546875,-9.63764192533791,5.423522593814134,3.0156103882133958
1778968219869145900,5.583145751953125,-9.211602040123939,7.4107158169627185,0.932825624269247
1778968219879139600,5.5931396484375,-8.47620686740279,5.890347493880987,0.4804857611507177
1778968219889132800,5.6031328125,-7.2509314977198835,2.6096947148784992,0.7382189979702234
1778968219899126800,5.613126708984375,-5.358763413655757,1.1656535524129867,1.0174246464073657
1778968219909120800,5.623120849609375,-4.099437305811048,1.9712512653902172,0.46813598266541956
1778968219919114000,5.633114013671875,-2.8949978034079074,3.738613696873188,-0.360298708280921
1778968219929107700,5.643107666015625,-1.1014920458868145,5.07546494294703,-1.7555109579086303
1778968219939101700,5.653101806640625,0.8188900330096482,7.294166243812441,-4.449291192445159
1778968219949094700,5.6630947265625,1.3348501353845,9.20358006170988,-8.939725127139686
1778968219959089000,5.6730888671875,-0.16972586754262448,8.400389702135325,-15.333440076065063
1778968219969083000,5.683082763671875,-2.134771556290984,5.268513233888149,-20.86164001892805
1778968219979075600,5.69307568359375,-2.1855694311141964,2.1404382037505507,-22.15048506672382
1778968219989069800,5.70306982421875,-0.00672375529706478,0.03367021441161632,-19.597249028909204
1778968219999063800,5.713063720703125,5.239713840383291,-1.817752310027182,-16.144122837221623
1778968220009056800,5.723056884765625,11.296571746891736,-3.12543269893527,-13.016906177479028
1778968220019050800,5.73305078125,17.740355087321994,-3.673476331052184,-10.628964746761321
1778968220029045000,5.743044921875,20.842133354425428,-4.1795416468784214,-5.6148325166553255
1778968220039037700,5.75303759765625,21.30992856082916,-4.45115289466381,-0.3733025667607784
1778968220049031700,5.76303173828125,18.515041821467875,-5.124689284843206,2.2556623735159635
1778968220059025700,5.773025634765625,10.225966129916905,-5.529251497742534,2.9598738879442212
1778968220069019000,5.783018798828125,5.0012593045294285,-4.98532816042602,3.209613787922263
1778968220079012900,5.793012939453125,1.9330279177188872,-4.08094040287286,2.678120308589935
1778968220089006600,5.803006591796875,-0.4957675014346838,-3.3627851187661286,2.8502655122339724
1778968220098999800,5.812999755859375,-2.5311849495261907,-3.604384966908395,3.9692449917554855
1778968220108993800,5.822993896484375,-3.818704593937099,-3.595934533949196,5.057596108779311
1778968220118986800,5.83298681640625,-4.767109772393107,-3.5840205165326595,6.069319328674673
1778968220128980500,5.84298046875,-5.512810066029429,-4.401261028769612,6.434600501543283
1778968220138974500,5.852974365234375,-6.4287026756763455,-4.817212942950428,6.787711928668617
1778968220148967400,5.862967529296875,-6.8503604002833365,-4.21555579406768,7.348532624772191
1778968220158961400,5.87296142578125,-7.60872026900649,-3.2860330107361078,7.727538371610641
1778968220168955400,5.882955322265625,-8.533414024746417,-2.7902453432962298,7.797218641558289
1778968220178948400,5.8929482421875,-9.02025178527236,-2.2219842680588364,8.32576203891337
1778968220188942300,5.9029423828125,-8.929422344312071,-1.5670082014426587,9.090158849713205
1778968220198936600,5.9129365234375,-8.583098969891667,-1.004758933840692,9.911922392332553
1778968220208929300,5.92292919921875,-8.24118230599761,-0.47982174428403374,10.501312180316448
1778968220218923300,5.93292333984375,-7.308009475725889,0.1558098626539111,9.936551806676388
1778968220228917200,5.942917236328125,-6.814370218491554,0.3051072746738791,8.2795637668401
1778968220238910500,5.952910400390625,-6.315672508823871,0.24097747846022247,6.478476468148827
1778968220248904400,5.962904541015625,-3.79703110678941,0.403569548600167,4.320456722739339
1778968220258898400,5.9728984375,-0.5152399714067578,-0.40964404620826245,1.8627672175347805
1778968220268891400,5.982891357421875,-1.4070906112089752,0.08812091265395283,1.4763018023401497
1778968220278885400,5.992885498046875,-3.6453716418132185,1.682809878835082,2.806242246112227
1778968220288878300,6.00287841796875,-5.098536606454849,2.115387056863308,1.0412456669777632
1778968220298872600,6.01287255859375,-1.845598640590906,2.9723168976709244,-3.354422071829438
1778968220308866600,6.022866455078125,0.23006664673686025,2.498503453890979,-8.614010240983962
1778968220318859300,6.032859375,-0.6091860830828547,1.8857927038133144,-13.670164334261417
1778968220328853200,6.042853271484375,-0.9386626598596572,0.3566539220377803,-19.014775303924083
1778968220338847500,6.052847412109375,-1.004646997898817,-2.6404239074021576,-23.442161538553236
1778968220348840400,6.06284033203125,0.9462474159002303,-0.15237462750822306,-20.71527106157541
1778968220358834400,6.07283447265625,1.799184095418453,1.3492198753900826,-16.89718109240532
1778968220368828400,6.082828369140625,2.260446977443993,0.9795495276518166,-15.094572867757082
1778968220378821400,6.0928212890625,2.293483862388134,-0.6785770146951079,-12.818860808902977
1778968220388815400,6.1028154296875,2.8940839034333825,-1.9434315305724739,-12.703241210079192
1778968220398808600,6.11280859375,3.8220562424525615,-0.9069096772462129,-12.695312755167484
1778968220408802600,6.122802490234375,5.568242030394077,0.6803489928036928,-8.978485942688584
1778968220418796300,6.13279638671875,8.760123177748918,1.597330128339678,-5.233749963542818
1778968220428789500,6.14278955078125,13.74889826375842,1.827793519309163,-1.544806598767638
1778968220438783500,6.152783447265625,15.393241341555118,1.215471184027195,0.8910615352511405
1778968220448777500,6.162777587890625,14.840550175893306,0.8994339345380663,2.624714297094941
1778968220458770200,6.172770263671875,15.110006583732366,1.2262535670652985,5.074374809622764
1778968220468764400,6.182764404296875,13.77700207621455,1.3037227373234928,6.2725271945804355
1778968220478758400,6.19275830078125,9.996197589343785,1.5117432642079889,6.961258815804124
1778968220488751400,6.20275146484375,5.254335070931911,2.1861017844252286,7.524825011223554
1778968220498745300,6.212745361328125,1.3820831573329866,2.394389291682839,8.3552429849416
1778968220508738300,6.22273828125,-1.7827052543044088,2.5320155551314354,9.517374208447336
1778968220518732300,6.232732177734375,-4.162844486838579,2.557322138084471,10.939488493525982
1778968220528726300,6.242726318359375,-5.1969630784153935,2.456561085696518,12.074846276396512
1778968220538719500,6.252719482421875,-5.9837844869911665,1.9220038348793982,12.870273016232252
1778968220548713500,6.26271337890625,-5.634591110092401,1.5707050101339817,13.02225689085722
1778968220558707500,6.27270751953125,-5.1987113833874465,1.3594918246880172,12.628833911609648
1778968220568700400,6.282700439453125,-6.546281591874361,1.1101213425442575,12.024608958065508
1778968220578694400,6.2926943359375,-7.853027038019895,1.4045264598093925,10.529914005422592
1778968220588687400,6.302687255859375,-8.44775000372529,2.0876547080680727,8.754657898080348
1778968220598681300,6.312681396484375,-8.199982865124941,2.851938413882255,6.596368688079714
1778968220608675600,6.322675537109375,-7.83072986601591,3.2935926323354243,4.6702235156118865
1778968220618668300,6.332668212890625,-6.700739163136482,3.562886543089151,3.3836651174485683
1778968220628662300,6.342662353515625,-4.621507415498793,4.117557484391331,2.9031629896849394
1778968220638656300,6.35265625,-2.649593302285671,5.278841735678911,1.910758218243718
1778968220648649500,6.3626494140625,-1.2793708247467874,6.367778543636202,-0.15535715045034884
1778968220658643500,6.3726435546875,-0.41854952945858237,6.947086498066782,-3.503402672985196
1778968220668637200,6.38263720703125,0.760627813655138,7.915653882324695,-9.87168390544653
1778968220678630400,6.39263037109375,-0.5146604179531336,7.77694449981451,-15.266280849027632
1778968220688624400,6.402624267578125,-2.8486665526047346,7.290007370567321,-18.266740429860352
1778968220698617300,6.412617431640625,-2.7007532884195444,5.779873441252112,-19.554985758197308
1778968220708611600,6.422611572265625,-0.5528431413531303,3.07280293250978,-17.813353688037395
1778968220718605300,6.432605224609375,6.9013038210570805,0.6597022183552383,-16.107586711984872
1778968220728598300,6.442598388671875,17.141071681833267,0.5494800946608186,-16.405819132453203
1778968220738592500,6.452592529296875,20.684974122989175,-1.3228574997738003,-13.844167148470877
1778968220748586500,6.46258642578125,18.807898978638647,-4.21296402400881,-9.093421650901437
1778968220758579500,6.472579345703125,15.162332983297109,-5.79834024131298,-6.9491463532060385
1778968220768573200,6.4825732421875,11.109677886927127,-6.274423968112468,-4.3553450807690615
1778968220778566400,6.49256640625,7.382316236430406,-5.693388166975975,-1.8064193073689936
1778968220788560400,6.502560302734375,3.501443940132856,-5.469754768157005,-0.5233966821163892
1778968220798554400,6.512554443359375,0.3836819219559431,-5.166465064299106,0.3644271863877773
1778968220808547600,6.522547607421875,-2.3977239890635014,-4.546161082613468,1.3882961866289376
1778968220818541300,6.532541259765625,-4.335177322009206,-4.338950703068077,2.350132801327109
1778968220828534300,6.5425341796875,-5.608326203501224,-3.869473534926772,3.930599327018857
1778968220838528500,6.552528564453125,-6.406066480976342,-3.8979058486849065,5.957278172859549
1778968220848522500,6.5625224609375,-6.509680000185966,-3.760447050757706,7.898681120213865
1778968220858515500,6.572515380859375,-6.6041691326975815,-3.581836450491845,9.439437566807866
1778968220868509200,6.58250927734375,-6.955780092132091,-3.6326071450471877,10.227671764791012
1778968220878503400,6.59250341796875,-6.996046051546931,-3.6682910373687743,10.669098019707203
1778968220888496400,6.602496337890625,-7.24929658999443,-3.234249047484994,11.259661527645587
1778968220898490400,6.612490478515625,-8.357548923796415,-2.607056183068454,11.55119415821433
1778968220908483600,6.622483642578125,-9.136538323572278,-1.5081586837194858,11.409067660737037
1778968220918477300,6.632477294921875,-8.972150894448161,-0.48479777913093564,11.665067205631733
1778968220928471300,6.64247119140625,-8.597690389823914,-0.3174126294955611,11.480184100967644
1778968220938464500,6.652464599609375,-8.921848694187402,-0.7073290619269013,10.835730012887716
1778968220948458500,6.66245849609375,-8.570771987760066,-0.2545893858358264,9.846966812819241
1778968220958451200,6.672451171875,-6.744076785081624,0.38571342778354883,6.952788509100675
1778968220968445200,6.682445068359375,-1.9015736257910727,0.8774836762756109,2.2862609253972765
1778968220978439400,6.692439453125,8.160580244541167,-0.46453006712794304,-3.052272770178318
1778968220988432400,6.702432373046875,10.21008700826168,-3.3897143344849345,-3.1818980980008837
1778968220998426400,6.71242626953125,2.8891090376302597,0.6277753404796124,3.6957664887934922
1778968221008420400,6.72242041015625,-7.835649786761403,0.5017775555044413,3.0625176853388547
1778968221018413300,6.732413330078125,-6.530328820461034,1.8005711658626793,-1.2280664617061614
1778968221028407300,6.7424072265625,5.590962396246194,3.5708307800918817,-6.408206415614486
1778968221038400500,6.752400390625,-3.78762235019207,-1.4539982005953789,-9.084565559750795
1778968221048394500,6.76239453125,-3.810292739422619,0.8516317343994975,-10.68225210031271
1778968221058388500,6.772388427734375,-3.408950657613575,-1.732288487753272,-15.855635565698146
1778968221068381200,6.782381103515625,-2.8207535865455866,-4.16569578461647,-19.814913290190695
1778968221078375400,6.79237548828125,1.2596218759208917,-1.9089847788304088,-20.760066481113434
1778968221088368400,6.802368408203125,1.5953905385792255,-1.0114541936956345,-19.826519556832313
1778968221098362400,6.8123623046875,-1.750099454253912,-3.1934026578336954,-18.65009677312374
1778968221108356400,6.8223564453125,-1.603177831454575,-3.739631934005022,-17.643215732562542
1778968221118349300,6.832349365234375,2.0468615099087355,-2.8042554562091824,-14.862832150328158
1778968221128344300,6.84234423828125,5.842800145286321,-2.385468903124332,-10.013788191092013
1778968221138337300,6.852337158203125,9.461451245695352,-1.503002762261033,-5.331704726338386
1778968221148331300,6.862331298828125,11.104843890899419,-0.9321055663663893,-2.8102567424505946
1778968221158325200,6.8723251953125,10.992323427134751,0.4510464623071253,-0.18714052820205687
1778968221168318200,6.882318115234375,10.83874146966338,1.993902365398407,1.8643810824722051
1778968221178312200,6.892312255859375,10.637874029403925,3.572559211319685,3.0319430988550184
1778968221188305400,6.902305419921875,10.195137276411057,5.871109709447622,5.215868854415416
1778968221198299100,6.912299072265625,10.71041202687025,7.811600218132138,7.290631055423617
1778968221208293000,6.922293212890625,10.976856977933645,8.816373472759127,8.858233423367142
1778968221218286300,6.932286376953125,8.016103969067334,8.224987542521953,9.63741863797605
1778968221228280300,6.9422802734375,4.178376402491331,6.456076420292258,10.185959113699198
1778968221238273300,6.952273193359375,0.664718000690639,4.443892840532958,10.548170962125063
1778968221248267300,6.962267333984375,-2.8674624384894964,3.27681510053575,10.249666154456138
1778968221258261200,6.97226123046875,-5.709689313435554,2.9927982524245977,10.389133077335357
1778968221268254200,6.982254150390625,-7.526870837837457,3.0789597015738486,11.019829858219623
1778968221278248200,6.992248291015625,-8.571984286159276,3.0904344507902857,11.307157438313961
1778968221288241200,7.0022412109375,-8.861670996600388,2.9961946168646216,11.110421398770809
1778968221298235100,7.012235107421875,-8.694142346841096,2.7122207311123607,10.394447550356388
1778968221308229000,7.02222900390625,-8.585244749748707,2.3863354568257926,9.732993227636813
1778968221318222300,7.032222412109375,-8.467227442133426,2.1375043422557414,8.904725125429033
1778968221328216300,7.04221630859375,-8.21482621399164,1.6735270867049694,7.5957941519379615
1778968221338209300,7.052209228515625,-8.017195855957269,1.2608256987527011,6.020729777550697
1778968221348203300,7.062203369140625,-7.864606416654587,1.207150368797034,4.289266634705663
1778968221358197200,7.072197265625,-7.759782937133312,1.6034667313985527,2.4401070867627856
1778968221368190200,7.082190185546875,-7.084446219533682,2.7414687451675532,0.9362631975024938
1778968221378184200,7.09218408203125,-5.317458758842945,3.769823074129224,-1.4121370809435843
1778968221388177200,7.10217724609375,-2.426018647916615,3.7151658935293552,-5.250320574593544
1778968221398171100,7.112171142578125,0.20688655441850423,2.439651451949775,-10.560158337038756
1778968221408165000,7.1221650390625,1.4412401335701346,1.7376780718371272,-15.44463718227148
1778968221418158300,7.132158447265625,0.8296350066468119,2.6155174296826122,-18.797010504877566
1778968221428152300,7.14215234375,7.565155852568149,2.5006661848828196,-21.029152302074433
1778968221438145300,7.152145263671875,17.350836714297532,1.68437084454149,-20.418280165600777
1778968221448139300,7.16213916015625,21.208432179903983,1.6705127073198556,-17.29034103680253
1778968221458133200,7.17213330078125,16.945881118166447,2.0204010807454584,-12.385221554601191
1778968221468126200,7.182126220703125,13.38624802391529,0.18528876285552978,-9.023823214018345
1778968221478120400,7.192120361328125,11.725675111329554,-2.376585047183931,-7.618630253124237
1778968221488113200,7.202113037109375,8.485683136278391,-3.9469139174818992,-7.133501050081849
1778968221498107100,7.212107177734375,5.053255449226499,-4.127372775962948,-5.49415797252953
1778968221508100400,7.222100341796875,1.6275333972930908,-3.1407810747146603,-2.7186779444277285
1778968221518094300,7.23209423828125,-0.47664545233547684,-2.5253610656782985,-0.7218459553182125
1778968221528088300,7.24208837890625,-1.5033219112128018,-2.4965701477408406,0.3458984270066023
1778968221538081300,7.252081298828125,-2.1622809099853035,-2.638724117746949,0.6000438684672117
1778968221548075300,7.2620751953125,-2.7593384561181065,-2.5510756449103353,1.655446655613184
1778968221558068200,7.272068115234375,-3.2093069139301775,-2.8308836431547997,3.0867782663702963
1778968221568062200,7.282062255859375,-3.5944343585193157,-3.0854423415914174,4.9155233873158695
1778968221578056400,7.292056396484375,-4.130722670912743,-3.2523832545906304,6.836824042361974
1778968221588049200,7.302049072265625,-4.787382745093107,-3.520332764998078,8.528143390867113
1778968221598043100,7.312043212890625,-5.524393536317348,-3.475621516612172,9.947052157902718
1778968221608036400,7.322036376953125,-6.16142010474503,-3.1514567825078963,10.863644440251589
1778968221618030300,7.3320302734375,-7.156877834016084,-3.0494717412829395,11.458387279701233
1778968221628023000,7.34202294921875,-8.448190148708223,-2.686101370471716,11.608972977966069
1778968221638017300,7.352017333984375,-9.479833290082215,-2.0098701882503924,11.363395458364487
1778968221648011300,7.36201123046875,-9.592689269411563,-1.545650502245873,10.895469319057463
1778968221658004200,7.372004150390625,-8.805154159608483,-1.4256278461575507,10.60332177146077
1778968221667998200,7.381998291015625,-8.143129928046465,-1.4757498675458132,10.414421832370758
1778968221677991200,7.3919912109375,-7.598176663160324,-1.467524621644616,9.280692527484893
1778968221687985200,7.401985107421875,-6.969067443728447,-1.3673138966158032,7.121364037564397
1778968221697979100,7.411979248046875,-3.6047388949126002,-0.9441840536296368,4.01627036230266
1778968221707972400,7.421972412109375,4.4838183159470555,-2.1967636098235843,-1.1906336798906325
1778968221717966300,7.43196630859375,4.882893621867895,-1.917745446782559,-0.4529191243112087
1778968221727959000,7.441958984375,-0.2000207603022456,2.801029772160947,5.5261091080635785
1778968221737953300,7.451953369140625,-9.461364151933788,2.461086161905527,2.0096312649279833
1778968221747946200,7.4619462890625,-8.357683363831043,2.4168941150881347,-4.386525816452503
1778968221757940200,7.471940185546875,4.192871376311778,2.1077540777668355,-12.051788056892155
1778968221767934200,7.481934326171875,-6.161655667066574,-3.102756172224879,-14.859256045407056
1778968221777927200,7.49192724609375,-2.2867127608180047,-0.27692659758925436,-13.54051971721649
1778968221787921200,7.501921142578125,-1.505309870159626,-3.8477988787353037,-17.142352953815458
1778968221797914400,7.511914306640625,-2.693102189144492,-4.440816794088483,-18.077526017993687
1778968221807908400,7.521908447265625,-1.3034426052078605,-0.08070851750560104,-15.353576855164766
1778968221817901300,7.5319013671875,-1.9974518745735286,1.9331641113191842,-14.055308145463465
1778968221827895000,7.54189501953125,-1.5885048707187175,1.3349914435513317,-13.889344845324754
1778968221837889300,7.55188916015625,1.182090161820501,1.8093696816071867,-12.665361853539943
1778968221847882200,7.56188232421875,5.1224295232176775,2.0466396838515997,-11.788221291613578
1778968221857876200,7.571876220703125,7.845644526553153,0.06114318161830306,-10.525491512805223
1778968221867869400,7.581869384765625,10.49867598659396,-1.6943071321442722,-8.138965794104337
1778968221877863200,7.59186328125,14.08842247955799,-1.5798660755805671,-4.996711724227667
1778968221887856000,7.601856201171875,17.305813331222534,-1.452875334045291,-2.111023016434908
1778968221897850400,7.611850341796875,17.273393409132957,-0.6651502546280622,0.20995441755652428
1778968221907844400,7.62184423828125,14.276177924787998,0.48543783060014245,2.6833617163747547
1778968221917837300,7.63183740234375,9.925987158042192,0.666546531292051,3.494098253545165
1778968221927831300,7.641831298828125,5.90391892311573,1.3460580503582953,3.127854373124242
1778968221937824300,7.65182421875,3.2045103273034092,2.3361747108623385,4.347083448380231
1778968221947818200,7.661818359375,0.9731915369272232,3.269931478501856,6.322821796056628
1778968221957811500,7.6718115234375,-0.13779343670904637,3.8557910465329885,8.360100946366787
1778968221967805200,7.68180517578125,-0.11796995220906101,3.9112051829800007,10.317086078256368
1778968221977799200,7.691799072265625,0.24018645594669505,3.997020887431502,11.570027453500032
1778968221987792100,7.701792236328125,-0.32122868065237997,3.239915987205505,12.222770061975718
1778968221997786400,7.711786376953125,-1.4013848007827996,1.300890290376544,12.223180396342277
1778968222007779300,7.721779296875,-1.715346705302596,0.2023842745631933,12.460538369131088
1778968222017773000,7.73177294921875,-2.2021967407882213,0.03617781331837177,12.94010350830555
1778968222027766300,7.741766357421875,-2.1325252386689186,0.8353852407366037,13.371833714115619
1778968222037760300,7.75176025390625,-2.276542079937458,2.478646953037381,14.073719415944813
1778968222047754200,7.761754150390625,-3.237643366098404,4.452630566000938,14.751536844444274
1778968222057747500,7.77174755859375,-4.91540940554738,5.891748008328676,14.708753349250554
1778968222067741200,7.7817412109375,-6.39609336849451,6.535044743067026,13.95589266246557
1778968222077734100,7.791734130859375,-6.975216614007949,6.718904934424161,11.898788283222913
1778968222087728400,7.801728271484375,-7.336344758850336,6.316934491583704,7.731807719492912
1778968222097721300,7.811721435546875,-8.15177500679493,6.449620376020669,6.08665274079144
1778968222107715300,7.82171533203125,-8.203776412189006,6.847467016929388,5.609512782937288
1778968222117708300,7.831708251953125,-6.60303516023159,7.579348044049739,3.54688700992465
1778968222127704800,7.841704833984375,-4.486933817619085,8.232169562980532,-3.4708161621570586
1778968222137698800,7.85169873046875,0.9746119251191615,10.422626181614397,-17.050254515832663
1778968222147692000,7.861692138671875,1.7915642680644988,11.987822657459974,-31.31208944249153
1778968222157686000,7.87168603515625,-8.09489167457819,3.8359877371713518,-35.23423132228851
1778968222167678700,7.8816787109375,-6.2210769933283325,-7.1176955781847235,-33.456737665152545
1778968222177673000,7.8916728515625,7.5077546339571475,-9.585205051136017,-26.60057646963596
1778968222187666000,7.901666015625,15.93214948105812,-5.769958780959248,-19.994903946638107
1778968222197660000,7.911659912109375,20.05079125355482,-4.02082144973576,-12.685128045761585
1778968222207652900,7.92165283203125,20.511964995992184,-4.718021039575338,-6.791648099073767
1778968222217646800,7.931646728515625,17.414638447600602,-6.023486967304349,-3.5823598898440596
1778968222227640800,7.941640869140625,13.233667936962842,-5.246569697627425,-1.408752699202299
1778968222237634000,7.951634033203125,8.788439756172895,-3.4093253361448643,0.376753583997488
1778968222247628000,7.9616279296875,4.929898534148931,-2.3159848864011465,1.8883815512627362
1778968222257620700,7.971620849609375,1.4678841026067733,-1.8598710577018558,3.4589228952676057
1778968222267614700,7.98161474609375,-1.4529741182446478,-1.6501633083827794,4.353474610722064
1778968222277608000,7.99160791015625,-3.063732906347513,-1.7576083685792983,4.792615385049581
1778968222287602000,8.001601806640625,-4.682788982674479,-1.6608835859701037,6.518744765651226
1778968222297595000,8.011594970703126,-6.05127338437438,-1.669807920051366,8.128560135424136
1778968222307588900,8.0215888671875,-7.023581124204397,-1.8933296751894055,9.224406576639414
1778968222317582800,8.031582763671874,-7.62351101090312,-2.1893542103499173,10.041762239688634
1778968222327575800,8.041575927734375,-7.402746445518732,-2.428409342445433,10.314262837529181
1778968222337570000,8.051570068359375,-6.93431527929902,-2.4757310655906797,10.49282141534686
1778968222347562800,8.061562744140625,-6.983987949484586,-2.2273529554851352,11.019025556099415
1778968222357556700,8.071556640625,-7.613897963905334,-1.8024409052573143,11.564071175444125
1778968222367550000,8.081550048828126,-7.74482852910757,-1.043785706849396,11.901885080194473
1778968222377544000,8.0915439453125,-7.4453504924923175,-0.7553050111971795,12.145143216937779
1778968222387537000,8.101536865234374,-7.052136187559366,-0.8758373703733086,12.62812079490423
1778968222397531000,8.11153076171875,-6.653492258793115,-0.6199890705175698,12.52075347611904
1778968222407523800,8.12152392578125,-6.271061798202991,-0.5302572155356406,11.07261452294588
1778968222417517800,8.131517822265625,-5.387365238761902,-0.5308244940295815,8.786867392289638
1778968222427511800,8.14151171875,-3.0875203169092535,0.431977312438935,5.538157857775688
1778968222437505000,8.151505126953126,0.6488648902595043,-0.576042522893846,-1.2877858941316604
1778968222447498800,8.161498779296876,0.6774976950258016,-0.20640037833675742,-2.5534493883043528
1778968222457492000,8.171491943359374,-3.9926600618734955,3.3985166496217247,1.4852040707200764
1778968222467486000,8.18148583984375,-4.307971042914688,2.1234746478594837,-3.022059418222308
1778968222477479000,8.19147900390625,4.492141907656192,1.6169827771842478,-9.45362332854867
1778968222487473000,8.201472900390625,0.5080421688571573,0.04109305788874626,-12.852648512214422
1778968222497465900,8.2114658203125,-1.7641007993385194,0.13916706314980984,-15.864377675080299
1778968222507459800,8.2214599609375,-5.047864403837919,-3.621677462492883,-19.561253001898525
1778968222517453000,8.231453125,-4.401129511344433,-2.5063509525209664,-19.57513890390992
1778968222527447000,8.241447021484374,-2.506350367999077,1.1068605141174048,-19.6875225895524
1778968222537440800,8.251440673828125,-5.409940643185377,-0.3437802658088505,-19.63023243010044
1778968222547433700,8.261433837890625,-5.825052891671657,-1.3767945494055747,-21.23548619104624
1778968222557428000,8.271427978515625,-1.8100117789030075,0.1574022464118898,-19.081686693680286
1778968222567421000,8.2814208984375,2.4766239227771756,1.5953404158271849,-12.983086909985541
1778968222577415000,8.291414794921875,8.201822940033674,1.7084677594438193,-8.11626237938702
1778968222587408000,8.301407958984376,14.454564653170108,0.6272869724407791,-4.399472391787171
1778968222597401900,8.31140185546875,17.399139265173673,-0.92509188821204,-2.184837609708309
1778968222607394800,8.321394775390624,17.111099737417696,-2.0311638823002576,-0.6307447116792202
1778968222617389000,8.33138916015625,15.751668995267153,-1.827623423439264,1.1478723965287208
1778968222627381800,8.3413818359375,13.389917652338742,-1.387721017089486,2.8401889393776654
1778968222637375700,8.351375732421875,9.57999579205513,-0.9820762696504592,4.458692642518877
1778968222647369000,8.361368896484375,6.865294350042939,-0.13102916673850268,5.578918907231092
1778968222657363000,8.371363037109376,5.379501665779948,1.118729961739853,7.028502213993668
1778968222667355600,8.381355712890626,2.869476408660412,2.1946409185811877,8.83046863360703
1778968222677350000,8.391349853515624,1.5308026233345269,3.5653707611203194,10.180111556714772
1778968222687343900,8.40134375,1.3901076199650764,4.72351905246973,11.491799719959497
1778968222697336800,8.4113369140625,1.8121487909317016,5.201145917057991,12.77769527029991
1778968222707330800,8.421330810546875,1.3491314664542675,4.355697547468543,13.787135347694157
1778968222717323800,8.43132373046875,0.03684709088206291,2.881484534101188,14.313788401257991
1778968222727317800,8.44131787109375,-1.3201602235138417,2.123391207359731,14.158924002760648
1778968222737311000,8.45131103515625,-2.6639491598963736,2.6531708685114976,13.477643866586684
1778968222747305000,8.461304931640624,-4.220458471417427,3.2770249438941477,12.073010877662897
1778968222757298000,8.4712978515625,-4.525360286647081,4.724636658322811,10.623044709062576
1778968222767292000,8.4812919921875,-4.0506232982814305,7.898454325720667,10.997190156388282
1778968222777284900,8.491284912109375,-5.734139864081144,10.10341176339388,9.612004795256256
1778968222787278800,8.50127880859375,-8.94100581459999,9.105772013908624,4.608191130068898
1778968222797272000,8.51127197265625,-10.831671092885731,7.728856468471884,1.1655109290719032
1778968222807266000,8.52126611328125,-10.351832397466897,7.88108642681241,0.30608021135926244
1778968222817258800,8.5312587890625,-7.88595315606594,8.02819714244306,-0.8529805186599493
1778968222827253000,8.5412529296875,-4.835398880243301,9.013803339785337,-2.640637842413783
1778968222837246000,8.551245849609375,-4.054052395947277,9.009068127956986,-6.312540056017041
1778968222847240000,8.561239990234375,-6.861578544390201,6.676769674006104,-12.949254783010481
1778968222857233000,8.57123291015625,-8.231675641983747,5.4712219181001185,-20.600842718362806
1778968222867227000,8.581226806640625,-10.18673652781248,1.5274061127640306,-26.10603587964773
1778968222877220900,8.591220947265626,-9.58715618520379,-2.510583183263242,-25.772942573678492
1778968222887213800,8.6012138671875,-4.852123220551014,-3.5688074575707316,-20.20672065093517
1778968222897208000,8.6112080078125,9.869179813671112,-3.8402754974931477,-17.292981906700135
1778968222907200800,8.62120068359375,28.20073553779125,-4.081773346565663,-17.514910839688778
1778968222917194800,8.63119482421875,29.271801758015155,-5.074881005579233,-13.322177410542965
1778968222927188000,8.64118798828125,25.483728156924247,-6.29174627431333,-6.876731105336546
1778968222937182000,8.651181884765625,19.392605577242374,-5.536397277843951,-4.1970583066076035
1778968222947175000,8.6611748046875,12.293531112897396,-4.567264076396823,-5.059225171285868
1778968222957169000,8.6711689453125,5.907044946181774,-4.836068742328882,-3.8422266315609215
1778968222967161900,8.681161865234374,1.1852829665124416,-5.140301864516735,-2.2288006700754166
1778968222977155800,8.69115576171875,-1.8573522067487238,-4.388916803242266,-0.47301615592241286
1778968222987149000,8.701149169921875,-3.7533196830958127,-3.4354762609675524,1.6558838779866694
1778968222997142800,8.711142822265625,-4.873750822730362,-2.214750225152075,4.839065586057305
1778968223007135700,8.7211357421875,-5.467452920955419,-1.0748340483248233,7.978073221358656
1778968223017130000,8.7311298828125,-5.348570520943403,-0.007333932217815891,10.490095205253363
1778968223027123000,8.741123046875,-4.893013157083094,0.6809644943535328,12.403706474840641
1778968223037117000,8.751116943359374,-4.0660234042480585,1.2334671517059206,14.127677800625563
1778968223047110000,8.76110986328125,-3.244119576375186,1.7399014469750225,15.272622911530732
1778968223057104000,8.771103759765625,-3.137562697190046,1.9796672115579246,15.837482653892039
1778968223067096800,8.781096923828125,-4.428473737604916,1.8975712582819162,15.795359668433665
1778968223077091000,8.791091064453125,-6.501673219341039,1.9214898940078913,15.520895077043772
1778968223087083800,8.801083740234375,-7.969255708652734,2.174394395496696,15.461147587567567
1778968223097077800,8.811077880859376,-8.435692486184834,2.0677944078221917,15.44719154292941
1778968223107071000,8.821071044921876,-8.397200550705193,1.8992321772314606,15.118026224058866
1778968223117065000,8.83106494140625,-7.968901488387584,1.655556545728445,14.129355378448963
1778968223127057700,8.8410576171875,-6.8588757151722906,0.924311405358836,12.192322316741942
1778968223137052000,8.851052001953125,-5.422801293802261,0.179287951538153,9.831114579170942
1778968223147044600,8.861044677734375,-3.4741654725849624,-0.3664699442617595,7.119452650985122
1778968223157038600,8.87103857421875,0.45057636057734485,-0.5788302173836156,3.550482988590002
1778968223167031800,8.88103173828125,4.295299485129117,-1.2457437188245355,-0.6304781696975231
1778968223177025800,8.89102587890625,-0.3395359062373638,1.4918851559191941,0.0975111106812954
1778968223187019800,8.901019775390624,-6.929441535782813,1.7822694932356475,0.014301497074961662
1778968223197012700,8.9110126953125,-4.101984067684412,0.36618667034097013,-4.992738728943467
1778968223207006700,8.9210068359375,1.3968082866474985,0.21463957969807088,-11.850507944178581
1778968223216999700,8.930999755859375,-0.382999492649734,-0.6615026188407093,-16.82114180881977
1778968223226994000,8.940993896484375,-1.7024460149362681,-0.8111210064433515,-18.797737650108335
1778968223236987000,8.95098681640625,-4.529356370545924,-7.1180012831330295,-22.037146272313592
1778968223246980600,8.960980712890626,-1.475307238344848,-4.7819104511618615,-22.622830191516876
1778968223256973800,8.970973876953124,0.6419941277071833,-0.24516983384983612,-21.67668798955679
1778968223266967800,8.9809677734375,-1.6665160388991236,-1.0266945790559052,-23.868843813323974
1778968223276960800,8.990960693359375,1.1452677669882774,-0.9576773030616342,-21.323819139015672
1778968223286954800,9.000954833984375,5.150110141825675,-0.5221452572831884,-15.97211791883111
1778968223296947700,9.01094775390625,8.621067758280038,-0.1730475593112409,-11.555915926039217
1778968223306941700,9.020941650390625,10.659414830082655,-0.9559383504398167,-7.7667247190952295
1778968223316935000,9.030934814453126,12.024065352708101,-1.5329196154884994,-5.51295795006752
1778968223326929000,9.040928955078124,12.492545618766545,-0.9420775828696787,-3.5890298691272733
1778968223336921600,9.050921630859374,11.457620386981963,-0.254648166818358,-1.4865180759280918
1778968223346915800,9.060915771484375,10.040776735782623,0.7669820780526846,0.900907806482911
1778968223356908800,9.07090869140625,8.579304838305712,1.7142000194855034,2.72081963263154
1778968223366902800,9.08090283203125,7.097945168054103,3.083542645449936,4.605682946640253
1778968223376895700,9.090895751953125,4.487899447780848,4.316681003592908,6.531749793174862
1778968223386889700,9.1008896484375,1.5363269397139547,4.597362862062454,8.041652251821755
1778968223396882700,9.110882568359376,0.33993334458973257,4.934451959669589,8.891843432024121
1778968223406877000,9.120876953125,-0.04198153116106987,5.182666842037439,9.443230529350041
1778968223416870000,9.130869873046874,-0.07714757362101227,5.137427770385146,10.061882652175425
1778968223426863600,9.140863525390625,-0.39497316783163694,4.545689373448491,11.244834545391797
1778968223436856800,9.15085693359375,-1.551317588096857,3.3136931710779667,12.796270206910371
1778968223446850800,9.160850830078125,-3.0734184340596196,1.9179910921066998,14.811190810418129
1778968223456843800,9.17084375,-2.511132926100492,-0.0319013050429523,16.65774455977678
1778968223466837800,9.180837646484376,-0.26795535562634465,-2.1099038031466306,17.67391248412132
1778968223476830700,9.190830810546874,-3.863510827130079,-0.4092182220116257,17.823274193549157
1778968223486824700,9.20082470703125,-5.724630861979723,1.441612912405282,17.709753028309343
1778968223496818000,9.21081787109375,-8.1652938290596,2.1853839915446938,16.834095982939004
1778968223506812000,9.22081201171875,-10.164684855002164,2.41526636775583,15.931336995631455
1778968223516804600,9.2308046875,-8.817899659413099,2.3999165306717156,13.5671739153862
1778968223526798800,9.240798828125,-7.296715343773364,3.009576368746161,10.495473975682257
1778968223536791800,9.250791748046876,-7.13280839164257,3.252532599933445,8.782440808019041
1778968223546784800,9.26078466796875,-5.9857671852409835,3.263348300719261,6.366802392080426
1778968223556778800,9.27077880859375,-4.603868590694666,2.3298684503249825,2.698388020592928
1778968223566771700,9.280771728515624,-2.190322763121128,2.099335062859207,-2.8263988989561795
1778968223576765700,9.290765625,0.7711784337639809,6.020768355995417,-12.268480842792988
1778968223586759000,9.300759033203125,-0.8149076853752135,10.868520521855354,-23.438991091823578
1778968223596753000,9.3107529296875,-5.583643013143539,6.1518193327069275,-35.464511904036996
1778968223606745600,9.32074560546875,-7.3420578758001325,0.8153250340044498,-40.00422921733856
1778968223616739800,9.33073974609375,-3.9060254422545433,2.9895588321119546,-25.86999892632961
1778968223626732800,9.34073291015625,-0.642384953655675,2.5908617118537425,-14.129187036144733
1778968223636726800,9.350726806640624,0.4544866658888757,1.0912941847383975,-9.776744691079854
1778968223646719700,9.3607197265625,2.092898161679506,0.317884630921483,-10.305058955854177
1778968223656713700,9.370713623046875,5.058908360421658,-1.0585767410069704,-13.4251327581048
1778968223666706700,9.380706787109375,5.573783297908306,-3.169122787579894,-15.927997037553787
1778968223676701000,9.390700927734375,6.381341205042601,-5.360560233944654,-14.518414317268132
1778968223686693600,9.400693603515625,7.751681463742256,-5.996060031196475,-8.249041787326336
1778968223696687600,9.4106875,9.504954871857166,-6.964695219993591,-1.2763573221445084
1778968223706680800,9.420680908203124,10.182034633731842,-7.331214994746446,2.0648387728869912
1778968223716674800,9.4306748046875,8.801637091398238,-6.88062285207808,4.879413963058591
1778968223726667800,9.440667724609375,6.3529720196485515,-4.100351790307462,4.211454496228694
1778968223736661800,9.450661865234375,3.464552133326232,-1.7428034520268438,4.667049561750889
1778968223746654700,9.46065478515625,1.1731734265238045,-1.2045043843328953,6.738028737089038
1778968223756648700,9.470648681640625,-0.1891194270595908,-0.761088416904211,8.420461014783381
1778968223766642000,9.480641845703126,-1.1063508840948342,-0.2438927813850343,9.659413027641177
1778968223776635600,9.4906357421875,-1.9934929078146815,-0.12342004344165325,10.553421137738228
1778968223786628600,9.500628662109374,-3.0776322523623705,-0.6301647198341787,10.985371123778819
1778968223796622800,9.510622802734375,-3.9559737145110963,-1.124261219316721,11.0222965405941
1778968223806615800,9.52061572265625,-4.719033431488275,-1.3039958551764488,10.873177992272376
1778968223816609800,9.53060986328125,-5.258399251630902,-1.4891791118308901,10.678711066704988
1778968223826602800,9.540602783203125,-5.261302571856975,-2.146216494891047,10.853094989186525
1778968223836596700,9.5505966796875,-6.1304702552080155,-4.091086241573095,12.106989135110377
1778968223846589700,9.560589599609376,-4.894015027602016,-5.578806679028272,14.828001659965514
1778968223856584000,9.570583984375,-3.8832419480383393,-5.919145718342065,16.890960610455274
1778968223866576600,9.58057666015625,-3.5510640033483503,-4.712575341390073,15.048721801686286
1778968223876569900,9.59056982421875,-2.9074282459139824,-3.8608436537474393,12.543049479079246
1778968223886563800,9.600563720703125,-3.067179247409105,-3.0339684672027825,10.48728248592019
1778968223896556800,9.610556884765625,-3.9572915191113944,-2.2788465574875474,9.75325392537713
1778968223906550800,9.62055078125,-5.0729976760506625,-1.2229150702923535,8.844854886355996
1778968223916543700,9.630543701171876,-7.1862021281778805,-0.0797178259678185,7.322940502876043
1778968223926537700,9.640537841796874,-10.182720862430333,1.341015672276914,5.7633647895216935
1778968223936531000,9.650531005859374,-12.247763048934935,2.84268864723891,2.2825357673943043
1778968223946525000,9.66052490234375,-10.19346905093789,2.99372647318542,-11.58299331805706
1778968223956517600,9.670517578125,0.690808938954398,9.617340895587205,-32.95602920018435
1778968223966511600,9.68051171875,-2.8476003846779463,10.109779544860125,-36.74001582422256
1778968223976504800,9.6905048828125,-14.3220512026906,-2.9679639631584287,-27.124677500629424
1778968223986498800,9.700498779296876,-13.474036197483539,-4.661997246797383,-22.370047855103014
1778968223996491800,9.71049169921875,-5.27112253960371,-4.8876016534283755,-18.83107877869606
1778968224006485800,9.72048583984375,0.2050549550771713,-6.894374898576736,-18.976832819020746
1778968224016478700,9.730478759765624,3.458219715434313,-6.940099123397469,-15.521017826640605
1778968224026472700,9.74047265625,5.809318146923184,-3.6781326324254273,-12.557985182404517
1778968224036466000,9.7504658203125,7.357645905554294,-0.3218831259731203,-10.157292991185187
1778968224046459600,9.760459716796875,8.39638514266908,1.6780338966049253,-6.773868112233281
1778968224056452900,9.770452880859375,11.174697763848304,3.8457381468132135,-4.8419513706266875
1778968224066445800,9.78044580078125,13.404196353060007,6.556286853060126,-3.3778637376934286
1778968224076439800,9.790439697265626,14.156342754095792,8.615134861099719,-2.459900166991353
1778968224086432800,9.800432861328124,13.846689944946766,8.493511637946963,-1.7383043870419264
1778968224096426800,9.8104267578125,11.209073496180773,6.666064740118384,1.4566203657925128
1778968224106419700,9.820419677734375,7.967288207972049,4.630622157585621,3.9113808318078513
1778968224116414000,9.8304140625,6.690698830637335,3.6280005280345677,5.165305957391857
1778968224126406700,9.84040673828125,5.872359417247772,3.547400220143795,6.660472034677863
1778968224136397300,9.850397216796875,4.862675594225526,3.2483167358040808,7.787562924462557
1778968224146390300,9.860390380859375,2.202701913831383,1.9788024114221334,8.510296768531203
1778968224156384300,9.87038427734375,0.37778877226412294,1.012778574167192,9.415954984411597
1778968224166377200,9.880377197265625,-0.22565569842681288,0.6887772139310836,11.009269885760546
1778968224176371500,9.890371337890626,-0.8832055610537528,0.6521304679267108,12.787442757332323
1778968224186364200,9.9003642578125,-1.4652823956757783,0.6766734460961074,14.233327794098853
1778968224196357400,9.910357421875,-1.9009078553587198,1.3113074933640658,15.356914475154875
1778968224206351400,9.920351318359375,-2.0069640915453433,2.18403812989369,16.227931585764885
1778968224216344300,9.93034423828125,-2.300270746049285,2.7497122573778032,16.847426589155194
1778968224226338000,9.940338134765625,-3.4679683715105054,3.2686674499154087,16.377365775907037
1778968224236331300,9.950331298828125,-5.57830749733448,2.970522999991476,13.277290805590152
1778968224246325200,9.9603251953125,-6.9025096897155045,2.8235341571748256,10.41708257601261
1778968224256318200,9.970318115234376,-7.493667656415701,4.142149781595171,8.470202658551932
1778968224266312400,9.9803125,-7.862311583715677,5.394765285885334,6.386369846859574
1778968224276305200,9.99030517578125,-7.425925076532364,6.48701165678203,4.212607757917047
1778968224286299100,10.000299072265625,-7.0318018400609485,7.393018247708678,2.0237381162136794
1778968224296292400,10.010292236328125,-7.147575168141723,7.613126979532837,1.0769354045182467
1778968224306286300,10.020286376953125,-5.249032288348674,7.645785971075296,0.9596627777904272
1778968224316279300,10.030279296875,-0.7093921319365502,8.412756431755422,-1.3237754914015532
1778968224326272300,10.040272216796875,1.330319798478484,8.035387930729986,-9.563256838700175
1778968224336266200,10.050266357421876,-6.951935691663622,3.521026884742081,-25.632257507181166
1778968224346259500,10.060259521484374,-16.36719392598271,-3.1195410105481742,-38.40334768012762
1778968224356253200,10.070253173828124,-16.561752036964894,-4.455397984887659,-35.837780568528174
1778968224366246100,10.08024609375,-10.471568199437856,-2.4718930948629976,-24.180875626564024
1778968224376240000,10.090240234375,-2.571649646383524,-2.273096177267283,-18.936679672330616
1778968224386233300,10.1002333984375,5.738467664152384,-1.3780733371697365,-17.970759587711093
1778968224396227300,10.110227294921875,11.49002043532729,-1.433326291705668,-15.553917056679724
1778968224406220300,10.12022021484375,15.623065996229649,-3.367036638730764,-13.042670733332633
1778968224416214300,10.13021435546875,18.510601793193818,-4.354869279950857,-9.253892198842763
1778968224426207200,10.140207275390624,16.341470286661387,-5.112926366335153,-5.3962184073030945
1778968224436200400,10.150200439453124,11.417537382918596,-5.34432338489294,-2.978093435245752
1778968224446194200,10.160194091796875,6.614203035455942,-4.892312023076415,-1.5428414361745117
1778968224456187100,10.170187255859375,2.34727799641788,-3.751233816732466,0.06715455086231231
1778968224466181400,10.180181396484375,-0.4225122956097126,-2.939299886471033,2.2134575549930333
1778968224476174300,10.19017431640625,-2.1147551887005567,-2.5779198126941916,4.295246878159046
1778968224486168000,10.20016796875,-2.6046570129722357,-2.1958166843622924,6.449988624811172
1778968224496161300,10.210161376953126,-2.6030963395267723,-1.5991227108448742,8.937856410658359
1778968224506155300,10.2201552734375,-2.3221686896026132,-1.2844213861346243,10.891546008133888
1778968224516148200,10.230148193359375,-1.538165845578909,-1.349472388846427,11.993098552036285
1778968224526142500,10.240142578125,-0.44401101071238513,-1.0355103381961583,12.669026805788278
1778968224536135200,10.25013525390625,0.5627969646126032,-0.5553488040311262,13.0700357101202
1778968224546128400,10.26012841796875,0.6813298935998231,-0.0518407349396497,13.362297824007271
1778968224556122400,10.270122314453126,0.4956969204165041,0.07499934607855975,13.857989922118186
1778968224566115300,10.280115234375,0.7605693614661693,0.2762983461556956,14.553189862573147
1778968224576109000,10.290109130859374,0.8832458930641413,0.6302013985827565,15.348583869183063
1778968224586102300,10.300102294921874,0.7546824953846633,0.9788401372734457,15.99593250966072
1778968224596096300,10.31009619140625,0.42738910786584017,1.5571626608632505,16.439107654070853
1778968224606089500,10.32008935546875,-0.09317965734824538,2.2564299968875945,16.35892060315609
1778968224616083500,10.33008349609375,-0.5334245935253799,2.7241186741769314,15.96391240054369
1778968224626076200,10.340076171875,-0.6574531242541969,2.709993118190765,14.506414082872867
1778968224636069400,10.3500693359375,0.11334580867290496,3.23500132715702,12.655012308961153
1778968224646063400,10.3600634765625,0.10121829463616012,2.681473418410122,10.41292779442072
1778968224656056000,10.37005615234375,-0.8194570192426442,0.7185075316105037,6.860161078807711
1778968224666050300,10.38005029296875,-1.604513171711564,1.4626444483876226,5.283930583250522
1778968224676043300,10.390043212890625,-4.017434145385026,1.1025219003912061,5.487385701915621
1778968224686037200,10.400037353515625,-4.10185664191246,1.7671537571683524,3.5701036348611113
1778968224696030500,10.410030517578125,0.3684569168278947,6.108790338319539,-4.24887500308454
1778968224706024200,10.420024169921875,7.291045481443405,5.170270301800966,-27.143531838703154
1778968224716017200,10.43001708984375,-0.003053542351722717,-8.74803409602642,-35.20407700704336
1778968224726010400,10.44001025390625,-6.416116750347614,-8.78460879970789,-34.65929091541767
1778968224736004400,10.45000439453125,-7.117650569999218,-5.015998023977875,-23.99716273472309
1778968224745997300,10.459997314453124,-4.930375504010915,-2.4677052877843377,-20.77976253070831
1778968224755991300,10.4699912109375,-2.4852561420440673,-2.281123124117404,-22.333587717711925
1778968224765984300,10.479984375,-1.1549369280874728,-1.1229004523575306,-18.98969697676897
1778968224775978200,10.489978271484375,-0.41518005302548405,1.582409914844483,-14.861401240742206
1778968224785971200,10.49997119140625,0.41810383151769637,3.153867350780964,-11.683698256343602
1778968224795965200,10.509965087890626,1.3511907370716332,3.2686294559925795,-9.132869279670714
1778968224805958100,10.519958251953126,2.979985532602668,3.1870667328104374,-7.312460025393962
1778968224815951400,10.529951416015624,4.723396887394785,2.178213223132491,-4.975830848762393
1778968224825945300,10.5399453125,5.94004471398592,0.8839699695549905,-2.7774089503377675
1778968224835938300,10.549938232421875,7.059764782741666,0.2371641307171434,-0.817490103083849
1778968224845932300,10.559932373046875,7.7430708717852825,0.6437830569505691,1.362899879565835
1778968224855925200,10.56992529296875,7.515179815521836,1.610425318364799,3.4854473295778035
1778968224865919200,10.579919189453125,7.503394685181975,2.4815105257749557,5.410689415726066
1778968224875912200,10.589912109375,6.838052122852206,2.9533418558269737,6.39510494197905
1778968224885905200,10.5999052734375,6.312801337301731,3.5419513070881363,7.034258585563301
1778968224895899400,10.6098994140625,5.766069372305274,3.755874336014688,7.728973957371712
1778968224905892400,10.619892333984374,5.089553089532256,3.7480771062672136,8.599405377048253
1778968224915886000,10.629885986328125,4.101274458110332,3.5224966650336977,9.507680497428774
1778968224925879300,10.63987939453125,2.89100142724812,3.1360368027970194,10.703374383318424
1778968224935873300,10.649873291015625,1.6370511672228574,2.7020921358078716,12.164603119689225
1778968224945866200,10.6598662109375,0.694941143388301,2.2964544026315212,13.790311639642715
1778968224955859200,10.669859130859376,0.17879472466111182,2.1257107363484797,15.228084681624173
1778968224965853200,10.679853271484374,-0.0870972686946392,2.5448762057483196,15.20125161975622
1778968224975846400,10.689846435546874,1.0217186903394757,2.555140410131216,15.410755955457686
1778968224985840400,10.69984033203125,5.995748481029271,-0.07188231003656984,15.871209566926956
1778968224995833000,10.7098330078125,6.501922810187936,-2.2044696541562674,15.03567878023982
1778968225005827000,10.7198271484375,-2.421416999340057,0.7291884270355105,14.735415730726718
1778968225015820300,10.7298203125,-6.540223022487759,2.5251982763320204,14.302026651793717
1778968225025813200,10.739813232421875,-9.465914654845,3.388514311045408,12.664887221765518
1778968225035807500,10.749807373046876,-10.196650019061565,3.9490614509046074,9.035248278874159
1778968225045800200,10.75980029296875,-9.80665,4.7778509466379875,7.121319613900781
1778968225055794200,10.769794189453124,-9.07834507780075,5.271939116683602,5.518042121464013
1778968225065787400,10.779787353515625,-7.137476383453607,4.647959661355614,1.7111790642291307
1778968225075781400,10.789781494140625,-4.937075293910503,3.6998835687234997,-16.019890892875193
1778968225085774000,10.799774169921875,-8.408352643838525,12.826991508388518,-38.49535376365185
1778968225095767300,10.809767333984375,-15.611269175451993,0.3262545459903776,-48.13789339790344
1778968225105761300,10.81976123046875,-13.313203830492496,-6.1504234944343565,-33.0042288752079
1778968225115754200,10.829754150390626,1.7618752322435378,-1.6398976426951586,-19.468831907832623
1778968225125748200,10.839748291015624,5.274314029121399,-0.2144061362683773,-17.907365850687025
1778968225135741400,10.849741455078124,5.395559066611528,2.444847705418616,-19.05123544131517
1778968225145735400,10.8597353515625,10.479140095996856,1.010701914023608,-16.73790355364084
1778968225155728600,10.869728759765625,14.704216290342806,-0.6786012723535298,-11.683694749212265
1778968225165721300,10.879721435546875,16.682861465376615,-1.8357988388493656,-7.182057283458113
1778968225175715300,10.88971533203125,14.852783050000667,-2.986614595353603,-4.157870790079236
1778968225185708500,10.89970849609375,10.802135201799869,-3.541601470737159,-1.7978472938567398
1778968225195702500,10.90970263671875,7.461130829948186,-3.1235452777534722,0.36794133198857304
1778968225205695700,10.91969580078125,4.514360753726959,-2.4545947540596127,2.1558377251952887
1778968225215689500,10.929689453125,2.14021973869428,-1.9015129816450178,3.7222675422281024
1778968225225682400,10.939682373046875,0.38045477660298344,-1.543598099760711,5.18581683050096
1778968225235675600,10.949675537109375,-1.0009642177328466,-0.876122032533586,6.957548270848393
1778968225245669600,10.959669677734375,-2.8534792135834692,-1.2914755424298345,8.236983685263992
1778968225255662300,10.969662353515625,-4.137626166690886,-1.0208926147788762,9.558125905552506
1778968225265656600,10.979656494140626,-4.828121582716703,-0.765661423908174,10.176437252116203
1778968225275649500,10.9896494140625,-4.760400922404229,-1.4478176122643052,9.774761992830037
1778968225285643500,10.9996435546875,-5.412193390548229,-1.8138054720975458,10.161945785427093
1778968225295636500,11.009636474609374,-6.0105824775457375,-1.6799577042743563,10.600354738348722
1778968225305629400,11.01962939453125,-5.752739350610971,-1.3736312630690632,10.783584815108776
1778968225315623400,11.02962353515625,-5.20892356532216,-1.3889561118423939,11.183888786041736
1778968225325616600,11.03961669921875,-4.249872781950235,-1.0037903810694813,11.722058089876175
1778968225335610600,11.049610595703125,-3.0833985608041283,-0.31915947316288945,12.093823364067077
1778968225345603600,11.059603515625,-2.1064520552575585,-0.35881015022359786,12.224580910789966
1778968225355596500,11.069596435546876,-0.25097148759961124,-2.079719238893688,12.58102937338352
1778968225365590500,11.079590576171874,0.6181610513728112,-4.6789624101236456,13.514718921005725
1778968225375583500,11.08958349609375,-2.589419111829996,-3.7522736811742186,13.759292232000828
1778968225385577500,11.099577392578125,-5.087335998004675,-2.2315707193106413,13.024855675178765
1778968225395570400,11.1095703125,-7.138579960781335,-1.3600924209296703,12.151618550431728
1778968225405563600,11.119563720703125,-9.22838483262062,-1.0521905471011996,10.729037232363224
1778968225415557600,11.1295576171875,-9.598381343573331,-0.9378579924132674,7.97696672142148
1778968225425550300,11.13955029296875,-8.796398606222867,0.752301445467025,5.691124313697219
1778968225435544600,11.149544677734376,-5.833853453242779,4.026303680539131,4.2347669827550645
1778968225445537500,11.15953759765625,-0.13970204680934548,7.690663808199763,1.013296752822399
1778968225455531500,11.169531494140625,2.494807229721546,5.807103978005051,-19.30829180178642
1778968225465524500,11.1795244140625,5.241148257100582,-4.745923776501417,-62.63930631148815
1778968225475517400,11.189517333984375,-0.9165817609548568,-4.380039961564541,-52.789130473494524
1778968225485511400,11.199511474609375,-2.5728736352205277,-0.6411280123971402,-19.673243888831138
1778968225495504600,11.209504638671875,1.958459296095371,-1.7806284480303525,-16.030812099862096
1778968225505498400,11.219498291015626,3.888000248481333,-1.451849205867946,-13.818492608988285
1778968225515491600,11.22949169921875,4.394680481335521,-1.39459557903409,-13.31403618966341
1778968225525484500,11.239484619140624,5.866081652152538,-0.525375873234868,-10.805409693425894
1778968225535478500,11.249478515625,8.593719148105382,0.6341644569948315,-7.14489455075562
1778968225545471500,11.259471435546875,9.939031348532438,1.6300132314100861,-3.861785903033614
1778968225555465500,11.269465576171875,10.546303999209403,2.279536585578322,-0.41669221115410326
1778968225565458400,11.27945849609375,10.346692111968993,2.207946974878013,2.1853525734931227
1778968225575451600,11.28945166015625,9.793310041433573,1.567860142096877,3.4695138473868368
1778968225585445400,11.2994453125,7.840987056136131,1.0524039706561714,4.218141426646709
1778968225595438600,11.3094384765625,5.449511606073379,1.031858683820814,4.705791672599315
1778968225605432600,11.3194326171875,3.5116394631937142,1.3341951786071062,5.407023878955841
1778968225615425500,11.329425537109374,1.440778653538227,1.6533496833339332,6.037700201573967
1778968225625418500,11.33941845703125,-0.5019967512130737,1.999212892896682,6.718855250063538
1778968225635412500,11.34941259765625,-1.7300481614805756,2.2479317792639133,7.8002821207821365
1778968225645405400,11.359405517578125,-2.2958676887847482,2.5156203006476163,9.017507455000281
1778968225655399700,11.369399658203125,-2.9117043157979845,2.7363153079271316,9.95127942020893
1778968225665392400,11.379392333984375,-3.716296651124954,2.9148803154855965,10.780337211489677
1778968225675385600,11.389385498046876,-4.414792125993967,3.1018358425095673,11.708318318337202
1778968225685379600,11.399379638671874,-4.828196401518583,3.338679143774509,12.714561060994862
1778968225695372500,11.40937255859375,-4.520916751241684,3.3233021264225244,13.35198802691698
1778968225705366500,11.419366455078125,-4.197919307351112,3.1368548411816355,13.722214839494228
1778968225715359500,11.429359375,-0.46416664064303037,-0.15982815838456152,14.80917304085493
1778968225725352400,11.4393525390625,5.562886640840769,-5.859473047667741,16.075040533167122
1778968225735346400,11.449346435546875,-9.118288965654372,-1.2753595432788132,14.830741898584366
1778968225745339600,11.459339599609375,-10.56591003243327,-0.35129677891880273,14.042090936493873
1778968225755333400,11.46933349609375,-8.780476229947805,0.6784732620596885,10.206975013720989
1778968225765326600,11.47932666015625,-8.515763801765441,1.8577797845110295,7.093008880695701
1778968225775319600,11.489319580078124,-9.977814375913143,2.2724548106238243,5.882762737840413
1778968225785313500,11.4993134765625,-11.040791982227564,2.837369790303707,2.437536944013834
1778968225795306500,11.509306396484375,-8.254483686119318,4.291418844303489,-6.739297149589658
1778968225805300500,11.519300537109375,-2.4352055784568187,6.26802403794229,-17.898693883931635
1778968225815293400,11.52929345703125,0.03576324116811156,10.79420791593194,-23.464155928218364
1778968225825286700,11.53928662109375,-1.927628250632435,11.091091259878873,-21.609348729777334
1778968225835280400,11.5492802734375,-1.0941723705232143,6.258803789654373,-25.085142680346966
1778968225845273600,11.559273681640626,-0.9209259276390075,-4.437565098816156,-28.614665883016585
1778968225855267600,11.569267578125,0.8038996768876909,-4.776990822677314,-18.342157782155276
1778968225865260500,11.579260498046875,4.192493482910097,-2.3897798981912435,-12.057289576917887
1778968225875253500,11.58925341796875,11.450270608741045,-0.9749706754289567,-14.190294123536347
1778968225885247500,11.59924755859375,12.708458652466534,-3.327890623256564,-14.179423185431956
1778968225895240400,11.609240478515625,18.888121100866794,-3.333409094417095,-1.983495537674427
1778968225905234700,11.619234619140625,18.640802875077725,-3.6651533238649368,0.3502390865594148
1778968225915227400,11.629227294921876,13.996860632669925,-7.16303986377716,0.00903086319565773
1778968225925220600,11.639220703125,9.812726689565181,-6.240145850935578,1.784935789835453
1778968225935214600,11.649214599609374,5.154744231367111,-5.479056849509477,3.7447710504591463
1778968225945207600,11.65920751953125,3.6684751617640257,-4.446860165905952,5.020212426802516
1778968225955200500,11.669200439453125,1.4960323387265204,-2.715948227202892,6.5675441601335995
1778968225965194500,11.679194580078125,-1.2328314841508865,-1.0373474904954434,7.7302704269230365
1778968225975187500,11.6891875,-2.4954239003151653,-0.4194302578158676,7.757439588877558
1778968225985181700,11.699181640625,-4.357228702558577,-0.6722286685816943,8.256619529104233
1778968225995174400,11.70917431640625,-5.675466725838184,-1.0147075694683938,8.97330649422407
1778968226005167400,11.71916748046875,-6.278603299623727,-1.091292285042256,10.015539418673514
1778968226015161600,11.72916162109375,-7.217825346931814,-1.3782552696079016,10.635123269391059
1778968226025154600,11.739154541015624,-7.738249150717258,-0.8840265220478176,11.909343579506873
1778968226035148500,11.7491484375,-4.514200594729185,-0.4462007393090054,14.121712170219421
1778968226045141500,11.7591416015625,-5.563085378283262,0.7675009873602539,14.779388143444061
1778968226055134500,11.769134521484375,-8.592430861860514,2.3972727381646632,13.12600485010147
1778968226065128400,11.77912841796875,-7.388222245603799,3.0435373827978967,12.363017906099557
1778968226075121400,11.789121337890625,-6.804091985583305,3.183843094588816,11.383308950102329
1778968226085114400,11.7991142578125,-6.018593934565782,2.0889929709345103,9.439509463000297
1778968226095108600,11.809108642578124,-4.881931498837471,-0.29316987638175485,6.713082511880994
1778968226105101600,11.8191015625,-3.34743382037729,-2.451409840413183,4.045120024690032
1778968226115095600,11.829095458984375,-2.7499498655259607,-4.395346251767873,0.7902677496373653
1778968226125088500,11.839088623046875,-2.6892686023309826,-3.352808499152958,-1.5592115562170743
1778968226135084300,11.849084228515625,-2.4276377735510466,0.5496181148920208,-1.396770000463724
1778968226145078500,11.85907861328125,-2.52396785775423,3.185452575612068,-2.1704344058245417
1778968226155071500,11.869071533203124,-2.344318562090397,3.97837405462861,-5.462999448677897
1778968226165065500,11.8790654296875,-2.4480264815852046,2.5745804391384124,-11.315506748986243
1778968226175058400,11.889058349609375,-3.0755937322720883,-0.8549085641130805,-18.86507924797535
1778968226185051400,11.899051513671875,-6.319775852489471,-3.290405818992853,-21.62034241747856
1778968226195045400,11.90904541015625,-7.726955018764734,-5.027036719864607,-18.33129619640112
1778968226205038600,11.91903857421875,-3.63978332028687,-5.135121247008443,-14.476340431648492
1778968226215031300,11.92903125,1.9227160748019814,-4.230791649383306,-13.971305335652827
1778968226225025500,11.939025634765626,5.909997950768471,-3.2768568938508627,-13.348134858620165
1778968226235018500,11.9490185546875,9.016120384556055,-2.3982228784963486,-10.8678378002882
1778968226245012500,11.959012451171875,9.292733678412437,-1.2802321177512406,-9.21781141615808
1778968226255005400,11.96900537109375,6.27690234092474,-0.6840024007447063,-8.788830801317095
1778968226264998400,11.978998291015625,3.7532337583780286,-0.546813724995777,-7.3939283482909195
1778968226274992400,11.988992431640625,4.413943692471086,0.08216162979020737,-5.57049302419126
1778968226284985600,11.998985595703125,5.100769480073452,0.6667213764023036,-3.2858255054652687
1778968226294978300,12.008978271484375,4.811355156832933,0.9068399730108678,-0.7810819881409407
1778968226304972300,12.01897216796875,4.693942244851589,1.1145768606483937,0.8424813364773989
1778968226314965500,12.028965576171874,5.042554606992006,1.3124905656687915,2.4802783536314963
1778968226324959500,12.03895947265625,5.631110866761207,1.6332925453417002,4.9520478221148245
1778968226334952400,12.048952392578125,5.57692685663104,1.8328344360858202,6.806984784415364
1778968226344945400,12.0589453125,3.9796889366194605,2.217927540013939,7.451546424522996
1778968226354939400,12.068939453125,1.6462214388892054,2.598771462064981,7.581977808031439
1778968226364932600,12.0789326171875,-0.6400245811998844,2.837107047714293,8.364210719773173
1778968226374925300,12.08892529296875,-2.6269024547889828,3.6849686159253117,9.137064977794886
1778968226384919300,12.098919189453126,-4.303471101146936,4.811348434831202,9.577398761299252
1778968226394912500,12.10891259765625,-5.777964977282285,5.387676204407215,10.861714348971843
1778968226404905200,12.1189052734375,-5.717943931561708,5.700815686628222,12.566059767788648
1778968226414899500,12.1288994140625,-4.047391476753353,5.480777097430825,12.606046910262107
1778968226424892400,12.138892333984375,-3.0624501730605957,4.9254421392619605,12.054246555960178
1778968226434886400,12.148886474609375,-2.7751334066212174,4.400226425024867,11.40432485012412
1778968226444879600,12.158879638671875,-3.300113850797713,4.460530671600997,10.133832620620726
1778968226454872300,12.168872314453125,-4.443150497733057,4.909913730740547,8.91310541576147
1778968226464866300,12.1788662109375,-5.471248221585154,5.253956300747395,7.932069595074653
1778968226474859500,12.188859619140626,-6.09789835742712,5.702083514606953,6.736579122802615
1778968226484852200,12.198852294921876,-6.358844711074233,6.393827761650085,5.7041784410595895
1778968226494846500,12.208846435546874,-5.921124909460544,6.685089758583903,4.841598319405317
1778968226504839400,12.21883935546875,-4.909907300999761,6.490427018183469,4.090380139130354
1778968226514832400,12.228832275390625,-2.7047964263305064,7.264532153049111,1.7463947545170784
1778968226524826600,12.23882666015625,0.2110948197633028,7.393157363918423,-4.612756246027351
1778968226534819300,12.2488193359375,1.7447545860946176,6.016071138089895,-13.612614647090433
1778968226544813300,12.258813232421875,-0.9763429866954684,3.0864664239421487,-20.804506511342524
1778968226554806500,12.268806640625,-5.627563987934589,-0.7300498661704361,-25.336316412520407
1778968226564799500,12.278799560546876,-7.095853748732805,0.5194064799690619,-22.824995270371435
1778968226574793200,12.288793212890624,-5.713097076052427,2.5705311637476087,-19.116402617752552
1778968226584786400,12.298786376953124,-2.679655555333197,3.120725544157624,-16.013337233448027
1778968226594779400,12.308779296875,2.746758376008272,3.3004140027880666,-12.85871234229803
1778968226604773600,12.318773681640625,12.806860574507713,-1.7571970112994313,-13.108272794055939
1778968226614766300,12.328766357421875,15.374149687594175,-4.340668905162811,-11.44367720182538
1778968226624759600,12.338759521484375,21.687674662995338,-3.800543206563592,-7.575988212227821
1778968226634753500,12.34875341796875,21.899994056117535,-4.665575397545099,-4.091297838497161
1778968226644746500,12.35874658203125,17.030608735120296,-2.6987054159790276,-2.164471698027849
1778968226654740200,12.368740234375,10.19541083265543,-1.8789388923957944,0.4484451937675476
1778968226664733400,12.3787333984375,3.367751509001851,-1.8402303915560245,3.167212570044398
1778968226674726400,12.388726318359375,-0.8538383045330643,-1.656613653565943,4.0777942138016225
1778968226684720600,12.398720703125,-4.308080640769004,-1.36390671852082,2.870007154536247
1778968226694713300,12.40871337890625,-7.920357529971003,-2.002304429171234,2.8245617466568946
1778968226704706300,12.418706298828125,-9.727202953797578,-3.2050545171827074,3.613779110458493
1778968226714700500,12.428700439453126,-9.882427417778969,-4.147949700045586,5.153078928503394
1778968226724693500,12.438693603515626,-9.622615036597848,-4.082411644469201,6.631921062976121
1778968226734686500,12.4486865234375,-9.103512836804985,-4.110664510007203,8.157562942546605
1778968226744680400,12.458680419921874,-8.238689320138096,-4.068843722365797,9.57173299062252
1778968226754673400,12.46867333984375,-8.888703964954614,-2.899746166978776,10.990787303608656
1778968226764666400,12.478666259765625,-10.070417840808629,-1.4912062337443233,11.550980223202705
1778968226774660400,12.488660400390625,-10.120437716996669,-1.2747627464294433,11.52387009795904
1778968226784653300,12.4986533203125,-9.162594555848836,-1.818036826056987,11.109116745913028
1778968226794646500,12.508646484375,-7.424797533807158,-1.9553350265949963,10.619696567678451
1778968226804640500,12.518640625,-5.95561520808339,-1.7673212226897477,9.994029013133048
1778968226814633500,12.528633544921876,-4.829872518037259,-1.6204668199077248,9.060216715914011
1778968226824626400,12.53862646484375,-3.73945803874284,-1.6178068069182336,7.682897265851497
1778968226834620400,12.548620361328124,-1.8617451810106633,-2.057359961438924,5.581954913926125
1778968226844613400,12.55861328125,2.246914711175859,-2.493044603963196,3.7882530493110416
1778968226854607400,12.568607421875,3.332269568993151,-1.5996955422967671,3.5905940497040745
1778968226864600300,12.578600341796875,4.497389745181799,0.42283842229153956,4.032847987616062
1778968226874593500,12.588593505859375,-0.26749007620215415,1.7357085253298281,2.8666262799263
1778968226884587500,12.59858740234375,-3.7201992115214466,-0.10071060084234923,-4.914373632758855
1778968226894580500,12.60858056640625,-4.2989290738031265,-2.458260583090782,-11.032060394239425
1778968226904573400,12.618573486328126,-7.687025159436464,-2.4872864788278934,-11.933194410693645
1778968226914567400,12.6285673828125,-9.643976389056444,-3.5124791288882493,-14.862004467332362
1778968226924560600,12.638560546875,-11.667275529330968,-6.444152758264541,-19.86921771183014
1778968226934553300,12.64855322265625,-7.060472638750076,-6.521952621781826,-20.421735859012603
1778968226944547300,12.65854736328125,-3.9953883177936076,-4.295436263251305,-19.8231480345726
1778968226954540500,12.66854052734375,-2.55039526143074,-0.9512969543747604,-18.52225014541149
1778968226964533200,12.678533203125,-1.9462217458128928,0.9444159626893699,-15.831948400640487
1778968226974527200,12.68852734375,0.6446037256836891,2.4730212221100927,-14.175219304001331
1778968226984520400,12.6985205078125,5.397613076531886,2.6913725888729094,-13.05988841011524
1778968226994513400,12.708513427734376,8.339103751045466,4.089653578421474,-10.381266581743954
1778968227004507600,12.718507568359374,8.383993863129616,4.34306632169336,-8.229428739839792
1778968227014500400,12.728500244140625,10.403346311604976,3.573550268183648,-6.728914287263154
1778968227024493600,12.73849365234375,12.264143690371514,3.450055405940115,-4.159098286047578
1778968227034487600,12.748487548828125,12.519004586625098,2.8352649269789456,-1.6403244898051021
1778968227044480300,12.758480224609375,11.324850915914773,2.162005746305734,1.167010812240839
