time,seconds_elapsed,z,y,x
1778968214361977600,0.0759775390625,0.5760565996170044,-0.2813892662525177,-0.1519077718257904
1778968214371971600,0.0859716796875,0.48599085211753845,-0.15585947036743164,-0.20139233767986298
1778968214381965600,0.095965576171875,0.3850195109844208,-0.007687588222324848,-0.1876075565814972
1778968214391958800,0.105958740234375,0.2965015769004822,0.15724197030067444,-0.12374962121248245
1778968214401952800,0.115952880859375,0.24520562589168549,0.3391246795654297,-0.027606314048171043
1778968214411946500,0.125946533203125,0.23572370409965515,0.5065150856971741,0.08402135223150253
1778968214421940500,0.1359404296875,0.258372038602829,0.6074481010437012,0.20090588927268982
1778968214431933700,0.14593359375,0.3039112091064453,0.6408515572547913,0.30798327922821045
1778968214441927700,0.155927734375,0.3470965027809143,0.6322362422943115,0.3836820423603058
1778968214451921700,0.165921630859375,0.3701208233833313,0.5789636969566345,0.40722736716270447
1778968214461915600,0.17591552734375,0.3764016032218933,0.48859602212905884,0.3793909251689911
1778968214471908600,0.18590869140625,0.3923678696155548,0.40715256333351135,0.3163739740848541
1778968214481902600,0.195902587890625,0.4192306399345398,0.35379424691200256,0.21981282532215118
1778968214491896600,0.205896484375,0.45175760984420776,0.34695670008659363,0.09642335772514343
1778968214501890600,0.215890625,0.47633564472198486,0.37466636300086975,-0.0346640944480896
1778968214511883800,0.2258837890625,0.46996238827705383,0.4168590009212494,-0.14790840446949005
1778968214521877500,0.23587744140625,0.4385959208011627,0.418527215719223,-0.21645550429821014
1778968214531871500,0.24587158203125,0.3888399600982666,0.39291664958000183,-0.22875507175922394
1778968214541865500,0.255865478515625,0.3291902244091034,0.3593834638595581,-0.1853543370962143
1778968214551858700,0.265858642578125,0.26045286655426025,0.29001015424728394,-0.09643559157848358
1778968214561852700,0.275852783203125,0.17955614626407623,0.18650372326374054,0.005133377388119698
1778968214571846700,0.2858466796875,0.08266233652830124,0.06263256072998047,0.10219796001911163
1778968214581839600,0.295839599609375,-0.025989040732383728,-0.07842549681663513,0.20086035132408142
1778968214591833600,0.30583349609375,-0.11491627246141434,-0.18956907093524933,0.30392926931381226
1778968214601827600,0.31582763671875,-0.18247373402118683,-0.30486953258514404,0.38973256945610046
1778968214611821600,0.325821533203125,-0.3479008972644806,-0.4999872148036957,0.4646260738372803
1778968214621814800,0.335814697265625,-0.4848656952381134,-0.5470620393753052,0.5458295941352844
1778968214631808800,0.345808837890625,-0.4018467664718628,-0.24563747644424438,0.6404094696044922
1778968214641802500,0.355802490234375,-0.23627379536628723,-0.2655472755432129,0.5852276682853699
1778968214651796500,0.36579638671875,-0.10257323086261749,-0.3668220639228821,0.41006848216056824
1778968214661790700,0.375790771484375,-0.017744358628988266,-0.2921670079231262,0.22538703680038452
1778968214671783700,0.38578369140625,0.04755587875843048,-0.1829017549753189,0.026412833482027054
1778968214681777700,0.395777587890625,0.06672318279743195,-0.1773911416530609,-0.1732661873102188
1778968214691771600,0.405771728515625,0.05606626719236374,-0.24036912620067596,-0.317313015460968
1778968214701764600,0.4157646484375,0.01564827375113964,-0.28380393981933594,-0.3951404392719269
1778968214711758600,0.425758544921875,-0.040809765458106995,-0.2949097156524658,-0.3999415636062622
1778968214721752600,0.435752685546875,-0.09213047474622726,-0.2559945285320282,-0.3477811813354492
1778968214731746600,0.44574658203125,-0.12513156235218048,-0.2702053189277649,-0.2810610830783844
1778968214741739800,0.45573974609375,-0.14423255622386932,-0.30076295137405396,-0.2136724591255188
1778968214751733500,0.4657333984375,-0.14346809685230255,-0.40898388624191284,-0.1738324612379074
1778968214761727500,0.4757275390625,-0.12131831794977188,-0.527765154838562,-0.1664174199104309
1778968214771721700,0.4857216796875,-0.08764465898275375,-0.6136374473571777,-0.19378988444805145
1778968214781715700,0.4957158203125,-0.07212747633457184,-0.6920709609985352,-0.2749726176261902
1778968214791708700,0.505708740234375,-0.09257616102695465,-0.7643333077430725,-0.4097346067428589
1778968214801702700,0.51570263671875,-0.14985410869121552,-0.7357556819915771,-0.5890125036239624
1778968214811696600,0.525696533203125,-0.23953968286514282,-0.5947473645210266,-0.8028960227966309
1778968214821690600,0.535690673828125,-0.33392372727394104,-0.409645676612854,-1.0260788202285767
1778968214831683600,0.54568359375,-0.41504430770874023,-0.2691631317138672,-1.182215929031372
1778968214841677600,0.555677490234375,-0.45934250950813293,-0.14439883828163147,-1.1909846067428589
1778968214851671800,0.565671875,-0.46428829431533813,0.030726470053195953,-1.0208323001861572
1778968214861665800,0.575665771484375,-0.47575026750564575,0.22867123782634735,-0.7233673930168152
1778968214871658500,0.585658447265625,-0.5141373872756958,0.3939002454280853,-0.4078288972377777
1778968214881652500,0.595652587890625,-0.5521121621131897,0.4561878442764282,-0.0962933674454689
1778968214891646700,0.605646728515625,-0.5738468170166016,0.44406265020370483,0.1916310042142868
1778968214901640700,0.615640625,-0.5931997895240784,0.33549755811691284,0.4040689766407013
1778968214911633700,0.625633544921875,-0.6284935474395752,0.1257343888282776,0.5438947081565857
1778968214921627600,0.635627685546875,-0.6797178387641907,-0.09004665166139603,0.6139951944351196
1778968214931621600,0.64562158203125,-0.7301107048988342,-0.2754248380661011,0.6004021167755127
1778968214941615600,0.65561572265625,-0.7527558207511902,-0.3716443181037903,0.5193858742713928
1778968214951608600,0.665608642578125,-0.7511471509933472,-0.33942630887031555,0.39911729097366333
1778968214961602600,0.6756025390625,-0.7543504238128662,-0.24017587304115295,0.26785939931869507
1778968214971596800,0.6855966796875,-0.7539783716201782,-0.16667786240577698,0.12333735078573227
1778968214981590800,0.6955908203125,-0.7397118210792542,-0.12479725480079651,-0.014259123243391514
1778968214991583500,0.70558349609375,-0.7049554586410522,-0.1029152199625969,-0.12654529511928558
1778968215001577700,0.71557763671875,-0.6601341962814331,-0.09127720445394516,-0.2035905420780182
1778968215011571700,0.72557177734375,-0.6068838834762573,-0.09482479840517044,-0.24877536296844482
1778968215021565700,0.735565673828125,-0.5591097474098206,-0.10889668017625809,-0.2559158205986023
1778968215031558700,0.74555859375,-0.5054253339767456,-0.11513735353946686,-0.2249537855386734
1778968215041552600,0.755552734375,-0.4557621479034424,-0.11183902621269226,-0.16185098886489868
1778968215051546600,0.765546630859375,-0.4171382486820221,-0.0756496787071228,-0.08705488592386246
1778968215061540600,0.77554052734375,-0.4065239429473877,-0.03627324849367142,-0.028274396434426308
1778968215071533600,0.785533447265625,-0.4170302450656891,-0.05951518937945366,0.006786410231143236
1778968215081527800,0.79552783203125,-0.4336305260658264,-0.1120537668466568,0.025713229551911354
1778968215091521800,0.805521728515625,-0.4393916130065918,-0.11976885050535202,0.028211146593093872
1778968215101515500,0.815515625,-0.4340860843658447,-0.09189461171627045,0.01761496067047119
1778968215111508500,0.825508544921875,-0.4145951271057129,-0.05636502802371979,-0.016505103558301926
1778968215121502700,0.835502685546875,-0.36195749044418335,-0.027293957769870758,-0.07421660423278809
1778968215131496400,0.845496337890625,-0.2639042139053345,-0.011448326520621777,-0.14915022253990173
1778968215141490400,0.855490478515625,-0.13914896547794342,-0.004940359853208065,-0.2247437834739685
1778968215151483400,0.8654833984375,-0.03527213633060455,-0.03565770760178566,-0.3025440275669098
1778968215161477400,0.875477294921875,0.05238234996795654,-0.14494158327579498,-0.38414064049720764
1778968215171471400,0.885471435546875,0.150021031498909,-0.14711198210716248,-0.4532551169395447
1778968215181465300,0.89546533203125,0.24859367311000824,-0.07042119652032852,-0.547673761844635
1778968215191458600,0.90545849609375,0.3150266408920288,-0.016298655420541763,-0.6684147119522095
1778968215201452500,0.91545263671875,0.3540022671222687,0.014318907633423805,-0.8011333346366882
1778968215211446300,0.9254462890625,0.4450995922088623,-0.019281310960650444,-0.9648431539535522
1778968215221440300,0.935440185546875,0.5610517859458923,-0.005278675351291895,-1.198208212852478
1778968215231433500,0.94543359375,0.7345208525657654,0.027200350537896156,-1.5334841012954712
1778968215241427500,0.955427490234375,1.0114145278930664,-0.06512372195720673,-1.9159936904907227
1778968215251421400,0.96542138671875,1.3288805484771729,-0.24219322204589844,-2.2671592235565186
1778968215261415400,0.97541552734375,1.6721618175506592,-0.4711472988128662,-2.5515549182891846
1778968215271408400,0.985408447265625,2.0293967723846436,-0.6834827661514282,-2.7432663440704346
1778968215281402400,0.99540234375,2.3215649127960205,-0.4697030484676361,-2.8139612674713135
1778968215291396400,1.005396240234375,2.458221912384033,-0.03110361099243164,-2.7495737075805664
1778968215301390300,1.015390380859375,2.4297327995300293,0.2524047791957855,-2.56740665435791
1778968215311383600,1.025383544921875,2.300992012023926,0.43819740414619446,-2.2931830883026123
1778968215321377300,1.035377197265625,2.153163194656372,0.44491520524024963,-1.89693284034729
1778968215331371300,1.045371337890625,2.052584171295166,0.3478551506996155,-1.3786545991897583
1778968215341365200,1.055365234375,1.9110206365585327,0.21605078876018524,-0.712916910648346
1778968215351358500,1.0653583984375,1.5582695007324219,0.19605275988578796,-0.038685668259859085
1778968215361352400,1.0753525390625,0.9358254075050354,0.08229342848062515,0.4975663125514984
1778968215371346400,1.085346435546875,0.23499372601509094,-0.4121445417404175,0.7886675596237183
1778968215381340400,1.09534033203125,-0.30391448736190796,-0.8383978605270386,0.9347869157791138
1778968215391333400,1.10533349609375,-0.6182050108909607,-0.8167076706886292,1.0786542892456055
1778968215401327400,1.115327392578125,-0.7813795804977417,-0.5820587277412415,1.188836932182312
1778968215411321300,1.1253212890625,-0.8740878701210022,-0.3057267367839813,1.2390331029891968
1778968215421315300,1.1353154296875,-0.9026744961738586,-0.07050276547670364,1.2638956308364868
1778968215431308500,1.14530859375,-0.8779592514038086,-0.023566866293549538,1.2663211822509766
1778968215441302300,1.15530224609375,-0.8120601773262024,-0.14433535933494568,1.2523672580718994
1778968215451296300,1.165296142578125,-0.7215206027030945,-0.3775552213191986,1.2439113855361938
1778968215461290200,1.175290283203125,-0.6239109635353088,-0.6832166314125061,1.273537278175354
1778968215471283500,1.185283447265625,-0.5094344019889832,-0.9762784838676453,1.354767918586731
1778968215481277400,1.19527734375,-0.3817738890647888,-1.1688306331634521,1.4769631624221802
1778968215491271400,1.205271484375,-0.2757583260536194,-1.2425357103347778,1.6029361486434937
1778968215501265400,1.215265380859375,-0.2375427633523941,-1.2223085165023804,1.6736550331115723
1778968215511258400,1.22525830078125,-0.2881903350353241,-1.0553789138793945,1.628806471824646
1778968215521252400,1.23525244140625,-0.3653804659843445,-0.7967175245285034,1.4488368034362793
1778968215531246300,1.245246337890625,-0.40510421991348267,-0.5270491242408752,1.181105375289917
1778968215541240600,1.255240478515625,-0.3646180331707001,-0.21940019726753235,0.9057984352111816
1778968215551233300,1.2652333984375,-0.2478276640176773,0.05368388816714287,0.6080429553985596
1778968215561227300,1.275227294921875,-0.14048390090465546,0.19545593857765198,0.2698315680027008
1778968215571221200,1.28522119140625,-0.08495333790779114,0.12234284728765488,-0.05717248469591141
1778968215581215500,1.295215576171875,-0.04633085057139397,0.0411800779402256,-0.2940603792667389
1778968215591208400,1.30520849609375,-0.0008922703564167023,0.04246336594223976,-0.402267187833786
1778968215601202400,1.315202392578125,0.05934097617864609,0.15160955488681793,-0.3392552137374878
1778968215611196200,1.325196044921875,0.11792826652526855,0.3144521117210388,-0.1385890692472458
1778968215621190400,1.3351904296875,0.15393394231796265,0.31241878867149353,0.12698881328105927
1778968215631183400,1.345183349609375,0.14415410161018372,0.17531639337539673,0.40871715545654297
1778968215641177300,1.35517724609375,0.12805502116680145,0.22354598343372345,0.6055021286010742
1778968215651171300,1.36517138671875,0.15933017432689667,0.39596816897392273,0.6125380396842957
1778968215661165600,1.37516552734375,0.19582372903823853,0.42781850695610046,0.43113282322883606
1778968215671158300,1.385158203125,0.19801947474479675,0.3411385715007782,0.12566421926021576
1778968215681152300,1.39515234375,0.15328475832939148,0.26056408882141113,-0.21101127564907074
1778968215691146500,1.405146484375,0.11402221769094467,0.16746291518211365,-0.4971376359462738
1778968215701140500,1.415140380859375,0.1311362236738205,0.07969844341278076,-0.678267240524292
1778968215711133400,1.425133544921875,0.1926180124282837,0.05185207352042198,-0.7262192964553833
1778968215721127200,1.435127197265625,0.21017836034297943,0.1397680789232254,-0.5651305317878723
1778968215731121400,1.445121337890625,0.33155980706214905,0.18590281903743744,-0.10542534291744232
1778968215741115400,1.455115478515625,0.5294712781906128,0.2212698757648468,0.5597854256629944
1778968215751109400,1.465109375,0.6743677258491516,0.22397014498710632,1.3159271478652954
1778968215761102300,1.475102294921875,0.6924489736557007,-0.02487882785499096,1.8709269762039185
1778968215771096600,1.4850966796875,0.655390739440918,-0.46525052189826965,2.025717258453369
1778968215781090600,1.495090576171875,0.5156897902488708,-0.8728652000427246,1.5415905714035034
1778968215791083300,1.505083251953125,0.3013353943824768,-0.9180929064750671,0.5876639485359192
1778968215801077200,1.5150771484375,-0.03295258432626724,-0.48232707381248474,-0.2819505035877228
1778968215811071500,1.525071533203125,-0.38963666558265686,-0.3182814121246338,-0.9002827405929565
1778968215821065500,1.5350654296875,-0.6861178874969482,-0.5185458064079285,-1.169984221458435
1778968215831059500,1.5450595703125,-0.7327604293823242,-0.760246217250824,-1.1487369537353516
1778968215841052400,1.555052490234375,-0.6210455894470215,-0.7492092847824097,-1.2440671920776367
1778968215851046400,1.56504638671875,-0.5083205699920654,-0.7701283097267151,-1.647531509399414
1778968215861040400,1.575040283203125,-0.40025779604911804,-0.98210608959198,-2.1764650344848633
1778968215871034400,1.585034423828125,-0.37322360277175903,-1.2007471323013306,-2.657557487487793
1778968215881027600,1.595027587890625,-0.44092249870300293,-1.25216805934906,-3.0398685932159424
1778968215891647200,1.605647216796875,-0.4724684953689575,-0.5170593857765198,-3.094169855117798
1778968215901640400,1.615640380859375,-0.22723209857940674,-0.07405320554971695,-2.764253616333008
1778968215911634400,1.625634521484375,0.20474940538406372,0.1929362267255783,-2.1751255989074707
1778968215921628400,1.63562841796875,0.5520610213279724,0.44366326928138733,-1.52403724193573
1778968215931622400,1.645622314453125,0.6204246282577515,0.3501250445842743,-1.1072998046875
1778968215941616400,1.655616455078125,0.4531453549861908,0.15538299083709717,-0.8858070969581604
1778968215951609300,1.665609375,0.23354202508926392,-0.03889806568622589,-0.703289270401001
1778968215961603300,1.675603271484375,0.14305686950683594,-0.19077147543430328,-0.4533899426460266
1778968215971597300,1.685597412109375,0.12969133257865906,-0.3835849463939667,-0.23248161375522614
1778968215981591600,1.695591552734375,0.04615996032953262,-0.41888514161109924,-0.057842157781124115
1778968215991584300,1.705584228515625,-0.09528836607933044,-0.36002078652381897,0.06024876981973648
1778968216001578200,1.715578125,-0.2232937514781952,-0.3343676030635834,0.08028639853000641
1778968216011572500,1.725572509765625,-0.34754329919815063,-0.2942761182785034,-0.03281660005450249
1778968216021566500,1.73556640625,-0.48071202635765076,-0.08752826601266861,-0.17205040156841278
1778968216031559400,1.745559326171875,-0.5901265740394592,0.13266827166080475,-0.2601274847984314
1778968216041553400,1.755553466796875,-0.6594760417938232,0.2514335513114929,-0.2875199615955353
1778968216051547400,1.76554736328125,-0.7033975124359131,0.2754107713699341,-0.2630419135093689
1778968216061541400,1.775541259765625,-0.7203008532524109,0.08606109768152237,-0.22565004229545593
1778968216071534300,1.785534423828125,-0.805161714553833,-0.26187780499458313,-0.22995401918888092
1778968216081528300,1.7955283203125,-0.9395956993103027,-0.34186503291130066,-0.20327846705913544
1778968216091522600,1.8055224609375,-1.1016942262649536,-0.34977951645851135,-0.18505063652992249
1778968216101516500,1.8155166015625,-1.2957947254180908,-0.3736225366592407,-0.22454585134983063
1778968216111509200,1.82550927734375,-1.5003865957260132,-0.44376593828201294,-0.32279613614082336
1778968216121503200,1.835503173828125,-1.6716680526733398,-0.5326915383338928,-0.450403094291687
1778968216131497500,1.84549755859375,-1.7771260738372803,-0.6164052486419678,-0.5735957026481628
1778968216141491500,1.855491455078125,-1.8268424272537231,-0.6384996771812439,-0.6699389815330505
1778968216151484400,1.865484375,-1.8386609554290771,-0.5354273915290833,-0.7401942610740662
1778968216161478400,1.875478515625,-1.803918719291687,-0.28679922223091125,-0.7713814973831177
1778968216171472600,1.88547265625,-1.7308366298675537,0.0068216631188988686,-0.7715786099433899
1778968216181466400,1.89546630859375,-1.6538007259368896,0.20624849200248718,-0.7938162684440613
1778968216191459300,1.905459228515625,-1.601070761680603,0.23399116098880768,-0.8422426581382751
1778968216201453600,1.91545361328125,-1.56206476688385,0.11265169084072113,-0.9007896184921265
1778968216211447600,1.925447509765625,-1.4578473567962646,0.0595661960542202,-0.931019127368927
1778968216221441500,1.935441650390625,-1.2580021619796753,0.03494340553879738,-0.9072128534317017
1778968216231434200,1.945434326171875,-1.0382918119430542,0.01069727260619402,-0.8259156942367554
1778968216241428500,1.955428466796875,-0.8323530554771423,0.0298728309571743,-0.6918857097625732
1778968216251422500,1.96542236328125,-0.6588383913040161,0.0544043630361557,-0.5222669243812561
1778968216261416400,1.97541650390625,-0.5246289372444153,0.1599970906972885,-0.37320205569267273
1778968216271409400,1.985409423828125,-0.39831241965293884,0.35141241550445557,-0.29534032940864563
1778968216281403600,1.995403564453125,-0.23444172739982605,0.5714979767799377,-0.28935036063194275
1778968216291397400,2.0053974609375,0.023172639310359955,0.7377843260765076,-0.30737587809562683
1778968216301391400,2.015391357421875,0.34886178374290466,0.854083240032196,-0.2945639193058014
1778968216311384300,2.02538427734375,0.6020947694778442,0.8244116306304932,-0.25391364097595215
1778968216321378600,2.035378662109375,0.7082926034927368,0.7564957141876221,-0.2201026827096939
1778968216331372500,2.04537255859375,0.7104563117027283,0.821539580821991,-0.13499103486537933
1778968216341366500,2.055366455078125,0.6932320594787598,0.9983484745025635,0.044081784784793854
1778968216351359500,2.065359375,0.7036604881286621,1.240953803062439,0.25081026554107666
1778968216361353500,2.075353515625,0.7326018810272217,1.3188248872756958,0.42385873198509216
1778968216371347500,2.085347412109375,0.6679063439369202,0.9575654864311218,0.47393086552619934
1778968216381341400,2.095341552734375,0.5150126814842224,0.6888192296028137,0.44048982858657837
1778968216391334700,2.105334716796875,0.3513857424259186,0.5268167853355408,0.3469564616680145
1778968216401328400,2.115328369140625,0.2981472909450531,0.40874335169792175,0.277327299118042
1778968216411322400,2.125322265625,0.31351137161254883,0.2551610767841339,0.20261289179325104
1778968216421316400,2.13531640625,0.37574708461761475,0.3670921325683594,0.15124504268169403
1778968216431310300,2.145310302734375,0.48800593614578247,0.6490985155105591,0.1369120180606842
1778968216441303600,2.155303466796875,0.6608439683914185,0.799804151058197,0.18345127999782562
1778968216451297500,2.165297607421875,0.8569931983947754,0.9596942067146301,0.3159184157848358
1778968216461291300,2.175291259765625,1.0074743032455444,1.1554967164993286,0.48367413878440857
1778968216471284500,2.185284423828125,1.0883852243423462,1.1775280237197876,0.6261982917785645
1778968216481278500,2.195278564453125,1.0978764295578003,0.9948799014091492,0.7449678182601929
1778968216491272400,2.2052724609375,0.9711199402809143,0.43251022696495056,0.7915390133857727
1778968216501266400,2.215266357421875,0.7720321416854858,0.0022520392667502165,0.8186449408531189
1778968216511260400,2.225260498046875,0.672497570514679,-0.19265131652355194,0.7743769884109497
1778968216521253400,2.23525341796875,0.710742175579071,-0.23908911645412445,0.627537190914154
1778968216531247400,2.245247314453125,0.7416301369667053,-0.33759793639183044,0.46158087253570557
1778968216541241300,2.255241455078125,0.8393396139144897,-0.32214123010635376,0.3830977976322174
1778968216551235300,2.2652353515625,0.9785639643669128,-0.22361473739147186,0.3965224623680115
1778968216561228500,2.275228515625,1.082646131515503,-0.13481083512306213,0.48301100730895996
1778968216571222500,2.285222412109375,1.2082370519638062,0.0030421996489167213,0.534458577632904
1778968216581216300,2.29521630859375,1.2644591331481934,0.08466728776693344,0.5043483376502991
1778968216591209500,2.30520947265625,1.2664453983306885,0.29988354444503784,0.37801098823547363
1778968216601203500,2.315203369140625,1.2878996133804321,0.5948405861854553,0.18236958980560303
1778968216611197400,2.325197509765625,1.3074707984924316,0.7417027354240417,-0.013981355354189873
1778968216621191400,2.33519140625,1.2381396293640137,0.4397473633289337,-0.15619255602359772
1778968216631185400,2.345185302734375,1.1096994876861572,-0.1735769510269165,-0.23930275440216064
1778968216641178400,2.355178466796875,0.9143875241279602,-0.7349201440811157,-0.22469505667686462
1778968216651172400,2.36517236328125,0.7031579613685608,-1.1489102840423584,-0.10277435928583145
1778968216661166300,2.375166259765625,0.5425973534584045,-1.369493007659912,0.004784326534718275
1778968216671160600,2.38516064453125,0.5313056111335754,-1.0157322883605957,-0.06402896344661713
1778968216681153500,2.395153564453125,0.7344725728034973,-0.34276723861694336,-0.3663158714771271
1778968216691147300,2.405147216796875,0.9777383208274841,0.250410795211792,-0.7415135502815247
1778968216701141200,2.415141357421875,1.0932177305221558,0.6290683746337891,-1.0173571109771729
1778968216711134500,2.425134521484375,1.063070297241211,0.6745005249977112,-1.1443825960159302
1778968216721128400,2.43512841796875,0.938591718673706,0.33615729212760925,-1.1604957580566406
1778968216731122400,2.445122314453125,0.8118583559989929,-0.033212028443813324,-1.0366630554199219
1778968216741116400,2.455116455078125,0.8008320331573486,-0.08646806329488754,-0.7899171710014343
1778968216751109400,2.465109375,0.8800169825553894,0.023134950548410416,-0.5513539910316467
1778968216761103400,2.475103271484375,0.8473972678184509,-0.10666778683662415,-0.29898324608802795
1778968216771097300,2.485097412109375,0.6710454821586609,-0.3598335385322571,0.01427881233394146
1778968216781091300,2.49509130859375,0.3659249544143677,-0.5808705687522888,0.35146987438201904
1778968216791084500,2.50508447265625,-0.009988958947360516,-0.9705656170845032,0.579460084438324
1778968216801078300,2.515078369140625,-0.3302290141582489,-1.2752808332443237,0.7364353537559509
1778968216811072300,2.525072265625,-0.5487511157989502,-1.3613255023956299,0.8783935904502869
1778968216821066500,2.53506640625,-0.6732019782066345,-0.9697323441505432,0.9205384254455566
1778968216831059500,2.5450595703125,-0.7562108039855957,-0.4859315752983093,0.7591043710708618
1778968216841053400,2.555053466796875,-0.8549368381500244,-0.14344479143619537,0.48730507493019104
1778968216851047400,2.56504736328125,-1.0296841859817505,-0.07922559231519699,0.24721834063529968
1778968216861041700,2.575041748046875,-1.331036925315857,-0.3476637303829193,0.020804112777113914
1778968216871034400,2.585034423828125,-1.766336441040039,-0.7451807856559753,-0.28855180740356445
1778968216881028400,2.5950283203125,-2.3349485397338867,-1.1793794631958008,-0.7918785810470581
1778968216891022300,2.605022216796875,-2.900960683822632,-1.560969352722168,-1.4009954929351807
1778968216901016600,2.6150166015625,-3.2972776889801025,-1.739722490310669,-1.822754144668579
1778968216911009500,2.625009521484375,-3.3101258277893066,-1.4019551277160645,-1.8727664947509766
1778968216921003300,2.635003173828125,-2.940922737121582,-0.8957178592681885,-1.5322028398513794
1778968216930997200,2.644997314453125,-2.3977882862091064,-0.36949780583381653,-0.8895291090011597
1778968216940991500,2.654991455078125,-1.8030221462249756,-0.039203256368637085,-0.11238382011651993
1778968216950984400,2.664984375,-1.3364366292953491,-0.12376128137111664,0.4110223948955536
1778968216960978400,2.674978515625,-1.039878487586975,-0.27376195788383484,0.5014503002166748
1778968216970972400,2.684972412109375,-0.8321406245231628,-0.21601203083992004,0.19001474976539612
1778968216980966400,2.69496630859375,-0.8031103014945984,-0.24417708814144135,-0.464682400226593
1778968216990959400,2.70495947265625,-1.002408504486084,-0.24528701603412628,-1.2086234092712402
1778968217000953300,2.714953369140625,-1.2332841157913208,-0.06529992818832397,-1.8187568187713623
1778968217010947600,2.724947509765625,-1.4855164289474487,0.010516008362174034,-2.235217332839966
1778968217020941600,2.734941650390625,-1.7072170972824097,0.038692254573106766,-2.3829381465911865
1778968217030934300,2.744934326171875,-1.797526240348816,0.03401502966880798,-2.2447235584259033
1778968217040928300,2.75492822265625,-1.7317613363265991,-0.14202924072742462,-1.9428824186325073
1778968217050922500,2.764922607421875,-1.532239317893982,-0.22790810465812683,-1.6778101921081543
1778968217060915500,2.77491552734375,-1.2967536449432373,-0.4194735586643219,-1.484319806098938
1778968217070909400,2.784909423828125,-1.1963821649551392,-0.4696964919567108,-1.3905670642852783
1778968217080903400,2.7949033203125,-1.2525054216384888,-0.3773241937160492,-1.3652476072311401
1778968217090897400,2.8048974609375,-1.1659482717514038,-0.06128636747598648,-1.1792678833007812
1778968217100890400,2.814890380859375,-1.171902060508728,-0.23819296061992645,-1.0323699712753296
1778968217110884400,2.82488427734375,-1.2619693279266357,-0.028034312650561333,-0.8631390929222107
1778968217120878300,2.83487841796875,-1.260655403137207,0.1112319678068161,-0.5945156216621399
1778968217130876400,2.84487646484375,-1.0517282485961914,0.10701493918895721,-0.07196463644504547
1778968217140869400,2.854869384765625,-0.6213837265968323,-0.011533545330166817,0.6409953236579895
1778968217150863000,2.864863037109375,0.0020453715696930885,-0.18647171556949615,1.4262717962265015
1778968217160857000,2.874857177734375,0.6860707998275757,-0.43737319111824036,2.1282596588134766
1778968217170851300,2.884851318359375,1.2088429927825928,-0.5760539174079895,2.6055219173431396
1778968217180844300,2.89484423828125,1.3938597440719604,-0.44622933864593506,2.8044466972351074
1778968217190838300,2.90483837890625,1.2156121730804443,-0.3042503595352173,2.7373178005218506
1778968217200832300,2.914832275390625,0.8567425012588501,-0.38851943612098694,2.5367703437805176
1778968217210825200,2.9248251953125,0.5576232075691223,-0.5835193991661072,2.3758883476257324
1778968217220819200,2.934819091796875,0.44845783710479736,-0.7453277111053467,2.2660207748413086
1778968217230813200,2.944813232421875,0.569093644618988,-0.509293258190155,2.0441365242004395
1778968217240807200,2.95480712890625,0.8686627745628357,0.3649745583534241,1.6049648523330688
1778968217250800400,2.96480029296875,1.302985429763794,0.9331626296043396,0.9747088551521301
1778968217260794000,2.974794189453125,1.7111196517944336,0.9861313104629517,0.21287322044372559
1778968217270788000,2.9847880859375,1.831491470336914,0.7410275340080261,-0.42204877734184265
1778968217280782300,2.9947822265625,1.6851454973220825,0.28628164529800415,-0.880077600479126
1778968217290775300,3.004775390625,1.4660801887512207,-0.3203725218772888,-1.139920711517334
1778968217300769300,3.014769287109375,1.252821445465088,-0.7551178932189941,-1.0391151905059814
1778968217310763300,3.02476318359375,1.1214032173156738,-0.7336332201957703,-0.5766379237174988
1778968217320756200,3.034756103515625,1.1312737464904785,-0.1178334504365921,0.0050502666272223
1778968217330750200,3.044750244140625,1.2573966979980469,0.9471686482429504,0.3329634666442871
1778968217340744200,3.054744140625,1.471950888633728,1.8116753101348877,0.32494574785232544
1778968217350738200,3.06473828125,1.7167863845825195,2.2865867614746094,0.21905604004859924
1778968217360731400,3.0747314453125,1.9239132404327393,2.3313212394714355,0.13155095279216766
1778968217370725000,3.08472509765625,1.9247547388076782,2.0230162143707275,0.14383678138256073
1778968217380719000,3.094718994140625,1.674371600151062,1.5968135595321655,0.29965221881866455
1778968217390713000,3.104713134765625,1.3099427223205566,1.1161454916000366,0.6197776794433594
1778968217400706300,3.114706298828125,1.080228567123413,0.5633580088615417,0.9578859210014343
1778968217410700300,3.1247001953125,0.9668393731117249,0.3551121950149536,1.1962913274765015
1778968217420694300,3.1346943359375,0.7302439212799072,-0.03262036666274071,1.045917272567749
1778968217430688300,3.144688232421875,0.17962807416915894,-0.5245769023895264,0.5875429511070251
1778968217440681200,3.15468115234375,-0.4155908226966858,-0.19874098896980286,0.11001450568437576
1778968217450675200,3.16467529296875,-0.47787633538246155,0.32786840200424194,-0.420823335647583
1778968217460669200,3.174669189453125,0.021038390696048737,0.6720470786094666,-0.8382357358932495
1778968217470662400,3.184662353515625,0.48648887872695923,0.7488166093826294,-1.046765685081482
1778968217480656100,3.19465625,0.6040767431259155,0.3291325271129608,-1.1957160234451294
1778968217490650000,3.204650146484375,0.4351500868797302,-0.18381895124912262,-1.1889595985412598
1778968217500644000,3.21464404296875,0.09446466714143753,-0.49720799922943115,-0.8478187918663025
1778968217510637300,3.22463720703125,-0.12460882216691971,-0.625458836555481,-0.2011604905128479
1778968217520631300,3.23463134765625,-0.016079680994153023,-0.7277199625968933,0.6217362880706787
1778968217530625300,3.244625244140625,0.29308950901031494,-0.7823781967163086,1.4642691612243652
1778968217540619300,3.254619384765625,0.5300347208976746,-0.6734591722488403,2.0809566974639893
1778968217550612200,3.2646123046875,0.5630099773406982,-0.556324303150177,2.394824981689453
1778968217560606200,3.274606201171875,0.5188845992088318,-0.7426310777664185,2.4062161445617676
1778968217570600200,3.28460009765625,0.5031723380088806,-1.1252094507217407,2.159194231033325
1778968217580593400,3.294593505859375,0.43691474199295044,-1.6796029806137085,1.7495763301849365
1778968217590587400,3.30458740234375,0.18888172507286072,-2.274203062057495,1.300223708152771
1778968217600581000,3.3145810546875,-0.22931843996047974,-2.576462984085083,0.8313453793525696
1778968217610575000,3.3245751953125,-0.6551129221916199,-2.411771297454834,0.40730080008506775
1778968217620568300,3.334568359375,-0.9256914258003235,-1.7981665134429932,0.04026367515325546
1778968217630562300,3.344562255859375,-0.936307430267334,-1.3648571968078613,-0.3202637732028961
1778968217640556300,3.354556396484375,-0.6540371179580688,-1.2959409952163696,-0.5660205483436584
1778968217650549200,3.36454931640625,-0.3981252908706665,-1.6278290748596191,-0.7545506954193115
1778968217660543200,3.374543212890625,-0.586969256401062,-2.5066769123077393,-1.0747803449630737
1778968217670537200,3.384537109375,-1.2023334503173828,-3.7732911109924316,-1.7517454624176025
1778968217680531200,3.39453125,-1.6730605363845825,-4.501955509185791,-2.6332743167877197
1778968217690524400,3.4045244140625,-1.756786584854126,-4.229475498199463,-3.2298455238342285
1778968217700518400,3.414518310546875,-1.6568189859390259,-3.3908865451812744,-3.4587180614471436
1778968217710512000,3.42451220703125,-1.4633822441101074,-2.112767219543457,-3.3404722213745117
1778968217720505300,3.43450537109375,-1.048811435699463,-1.0245779752731323,-3.030893564224243
1778968217730499300,3.444499267578125,-0.45896202325820923,-0.5763393044471741,-2.6636927127838135
1778968217740493300,3.454493408203125,-0.036184161901474,-0.7890358567237854,-2.2319366931915283
1778968217750487300,3.4644873046875,0.03325747698545456,-1.3304766416549683,-1.761263132095337
1778968217760480300,3.474480224609375,-0.13206596672534943,-1.8952441215515137,-1.3090345859527588
1778968217770474200,3.48447412109375,-0.38345465064048767,-2.388390302658081,-0.9393564462661743
1778968217780468200,3.49446826171875,-0.676201581954956,-2.7666149139404297,-0.6167101860046387
1778968217790462200,3.504462158203125,-0.9477742314338684,-2.743084192276001,-0.2867949306964874
1778968217800455400,3.514455322265625,-1.145288109779358,-2.1577768325805664,-0.12900395691394806
1778968217810449400,3.524449462890625,-1.1580525636672974,-1.1109918355941772,-0.25413572788238525
1778968217820443100,3.534443115234375,-1.0822001695632935,0.3226921856403351,-0.7716909646987915
1778968217830436400,3.544436279296875,-1.212087631225586,1.4791005849838257,-1.5368446111679077
1778968217840430300,3.554430419921875,-1.4690909385681152,2.5086209774017334,-2.2744927406311035
1778968217850424300,3.56442431640625,-1.6719423532485962,2.975386619567871,-2.8527774810791016
1778968217860418300,3.574418212890625,-1.7989394664764404,2.749380111694336,-3.1388449668884277
1778968217870411300,3.584411376953125,-1.889623761177063,2.018937587738037,-3.13489031791687
1778968217880405200,3.5944052734375,-1.9831135272979736,1.2474315166473389,-2.827665328979492
1778968217890399200,3.604399169921875,-2.049128293991089,0.5896961688995361,-2.220228433609009
1778968217900392200,3.61439208984375,-1.901533603668213,0.24977615475654602,-1.2946029901504517
1778968217910386400,3.624386474609375,-1.5983319282531738,0.021201491355895996,-0.14149588346481323
1778968217920380400,3.63438037109375,-1.2384352684020996,-0.2709379494190216,1.0404753684997559
1778968217930374400,3.64437451171875,-0.9523373246192932,-0.3137859106063843,2.0944631099700928
1778968217940367000,3.6543671875,-0.7343940734863281,-0.11631038039922714,2.9736385345458984
1778968217950361300,3.664361328125,-0.5763548612594604,-0.035785358399152756,3.5198183059692383
1778968217960355300,3.674355224609375,-0.39458584785461426,-0.11432970315217972,3.598148822784424
1778968217970348300,3.684348388671875,-0.13502727448940277,-0.2339039444923401,3.202381134033203
1778968217980342300,3.69434228515625,0.09422776103019714,-0.4077058434486389,2.507680654525757
1778968217990336300,3.704336181640625,0.16542769968509674,-0.3116922378540039,1.8751717805862427
1778968218000330200,3.714330322265625,0.18970400094985962,-0.11082516610622406,1.452989935874939
1778968218010323200,3.7243232421875,0.2664066255092621,0.15801188349723816,1.1935874223709106
1778968218020317400,3.7343173828125,0.5254861116409302,0.5026805996894836,1.151273488998413
1778968218030311400,3.7443115234375,1.076737642288208,0.43785473704338074,1.3453104496002197
1778968218040304000,3.75430419921875,1.7502944469451904,-0.48148471117019653,1.654841423034668
1778968218050298000,3.764298095703125,2.1708431243896484,-1.582372784614563,2.016087770462036
1778968218060292400,3.774292236328125,2.187932014465332,-2.553553581237793,2.2932963371276855
1778968218070285300,3.784285400390625,1.8654584884643555,-3.108703851699829,2.5230250358581543
1778968218080279300,3.794279296875,1.449314832687378,-2.8307106494903564,2.8563523292541504
1778968218090273300,3.804273193359375,1.104095697402954,-1.9410260915756226,3.3224730491638184
1778968218100267300,3.814267333984375,0.9264666438102722,-0.8482807278633118,3.7511332035064697
1778968218110260200,3.82426025390625,0.9816585779190063,0.1612716019153595,4.005481719970703
1778968218120254200,3.834254150390625,1.1830828189849854,1.0946544408798218,4.133965969085693
1778968218130244600,3.84424462890625,1.4280463457107544,1.9524919986724854,4.16951847076416
1778968218140237800,3.85423779296875,1.6151959896087646,2.510213851928711,4.11386251449585
1778968218150231800,3.864231689453125,1.6514016389846802,2.6034693717956543,3.954890251159668
1778968218160225800,3.874225830078125,1.6108019351959229,2.2878189086914062,3.7414257526397705
1778968218170219800,3.8842197265625,1.6512125730514526,1.784211277961731,3.5576696395874023
1778968218180212700,3.894212646484375,1.8646146059036255,1.3718796968460083,3.4733922481536865
1778968218190206700,3.904206787109375,2.098700523376465,1.0177597999572754,3.4284608364105225
1778968218200200700,3.91420068359375,2.196906089782715,0.6611749529838562,3.3809876441955566
1778968218210194000,3.92419384765625,2.1681511402130127,0.29035383462905884,3.2904086112976074
1778968218220187600,3.934187744140625,2.1043291091918945,-0.20397277176380157,3.092381000518799
1778968218230181600,3.944181640625,2.147212028503418,-0.683406412601471,2.7968106269836426
1778968218240175600,3.954175537109375,2.409274101257324,-1.395676851272583,2.4989233016967773
1778968218250168800,3.9641689453125,2.868283748626709,-2.1438703536987305,2.3244781494140625
1778968218260162800,3.974162841796875,3.3742895126342773,-2.586851119995117,2.2928357124328613
1778968218270156800,3.98415673828125,4.058357238769531,-3.3566150665283203,2.1858880519866943
1778968218280149800,3.994149658203125,4.413330554962158,-3.6280457973480225,2.1125214099884033
1778968218290143700,4.004143798828125,4.594760894775391,-3.672189235687256,2.150057554244995
1778968218300137700,4.0141376953125,4.769956111907959,-3.853485584259033,2.230360746383667
1778968218310131700,4.024131591796875,4.8311076164245605,-4.096145153045654,2.148008346557617
1778968218320125000,4.034125,4.873663902282715,-4.475202560424805,1.7960554361343384
1778968218330118700,4.04411865234375,5.012561321258545,-4.864473819732666,1.1260813474655151
1778968218340112600,4.054112548828125,5.309658050537109,-5.281804084777832,0.33976835012435913
1778968218350105900,4.06410595703125,5.434152126312256,-5.100594520568848,-0.04630535840988159
1778968218360099800,4.074099853515625,5.397134304046631,-4.6028947830200195,-0.25598400831222534
1778968218370093800,4.08409375,5.556469440460205,-4.791492462158203,-0.48874685168266296
1778968218380086800,4.094086669921875,6.140039920806885,-5.202090740203857,-0.5364126563072205
1778968218390080800,4.104080810546875,7.28812313079834,-5.385649681091309,-0.5292482376098633
1778968218400074800,4.11407470703125,8.195104598999023,-4.563200950622559,-0.3114767372608185
1778968218410068700,4.12406884765625,8.201809883117676,-2.5766077041625977,-0.344739705324173
1778968218420062000,4.13406201171875,7.540127754211426,-1.726027011871338,-0.9400536417961121
1778968218430056000,4.144055908203125,6.696563720703125,-1.5766187906265259,-0.9295187592506409
1778968218440049700,4.154049560546875,5.91060733795166,-1.2715723514556885,-0.3528205156326294
1778968218450042600,4.164042724609375,4.991194725036621,-0.09220443665981293,0.5396569967269897
1778968218460036900,4.174036865234375,4.466347694396973,1.4944944381713867,1.5147732496261597
1778968218470030800,4.18403076171875,4.272576332092285,3.156970739364624,2.1441001892089844
1778968218480023800,4.19402392578125,4.015615940093994,3.9697813987731934,2.5220773220062256
1778968218490017500,4.204017578125,3.4324090480804443,4.083518981933594,2.858950614929199
1778968218500011800,4.21401171875,2.832355499267578,3.670562267303467,2.976203441619873
1778968218510005800,4.224005859375,2.2958686351776123,2.465891122817993,2.374385356903076
1778968218519998700,4.233998779296875,1.5417934656143188,1.253373146057129,1.417503833770752
1778968218529992700,4.24399267578125,0.5214872360229492,0.5058897733688354,0.2376995086669922
1778968218539987000,4.253987060546875,-0.6776490211486816,0.5422112941741943,-1.0109784603118896
1778968218549979600,4.263979736328125,-1.4467527866363525,1.2667325735092163,-1.864251971244812
1778968218559973600,4.2739736328125,-1.827089786529541,1.5436550378799438,-2.407402276992798
1778968218569967900,4.2839677734375,-1.7307405471801758,1.308972954750061,-2.341466188430786
1778968218579961900,4.2939619140625,-1.251029133796692,0.6187987327575684,-1.6745485067367554
1778968218589954800,4.303954833984375,-0.5351354479789734,-0.21440687775611877,-1.06899094581604
1778968218599948800,4.31394873046875,0.1203712597489357,-1.2864774465560913,-0.909706175327301
1778968218609942800,4.32394287109375,0.23273921012878418,-1.8358092308044434,-0.973800778388977
1778968218619935700,4.333935791015625,0.04685403034090996,-2.1028027534484863,-1.0005022287368774
1778968218629929700,4.3439296875,-0.12040761113166809,-2.064744472503662,-1.0194976329803467
1778968218639923700,4.353923828125,-0.10695971548557281,-1.6377887725830078,-1.208497405052185
1778968218649916700,4.363916748046875,-0.008703955449163914,-1.1031194925308228,-1.164633870124817
1778968218659910700,4.37391064453125,0.14946970343589783,-0.9921101331710815,-0.8902751207351685
1778968218669904600,4.383904541015625,0.45032888650894165,-1.2888189554214478,-0.44635340571403503
1778968218679897900,4.39389794921875,0.7848379015922546,-1.9025723934173584,-0.05841097980737686
1778968218689891800,4.403891845703125,1.0017424821853638,-2.4873087406158447,0.2771230936050415
1778968218699885800,4.4138857421875,1.2010587453842163,-3.2429039478302,0.6339230537414551
1778968218709879800,4.4238798828125,1.586484432220459,-3.495058298110962,0.9668480157852173
1778968218719872800,4.433872802734375,1.7161329984664917,-3.4067699909210205,1.2870761156082153
1778968218729866800,4.44386669921875,1.6017060279846191,-2.8577253818511963,1.85628342628479
1778968218739860700,4.45386083984375,1.3590779304504395,-2.0083608627319336,2.7359800338745117
1778968218749854000,4.46385400390625,1.0764896869659424,-0.897880494594574,3.850299835205078
1778968218759848000,4.473847900390625,0.7046501636505127,-0.15029864013195038,4.883718967437744
1778968218769841700,4.483841552734375,0.45365992188453674,0.5170701742172241,5.7061028480529785
1778968218779834600,4.493834716796875,0.38409337401390076,1.47449791431427,6.08459997177124
1778968218789828900,4.503828857421875,0.4478428065776825,2.280137300491333,5.769582748413086
1778968218799822800,4.51382275390625,0.48134538531303406,1.8270334005355835,5.032812118530273
1778968218809816800,4.52381689453125,0.25936219096183777,1.141662836074829,4.873612880706787
1778968218819809800,4.533809814453125,-0.13710632920265198,0.8032717108726501,4.524983882904053
1778968218829803800,4.5438037109375,-0.33157193660736084,0.48522844910621643,4.202613830566406
1778968218839797800,4.5537978515625,-0.2677636444568634,0.3904891312122345,3.861302137374878
1778968218849790700,4.563790771484375,-0.18407070636749268,0.3045826554298401,3.408794403076172
1778968218859785000,4.573784912109375,-0.14999262988567352,0.20768967270851135,2.6030778884887695
1778968218869779000,4.583779052734375,-0.5175914168357849,-0.24079836905002594,1.8425583839416504
1778968218879771600,4.593771728515625,-0.8317405581474304,-0.450467973947525,1.2345826625823975
1778968218889765600,4.603765625,-0.7312602400779724,-0.3759341835975647,0.648688018321991
1778968218899759900,4.613759765625,-1.1149160861968994,-0.3661081790924072,0.2957475781440735
1778968218909752800,4.6237529296875,-1.143174409866333,-1.7545533180236816,-0.6230162978172302
1778968218919746800,4.633746826171875,-1.3710983991622925,-2.011220693588257,-1.2184988260269165
1778968218929740500,4.643740478515625,-2.091524600982666,-1.950730562210083,-1.4567290544509888
1778968218939733800,4.653733642578125,-2.691753387451172,-1.707038164138794,-1.9400286674499512
1778968218949727700,4.663727783203125,-2.9584169387817383,-0.8473899960517883,-2.775099992752075
1778968218959721700,4.6737216796875,-3.1679842472076416,0.5518398880958557,-3.9511282444000244
1778968218969715700,4.6837158203125,-3.3917455673217773,2.2984936237335205,-5.018668174743652
1778968218979708700,4.693708740234375,-3.3922488689422607,2.676513433456421,-5.760858058929443
1778968218989702700,4.70370263671875,-3.1274232864379883,1.640592098236084,-6.099207401275635
1778968218999696600,4.713696533203125,-2.7473337650299072,0.5108045339584351,-6.024081707000732
1778968219009689900,4.72368994140625,-2.165982246398926,-0.8892999291419983,-5.721456527709961
1778968219019683800,4.733683837890625,-1.3982009887695312,-1.9627957344055176,-4.459733009338379
1778968219029677800,4.743677734375,-0.8042576313018799,-2.3386197090148926,-2.6308624744415283
1778968219039670800,4.7536708984375,-0.6221336126327515,-2.2512149810791016,-1.0449635982513428
1778968219049664800,4.763664794921875,-0.8299661874771118,-2.2227325439453125,-0.31542056798934937
1778968219059658800,4.77365869140625,-0.9718791246414185,-1.8289927244186401,-0.17241361737251282
1778968219069652000,4.78365185546875,-0.846366286277771,-1.3963444232940674,-0.5168585181236267
1778968219079646000,4.79364599609375,-0.6242903470993042,-1.3735355138778687,-1.2285667657852173
1778968219089639700,4.8036396484375,-0.5032289624214172,-1.4129966497421265,-2.032982349395752
1778968219099632600,4.813632568359375,-0.52237868309021,-1.4265984296798706,-2.768845558166504
1778968219109627000,4.823626953125,-0.5931661128997803,-1.510468602180481,-3.294761896133423
1778968219119620900,4.833620849609375,-0.632796585559845,-1.100413203239441,-3.3254473209381104
1778968219129614800,4.84361474609375,-0.7224502563476562,-0.3339155316352844,-2.7088310718536377
1778968219139607600,4.853607666015625,-0.7227432131767273,0.1985235959291458,-1.9216878414154053
1778968219149601800,4.863601806640625,-0.8124026656150818,0.11354107409715652,-1.3735606670379639
1778968219159595800,4.873595703125,-1.215040922164917,-0.5679509043693542,-1.353464961051941
1778968219169588700,4.883588623046875,-2.241136074066162,-1.6638938188552856,-2.11285400390625
1778968219179582700,4.893582763671875,-2.6964972019195557,-2.7473483085632324,-2.2991626262664795
1778968219189577000,4.903576904296875,-2.8732099533081055,-5.022946834564209,-2.236173152923584
1778968219199569700,4.913569580078125,-1.857539415359497,-0.9040541052818298,-2.935263156890869
1778968219209563600,4.923563720703125,-1.789193868637085,0.1111024022102356,-1.6683436632156372
1778968219219558000,4.933557861328125,-0.656038761138916,1.8110065460205078,-0.20488879084587097
1778968219229550800,4.94355078125,-0.21341313421726227,2.19358491897583,-0.16083088517189026
1778968219239544800,4.953544921875,-0.6984584331512451,2.857588052749634,0.31839269399642944
1778968219249538600,4.96353857421875,-1.0427188873291016,3.076465368270874,0.6042514443397522
1778968219259531800,4.97353173828125,-1.182475209236145,2.700728416442871,0.22502876818180084
1778968219269525800,4.98352587890625,-1.1049154996871948,1.368341088294983,-0.40379318594932556
1778968219279519700,4.993519775390625,-0.9116789102554321,-0.2517542839050293,-1.2405741214752197
1778968219289513000,5.003512939453125,-0.9701433777809143,-0.6221222281455994,-1.7443556785583496
1778968219299506700,5.013506591796875,-1.051316261291504,-0.35865646600723267,-1.5364035367965698
1778968219309500700,5.023500732421875,-0.9732321500778198,-0.2911580204963684,-0.9142342805862427
1778968219319494000,5.033493896484375,-0.6902464628219604,-0.3767267167568207,-0.3141324818134308
1778968219329488000,5.04348779296875,-0.40948620438575745,-0.6826178431510925,0.299121230840683
1778968219339481900,5.05348193359375,-0.25062572956085205,-1.2665811777114868,0.9320070743560791
1778968219349475800,5.063475830078125,-0.1304989904165268,-2.0372731685638428,1.401687741279602
1778968219359468800,5.07346875,-0.019412148743867874,-2.6907894611358643,1.6162916421890259
1778968219369462800,5.083462890625,0.061175473034381866,-2.970517873764038,1.6474168300628662
1778968219379456800,5.093456787109375,0.25435373187065125,-2.685533285140991,1.5356959104537964
1778968219389449700,5.10344970703125,0.6603948473930359,-2.05550217628479,1.4681144952774048
1778968219399444000,5.11344384765625,0.9722771048545837,-1.5209650993347168,1.3912400007247925
1778968219409437700,5.123437744140625,1.1587212085723877,-0.8540597558021545,1.3229668140411377
1778968219419430700,5.1334306640625,1.3448742628097534,-0.47334572672843933,1.3202881813049316
1778968219429424600,5.143424560546875,1.5441794395446777,0.04822311922907829,1.4183143377304077
1778968219439419000,5.1534189453125,1.4367300271987915,0.29509174823760986,1.4677647352218628
1778968219449411800,5.163411865234375,1.1891083717346191,0.2118212878704071,1.4754165410995483
1778968219459405600,5.173405517578125,0.9587311148643494,-0.04748617485165596,1.4615256786346436
1778968219469399800,5.18339990234375,0.7842424511909485,-0.22724351286888123,1.4555110931396484
1778968219479392800,5.193392822265625,0.6561998128890991,-0.47367751598358154,1.4995648860931396
1778968219489386800,5.20338671875,0.5902140140533447,-0.633521556854248,1.7611260414123535
1778968219499380700,5.213380615234375,0.5045310854911804,-0.6115462183952332,2.127668857574463
1778968219509373700,5.223373779296875,0.3262648284435272,-0.6467564702033997,2.467083692550659
1778968219519367700,5.23336767578125,0.13237473368644714,-0.5173185467720032,2.819751262664795
1778968219529361700,5.243361572265625,0.13012656569480896,-0.16789816319942474,3.124502420425415
1778968219539355000,5.25335498046875,0.301900178194046,0.16140969097614288,3.4137957096099854
1778968219549348900,5.263348876953125,0.24819716811180115,-0.23495684564113617,3.406205892562866
1778968219559342800,5.2733427734375,0.2592924237251282,-1.3764331340789795,2.9722554683685303
1778968219569335800,5.283335693359375,0.2909599840641022,-2.3489177227020264,2.362806797027588
1778968219579329800,5.293329833984375,-0.3350919187068939,-1.8777896165847778,2.028594493865967
1778968219589323800,5.30332373046875,-1.4808495044708252,-0.824558675289154,2.2061054706573486
1778968219599316700,5.313316650390625,-1.9665522575378418,0.1441507190465927,2.647557497024536
1778968219609311000,5.32331103515625,-2.087740659713745,0.1942840814590454,2.9281506538391113
1778968219619304700,5.3333046875,-2.268054962158203,0.07958786189556122,3.072756290435791
1778968219629297700,5.343297607421875,-2.3535282611846924,-0.032502181828022,3.1090519428253174
1778968219639291600,5.353291748046875,-2.2938947677612305,-0.1453765332698822,3.102259635925293
1778968219649286000,5.363285888671875,-2.1332242488861084,-0.13616953790187836,3.00150990486145
1778968219659278800,5.37327880859375,-1.7011480331420898,0.130098357796669,2.64499831199646
1778968219669272600,5.3832724609375,-1.2411860227584839,0.6359384655952454,2.204165458679199
1778968219679266800,5.393266845703125,-0.9731241464614868,1.4886623620986938,1.6884379386901855
1778968219689259800,5.403259765625,-0.81882643699646,2.589024305343628,1.1786373853683472
1778968219699253800,5.413253662109375,-0.6003726720809937,3.1061789989471436,0.5983930826187134
1778968219709247700,5.423247802734375,-0.393233984708786,2.441654920578003,-0.18905454874038696
1778968219719240700,5.43324072265625,-0.2923356294631958,1.4648668766021729,-0.6436489224433899
1778968219729234700,5.443234619140625,-0.28395989537239075,0.5433887243270874,-0.6517744064331055
1778968219739228700,5.453228759765625,-0.24903438985347748,-0.4629596471786499,-0.484366774559021
1778968219749222000,5.463221923828125,-0.24121862649917603,-1.5752841234207153,-0.2797846496105194
1778968219759215900,5.4732158203125,-0.2967415452003479,-2.431060552597046,-0.11845940351486206
1778968219769209900,5.4832099609375,-0.4358043968677521,-2.9075512886047363,0.0025226138532161713
1778968219779202800,5.493202880859375,-0.5474954843521118,-3.1448466777801514,0.003374558873474598
1778968219789196800,5.50319677734375,-0.6121893525123596,-3.385643243789673,-0.14537106454372406
1778968219799190800,5.513190673828125,-0.6513229012489319,-3.431222677230835,-0.37143856287002563
1778968219809183700,5.523183837890625,-0.5609180927276611,-3.4851889610290527,-0.6599747538566589
1778968219819178000,5.533177978515625,-0.3864741325378418,-3.674760341644287,-0.9981450438499451
1778968219829171700,5.543171630859375,-0.2829973101615906,-3.4130616188049316,-1.135082483291626
1778968219839164700,5.55316455078125,-0.23478692770004272,-2.5005714893341064,-1.1336071491241455
1778968219849158700,5.56315869140625,-0.09319101274013519,-1.2703452110290527,-1.1218016147613525
1778968219859152000,5.57315185546875,0.2921271324157715,0.05392465740442276,-1.3778866529464722
1778968219869145900,5.583145751953125,0.7773885130882263,0.7711217999458313,-1.520430088043213
1778968219879139600,5.5931396484375,1.0320930480957031,0.9334409832954407,-1.4949723482131958
1778968219889132800,5.6031328125,1.0648233890533447,0.8032304048538208,-1.4645220041275024
1778968219899126800,5.613126708984375,0.8652014136314392,0.6194946765899658,-1.473509669303894
1778968219909120800,5.623120849609375,0.5159571170806885,0.4648384153842926,-1.57514226436615
1778968219919114000,5.633114013671875,0.16510316729545593,0.45597994327545166,-1.7624828815460205
1778968219929107700,5.643107666015625,0.03927270323038101,0.19985230267047882,-1.9926623106002808
1778968219939101700,5.653101806640625,0.23403872549533844,-0.5194840431213379,-2.069005250930786
1778968219949094700,5.6630947265625,0.6152453422546387,-1.012775182723999,-1.828243613243103
1778968219959089000,5.6730888671875,0.8922343254089355,-0.731302797794342,-1.195682406425476
1778968219969083000,5.683082763671875,1.0282106399536133,-0.014859739691019058,-0.299716055393219
1778968219979075600,5.69307568359375,0.9505046010017395,0.7575541734695435,0.5699291229248047
1778968219989069800,5.70306982421875,0.4113881587982178,0.27238062024116516,1.6117149591445923
1778968219999063800,5.713063720703125,-0.15935467183589935,-1.3400688171386719,3.335479259490967
1778968220009056800,5.723056884765625,-0.7233267426490784,-2.401022434234619,3.6615405082702637
1778968220019050800,5.73305078125,-0.9613515138626099,-2.474043846130371,2.5383317470550537
1778968220029045000,5.743044921875,-0.5978567600250244,-2.0006792545318604,0.4639202356338501
1778968220039037700,5.75303759765625,0.08972855657339096,-1.4144582748413086,-1.3277238607406616
1778968220049031700,5.76303173828125,0.7046085000038147,-0.501763105392456,-2.032850503921509
1778968220059025700,5.773025634765625,1.125538945198059,0.3284592926502228,-2.182598352432251
1778968220069019000,5.783018798828125,1.2887924909591675,0.8782074451446533,-2.1446008682250977
1778968220079012900,5.793012939453125,1.335724949836731,1.0562875270843506,-1.9885624647140503
1778968220089006600,5.803006591796875,1.2326921224594116,1.1275150775909424,-1.7946590185165405
1778968220098999800,5.812999755859375,1.02675199508667,1.1367677450180054,-1.6751512289047241
1778968220108993800,5.822993896484375,0.8583138585090637,1.1352043151855469,-1.6467496156692505
1778968220118986800,5.83298681640625,0.6027106046676636,1.1438894271850586,-1.6905293464660645
1778968220128980500,5.84298046875,0.29636818170547485,1.2727943658828735,-1.7461535930633545
1778968220138974500,5.852974365234375,0.04277372732758522,1.5042595863342285,-1.804569959640503
1778968220148967400,5.862967529296875,-0.17111460864543915,1.8562225103378296,-1.8467551469802856
1778968220158961400,5.87296142578125,-0.3989264965057373,2.2520642280578613,-1.8030120134353638
1778968220168955400,5.882955322265625,-0.5660934448242188,2.5334019660949707,-1.6591745615005493
1778968220178948400,5.8929482421875,-0.6280393600463867,2.6325340270996094,-1.3892189264297485
1778968220188942300,5.9029423828125,-0.5982127785682678,2.5246057510375977,-1.0317491292953491
1778968220198936600,5.9129365234375,-0.4827650487422943,2.218639850616455,-0.5604386925697327
1778968220208929300,5.92292919921875,-0.3719092011451721,1.661273717880249,0.004147036466747522
1778968220218923300,5.93292333984375,-0.32697609066963196,1.0459601879119873,0.6991356611251831
1778968220228917200,5.942917236328125,-0.2930261492729187,0.4958931803703308,1.5967330932617188
1778968220238910500,5.952910400390625,-0.27809327840805054,-0.5191627144813538,2.8214383125305176
1778968220248904400,5.962904541015625,-0.5110607147216797,-1.378888487815857,3.232142448425293
1778968220258898400,5.9728984375,-0.8403563499450684,-1.2129898071289062,2.568444013595581
1778968220268891400,5.982891357421875,-0.8242142200469971,-0.5221533179283142,2.2145020961761475
1778968220278885400,5.992885498046875,-0.5234869122505188,0.5908131003379822,1.8188199996948242
1778968220288878300,6.00287841796875,-0.24199220538139343,0.6416103839874268,1.8606724739074707
1778968220298872600,6.01287255859375,-0.0984339714050293,0.011359239928424358,2.2510688304901123
1778968220308866600,6.022866455078125,-0.1853007674217224,-0.22397950291633606,2.495924711227417
1778968220318859300,6.032859375,-0.689304530620575,0.06540597230195999,2.407813310623169
1778968220328853200,6.042853271484375,-2.02028226852417,0.7420645952224731,1.496992826461792
1778968220338847500,6.052847412109375,-2.9119863510131836,0.6974345445632935,0.7083860635757446
1778968220348840400,6.06284033203125,-3.0083327293395996,0.6177351474761963,0.16191230714321136
1778968220358834400,6.07283447265625,-2.5028464794158936,0.7399039268493652,-0.17981600761413574
1778968220368828400,6.082828369140625,-1.6213730573654175,1.1164196729660034,-0.15703843533992767
1778968220378821400,6.0928212890625,-0.997279167175293,1.590015172958374,0.3250749409198761
1778968220388815400,6.1028154296875,-1.0581556558609009,2.207981586456299,1.1190189123153687
1778968220398808600,6.11280859375,-1.1902375221252441,2.4087271690368652,2.0031938552856445
1778968220408802600,6.122802490234375,-1.0650501251220703,2.3152551651000977,2.397745370864868
1778968220418796300,6.13279638671875,-0.650910496711731,2.2390148639678955,1.8771566152572632
1778968220428789500,6.14278955078125,-0.2628394365310669,1.8337492942810059,1.265052318572998
1778968220438783500,6.152783447265625,-0.06304724514484406,1.372255802154541,0.940782368183136
1778968220448777500,6.162777587890625,0.04733937606215477,1.152121901512146,0.7340387105941772
1778968220458770200,6.172770263671875,0.10422743111848831,0.445929616689682,0.635284960269928
1778968220468764400,6.182764404296875,0.09735386073589325,-0.6487621068954468,0.6744987368583679
1778968220478758400,6.19275830078125,0.023785360157489777,-1.6059736013412476,0.8432872295379639
1778968220488751400,6.20275146484375,-0.08865370601415634,-2.129760980606079,1.048534870147705
1778968220498745300,6.212745361328125,-0.1682678461074829,-2.1601321697235107,1.2036503553390503
1778968220508738300,6.22273828125,-0.13197290897369385,-1.8478444814682007,1.2925153970718384
1778968220518732300,6.232732177734375,0.0291102547198534,-1.555440068244934,1.2633981704711914
1778968220528726300,6.242726318359375,0.25049737095832825,-1.3083090782165527,1.0700491666793823
1778968220538719500,6.252719482421875,0.45453333854675293,-1.288183569908142,0.5620434284210205
1778968220548713500,6.26271337890625,0.6192045211791992,-1.4722102880477905,-0.20777668058872223
1778968220558707500,6.27270751953125,0.7787643671035767,-1.3980681896209717,-0.9141769409179688
1778968220568700400,6.282700439453125,0.9138311147689819,-1.0620341300964355,-1.3042224645614624
1778968220578694400,6.2926943359375,0.9796980023384094,-0.6336636543273926,-1.4728456735610962
1778968220588687400,6.302687255859375,0.9901903867721558,-0.28494513034820557,-1.5979682207107544
1778968220598681300,6.312681396484375,0.9499788284301758,0.03027060255408287,-1.6785106658935547
1778968220608675600,6.322675537109375,0.8414058089256287,0.2336849719285965,-1.7212536334991455
1778968220618668300,6.332668212890625,0.7190892696380615,0.20927363634109497,-1.7770847082138062
1778968220628662300,6.342662353515625,0.6102297306060791,0.011447909288108349,-1.8151695728302002
1778968220638656300,6.35265625,0.5425500273704529,-0.23569609224796295,-1.8257594108581543
1778968220648649500,6.3626494140625,0.5789413452148438,-0.5069233775138855,-1.811599850654602
1778968220658643500,6.3726435546875,0.7008674740791321,-0.8256118893623352,-1.8227425813674927
1778968220668637200,6.38263720703125,0.9834451675415039,-0.9935110807418823,-1.6323163509368896
1778968220678630400,6.39263037109375,1.3316704034805298,-0.7575488686561584,-1.0890353918075562
1778968220688624400,6.402624267578125,1.4829055070877075,-0.09420093894004822,-0.21879665553569794
1778968220698617300,6.412617431640625,1.2436002492904663,0.6808023452758789,0.9354503154754639
1778968220708611600,6.422611572265625,0.7355486154556274,-0.43080922961235046,2.5780158042907715
1778968220718605300,6.432605224609375,0.45072197914123535,-2.8624701499938965,3.446956157684326
1778968220728598300,6.442598388671875,0.2147923856973648,-4.578038692474365,2.6487174034118652
1778968220738592500,6.452592529296875,0.21534685790538788,-5.089990139007568,1.131817102432251
1778968220748586500,6.46258642578125,0.48176607489585876,-4.1697211265563965,-0.1587856411933899
1778968220758579500,6.472579345703125,0.8206594586372375,-2.7657437324523926,-1.1484507322311401
1778968220768573200,6.4825732421875,1.0409743785858154,-1.669804334640503,-1.8757038116455078
1778968220778566400,6.49256640625,1.0878816843032837,-0.902921199798584,-2.2518386840820312
1778968220788560400,6.502560302734375,1.0548298358917236,-0.35243454575538635,-2.32940673828125
1778968220798554400,6.512554443359375,0.9455991387367249,0.14624929428100586,-2.2273964881896973
1778968220808547600,6.522547607421875,0.702685534954071,0.621411919593811,-2.0547053813934326
1778968220818541300,6.532541259765625,0.5198072791099548,1.055596947669983,-1.7960076332092285
1778968220828534300,6.5425341796875,0.40973374247550964,1.3330479860305786,-1.4863581657409668
1778968220838528500,6.552528564453125,0.33667123317718506,1.367093563079834,-1.1933947801589966
1778968220848522500,6.5625224609375,0.24589453637599945,1.222345232963562,-0.937227725982666
1778968220858515500,6.572515380859375,0.05556933954358101,1.12993586063385,-0.7790250182151794
1778968220868509200,6.58250927734375,-0.17924422025680542,1.1081674098968506,-0.723531186580658
1778968220878503400,6.59250341796875,-0.28593710064888,1.2279130220413208,-0.7779116034507751
1778968220888496400,6.602496337890625,-0.23915736377239227,1.7427300214767456,-0.9445322751998901
1778968220898490400,6.612490478515625,-0.07218356430530548,2.4867732524871826,-1.183829426765442
1778968220908483600,6.622483642578125,0.33265039324760437,2.930129051208496,-1.326478123664856
1778968220918477300,6.632477294921875,0.7577636241912842,2.9414420127868652,-1.2455140352249146
1778968220928471300,6.64247119140625,0.9495847821235657,2.7105870246887207,-0.8402590155601501
1778968220938464500,6.652464599609375,0.9355522990226746,2.185159206390381,-0.11241284012794495
1778968220948458500,6.66245849609375,0.6454158425331116,1.0888336896896362,1.1471480131149292
1778968220958451200,6.672451171875,0.28769686818122864,-1.0645214319229126,3.254244804382324
1778968220968445200,6.682445068359375,-0.18199393153190613,-3.793687582015991,4.900537014007568
1778968220978439400,6.692439453125,-1.0719387531280518,-3.4846742153167725,3.1676862239837646
1778968220988432400,6.702432373046875,-1.067991018295288,-2.2066867351531982,1.5042874813079834
1778968220998426400,6.71242626953125,-0.8322671055793762,0.8899869322776794,0.7990073561668396
1778968221008420400,6.72242041015625,-0.42767858505249023,2.7874932289123535,0.45408764481544495
1778968221018413300,6.732413330078125,-0.14852045476436615,0.45411643385887146,0.8996638059616089
1778968221028407300,6.7424072265625,-0.654306948184967,0.6324793100357056,1.25112783908844
1778968221038400500,6.752400390625,-0.7680425643920898,0.6209491491317749,1.420300841331482
1778968221048394500,6.76239453125,-1.1641275882720947,1.1875746250152588,1.2083635330200195
1778968221058388500,6.772388427734375,-2.1961939334869385,1.237720012664795,0.3197982609272003
1778968221068381200,6.782381103515625,-3.073746919631958,0.06959585100412369,-0.5618788599967957
1778968221078375400,6.79237548828125,-2.9875051975250244,-0.9528670310974121,-0.9290880560874939
1778968221088368400,6.802368408203125,-2.2486114501953125,-0.26412105560302734,-0.3990043103694916
1778968221098362400,6.8123623046875,-1.7455679178237915,0.8180561065673828,0.9223600625991821
1778968221108356400,6.8223564453125,-1.8161569833755493,1.6644189357757568,2.108814001083374
1778968221118349300,6.832349365234375,-1.9591972827911377,1.9864190816879272,2.475205421447754
1778968221128344300,6.84234423828125,-1.7389695644378662,1.7846556901931763,2.0177114009857178
1778968221138337300,6.852337158203125,-1.3477716445922852,1.7688612937927246,1.0139429569244385
1778968221148331300,6.862331298828125,-0.766796886920929,2.109255790710449,-0.04857281222939491
1778968221158325200,6.8723251953125,-0.24143086373806,2.2664568424224854,-0.7871353030204773
1778968221168318200,6.882318115234375,0.012734530493617058,2.1992685794830322,-1.0129677057266235
1778968221178312200,6.892312255859375,0.1142481118440628,2.2488088607788086,-0.6399344801902771
1778968221188305400,6.902305419921875,0.14074435830116272,1.8704004287719727,0.17929422855377197
1778968221198299100,6.912299072265625,0.17384426295757294,0.2611055076122284,0.8199586272239685
1778968221208293000,6.922293212890625,0.12381264567375183,-1.4946610927581787,1.1668305397033691
1778968221218286300,6.932286376953125,0.14438609778881073,-2.4910478591918945,1.2621570825576782
1778968221228280300,6.9422802734375,0.22782033681869507,-2.7679026126861572,1.194561243057251
1778968221238273300,6.952273193359375,0.2796630561351776,-2.613335371017456,1.0550568103790283
1778968221248267300,6.962267333984375,0.3686038553714752,-2.20943021774292,0.8640410304069519
1778968221258261200,6.97226123046875,0.5720486044883728,-1.7320082187652588,0.6137406229972839
1778968221268254200,6.982254150390625,0.8182042837142944,-1.3249386548995972,0.3263096511363983
1778968221278248200,6.992248291015625,1.0344442129135132,-1.0242537260055542,-0.013209582306444645
1778968221288241200,7.0022412109375,1.1592354774475098,-0.8220854997634888,-0.4302572011947632
1778968221298235100,7.012235107421875,1.2480132579803467,-0.6392677426338196,-0.912286639213562
1778968221308229000,7.02222900390625,1.3178162574768066,-0.4087645411491394,-1.4395025968551636
1778968221318222300,7.032222412109375,1.3203436136245728,-0.11088941991329193,-1.939735770225525
1778968221328216300,7.04221630859375,1.263927936553955,0.23747389018535614,-2.327302932739258
1778968221338209300,7.052209228515625,1.1895993947982788,0.4912385046482086,-2.533499002456665
1778968221348203300,7.062203369140625,1.0830445289611816,0.4580087959766388,-2.4507901668548584
1778968221358197200,7.072197265625,0.9754639863967896,0.023204877972602844,-1.9932973384857178
1778968221368190200,7.082190185546875,0.8727701902389526,-0.4433014690876007,-1.3402231931686401
1778968221378184200,7.09218408203125,0.9496521949768066,-0.47135788202285767,-0.8915622234344482
1778968221388177200,7.10217724609375,1.069650411605835,-0.1648748368024826,-0.7605397701263428
1778968221398171100,7.112171142578125,1.2487351894378662,0.22347423434257507,-0.4726001024246216
1778968221408165000,7.1221650390625,1.3806040287017822,0.7501661777496338,0.9038881063461304
1778968221418158300,7.132158447265625,1.1227525472640991,-0.6518741250038147,2.76322340965271
1778968221428152300,7.14215234375,0.7521443963050842,-3.451092004776001,3.0507113933563232
1778968221438145300,7.152145263671875,0.593305766582489,-5.576070785522461,1.6714028120040894
1778968221448139300,7.16213916015625,0.5749227404594421,-5.3060407638549805,0.16930310428142548
1778968221458133200,7.17213330078125,0.5417589545249939,-3.8424477577209473,-0.9496170878410339
1778968221468126200,7.182126220703125,0.5653077960014343,-2.4785728454589844,-1.8046541213989258
1778968221478120400,7.192120361328125,0.5746115446090698,-1.554418921470642,-2.294534683227539
1778968221488113200,7.202113037109375,0.6692954897880554,-0.9404756426811218,-2.4194228649139404
1778968221498107100,7.212107177734375,0.8042423725128174,-0.5041041970252991,-2.2603261470794678
1778968221508100400,7.222100341796875,0.8527960181236267,-0.14731065928936005,-1.9767237901687622
1778968221518094300,7.23209423828125,0.8158150911331177,0.1826121211051941,-1.6820214986801147
1778968221528088300,7.24208837890625,0.618501603603363,0.46829959750175476,-1.4000438451766968
1778968221538081300,7.252081298828125,0.4902035593986511,0.8010059595108032,-1.1465601921081543
1778968221548075300,7.2620751953125,0.41688185930252075,1.1417585611343384,-0.9553348422050476
1778968221558068200,7.272068115234375,0.31209656596183777,1.3697986602783203,-0.8687277436256409
1778968221568062200,7.282062255859375,0.20725812017917633,1.4381487369537354,-0.8683071732521057
1778968221578056400,7.292056396484375,0.06914739310741425,1.3660463094711304,-0.8995521664619446
1778968221588049200,7.302049072265625,-0.047517627477645874,1.260899543762207,-0.9309023022651672
1778968221598043100,7.312043212890625,-0.09131837636232376,1.2185909748077393,-0.9842475652694702
1778968221608036400,7.322036376953125,-0.11302675306797028,1.3207950592041016,-1.0297590494155884
1778968221618030300,7.3320302734375,-0.10387586057186127,1.708996295928955,-1.027686595916748
1778968221628023000,7.34202294921875,-0.050525933504104614,2.3142940998077393,-0.9884225726127625
1778968221638017300,7.352017333984375,0.024813825264573097,2.7938413619995117,-0.8901902437210083
1778968221648011300,7.36201123046875,0.07697263360023499,2.8000895977020264,-0.6977704763412476
1778968221658004200,7.372004150390625,0.06416336447000504,2.377425193786621,-0.37336012721061707
1778968221667998200,7.381998291015625,-0.10108521580696106,1.809835433959961,0.10440650582313538
1778968221677991200,7.3919912109375,-0.43073713779449463,1.3443095684051514,0.8252126574516296
1778968221687985200,7.401985107421875,-0.5760848522186279,0.36556142568588257,2.028677463531494
1778968221697979100,7.411979248046875,-0.896013617515564,-1.3890180587768555,3.5130584239959717
1778968221707972400,7.421972412109375,-1.320204496383667,-1.2265959978103638,2.4927806854248047
1778968221717966300,7.43196630859375,-1.0778627395629883,-0.7970322966575623,1.551041841506958
1778968221727959000,7.441958984375,-0.9335771799087524,1.0993907451629639,1.4864073991775513
1778968221737953300,7.451953369140625,-0.9169755578041077,2.3193016052246094,1.4836816787719727
1778968221747946200,7.4619462890625,-1.031422734260559,0.09938742220401764,2.111617088317871
1778968221757940200,7.471940185546875,-1.5832188129425049,1.068345546722412,2.588756561279297
1778968221767934200,7.481934326171875,-1.3319220542907715,0.7502288222312927,2.9416966438293457
1778968221777927200,7.49192724609375,-1.5381934642791748,1.1882104873657227,2.422053575515747
1778968221787921200,7.501921142578125,-2.2628393173217773,1.4627636671066284,1.4971113204956055
1778968221797914400,7.511914306640625,-2.3708760738372803,1.3312194347381592,0.8324840068817139
1778968221807908400,7.521908447265625,-1.9065738916397095,1.456842303276062,0.5167588591575623
1778968221817901300,7.5319013671875,-1.543015956878662,1.7234119176864624,0.5753281712532043
1778968221827895000,7.54189501953125,-1.2113527059555054,1.7142674922943115,0.9433481693267822
1778968221837889300,7.55188916015625,-0.9413619637489319,1.482905387878418,1.5304689407348633
1778968221847882200,7.56188232421875,-0.8749314546585083,1.707669973373413,1.9457460641860962
1778968221857876200,7.571876220703125,-0.8087742924690247,2.212747573852539,1.836877703666687
1778968221867869400,7.581869384765625,-0.5249985456466675,2.660421848297119,1.1234461069107056
1778968221877863200,7.59186328125,-0.1173088401556015,2.6418190002441406,0.04216008633375168
1778968221887856000,7.601856201171875,0.1156177669763565,2.326019763946533,-0.8211828470230103
1778968221897850400,7.611850341796875,0.21824614703655243,1.9327502250671387,-0.9887071251869202
1778968221907844400,7.62184423828125,0.15147072076797485,1.523263931274414,-0.5163615942001343
1778968221917837300,7.63183740234375,-0.046044472604990005,1.1250587701797485,0.2041773945093155
1778968221927831300,7.641831298828125,-0.1293216049671173,0.729733407497406,0.799048900604248
1778968221937824300,7.65182421875,-0.024132341146469116,0.48686400055885315,1.2446613311767578
1778968221947818200,7.661818359375,0.2602657377719879,0.3506733179092407,1.4976493120193481
1778968221957811500,7.6718115234375,0.6331621408462524,0.26201295852661133,1.5097757577896118
1778968221967805200,7.68180517578125,1.034952163696289,0.03257596120238304,1.3377056121826172
1778968221977799200,7.691799072265625,1.3931199312210083,-0.13925331830978394,1.056857705116272
1778968221987792100,7.701792236328125,1.5165222883224487,-0.22275182604789734,0.6774711608886719
1778968221997786400,7.711786376953125,1.249755859375,-0.46266481280326843,0.1728045642375946
1778968222007779300,7.721779296875,0.7081874012947083,-0.724702775478363,-0.33281755447387695
1778968222017773000,7.73177294921875,0.09189329296350479,-1.0132805109024048,-0.8567000031471252
1778968222027766300,7.741766357421875,-0.2688773572444916,-1.292797565460205,-1.4684216976165771
1778968222037760300,7.75176025390625,-0.126132994890213,-1.4427002668380737,-1.9738537073135376
1778968222047754200,7.761754150390625,0.3065614104270935,-1.3716228008270264,-2.2443654537200928
1778968222057747500,7.77174755859375,0.8100655674934387,-1.088333010673523,-2.344374179840088
1778968222067741200,7.7817412109375,1.1585233211517334,-0.7604389190673828,-2.352740526199341
1778968222077734100,7.791734130859375,1.054577112197876,-0.5270650386810303,-2.2352442741394043
1778968222087728400,7.801728271484375,0.8354814648628235,-0.35418736934661865,-1.911700963973999
1778968222097721300,7.811721435546875,0.7163100838661194,-0.026940003037452698,-1.5046859979629517
1778968222107715300,7.82171533203125,0.5238624811172485,-0.005184042267501354,-1.1772040128707886
1778968222117708300,7.831708251953125,-0.021536951884627342,-0.005133708473294973,-1.2227765321731567
1778968222127704800,7.841704833984375,-0.758366048336029,-1.2066371440887451,-1.5530680418014526
1778968222137698800,7.85169873046875,-0.44697803258895874,-3.200286388397217,-1.539893627166748
1778968222147692000,7.861692138671875,0.973508894443512,-2.8165462017059326,-0.5339531898498535
1778968222157686000,7.87168603515625,1.1929328441619873,-2.173776388168335,1.2921042442321777
1778968222167678700,7.8816787109375,0.17476558685302734,-3.7204911708831787,3.6419243812561035
1778968222177673000,7.8916728515625,-0.4923549294471741,-4.504729747772217,4.245439529418945
1778968222187666000,7.901666015625,-0.5584452748298645,-4.459691524505615,3.084277868270874
1778968222197660000,7.911659912109375,-0.3225161135196686,-3.9727284908294678,1.125277042388916
1778968222207652900,7.92165283203125,-0.0030755572952330112,-2.9491007328033447,-0.6866582632064819
1778968222217646800,7.931646728515625,0.26422619819641113,-1.791175365447998,-1.8611284494400024
1778968222227640800,7.941640869140625,0.4695468842983246,-0.9042098522186279,-2.466951370239258
1778968222237634000,7.951634033203125,0.6197541952133179,-0.33042436838150024,-2.732651948928833
1778968222247628000,7.9616279296875,0.7294816970825195,0.12030091136693954,-2.778561592102051
1778968222257620700,7.971620849609375,0.7828450202941895,0.6281010508537292,-2.6973493099212646
1778968222267614700,7.98161474609375,0.733618438243866,0.9696975946426392,-2.5620150566101074
1778968222277608000,7.99160791015625,0.6488044857978821,1.2305158376693726,-2.397531747817993
1778968222287602000,8.001601806640625,0.5676395297050476,1.403287410736084,-2.2022528648376465
1778968222297595000,8.011594970703126,0.5156301259994507,1.4438140392303467,-1.9452123641967773
1778968222307588900,8.0215888671875,0.44575193524360657,1.4157195091247559,-1.658517599105835
1778968222317582800,8.031582763671874,0.3020573556423187,1.32209312915802,-1.390439748764038
1778968222327575800,8.041575927734375,0.08994981646537781,1.2239716053009033,-1.2021092176437378
1778968222337570000,8.051570068359375,-0.13592031598091125,1.339100956916809,-1.1279596090316772
1778968222347562800,8.061562744140625,-0.26997753977775574,1.915826439857483,-1.1927191019058228
1778968222357556700,8.071556640625,-0.2062632441520691,2.6800742149353027,-1.3471089601516724
1778968222367550000,8.081550048828126,0.014789366163313389,3.226301908493042,-1.4576225280761719
1778968222377544000,8.0915439453125,0.283022940158844,3.345402479171753,-1.4082118272781372
1778968222387537000,8.101536865234374,0.5052950978279114,3.121882200241089,-1.1967195272445679
1778968222397531000,8.11153076171875,0.5167991518974304,2.617835283279419,-0.7840419411659241
1778968222407523800,8.12152392578125,0.2975713014602661,1.4254961013793945,0.08939722925424576
1778968222417517800,8.131517822265625,0.39526456594467163,-1.2732678651809692,2.0565080642700195
1778968222427511800,8.14151171875,0.4356604516506195,-4.2127156257629395,4.4703264236450195
1778968222437505000,8.151505126953126,-0.15845881402492523,-4.113041877746582,4.278755187988281
1778968222447498800,8.161498779296876,-0.5366824269294739,-1.4599491357803345,2.912907123565674
1778968222457492000,8.171491943359374,-0.8201045393943787,1.2100640535354614,1.8502205610275269
1778968222467486000,8.18148583984375,-0.7589326500892639,0.7076248526573181,1.8223708868026733
1778968222477479000,8.19147900390625,-0.8252818584442139,0.6272714138031006,2.1122050285339355
1778968222487473000,8.201472900390625,-1.094731092453003,0.7360683083534241,2.529165744781494
1778968222497465900,8.2114658203125,-2.3519668579101562,1.9979562759399414,2.090967893600464
1778968222507459800,8.2214599609375,-3.4759719371795654,2.1089577674865723,1.3819366693496704
1778968222517453000,8.231453125,-3.425191879272461,1.286624789237976,1.146777629852295
1778968222527447000,8.241447021484374,-2.2924818992614746,1.3306092023849487,1.6263604164123535
1778968222537440800,8.251440673828125,-1.3856502771377563,1.6035689115524292,2.742896556854248
1778968222547433700,8.261433837890625,-1.1807457208633423,1.4757169485092163,3.880999803543091
1778968222557428000,8.271427978515625,-1.2906436920166016,1.7408177852630615,4.285628795623779
1778968222567421000,8.2814208984375,-1.1503568887710571,2.0107126235961914,3.7922873497009277
1778968222577415000,8.291414794921875,-0.7788693904876709,2.098863363265991,2.434265375137329
1778968222587408000,8.301407958984376,-0.39286738634109497,2.0249016284942627,0.7335476875305176
1778968222597401900,8.31140185546875,-0.10376713424921036,2.0197253227233887,-0.6837770938873291
1778968222607394800,8.321394775390624,0.09368383139371872,1.974329948425293,-1.5408967733383179
1778968222617389000,8.33138916015625,0.1700156182050705,1.6705106496810913,-1.7295801639556885
1778968222627381800,8.3413818359375,0.17194460332393646,1.3067682981491089,-1.33823823928833
1778968222637375700,8.351375732421875,0.11936181783676147,0.9874017238616943,-0.7747892737388611
1778968222647369000,8.361368896484375,0.11321574449539185,0.5431841015815735,-0.3106219172477722
1778968222657363000,8.371363037109376,0.20179380476474762,0.09541246294975281,0.13719765841960907
1778968222667355600,8.381355712890626,0.36353951692581177,-0.33146899938583374,0.44117286801338196
1778968222677350000,8.391349853515624,0.5665054321289062,-0.6801947355270386,0.4444434940814972
1778968222687343900,8.40134375,0.8173883557319641,-1.0709567070007324,0.17840465903282166
1778968222697336800,8.4113369140625,0.9896730780601501,-1.3684866428375244,-0.2102900892496109
1778968222707330800,8.421330810546875,1.0095198154449463,-1.5900099277496338,-0.45479705929756165
1778968222717323800,8.43132373046875,0.8400790095329285,-1.6905927658081055,-0.50591641664505
1778968222727317800,8.44131787109375,0.5466222167015076,-1.6501975059509277,-0.43612024188041687
1778968222737311000,8.45131103515625,0.2284306287765503,-1.4977246522903442,-0.32758259773254395
1778968222747305000,8.461304931640624,0.032784827053546906,-1.5919078588485718,-0.4762927293777466
1778968222757298000,8.4712978515625,0.3256869912147522,-2.0980379581451416,-1.1397095918655396
1778968222767292000,8.4812919921875,0.8944964408874512,-2.445974588394165,-1.9907368421554565
1778968222777284900,8.491284912109375,1.0640188455581665,-2.007601022720337,-2.3131682872772217
1778968222787278800,8.50127880859375,0.8748340606689453,-1.203027367591858,-2.0235190391540527
1778968222797272000,8.51127197265625,0.6528851389884949,-0.6240601539611816,-1.5249403715133667
1778968222807266000,8.52126611328125,0.4462622106075287,-0.6930948495864868,-1.1192983388900757
1778968222817258800,8.5312587890625,0.30665290355682373,-1.4193670749664307,-0.966851532459259
1778968222827253000,8.5412529296875,0.23515000939369202,-2.1127023696899414,-1.0484775304794312
1778968222837246000,8.551245849609375,0.26071155071258545,-1.8680567741394043,-1.1410704851150513
1778968222847240000,8.561239990234375,1.0178073644638062,-1.189874529838562,-1.0962116718292236
1778968222857233000,8.57123291015625,1.4975711107254028,-0.011508581228554249,-0.6885802149772644
1778968222867227000,8.581226806640625,0.9512815475463867,1.2043967247009277,0.1167154386639595
1778968222877220900,8.591220947265626,0.24755989015102386,1.939831256866455,1.069353461265564
1778968222887213800,8.6012138671875,-0.15581193566322327,-0.47572073340415955,2.3881800174713135
1778968222897208000,8.6112080078125,-0.4360273480415344,-4.447115898132324,2.8713366985321045
1778968222907200800,8.62120068359375,-0.6018346548080444,-4.954079627990723,1.1217008829116821
1778968222917194800,8.63119482421875,-0.3137837052345276,-3.2531228065490723,-1.0138989686965942
1778968222927188000,8.64118798828125,-0.06394062936306,-1.6150074005126953,-2.493757486343384
1778968222937182000,8.651181884765625,-0.05490744858980179,-0.9781912565231323,-3.2411701679229736
1778968222947175000,8.6611748046875,-0.16339653730392456,-0.7121288776397705,-3.511127471923828
1778968222957169000,8.6711689453125,-0.2730002701282501,-0.2799385190010071,-3.568627119064331
1778968222967161900,8.681161865234374,-0.37432634830474854,0.18751095235347748,-3.5070722103118896
1778968222977155800,8.69115576171875,-0.46362319588661194,0.5987141728401184,-3.3494889736175537
1778968222987149000,8.701149169921875,-0.433886855840683,0.9740591049194336,-3.08982253074646
1778968222997142800,8.711142822265625,-0.30102044343948364,1.2938232421875,-2.774409532546997
1778968223007135700,8.7211357421875,-0.11695607006549835,1.395443320274353,-2.4603271484375
1778968223017130000,8.7311298828125,0.06188557669520378,1.2953369617462158,-2.192164182662964
1778968223027123000,8.741123046875,0.19906723499298096,1.0628888607025146,-1.9882577657699585
1778968223037117000,8.751116943359374,0.27427464723587036,0.789310872554779,-1.8505501747131348
1778968223047110000,8.76110986328125,0.2779097259044647,0.6221073865890503,-1.7960352897644043
1778968223057104000,8.771103759765625,0.24495017528533936,0.9380778670310974,-1.8102744817733765
1778968223067096800,8.781096923828125,0.215387761592865,1.7181106805801392,-1.8045282363891602
1778968223077091000,8.791091064453125,0.28430452942848206,2.6061935424804688,-1.7269729375839233
1778968223087083800,8.801083740234375,0.4256303012371063,3.1491963863372803,-1.5066760778427124
1778968223097077800,8.811077880859376,0.5519701242446899,3.1830742359161377,-1.1152342557907104
1778968223107071000,8.821071044921876,0.5832671523094177,2.696176767349243,-0.5400992631912231
1778968223117065000,8.83106494140625,0.4492185711860657,1.6057137250900269,0.2652001678943634
1778968223127057700,8.8410576171875,0.44909512996673584,0.2153455913066864,1.2037383317947388
1778968223137052000,8.851052001953125,0.5128171443939209,-1.2245084047317505,2.1395158767700195
1778968223147044600,8.861044677734375,0.6063182353973389,-3.294780731201172,3.285090923309326
1778968223157038600,8.87103857421875,0.4989584684371948,-4.941544055938721,3.9994449615478516
1778968223167031800,8.88103173828125,0.4741663634777069,-3.8648812770843506,3.7918121814727783
1778968223177025800,8.89102587890625,0.1246781274676323,-0.2137913852930069,2.873546838760376
1778968223187019800,8.901019775390624,0.015695471316576004,1.2203967571258545,2.2392990589141846
1778968223197012700,8.9110126953125,-0.016628379002213478,-0.42751404643058777,2.6140799522399902
1778968223207006700,8.9210068359375,-0.30581822991371155,-1.7221896648406982,3.4895212650299072
1778968223216999700,8.930999755859375,-0.6185652017593384,-1.5703867673873901,3.9443395137786865
1778968223226994000,8.940993896484375,-2.32066011428833,0.8451322913169861,3.0253705978393555
1778968223236987000,8.95098681640625,-3.3508737087249756,1.9958230257034302,1.966573715209961
1778968223246980600,8.960980712890626,-2.2554867267608643,1.824987530708313,1.619498372077942
1778968223256973800,8.970973876953124,-1.1470118761062622,1.8651235103607178,2.0058305263519287
1778968223266967800,8.9809677734375,-0.7856213450431824,1.3649195432662964,2.7455527782440186
1778968223276960800,8.990960693359375,-0.7493032813072205,0.899384617805481,3.2640645503997803
1778968223286954800,9.000954833984375,-0.6135386824607849,0.8170819878578186,3.25376033782959
1778968223296947700,9.01094775390625,-0.3523520529270172,0.9697309136390686,2.768670082092285
1778968223306941700,9.020941650390625,-0.06384307891130447,1.0689451694488525,1.86238694190979
1778968223316935000,9.030934814453126,0.22720368206501007,1.2012161016464233,0.7173418402671814
1778968223326929000,9.040928955078124,0.47008320689201355,1.379429578781128,-0.37844640016555786
1778968223336921600,9.050921630859374,0.7050487995147705,1.5343576669692993,-1.236249327659607
1778968223346915800,9.060915771484375,0.8449885845184326,1.487101674079895,-1.7875492572784424
1778968223356908800,9.07090869140625,0.9215211868286133,1.3616987466812134,-2.0675244331359863
1778968223366902800,9.08090283203125,0.9739304184913635,1.3399344682693481,-1.940206527709961
1778968223376895700,9.090895751953125,0.9822933077812195,1.3452130556106567,-1.3104687929153442
1778968223386889700,9.1008896484375,0.9640530347824097,1.0636863708496094,-0.3871823847293854
1778968223396882700,9.110882568359376,0.8965051770210266,0.6961973309516907,0.5079830288887024
1778968223406877000,9.120876953125,0.8276776075363159,0.3887966275215149,1.1195943355560303
1778968223416870000,9.130869873046874,0.852175235748291,0.17777280509471893,1.4307447671890259
1778968223426863600,9.140863525390625,0.9898616671562195,0.11030633002519608,1.6123102903366089
1778968223436856800,9.15085693359375,1.252990484237671,0.08758264034986496,1.8003425598144531
1778968223446850800,9.160850830078125,1.381490707397461,-0.5494807958602905,1.3114683628082275
1778968223456843800,9.17084375,1.069100260734558,-1.9546312093734741,-0.4900658130645752
1778968223466837800,9.180837646484376,0.8730769753456116,-2.4702601432800293,-1.6742711067199707
1778968223476830700,9.190830810546874,0.8834172487258911,-2.381854295730591,-2.3181700706481934
1778968223486824700,9.20082470703125,0.878778338432312,-1.7264325618743896,-2.686291217803955
1778968223496818000,9.21081787109375,0.8766635656356812,-0.6239933371543884,-2.8534440994262695
1778968223506812000,9.22081201171875,0.8677347302436829,0.3665704131126404,-2.9655144214630127
1778968223516804600,9.2308046875,0.8343389630317688,1.1342228651046753,-2.978391170501709
1778968223526798800,9.240798828125,0.7173669934272766,1.8806794881820679,-2.824967384338379
1778968223536791800,9.250791748046876,0.4533148407936096,2.449244737625122,-2.579763650894165
1778968223546784800,9.26078466796875,-0.15999771654605865,2.712571382522583,-2.272048234939575
1778968223556778800,9.27077880859375,-1.20053231716156,2.377432107925415,-1.9974418878555298
1778968223566771700,9.280771728515624,-1.2594795227050781,1.065051794052124,-1.8529393672943115
1778968223576765700,9.290765625,1.220611572265625,-0.3316899836063385,-1.7427105903625488
1778968223586759000,9.300759033203125,3.0213425159454346,-0.6942453384399414,-1.7790886163711548
1778968223596753000,9.3107529296875,2.230121612548828,-0.4160579741001129,-1.6971724033355713
1778968223606745600,9.32074560546875,1.6710830926895142,-0.7316809296607971,-1.582305908203125
1778968223616739800,9.33073974609375,1.424283742904663,-1.5340297222137451,-1.5544735193252563
1778968223626732800,9.34073291015625,1.141782522201538,-2.5278120040893555,-1.3134715557098389
1778968223636726800,9.350726806640624,0.7879486083984375,-4.026301383972168,-0.5289813280105591
1778968223646719700,9.3607197265625,0.34716835618019104,-5.83245325088501,0.8618969917297363
1778968223656713700,9.370713623046875,-0.5623235106468201,-6.227370262145996,1.9578126668930054
1778968223666706700,9.380706787109375,-1.553272008895874,-5.208413124084473,2.129917621612549
1778968223676701000,9.390700927734375,-1.992234468460083,-3.6590211391448975,1.6470834016799927
1778968223686693600,9.400693603515625,-1.7036635875701904,-2.186905860900879,0.6991386413574219
1778968223696687600,9.4106875,-0.9144736528396606,-0.31558728218078613,-0.35308724641799927
1778968223706680800,9.420680908203124,-0.037758298218250275,1.00934898853302,-1.0662235021591187
1778968223716674800,9.4306748046875,0.3634463846683502,1.540143609046936,-1.4579044580459595
1778968223726667800,9.440667724609375,0.5591872334480286,1.7137008905410767,-1.6387319564819336
1778968223736661800,9.450661865234375,0.6148307919502258,1.8366636037826538,-1.7552969455718994
1778968223746654700,9.46065478515625,0.5899516940116882,1.9219818115234375,-1.8040740489959717
1778968223756648700,9.470648681640625,0.5710014700889587,1.8542972803115845,-1.7781349420547485
1778968223766642000,9.480641845703126,0.607153594493866,1.6963592767715454,-1.6876201629638672
1778968223776635600,9.4906357421875,0.6576204895973206,1.5971077680587769,-1.5663810968399048
1778968223786628600,9.500628662109374,0.7080382108688354,1.624411940574646,-1.4374428987503052
1778968223796622800,9.510622802734375,0.7732433080673218,1.9275296926498413,-1.3250889778137207
1778968223806615800,9.52061572265625,0.8582316040992737,2.4521472454071045,-1.2163283824920654
1778968223816609800,9.53060986328125,0.9387525320053101,2.9646053314208984,-1.0960040092468262
1778968223826602800,9.540602783203125,1.0246686935424805,3.4745030403137207,-0.9523100256919861
1778968223836596700,9.5505966796875,1.149868130683899,3.2339704036712646,-0.9054117798805237
1778968223846589700,9.560589599609376,1.3780770301818848,2.7785634994506836,-0.8922996520996094
1778968223856584000,9.570583984375,1.2549530267715454,2.1556410789489746,-0.8814073204994202
1778968223866576600,9.58057666015625,0.452282577753067,1.1419081687927246,-0.8040428757667542
1778968223876569900,9.59056982421875,-0.5354974269866943,0.004331494215875864,-0.5687363147735596
1778968223886563800,9.600563720703125,-1.1325174570083618,-0.9165042042732239,-0.12996762990951538
1778968223896556800,9.610556884765625,-1.3392951488494873,-1.3796072006225586,0.46874773502349854
1778968223906550800,9.62055078125,-1.3253034353256226,-0.8980912566184998,1.0109992027282715
1778968223916543700,9.630543701171876,-1.1840263605117798,0.5712004899978638,1.4953209161758423
1778968223926537700,9.640537841796874,-1.1598113775253296,2.5427072048187256,1.9648926258087158
1778968223936531000,9.650531005859374,-2.4281229972839355,3.762253999710083,2.2836153507232666
1778968223946525000,9.66052490234375,-3.4898245334625244,-0.498456746339798,3.0775890350341797
1778968223956517600,9.670517578125,-3.027559757232666,-5.382965087890625,4.130374908447266
1778968223966511600,9.68051171875,-3.216151475906372,-4.982221603393555,4.75977087020874
1778968223976504800,9.6905048828125,-3.695556163787842,-0.9898091554641724,4.482658386230469
1778968223986498800,9.700498779296876,-2.8288702964782715,2.494720697402954,4.178147792816162
1778968223996491800,9.71049169921875,-1.6838406324386597,3.8341400623321533,3.8303635120391846
1778968224006485800,9.72048583984375,-0.8712393045425415,4.081965923309326,3.2125468254089355
1778968224016478700,9.730478759765624,-0.6395503878593445,3.835768461227417,2.5778725147247314
1778968224026472700,9.74047265625,-0.5336012244224548,3.4297661781311035,2.1658947467803955
1778968224036466000,9.7504658203125,-0.3037501573562622,2.967078924179077,1.9305959939956665
1778968224046459600,9.760459716796875,-0.03536108136177063,2.3668885231018066,1.5518338680267334
1778968224056452900,9.770452880859375,0.20552289485931396,1.594718098640442,1.108638048171997
1778968224066445800,9.78044580078125,0.27976536750793457,1.0608879327774048,0.7133261561393738
1778968224076439800,9.790439697265626,0.16249892115592957,0.9457243084907532,0.534214437007904
1778968224086432800,9.800432861328124,0.205016627907753,1.17657470703125,0.9149104952812195
1778968224096426800,9.8104267578125,0.33439433574676514,1.285145878791809,1.7826120853424072
1778968224106419700,9.820419677734375,0.45209699869155884,0.874292254447937,2.569592237472534
1778968224116414000,9.8304140625,0.6205011606216431,0.0911138728260994,2.8730175495147705
1778968224126406700,9.84040673828125,0.8014348149299622,-0.9827567934989929,2.6189117431640625
1778968224136397300,9.850397216796875,0.8249960541725159,-1.6815578937530518,2.2135045528411865
1778968224146390300,9.860390380859375,0.6539645791053772,-1.8785611391067505,1.7587252855300903
1778968224156384300,9.87038427734375,0.4025523364543915,-1.8023897409439087,1.1917747259140015
1778968224166377200,9.880377197265625,0.17513951659202576,-1.5242024660110474,0.5574844479560852
1778968224176371500,9.890371337890626,-0.0487992987036705,-1.0791096687316895,-0.13630840182304382
1778968224186364200,9.9003642578125,-0.21959485113620758,-0.6184377670288086,-0.8613810539245605
1778968224196357400,9.910357421875,-0.23280306160449982,-0.40658271312713623,-1.578316569328308
1778968224206351400,9.920351318359375,-0.01064365915954113,-0.4811983108520508,-2.2181413173675537
1778968224216344300,9.93034423828125,0.3643169105052948,-0.6644805073738098,-2.682340621948242
1778968224226338000,9.940338134765625,0.5164384841918945,-0.7798915505409241,-2.897728443145752
1778968224236331300,9.950331298828125,0.5130022168159485,-0.7325059175491333,-2.9464781284332275
1778968224246325200,9.9603251953125,0.46604353189468384,-0.5330072045326233,-2.8873789310455322
1778968224256318200,9.970318115234376,0.5677586793899536,-0.15481220185756683,-2.6846272945404053
1778968224266312400,9.9803125,0.5509105324745178,0.22938722372055054,-2.3348355293273926
1778968224276305200,9.99030517578125,0.3749147653579712,0.7404736876487732,-1.8248941898345947
1778968224286299100,10.000299072265625,0.18300995230674744,1.6954107284545898,-1.123083233833313
1778968224296292400,10.010292236328125,0.08834948390722275,2.4866387844085693,-0.3840230703353882
1778968224306286300,10.020286376953125,0.49768003821372986,1.4666578769683838,-0.27757248282432556
1778968224316279300,10.030279296875,1.853234052658081,-1.159997820854187,-1.3412246704101562
1778968224326272300,10.040272216796875,3.072995185852051,-2.1427268981933594,-2.133204936981201
1778968224336266200,10.050266357421876,2.9627504348754883,-0.7169539928436279,-1.9556570053100586
1778968224346259500,10.060259521484374,2.1336495876312256,0.9233874678611755,-1.0238522291183472
1778968224356253200,10.070253173828124,1.3501248359680176,1.7226332426071167,0.03746780753135681
1778968224366246100,10.08024609375,0.4908994138240814,1.078347086906433,1.1318349838256836
1778968224376240000,10.090240234375,-0.2627788782119751,-0.5227395296096802,2.0707976818084717
1778968224386233300,10.1002333984375,-0.9309478998184204,-1.7645454406738281,2.3148303031921387
1778968224396227300,10.110227294921875,-1.6965912580490112,-2.0718348026275635,1.6450026035308838
1778968224406220300,10.12022021484375,-2.0790252685546875,-1.7188369035720825,0.1510544866323471
1778968224416214300,10.13021435546875,-1.8717902898788452,-0.9560593366622925,-1.4547160863876343
1778968224426207200,10.140207275390624,-1.5211092233657837,-0.5503798127174377,-2.470040798187256
1778968224436200400,10.150200439453124,-1.2708873748779297,-0.4186643362045288,-2.806934118270874
1778968224446194200,10.160194091796875,-1.0729467868804932,-0.1715310662984848,-2.7168502807617188
1778968224456187100,10.170187255859375,-0.9120454788208008,0.11599444597959518,-2.447288751602173
1778968224466181400,10.180181396484375,-0.8059635162353516,0.3711862862110138,-2.0980756282806396
1778968224476174300,10.19017431640625,-0.753257155418396,0.5096490979194641,-1.7554551362991333
1778968224486168000,10.20016796875,-0.6698198914527893,0.6436017155647278,-1.4729418754577637
1778968224496161300,10.210161376953126,-0.5680450201034546,0.8423182964324951,-1.2940880060195923
1778968224506155300,10.2201552734375,-0.5429384708404541,1.0321816205978394,-1.146890640258789
1778968224516148200,10.230148193359375,-0.6135686635971069,1.123294711112976,-1.060314655303955
1778968224526142500,10.240142578125,-0.7589476108551025,1.1708317995071411,-1.0817723274230957
1778968224536135200,10.25013525390625,-0.8350740671157837,1.4079711437225342,-1.1598923206329346
1778968224546128400,10.26012841796875,-0.9054938554763794,1.8183892965316772,-1.2853800058364868
1778968224556122400,10.270122314453126,-0.9746021032333374,2.1676199436187744,-1.3958556652069092
1778968224566115300,10.280115234375,-1.0229681730270386,2.345388174057007,-1.4371665716171265
1778968224576109000,10.290109130859374,-1.0368627309799194,2.348952293395996,-1.422552227973938
1778968224586102300,10.300102294921874,-1.0186684131622314,2.17704701423645,-1.3583176136016846
1778968224596096300,10.31009619140625,-0.9125762581825256,1.8542252779006958,-1.18902587890625
1778968224606089500,10.32008935546875,-0.6020404100418091,1.312091588973999,-0.8124345541000366
1778968224616083500,10.33008349609375,-0.10472702980041504,0.4274802505970001,-0.1471276432275772
1778968224626076200,10.340076171875,0.7484629154205322,-1.4103561639785767,1.1070538759231567
1778968224636069400,10.3500693359375,1.7886559963226318,-3.288287401199341,2.4135284423828125
1778968224646063400,10.3600634765625,2.395792245864868,-3.9518463611602783,3.057762622833252
1778968224656056000,10.37005615234375,2.946032762527466,-3.756931781768799,3.362482786178589
1778968224666050300,10.38005029296875,2.596794605255127,-2.4122889041900635,3.1359057426452637
1778968224676043300,10.390043212890625,1.8994656801223755,-0.8450865745544434,2.59394907951355
1778968224686037200,10.400037353515625,2.2084898948669434,-0.9286746978759766,2.1250646114349365
1778968224696030500,10.410030517578125,2.6547651290893555,-3.5876526832580566,2.2623164653778076
1778968224706024200,10.420024169921875,-0.1700952798128128,-4.622077465057373,2.8292782306671143
1778968224716017200,10.43001708984375,-3.07541823387146,-3.383554220199585,2.92331862449646
1778968224726010400,10.44001025390625,-3.501102924346924,-0.9839687347412109,2.5072574615478516
1778968224736004400,10.45000439453125,-1.3422406911849976,1.037042498588562,2.029491424560547
1778968224745997300,10.459997314453124,-0.21762026846408844,1.2018918991088867,1.8062947988510132
1778968224755991300,10.4699912109375,-0.21983255445957184,0.939632773399353,1.8742761611938477
1778968224765984300,10.479984375,-0.15817709267139435,0.9964116811752319,2.143153667449951
1778968224775978200,10.489978271484375,-0.06704186648130417,1.2273658514022827,2.370077133178711
1778968224785971200,10.49997119140625,-0.001275278627872467,1.4576749801635742,2.5099823474884033
1778968224795965200,10.509965087890626,0.06636954098939896,1.5389256477355957,2.458815574645996
1778968224805958100,10.519958251953126,0.08818530291318893,1.4853042364120483,2.1020514965057373
1778968224815951400,10.529951416015624,0.02074287459254265,1.521274447441101,1.5039626359939575
1778968224825945300,10.5399453125,-0.029517926275730133,1.7456223964691162,0.7635981440544128
1778968224835938300,10.549938232421875,-0.0016804356127977371,1.9240330457687378,0.057290028780698776
1778968224845932300,10.559932373046875,0.12087614089250565,2.0910708904266357,-0.504776656627655
1778968224855925200,10.56992529296875,0.29145851731300354,2.113351821899414,-0.9428988695144653
1778968224865919200,10.579919189453125,0.41385725140571594,1.9858499765396118,-1.1878918409347534
1778968224875912200,10.589912109375,0.5241693258285522,1.7003772258758545,-1.2534797191619873
1778968224885905200,10.5999052734375,0.5878022909164429,1.2874525785446167,-1.184618592262268
1778968224895899400,10.6098994140625,0.6162126660346985,0.8626708984375,-0.9982317090034485
1778968224905892400,10.619892333984374,0.6109376549720764,0.5591741800308228,-0.7709943652153015
1778968224915886000,10.629885986328125,0.5903700590133667,0.40105539560317993,-0.5435814261436462
1778968224925879300,10.63987939453125,0.5772541761398315,0.3645360767841339,-0.31431376934051514
1778968224935873300,10.649873291015625,0.6081771850585938,0.3812205195426941,-0.06165515258908272
1778968224945866200,10.6598662109375,0.7129996418952942,0.3592131435871124,0.19009853899478912
1778968224955859200,10.669859130859376,1.003291130065918,0.38353872299194336,0.3680781424045563
1778968224965853200,10.679853271484374,1.3514007329940796,0.25223350524902344,0.3164687752723694
1778968224975846400,10.689846435546874,1.017892837524414,-1.5524182319641113,-1.0356847047805786
1778968224985840400,10.69984033203125,-0.13828502595424652,-4.133632659912109,-3.0012171268463135
1778968224995833000,10.7098330078125,-0.6223075985908508,-4.456323146820068,-3.574826955795288
1778968225005827000,10.7198271484375,-0.6322438716888428,-3.383814573287964,-3.5518856048583984
1778968225015820300,10.7298203125,-0.5534196496009827,-1.5980820655822754,-3.263237476348877
1778968225025813200,10.739813232421875,-0.5716371536254883,-0.08008948713541031,-2.7926743030548096
1778968225035807500,10.749807373046876,-0.5603493452072144,0.763900637626648,-2.1516776084899902
1778968225045800200,10.75980029296875,-0.6052291989326477,0.9144623279571533,-1.5565141439437866
1778968225055794200,10.769794189453124,-0.9478914737701416,0.343980997800827,-1.2607344388961792
1778968225065787400,10.779787353515625,-2.332845449447632,-0.7036786079406738,-1.3338840007781982
1778968225075781400,10.789781494140625,1.1840839385986328,-0.41394051909446716,-2.3327994346618652
1778968225085774000,10.799774169921875,2.395552396774292,1.0152536630630493,-2.8749582767486572
1778968225095767300,10.809767333984375,1.6745275259017944,1.261857032775879,-2.0275604724884033
1778968225105761300,10.81976123046875,1.5885589122772217,-2.4890666007995605,-0.3409145474433899
1778968225115754200,10.829754150390626,1.7213904857635498,-4.85416316986084,1.7621227502822876
1778968225125748200,10.839748291015624,1.4802130460739136,-4.37593412399292,3.063554286956787
1778968225135741400,10.849741455078124,0.6951954960823059,-2.9223639965057373,3.2398693561553955
1778968225145735400,10.8597353515625,-0.23922234773635864,-2.015714168548584,2.3722362518310547
1778968225155728600,10.869728759765625,-0.7559666633605957,-1.5743000507354736,0.8222001194953918
1778968225165721300,10.879721435546875,-0.8674288392066956,-1.3754467964172363,-0.8015197515487671
1778968225175715300,10.88971533203125,-0.7388474345207214,-1.1219524145126343,-2.1070799827575684
1778968225185708500,10.89970849609375,-0.571965217590332,-0.9786016941070557,-2.924144983291626
1778968225195702500,10.90970263671875,-0.3897503614425659,-0.8864235281944275,-3.282559871673584
1778968225205695700,10.91969580078125,-0.2206518054008484,-0.7515133023262024,-3.346829652786255
1778968225215689500,10.929689453125,-0.09696635603904724,-0.6040410399436951,-3.2486789226531982
1778968225225682400,10.939682373046875,0.08675084263086319,-0.4471416175365448,-3.08197021484375
1778968225235675600,10.949675537109375,0.1514696478843689,-0.2221766710281372,-2.8624465465545654
1778968225245669600,10.959669677734375,0.21871314942836761,0.0612233467400074,-2.6133875846862793
1778968225255662300,10.969662353515625,0.27163735032081604,0.4495963752269745,-2.381502389907837
1778968225265656600,10.979656494140626,0.14713862538337708,0.779809296131134,-2.1890323162078857
1778968225275649500,10.9896494140625,-0.015037237666547298,1.2720303535461426,-2.017568826675415
1778968225285643500,10.9996435546875,-0.12209305912256241,1.9788693189620972,-1.8519303798675537
1778968225295636500,11.009636474609374,-0.17820453643798828,2.618151903152466,-1.627664566040039
1778968225305629400,11.01962939453125,-0.22599735856056213,3.0710296630859375,-1.3255184888839722
1778968225315623400,11.02962353515625,-0.22183936834335327,3.216257095336914,-0.9553021192550659
1778968225325616600,11.03961669921875,-0.11452370136976242,3.0410046577453613,-0.5624035000801086
1778968225335610600,11.049610595703125,0.025291459634900093,2.5838334560394287,-0.27793046832084656
1778968225345603600,11.059603515625,-0.09315044432878494,1.5391160249710083,-0.5240592360496521
1778968225355596500,11.069596435546876,-0.6366086602210999,-0.1563497930765152,-1.1515573263168335
1778968225365590500,11.079590576171874,-0.9775908589363098,-1.2323743104934692,-1.1907997131347656
1778968225375583500,11.08958349609375,-1.013068675994873,-1.6470404863357544,-0.7771279215812683
1778968225385577500,11.099577392578125,-0.8597552180290222,-1.5690226554870605,-0.04615604504942894
1778968225395570400,11.1095703125,-0.736327052116394,-1.1438101530075073,0.97342449426651
1778968225405563600,11.119563720703125,-0.8693225979804993,-0.6612597703933716,2.082907199859619
1778968225415557600,11.1295576171875,-1.0286030769348145,-0.23882462084293365,3.0364108085632324
1778968225425550300,11.13955029296875,-0.5603845119476318,-0.8404775261878967,4.079678058624268
1778968225435544600,11.149544677734376,1.1385810375213623,-3.5835516452789307,5.441590309143066
1778968225445537500,11.15953759765625,2.5302577018737793,-6.277635097503662,5.949100971221924
1778968225455531500,11.169531494140625,-0.15362603962421417,-5.445911884307861,4.144558906555176
1778968225465524500,11.1795244140625,-2.251432180404663,-2.6983211040496826,2.847290277481079
1778968225475517400,11.189517333984375,-1.8883709907531738,-0.890558660030365,2.796422243118286
1778968225485511400,11.199511474609375,-1.1836692094802856,-0.3045888841152191,3.124742269515991
1778968225495504600,11.209504638671875,-0.7516104578971863,-0.33340373635292053,3.6264491081237793
1778968225505498400,11.219498291015626,-0.8984721302986145,-0.20414786040782928,4.28375244140625
1778968225515491600,11.22949169921875,-1.1226228475570679,0.08802781254053116,4.635339736938477
1778968225525484500,11.239484619140624,-1.11578369140625,0.17682798206806183,4.4774065017700195
1778968225535478500,11.249478515625,-0.8526570200920105,0.412603497505188,3.829896926879883
1778968225545471500,11.259471435546875,-0.4005275368690491,0.7868812084197998,2.819958448410034
1778968225555465500,11.269465576171875,0.08238691836595535,1.0476579666137695,1.7075397968292236
1778968225565458400,11.27945849609375,0.42437782883644104,1.0926779508590698,0.6271413564682007
1778968225575451600,11.28945166015625,0.5976430773735046,0.8758974671363831,-0.16289101541042328
1778968225585445400,11.2994453125,0.6671252250671387,0.45681196451187134,-0.5963584780693054
1778968225595438600,11.3094384765625,0.6970759630203247,-0.011296107433736324,-0.7763466238975525
1778968225605432600,11.3194326171875,0.7183488607406616,-0.3589763939380646,-0.7619205117225647
1778968225615425500,11.329425537109374,0.7338111996650696,-0.4677108824253082,-0.6172981262207031
1778968225625418500,11.33941845703125,0.7636677622795105,-0.3587647080421448,-0.42437535524368286
1778968225635412500,11.34941259765625,0.8482053279876709,-0.0558498278260231,-0.26238539814949036
1778968225645405400,11.359405517578125,1.0082553625106812,0.391413152217865,-0.10994518548250198
1778968225655399700,11.369399658203125,1.247965693473816,0.9108017683029175,0.11293795704841614
1778968225665392400,11.379392333984375,1.5968478918075562,1.389375925064087,0.45535755157470703
1778968225675385600,11.389385498046876,2.0577328205108643,1.7463220357894897,0.9087399840354919
1778968225685379600,11.399379638671874,2.581108331680298,1.9585005044937134,1.3715167045593262
1778968225695372500,11.40937255859375,3.1336216926574707,2.0538434982299805,1.8044551610946655
1778968225705366500,11.419366455078125,2.8719396591186523,0.75767982006073,0.755460798740387
1778968225715359500,11.429359375,1.1606550216674805,-3.022152900695801,-2.272738456726074
1778968225725352400,11.4393525390625,0.5147417187690735,-2.5945656299591064,-2.4955084323883057
1778968225735346400,11.449346435546875,0.2143760472536087,-0.8855278491973877,-2.208220958709717
1778968225745339600,11.459339599609375,-0.08462945371866226,-0.006571044679731131,-1.978061318397522
1778968225755333400,11.46933349609375,-0.2886424958705902,-0.09084171801805496,-1.7518824338912964
1778968225765326600,11.47932666015625,-0.458693265914917,-0.20225326716899872,-1.3493062257766724
1778968225775319600,11.489319580078124,-0.7865169048309326,0.2792273461818695,-1.0480166673660278
1778968225785313500,11.4993134765625,-1.8193354606628418,1.1255401372909546,-1.3054835796356201
1778968225795306500,11.509306396484375,-3.5519280433654785,1.0157158374786377,-1.8480027914047241
1778968225805300500,11.519300537109375,-4.1352338790893555,0.017927294597029686,-2.572230100631714
1778968225815293400,11.52929345703125,-2.268580913543701,-0.6512641310691833,-3.174548625946045
1778968225825286700,11.53928662109375,1.3007203340530396,-1.3494768142700195,-3.348766803741455
1778968225835280400,11.5492802734375,1.4474818706512451,-1.7116435766220093,-3.062317371368408
1778968225845273600,11.559273681640626,0.784578263759613,-2.4040651321411133,-2.4427132606506348
1778968225855267600,11.569267578125,0.16185367107391357,-3.7569782733917236,-1.4275484085083008
1778968225865260500,11.579260498046875,-0.0772622600197792,-6.445815086364746,1.2852727174758911
1778968225875253500,11.58925341796875,-0.5269207954406738,-3.900242805480957,3.305359125137329
1778968225885247500,11.59924755859375,-0.5326878428459167,-1.4219262599945068,2.6200802326202393
1778968225895240400,11.609240478515625,-0.30857881903648376,-0.27614301443099976,1.15180242061615
1778968225905234700,11.619234619140625,-0.2719503343105316,0.1917743682861328,-0.3526373505592346
1778968225915227400,11.629227294921876,-0.06640757620334625,0.33472245931625366,-1.4195646047592163
1778968225925220600,11.639220703125,0.16478048264980316,0.6429631114006042,-2.1009793281555176
1778968225935214600,11.649214599609374,0.2790740430355072,0.5791972279548645,-2.529269218444824
1778968225945207600,11.65920751953125,0.24179726839065552,0.6225973963737488,-2.867995023727417
1778968225955200500,11.669200439453125,0.2746385633945465,1.067516565322876,-3.1501588821411133
1778968225965194500,11.679194580078125,0.3891860842704773,1.4944055080413818,-3.241910219192505
1778968225975187500,11.6891875,0.3420398533344269,2.0083138942718506,-3.1304030418395996
1778968225985181700,11.699181640625,0.012781518511474133,2.447111129760742,-2.8279428482055664
1778968225995174400,11.70917431640625,-0.4738248586654663,2.757558822631836,-2.422672986984253
1778968226005167400,11.71916748046875,-0.9451879262924194,3.269150733947754,-2.0275797843933105
1778968226015161600,11.72916162109375,-1.2211891412734985,4.148261070251465,-1.9013139009475708
1778968226025154600,11.739154541015624,-1.1978716850280762,3.3829545974731445,-2.53812837600708
1778968226035148500,11.7491484375,-1.0364164113998413,2.1790833473205566,-2.6666717529296875
1778968226045141500,11.7591416015625,-1.0151491165161133,1.8355101346969604,-2.0296998023986816
1778968226055134500,11.769134521484375,-0.9554402232170105,1.387017846107483,-1.1681162118911743
1778968226065128400,11.77912841796875,-0.7621164917945862,0.6124517321586609,-0.07074953615665436
1778968226075121400,11.789121337890625,-0.43763798475265503,-0.30310121178627014,1.0456308126449585
1778968226085114400,11.7991142578125,-0.034614793956279755,-1.071703314781189,1.8521833419799805
1778968226095108600,11.809108642578124,0.36240607500076294,-2.3275046348571777,2.5629663467407227
1778968226105101600,11.8191015625,0.31169915199279785,-2.9103097915649414,2.8819406032562256
1778968226115095600,11.829095458984375,-0.13455423712730408,-2.231154203414917,2.7134201526641846
1778968226125088500,11.839088623046875,-0.6772139072418213,-0.9514914751052856,2.293619394302368
1778968226135084300,11.849084228515625,-0.9172244071960449,-0.00525381974875927,1.9528621435165405
1778968226145078500,11.85907861328125,-0.6648010611534119,0.4879487156867981,1.7627842426300049
1778968226155071500,11.869071533203124,-0.5900314450263977,0.5139164328575134,1.698604941368103
1778968226165065500,11.8790654296875,-0.9823423027992249,0.20848146080970764,2.0313384532928467
1778968226175058400,11.889058349609375,-1.2546675205230713,0.21153397858142853,2.8994245529174805
1778968226185051400,11.899051513671875,-1.2269426584243774,0.5644623041152954,4.025998592376709
1778968226195045400,11.90904541015625,-0.9861254692077637,0.8888697028160095,4.757279396057129
1778968226205038600,11.91903857421875,-0.7931249737739563,1.4361622333526611,4.83686637878418
1778968226215031300,11.92903125,-0.7306751608848572,1.709477424621582,4.398451328277588
1778968226225025500,11.939025634765626,-0.7077286839485168,0.8645679950714111,3.6143221855163574
1778968226235018500,11.9490185546875,-0.7011948823928833,-0.276053249835968,2.9989981651306152
1778968226245012500,11.959012451171875,-0.7390375137329102,-0.7074538469314575,2.6159462928771973
1778968226255005400,11.96900537109375,-0.6931933164596558,-0.4337138831615448,2.3812263011932373
1778968226264998400,11.978998291015625,-0.651227593421936,-0.205500066280365,2.096803903579712
1778968226274992400,11.988992431640625,-0.6011519432067871,0.09375987201929092,1.7362748384475708
1778968226284985600,11.998985595703125,-0.5374817252159119,0.4457513988018036,1.4411615133285522
1778968226294978300,12.008978271484375,-0.4639127254486084,0.7047424912452698,1.2207250595092773
1778968226304972300,12.01897216796875,-0.44608303904533386,0.7845497727394104,1.0092053413391113
1778968226314965500,12.028965576171874,-0.3830931484699249,0.5966174006462097,0.7337586879730225
1778968226324959500,12.03895947265625,-0.2870011031627655,0.0898890569806099,0.4755624830722809
1778968226334952400,12.048952392578125,-0.24782094359397888,-0.4036295711994171,0.2679871618747711
1778968226344945400,12.0589453125,-0.24313519895076752,-0.6577019691467285,0.11973457038402557
1778968226354939400,12.068939453125,-0.2462015599012375,-0.7123127579689026,0.07153774797916412
1778968226364932600,12.0789326171875,-0.261385440826416,-0.644700288772583,0.09543026238679886
1778968226374925300,12.08892529296875,-0.2801322042942047,-0.5115792751312256,0.11496641486883163
1778968226384919300,12.098919189453126,-0.20978817343711853,-0.39909064769744873,0.2402408868074417
1778968226394912500,12.10891259765625,-0.020274166017770767,-0.34038791060447693,0.35925623774528503
1778968226404905200,12.1189052734375,0.12903177738189697,-0.34264200925827026,0.21483734250068665
1778968226414899500,12.1288994140625,0.30395087599754333,-0.3993716239929199,-0.20334206521511078
1778968226424892400,12.138892333984375,0.48662611842155457,-0.49694615602493286,-0.8006475567817688
1778968226434886400,12.148886474609375,0.6039998531341553,-0.5863149166107178,-1.3725062608718872
1778968226444879600,12.158879638671875,0.6630972027778625,-0.5399627089500427,-1.8330649137496948
1778968226454872300,12.168872314453125,0.7032510042190552,-0.37005943059921265,-2.169539213180542
1778968226464866300,12.1788662109375,0.7082824110984802,-0.25360697507858276,-2.3250999450683594
1778968226474859500,12.188859619140626,0.6906384229660034,-0.17020633816719055,-2.2692410945892334
1778968226484852200,12.198852294921876,0.6487781405448914,-0.09528668969869614,-2.0157432556152344
1778968226494846500,12.208846435546874,0.6227135062217712,-0.1321863979101181,-1.6128946542739868
1778968226504839400,12.21883935546875,0.7511969208717346,-0.1773034930229187,-1.3137623071670532
1778968226514832400,12.228832275390625,0.9545135498046875,-0.24771533906459808,-1.4598557949066162
1778968226524826600,12.23882666015625,1.3281608819961548,-0.679408848285675,-1.9751012325286865
1778968226534819300,12.2488193359375,1.8500704765319824,-0.8090406060218811,-2.474431037902832
1778968226544813300,12.258813232421875,1.8804062604904175,-0.46159613132476807,-2.520355701446533
1778968226554806500,12.268806640625,1.889797329902649,-0.25099655985832214,-2.077443838119507
1778968226564799500,12.278799560546876,1.737910270690918,0.06497499346733093,-1.6182574033737183
1778968226574793200,12.288793212890624,1.3995574712753296,0.21882569789886475,-1.2214319705963135
1778968226584786400,12.298786376953124,1.0523338317871094,-0.6356372833251953,-0.3407541513442993
1778968226594779400,12.308779296875,0.4164537191390991,-3.20426082611084,1.7210822105407715
1778968226604773600,12.318773681640625,-0.1283109188079834,-2.8091824054718018,2.498889684677124
1778968226614766300,12.328766357421875,-0.05994810909032822,-2.1945056915283203,1.5127463340759277
1778968226624759600,12.338759521484375,0.19588789343833923,-2.106243133544922,-0.347173273563385
1778968226634753500,12.34875341796875,0.41527482867240906,-2.1709718704223633,-2.237258195877075
1778968226644746500,12.35874658203125,0.7205548286437988,-1.9043115377426147,-3.523719310760498
1778968226654740200,12.368740234375,1.1830053329467773,-1.2249484062194824,-4.005253314971924
1778968226664733400,12.3787333984375,1.5276843309402466,-0.740588903427124,-4.032548904418945
1778968226674726400,12.388726318359375,1.4810940027236938,-0.3297904431819916,-3.850738763809204
1778968226684720600,12.398720703125,1.224692463874817,0.17757876217365265,-3.380859136581421
1778968226694713300,12.40871337890625,0.9976630210876465,0.4918605387210846,-2.7191333770751953
1778968226704706300,12.418706298828125,0.7657947540283203,0.5991664528846741,-2.094271183013916
1778968226714700500,12.428700439453126,0.5432596802711487,0.6576182842254639,-1.6752933263778687
1778968226724693500,12.438693603515626,0.39941635727882385,0.8911446928977966,-1.4827762842178345
1778968226734686500,12.4486865234375,0.2963104546070099,1.1738758087158203,-1.4639687538146973
1778968226744680400,12.458680419921874,0.24908266961574554,1.5667892694473267,-1.4729607105255127
1778968226754673400,12.46867333984375,0.2315521389245987,1.8156754970550537,-1.4133647680282593
1778968226764666400,12.478666259765625,0.21910488605499268,1.906125783920288,-1.2317181825637817
1778968226774660400,12.488660400390625,0.17511852085590363,1.918982982635498,-0.9401737451553345
1778968226784653300,12.4986533203125,0.11129829287528992,1.7225430011749268,-0.5984465479850769
1778968226794646500,12.508646484375,0.03166525065898895,1.3836555480957031,-0.2639670968055725
1778968226804640500,12.518640625,-0.06797479093074799,1.020638108253479,0.10321995615959167
1778968226814633500,12.528633544921876,-0.17348842322826385,0.7250757217407227,0.5621166825294495
1778968226824626400,12.53862646484375,-0.29221057891845703,0.6106768250465393,1.011712670326233
1778968226834620400,12.548620361328124,-0.47011345624923706,0.6806039810180664,1.2386326789855957
1778968226844613400,12.55861328125,-0.582683265209198,1.022346019744873,1.2210429906845093
1778968226854607400,12.568607421875,-0.5698457956314087,0.08328592777252197,1.3173887729644775
1778968226864600300,12.578600341796875,-0.5029414892196655,0.24469144642353058,1.5202181339263916
