time,seconds_elapsed,z,y,x
1780098596485940700,0.059940673828125,1.160830077779293,-0.3289525529026985,-0.5095964490944519
1780098596495933000,0.069932861328125,2.085783945760131,0.4536807563334703,-1.861201575653255
1780098596505923800,0.079923828125,2.913293923076987,0.3600006021171808,-2.3801034305684268
1780098596515915800,0.089915771484375,3.147898797765374,-0.21575404374599455,-1.9460843831688164
1780098596525907700,0.09990771484375,2.3104414269298315,-0.5077782572239637,-1.0133768323212862
1780098596535900000,0.10989990234375,1.7702572761416435,-0.3339589828878641,-0.13318864632733166
1780098596545891800,0.119891845703125,1.53266198746562,-0.24936755953431128,0.9523504820156842
1780098596555883800,0.1298837890625,1.4531529819428919,-0.27723580966889855,1.9240338794022798
1780098596565875700,0.139875732421875,1.575872183638811,-0.04698679210245609,2.093538213148713
1780098596575868000,0.149867919921875,1.498776668998599,0.18339783454239367,1.340923756209761
1780098596585859800,0.15985986328125,1.4525070852547883,0.23855302779227494,0.26898557545691726
1780098596595851800,0.169851806640625,1.7440765407025813,0.34963878257870673,-0.5054717338472604
1780098596605843700,0.17984375,2.307130110424757,0.08670125511437654,-0.7348277480967342
1780098596615836000,0.1898359375,2.667308991718292,-0.45186844621449707,-0.3605040215946734
1780098596625827800,0.199827880859375,3.010087825399637,-0.906155936269462,-0.06541925150230526
1780098596635820000,0.209820068359375,3.2767186544239517,-0.6933604500681162,-0.34668080955594777
1780098596645811000,0.21981103515625,2.8575685287237165,-0.4942468677386641,-0.3232061182051897
1780098596655802600,0.229802734375,2.632379132634401,-0.7276099256724119,0.24186989725530147
1780098596665794800,0.239794921875,1.8367197530865669,-1.1803107310578227,1.0086094717890024
1780098596675786800,0.249786865234375,0.6892261267423629,-1.7212559293463825,1.9591788425415753
1780098596685779000,0.259779052734375,0.0270224469602108,-1.6030468985512851,2.1411894605092705
1780098596695770600,0.2697705078125,-0.03391571360528469,-0.9095403180107474,1.0887035837233066
1780098596705762800,0.2797626953125,0.5334311693966388,-0.5503738286301494,0.29451120798811314
1780098596715754800,0.289754638671875,0.8360784836977719,-0.2791048184111714,0.5780225907951593
1780098596725747000,0.299746826171875,1.21175070219934,-0.07058335626721382,0.9096194476615637
1780098596735739000,0.30973876953125,0.23329905278682708,-0.6233125158518552,-0.4053132504623383
1780098596745730800,0.319730712890625,-2.5041952357918023,-1.113218431776762,-1.671983364394307
1780098596755722800,0.32972265625,-5.059063843244314,-1.7800152845680712,-1.208967793482542
1780098596765715000,0.33971484375,-5.515241092568636,-2.97095408488512,-0.8065844589922576
1780098596775707000,0.349706787109375,-4.341102620404959,-3.8893005174249407,-0.1458759862039238
1780098596785697800,0.35969775390625,-2.6823586768120524,-4.052700689077377,1.6566496016621588
1780098596795689700,0.369689697265625,-1.7454378921836613,-3.498864737294614,1.7185564611293374
1780098596805681700,0.379681640625,-1.4820207645088432,-1.8593778673574328,0.6786676155880094
1780098596815673900,0.389673828125,-2.8457857364714143,-0.20503508133292198,-0.10594072004817426
1780098596825665800,0.399665771484375,-4.053743476128578,1.3732774811953306,-0.34298538910411297
1780098596835657700,0.40965771484375,-4.715803948047757,3.255718244232237,0.4147983602315187
1780098596845649700,0.419649658203125,-5.407503771427273,4.872114745961129,0.8162217636484652
1780098596855641900,0.429641845703125,-5.677174114277959,4.274522654560208,0.1645137589175254
1780098596865633800,0.4396337890625,-4.587699546182155,3.0975200251370665,0.28959143337309357
1780098596875625700,0.449625732421875,-3.231982856118679,1.5106617525815962,0.47112471615262325
1780098596885617700,0.45961767578125,-2.061831407764554,-0.3109229752153158,1.223278058385849
1780098596895609900,0.46960986328125,-0.42411271654367444,-1.3494579219296574,2.7240637291193006
1780098596905601800,0.479601806640625,1.7590613438665865,-1.4451719200611113,3.9169036868825553
1780098596915594000,0.489593994140625,3.2428882810145616,-0.14886837295293806,2.8270009565025567
1780098596925585700,0.499585693359375,3.2839065201014277,0.9022554216995835,1.6428664293728767
1780098596935576800,0.509576904296875,2.4815403363913298,1.0865978436157107,1.644838898489624
1780098596945568800,0.51956884765625,1.2458160534083842,1.036251511952281,1.8435938766397535
1780098596955561000,0.52956103515625,-0.036233342897892,0.918302885659039,1.459434254169464
1780098596965553000,0.539552978515625,-0.8143950596779584,0.9226260095551609,0.6658479545686393
1780098596975544600,0.549544677734375,-0.9487889170765876,0.7842766925290227,0.13086129935830831
1780098596985536800,0.559536865234375,-0.2933341270327568,0.8638789292931556,0.04239179246239364
1780098596995528700,0.56952880859375,0.3469423831015825,0.8914195549085736,0.03876256911456585
1780098597005521000,0.57952099609375,0.40845688225030896,0.29533377641737457,-0.1844040159102529
1780098597015512800,0.589512939453125,1.233069384559989,0.43884909790456295,-0.4252607906002551
1780098597025504800,0.5995048828125,1.6378373491644858,0.2528241297289729,-0.6516570782613009
1780098597035496700,0.60949658203125,2.053265239471197,-0.07325345225930213,-0.7119086448021232
1780098597045489000,0.619489013671875,2.9344869332313537,-0.16584201184660197,-0.5222671666298061
1780098597055480800,0.629480712890625,4.205951222637295,-0.3323547625616193,0.37383945011645553
1780098597065472800,0.63947265625,3.9473604922056196,-0.6831304402157664,0.8597150876119732
1780098597075464700,0.649464599609375,2.9035692323982714,-0.5512018038868903,0.43978922829888756
1780098597085456000,0.659455810546875,1.779046147274971,-0.010123919129371642,0.040539807920157905
1780098597095447800,0.66944775390625,1.1249983014196157,0.18138649471998214,-0.2256424736190587
1780098597105440000,0.67943994140625,1.3531541460990906,0.175170688945055,-0.4005443555600941
1780098597115431700,0.689431640625,2.0242542490422726,-0.011158522874116897,-0.27711276781111954
1780098597125423900,0.699423828125,2.614530756732821,-0.0170621939599514,-0.06375709044374525
1780098597135415800,0.709415771484375,2.847550408056378,0.0634191637262702,0.07867796152606606
1780098597145408000,0.719407958984375,2.859917722198367,0.07633651296645402,0.2423305735696107
1780098597155399700,0.729399658203125,2.6981086191296577,0.052536242923140526,0.30784071822576226
1780098597165392000,0.739391845703125,1.7920272094011305,-0.07719400657862424,0.17210739238429815
1780098597175383800,0.7493837890625,0.2477414196372032,-0.20562223357111215,-0.17509192462041973
1780098597185375700,0.759375732421875,-0.6937438964277506,0.002199263609945774,-0.468743666234985
1780098597195368000,0.769367919921875,-0.9686702601104974,0.20564473766386507,-0.687985771292448
1780098597205359600,0.779359619140625,-0.8349439267098904,0.2744198754653334,-0.7749928774856031
1780098597215351800,0.789351806640625,-0.47717736725509163,0.32493454943299294,-0.7668236726205796
1780098597225343700,0.79934375,-0.1534557007431984,0.2419680969327688,-0.7499285788558423
1780098597235335000,0.8093349609375,-0.04621989938318729,0.04355360278338194,-0.7839723027549683
1780098597245326800,0.819326904296875,-0.3034375878959894,-0.18506167610138655,-0.8496773854613303
1780098597255318800,0.82931884765625,-0.6610387276560068,-0.29765549736320973,-0.8785004521027207
1780098597265310700,0.839310791015625,-0.9532646011859178,-0.29553660551309585,-0.8646972599387168
1780098597275303000,0.849302978515625,-1.1861030507236718,-0.28079817832559345,-1.001519221267104
1780098597285294800,0.859294921875,-1.3529811276197432,-0.30307869145572186,-1.1813500109776853
1780098597295286800,0.869286865234375,-1.4687486104816196,-0.2953299770250916,-1.3016640512280164
1780098597305278700,0.87927880859375,-1.602571389994025,-0.2827837991848588,-1.413899998962879
1780098597315271000,0.88927099609375,-1.6359698017269373,-0.23893910450041292,-1.363269005139172
1780098597325262800,0.899262939453125,-1.8120260413348674,-0.12603577889800072,-1.217326018113643
1780098597335254800,0.9092548828125,-2.1672692197918892,0.17720424059927462,-0.8692064809914678
1780098597345246700,0.919246826171875,-2.6459113989025353,0.6677133831143379,-0.5232313720194622
1780098597355239000,0.929239013671875,-3.0480928541451693,1.1091586349919438,-0.28540965417642145
1780098597365230800,0.93923095703125,-3.510399984526634,1.3196934827849267,-0.08636051538530737
1780098597375223000,0.94922314453125,-3.8550878666996953,1.4076926687553524,-0.057667249136045574
1780098597385214000,0.9592138671875,-4.118763353049755,1.543122591203451,-0.2172651424286887
1780098597395205600,0.96920556640625,-4.504560659724474,1.4116001975879073,-0.7625983830757439
1780098597405197800,0.97919775390625,-4.324412766888737,1.1651862271621822,-1.4007524942286311
1780098597415189800,0.989189697265625,-3.353617769709229,0.9493933127105235,-1.7486897335864602
1780098597425182000,0.999181884765625,-1.836484775286913,0.7649155739769339,-1.7022443548843265
1780098597435173600,1.009173583984375,0.4386304867178201,0.4210872312426567,-0.9051270316131412
1780098597445165800,1.019165771484375,2.31850081474483,0.1835033407434821,-0.04513159268982708
1780098597455157800,1.02915771484375,2.389915945661068,-0.15087152946889398,-0.010797799802944064
1780098597465150000,1.03914990234375,1.8705407741457223,0.022241934685409068,-0.6889362038850784
1780098597475142000,1.049141845703125,1.0550129110455513,0.30208295841664073,-1.2121405782997607
1780098597485133800,1.0591337890625,0.793330644339323,0.17268997804522512,-1.0977009830407798
1780098597495125800,1.069125732421875,1.1286451334893703,-0.0040481063470244405,-0.8947790944695472
1780098597505118000,1.079117919921875,1.307596510016918,0.03725771750956774,-0.8750012118101119
1780098597515110000,1.08910986328125,1.2154290984511376,0.07595891182571649,-1.1789800669759511
1780098597525101800,1.099101806640625,1.429025671902299,0.016407237182557582,-1.3864482206746935
1780098597535092700,1.1090927734375,1.8081313719838856,-0.1561710971817374,-1.4024063989154993
1780098597545084700,1.119084716796875,1.9452642989575861,-0.48409518381953237,-1.3756456716313958
1780098597555076900,1.129076904296875,1.6950836694747209,-0.8187707905441522,-1.320493108730018
1780098597565068800,1.13906884765625,1.003462756550312,-0.9041051412194967,-1.2366248850844799
1780098597575060700,1.149060791015625,0.23795710772573947,-0.7112608484178781,-1.1576916336230934
1780098597585052700,1.159052734375,-0.030537761604785916,-0.18430968869030476,-1.0596618328299372
1780098597595044900,1.169044921875,-0.03247603619098663,0.26139029802232977,-0.9467689555563032
1780098597605036800,1.179036865234375,0.12717968823611736,0.47778906941264865,-0.7435370511878281
1780098597615028700,1.18902880859375,0.4469716140836477,0.3579042143598199,-0.5853302469274029
1780098597625020700,1.199020751953125,0.8386579787969589,-0.08406710721850395,-0.4486749108701944
1780098597635012900,1.209012939453125,1.2140811909735203,-0.4847887190416455,-0.3250621578680351
1780098597645004800,1.2190048828125,1.478071150100231,-0.3087567370921373,-0.08635890795011072
1780098597654997000,1.2289970703125,1.8181623521327972,0.164517777505517,0.018301088105142114
1780098597664988700,1.23898876953125,1.9293647190362213,-0.11464870796501636,-0.2926327738303691
1780098597674980900,1.24898095703125,1.8868360753864049,-0.7003028165519237,-0.6690151133626699
1780098597684971800,1.2589716796875,2.0208190138965842,-1.2147720958471298,-1.0517390039414167
1780098597694963700,1.268963623046875,2.3823013790041205,-1.395804078041017,-1.1715949982259422
1780098597704956000,1.278955810546875,2.427012627390027,-1.4707766091778873,-1.1455975103992968
1780098597714947600,1.288947509765625,2.352402499824762,-1.7695470820456742,-1.2701637282013893
1780098597724939800,1.298939697265625,2.5578525916993615,-1.8419249205142258,-1.336042706169933
1780098597734931700,1.308931640625,1.9135528173983096,-2.330246782118082,-1.128547299138084
1780098597744924000,1.318923828125,1.0250216774076222,-1.9194673021391033,-0.7056307335764169
1780098597754915800,1.328915771484375,0.9326321475237608,-0.5395750789791345,-0.33947255867756904
1780098597764907800,1.33890771484375,-2.2218419369786977,0.5670689428433776,-0.18374955232320353
1780098597774899700,1.348899658203125,-1.7695757236182688,1.3807140609368682,-0.0012414879610761998
1780098597784892000,1.358891845703125,-2.2874849142342804,1.738176376748085,0.30038981769792733
1780098597794883800,1.3688837890625,-1.395768714466691,1.6757018003955482,0.7668740145683288
1780098597804875800,1.378875732421875,-0.19681436547636985,0.7789230565413833,0.8655529269199818
1780098597814867700,1.38886767578125,0.44742344950437546,-0.7961725897669791,0.8455611092489212
1780098597824860000,1.39885986328125,1.174396246317029,-2.692204655782878,0.3398438396753743
1780098597834850800,1.408850830078125,1.2340490432471036,-3.7862744427144523,-0.7997332779232412
1780098597844843000,1.418843017578125,0.33871874463558194,-3.279363031452894,-1.3315893800228833
1780098597854834700,1.428834716796875,0.41332828767895696,-2.0360294425100087,-1.312059919166565
1780098597864827000,1.438826904296875,1.1115461146503687,-0.6338695657014847,-0.9104577981818467
1780098597874818800,1.44881884765625,0.9950240140289067,-0.008014671890437603,0.3662660922527313
1780098597884810800,1.458810791015625,0.24896307038664817,0.10953940212726593,1.691428800228983
1780098597894802700,1.468802734375,-0.5624450824350118,0.06251403158009051,2.6269655831530687
1780098597904794600,1.478794677734375,-0.8910632888168096,0.05065437469929456,2.9422961456775663
1780098597914786800,1.488786865234375,-0.47152679414749143,0.05227174676805734,2.574255152706802
1780098597924778800,1.49877880859375,0.09464461533427238,0.015789689806103704,1.6590949489876627
1780098597934771000,1.50877099609375,0.31485096231400966,0.1821267916932702,0.7852889383114874
1780098597944762600,1.5187626953125,0.14476444476544856,0.6313976226300001,0.3979362919535488
1780098597954754800,1.5287548828125,-0.5227262355089187,1.0136839985743165,0.383469448249042
1780098597964746800,1.538746826171875,-1.8510498917341232,1.2256944718778133,0.31688765577338635
1780098597974739000,1.548739013671875,-3.703990127259493,1.1963126023098827,0.07218348494023084
1780098597984729900,1.558729736328125,-4.142231322398781,1.4844190578222274,-0.02306245728805661
1780098597994721800,1.5687216796875,-4.8795694458812475,1.353669986666739,-0.053069034625589845
1780098598004713700,1.578713623046875,-1.5635925477802752,1.7956076982364058,0.37873635531254113
1780098598014706000,1.588705810546875,0.3047685442388057,1.462532220184803,1.0645864297505467
1780098598024697900,1.59869775390625,1.4296376663208008,0.5913175411760807,1.9619594131708145
1780098598034689800,1.608689697265625,2.163131973856687,0.08868073849380016,2.492606797067821
1780098598044681700,1.618681640625,2.393182838502526,0.22882775259166954,2.5849896049499512
1780098598054674000,1.628673828125,1.8073130413383245,0.47995472301393743,2.3549406400002537
1780098598064665900,1.638665771484375,0.4253349518150091,0.4962348266854882,1.907129944743961
1780098598074657800,1.64865771484375,-1.1600590934067965,0.8429849020853638,1.0849570906713604
1780098598084649700,1.658649658203125,-4.35523752874136,1.6454194748565554,-0.2580276897214353
1780098598094641700,1.6686416015625,-2.9173458288162943,2.3867551435425876,-0.975268489331752
1780098598104633900,1.6786337890625,-2.0286405013024806,2.2478177974954248,-0.6603555676974355
1780098598114625800,1.688625732421875,-1.0818716918766498,1.5820222307011484,-0.12580869214385748
1780098598124617700,1.69861767578125,0.7537970908522605,1.4656015446275472,-0.552662816350162
1780098598134609700,1.708609619140625,1.430513864633441,1.3171224632531404,-1.0000839277669786
1780098598144600800,1.718600830078125,1.6706734508395193,0.41138592143952846,-1.1970401859320698
1780098598154592800,1.7285927734375,1.6466875950962303,-0.7606462260946631,-0.9290072350248694
1780098598164585000,1.7385849609375,1.3552929116934538,-1.4372206687957048,-0.1889426091879606
1780098598174576600,1.74857666015625,0.9682511579155921,-1.319448568113148,0.8821230265140533
1780098598184568800,1.75856884765625,1.0841863985598086,-0.7441431273221969,1.8204507553309202
1780098598194560800,1.768560791015625,1.5186550894230604,-0.14070318667590617,2.4527099632263183
1780098598204553000,1.778552978515625,1.4149562300175427,0.11473813981413841,2.7089018158227205
1780098598214545000,1.788544921875,1.0951561208635567,0.32534196119010445,1.8156947929754852
1780098598224536800,1.798536865234375,0.704752197176218,0.6142553491711616,0.2770114993937313
1780098598234528800,1.80852880859375,0.32097792076170445,0.3736626322448253,-0.798887547814101
1780098598244521000,1.81852099609375,0.2446481297969818,-0.16675824990868568,-1.1993990240179002
1780098598254513000,1.828512939453125,0.555663459470868,-0.3735696932643652,-1.763396742722392
1780098598264504800,1.8385048828125,0.36870471757650375,-1.0866451898887752,0.13441972249224782
1780098598274496800,1.848496826171875,0.21093933694064615,-2.406890753598511,5.048189398008585
1780098598284487700,1.85848779296875,0.7225193245351315,-1.4602780115172267,2.6052587782576677
1780098598294480000,1.86847998046875,1.422611713206768,0.8252604448243975,-0.2580452253781259
1780098598304471800,1.878471923828125,0.042993338552117344,0.107159521253407,1.4025744489587844
1780098598314463700,1.888463623046875,-0.0815904879719019,-0.08350976559668778,0.8364462940968572
1780098598324455700,1.89845556640625,-0.1673012707442045,0.011692191359400748,0.10699190960153937
1780098598334447900,1.90844775390625,-0.8245943821310997,-0.24665683927088974,0.3911627792306244
1780098598344439800,1.918439697265625,-0.6821475666582584,0.12026800915151833,0.49227717510089275
1780098598354431700,1.928431640625,-0.1750911939680576,0.19214608140438794,0.39118338362723587
1780098598364423700,1.938423583984375,0.29309038140475746,0.00907090294510126,0.016911825703829524
1780098598374416000,1.948415771484375,-0.4104939410358667,-0.048202597633004184,-0.856920926848799
1780098598384407800,1.95840771484375,-1.4391495910316705,-0.3673421970516443,-1.7117980729103088
1780098598394400000,1.96839990234375,-1.659547661191225,-0.7095923306837677,-2.7793443023145197
1780098598404391700,1.9783916015625,-1.3910527918606996,-0.674091393713653,-2.9982550565257666
1780098598414384000,1.988384033203125,-1.3683008618265389,-0.1443413970477879,-2.9073043272733687
1780098598424376000,1.9983759765625,-1.3414362357765435,0.1852558834992349,-2.492234748885035
1780098598434367000,2.008366943359375,-1.3331313487678766,0.3000328940190375,-2.1300649860352276
1780098598444359200,2.018359130859375,-1.6560498822033405,0.0906900324895978,-2.038246241776645
1780098598454350800,2.028350830078125,-2.008432410532236,0.03938640010133385,-1.9594291640408337
1780098598464343000,2.038343017578125,-1.9747604425549505,0.6189660110801458,-1.4363142214752733
1780098598474335000,2.0483349609375,-1.6221481971234082,1.2205249602854251,-0.8358896831274032
1780098598484327200,2.0583271484375,-1.8568828356713056,1.6878896663174032,-0.29643925344124433
1780098598494318800,2.06831884765625,-2.8622008646994828,1.6830635613352058,-0.08018690478429198
1780098598504311000,2.07831103515625,-3.390641970723867,1.9764991029158234,-1.0641323293074965
1780098598514303000,2.088302978515625,-3.1298253809362646,0.8734813087664544,-0.554003709565103
1780098598524295200,2.098295166015625,-3.7663060059189792,0.18572408553287387,-0.162871909994632
1780098598534286800,2.108286865234375,-2.500539051371813,0.7970422122083604,-2.305898230542242
1780098598544279000,2.118279052734375,-1.3819213909000156,1.1233509726040065,-3.684278587834537
1780098598554271000,2.12827099609375,-0.8890209693342447,0.6893151202000677,-3.5662574808269736
1780098598564263200,2.13826318359375,0.39728199276328086,0.42985184471756216,-2.581383104890585
1780098598574255000,2.148255126953125,1.9309598792731761,0.5742626537397504,-1.9905333273567258
1780098598584247000,2.1582470703125,2.1178461404532194,0.37324353004992006,-0.999765217206627
1780098598594238000,2.168238037109375,3.2705876043230293,0.4676150275312364,-1.2697795511893928
1780098598604230000,2.17822998046875,3.645971653532982,0.7779957125633955,-2.785677304728329
1780098598614222000,2.18822216796875,1.8510387858182191,-0.25261706284955143,-0.6992398634955287
1780098598624214000,2.198214111328125,1.9086755667507647,-0.5966127249747515,-0.0761575031377375
1780098598634206000,2.2082060546875,2.279777993118763,0.11950447743311524,-0.900550809738785
1780098598644198000,2.218197998046875,1.9272043261319398,0.46388519335314626,-1.2941843629971146
1780098598654190000,2.228190185546875,2.0322832417190075,-0.04731748536154628,-0.8674941971808672
1780098598664182000,2.23818212890625,2.2257418670266866,-0.7887893476478754,-0.2871929939292371
1780098598674174000,2.248174072265625,2.723109789395332,-0.8316041147626936,0.02579860425367951
1780098598684166000,2.258165771484375,3.0890625779151915,-0.7400495743982494,0.4465206554457545
1780098598694158000,2.268157958984375,3.7628736933827396,-0.4990377552770078,0.6067303604938089
1780098598704150000,2.27814990234375,3.3457214635014534,-0.229557089779526,0.9852604526445269
1780098598714142200,2.28814208984375,2.3031541925311085,-0.4331931179694831,2.748265273439884
1780098598724134000,2.2981337890625,2.3582266759335995,-0.00480170119330287,2.662600083374977
1780098598734124800,2.308124755859375,1.907748515033722,0.6523052399717271,1.6563151090107857
1780098598744117000,2.318116943359375,1.49260119523406,0.9257553936220705,1.0655893962480127
1780098598754109000,2.32810888671875,1.5393512559711933,0.6083255937959998,0.9714468852169811
1780098598764101000,2.33810107421875,1.696868214803934,0.4067148608885705,0.8852329752281307
1780098598774092800,2.3480927734375,1.7865069846749304,0.31934228238388895,0.4032786028295755
1780098598784085000,2.3580849609375,2.524233815214038,0.006843216958269477,-1.521208865559101
1780098598794077000,2.368076904296875,1.3543296196192502,-0.7500549086492508,-1.9457704949140548
1780098598804069000,2.378069091796875,1.573925141224265,-1.2561343260660767,-1.6760791092753409
1780098598814060800,2.388060791015625,2.5580074900001284,-0.9833923937503248,-1.314786129260063
1780098598824053000,2.398052978515625,3.004683336007595,-0.2572681765910238,-0.9021770957663655
1780098598834045000,2.408044921875,3.384168390795588,0.6680189419321716,-0.08825403751432895
1780098598844037000,2.418037109375,4.278791417920589,1.5586751112528145,-0.16776391981989144
1780098598854029000,2.428029052734375,4.5877959922939535,1.6669447857052087,-0.11457681177258491
1780098598864021000,2.43802099609375,3.954602133896947,-0.4202914046898484,0.609155687944591
1780098598874013000,2.448012939453125,3.8751848983108994,-0.5473101302105933,0.8504542150527238
1780098598884005000,2.458005126953125,1.5926251655191181,-2.227887062361836,0.6845972978979349
1780098598893996000,2.46799609375,-1.3693033168673514,-3.6114074128910896,-0.9517857608050108
1780098598903988200,2.47798828125,-2.587906953701377,-4.256819532348215,-2.8220424573123455
1780098598913980000,2.48797998046875,-1.102645599836111,-2.8706150573015212,-4.670967611977458
1780098598923972000,2.49797216796875,-1.9815444036066532,-1.4270223692558706,-4.401371211145818
1780098598933964000,2.507964111328125,-3.1062749940007923,-0.5978197261443361,-2.7053973148331045
1780098598943956000,2.5179560546875,-3.4767075582832097,-0.10428645003512502,-0.9423553768977523
1780098598953948000,2.527947998046875,-3.368804817447066,-0.05460464669503271,0.06759469584524631
1780098598963939800,2.53793994140625,-1.8903332698523998,-0.18984752213843165,0.05847673888802528
1780098598973932000,2.54793212890625,-1.674711912575364,-0.770770218289271,0.8502601537853479
1780098598983924000,2.557924072265625,-0.9001642946392298,-1.1204540090534836,0.5384545505166053
1780098598993916200,2.567916259765625,-1.7528437845259903,-1.080791495424509,-0.4189674626097083
1780098599003907800,2.577907958984375,-3.72094827632308,-1.6828595631957053,-0.6198427939146757
1780098599013900000,2.587900146484375,-3.9752684898287054,-1.3719377570241689,-1.1502142834797502
1780098599023892000,2.59789208984375,-3.9745746623456477,0.31939635065868494,-1.4880404631897806
1780098599033883100,2.607883056640625,-4.960623927280307,1.9085934414252637,-0.6451724654823541
1780098599043875000,2.617875,-6.435005575212836,2.1723852476313708,1.4771259782046078
1780098599053867000,2.627866943359375,-5.773090064722299,2.6558970786049962,1.972232677643001
1780098599063859000,2.63785888671875,-4.730014259707928,3.266214503805339,1.5690113579586147
1780098599073851100,2.64785107421875,-2.9588761090785263,3.214143248045444,1.1046797360122202
1780098599083843000,2.657843017578125,-2.017755534672737,2.015762022767961,2.7443630053043364
1780098599093835000,2.6678349609375,-0.5705290201693773,0.1268013564430177,2.3604867298200727
1780098599103827000,2.677826904296875,0.037222353935241696,-0.6708071844112128,0.5315016626387834
1780098599113819100,2.687819091796875,0.36940029862523077,-0.46003721268810327,-0.04820025954544544
1780098599123811000,2.69781103515625,-0.0907785875558853,-0.2112020795300603,0.6935451589852571
1780098599133803000,2.707802978515625,-1.2781529733896255,0.3143795454099774,1.889751086050272
1780098599143795000,2.717794921875,-2.6358161213457585,0.8281810084462166,2.504379944708943
1780098599153787000,2.727786865234375,-3.911454481565952,0.8308689323559403,1.9152505612269042
1780098599163779000,2.737779052734375,-4.938681560063362,0.6288264569677412,1.0994485573604702
1780098599173771000,2.74777099609375,-4.888631873258948,0.5690542714416981,0.7806722382962703
1780098599183762200,2.75776220703125,-4.377340639477968,0.47855128595679997,0.7162173017814755
1780098599193753900,2.76775390625,-3.045744245192408,0.30470453909188505,0.7867854604795574
1780098599203746000,2.77774609375,-1.634780299681425,-0.3812164086252451,0.8237269516468048
1780098599213738000,2.787738037109375,-0.6948071417450904,-1.7633530497111378,0.24959756889790294
1780098599223730200,2.797730224609375,0.29244740732610225,-2.5190146192610263,-0.30332711325883865
1780098599233721900,2.807721923828125,1.7646785992264746,-2.2294155871033667,-0.10099836827516555
1780098599243714000,2.817714111328125,3.101886988174915,-1.7867255958616732,0.5597410841733217
1780098599253706000,2.8277060546875,4.424606833043694,-1.3781412878394126,1.2158598910838365
1780098599263698200,2.8376982421875,5.2187844496011735,-0.8170473277524113,1.9026988304287193
1780098599273690000,2.847690185546875,5.748067851668596,-0.19780147681757806,2.6525635502681135
1780098599283682000,2.85768212890625,6.250557939356565,0.32454116620123385,3.133506407536566
1780098599293674000,2.867674072265625,6.797467014485597,0.7837213967338204,3.312338249337673
1780098599303666200,2.877666259765625,7.264176763740181,1.547567003391683,3.8120270158693192
1780098599313658000,2.887658203125,7.369318223169445,2.787325656457245,4.7366599813327195
1780098599323650000,2.897650146484375,7.138080779087543,3.8140760573536157,5.570049372076988
1780098599333641000,2.907640869140625,5.124686362233757,3.3829069925576447,4.507423063418269
1780098599343633000,2.9176328125,2.1362661787629125,2.8502479765772817,2.1463433361411095
1780098599353625000,2.927625,2.0808178477853536,3.4252094262361523,0.31291911746859546
1780098599363617000,2.937616943359375,2.674928234550357,3.6053164025396107,0.46710254796445366
1780098599373609000,2.94760888671875,3.3799703545838593,3.1807389910936354,1.2383037780821322
1780098599383601000,2.957600830078125,3.332842108184099,3.2720030240789053,3.3703818575054405
1780098599393593000,2.967593017578125,2.5737469109237194,4.1430829707920545,5.9226867519497866
1780098599403585000,2.9775849609375,1.1596119341611861,3.7011785769701,4.4006420200884335
1780098599413577000,2.987576904296875,-0.1251952364206314,3.177226014536619,1.2020546530932188
1780098599423570200,2.997570068359375,-0.9847814369559288,2.808618619854748,-0.9587591069489717
1780098599433562400,3.007562255859375,-1.9380705880612135,2.2528780034944416,-1.8961118532538412
1780098599443554000,3.017553955078125,-1.9152900164544582,1.9801734075143933,-1.9843781657278536
1780098599453546200,3.027546142578125,-1.368145963525772,1.976242497806251,-1.7552695503681897
1780098599463538200,3.0375380859375,-0.996314053839445,2.4651047498971224,-1.2242208921939133
1780098599473529000,3.047529052734375,-0.16293255414068697,3.125966367420554,-0.3487064701646566
1780098599483521300,3.057521240234375,0.667177961063385,3.147456899216771,0.2282704109698534
1780098599493513200,3.06751318359375,1.2965046226382255,3.5271062046557664,0.46949148892760273
1780098599503505200,3.077505126953125,1.103479128050804,4.6795513159275055,0.26312428220808504
1780098599513497000,3.0874970703125,-1.1698410672307014,5.710298385244608,-0.8422136254519224
1780098599523489300,3.0974892578125,-2.4480823034256693,6.145270933976769,-2.2582284246116875
1780098599533481200,3.107481201171875,-3.275358764247596,4.964392924425006,-4.4052632501482964
1780098599543473200,3.11747314453125,-3.166509974732995,3.4957775849342343,-6.962299264767766
1780098599553465000,3.127465087890625,-3.7166128774672744,2.635908475804329,-9.528321134397387
1780098599563457300,3.137457275390625,-4.700461417487263,1.9398066180735825,-11.041443139612674
1780098599573449200,3.14744921875,-4.568475205752253,1.4207020801931618,-11.189355234754085
1780098599583441200,3.157441162109375,-3.7053503096967932,0.7293599842101335,-10.358587132424116
1780098599593433000,3.16743310546875,-3.309587489324808,-0.4443289906203747,-9.581610241514444
1780098599603425300,3.17742529296875,-2.6098265245646237,-1.0229659139215945,-9.346642963254451
1780098599613417200,3.187417236328125,-1.132821980782598,-0.7225152328819036,-8.683207111328839
1780098599623409200,3.1974091796875,0.39130291835367675,-0.8163666520118713,-7.82856830406785
1780098599633400300,3.207400390625,1.6493004079431295,-1.2041051558822393,-6.921592575848102
1780098599643392000,3.21739208984375,2.9037761531472204,-1.0706576394230127,-5.4429059241980315
1780098599653384200,3.22738427734375,4.03997506301701,-1.2325181804180145,-3.5014842721432444
1780098599663376100,3.237376220703125,10.250395637774467,-1.4986632717519999,-2.6314199322134253
1780098599673368300,3.247368408203125,12.846816152799128,-1.3029840477854013,-0.5422130262672901
1780098599683360000,3.257360107421875,7.626178768807649,-0.4756710543453693,0.3743558752059936
1780098599693352200,3.267352294921875,2.333581479498744,0.7418734288245439,-0.16294599814414978
1780098599703344000,3.27734423828125,-2.3713263960033655,-1.0176473492473364,-1.2097802789092063
1780098599713336300,3.28733642578125,-1.6176311580903828,-2.60127263123095,-2.779264807337522
1780098599723328000,3.297327880859375,3.1966601983249188,-2.6580764684706923,-3.6575270667701956
1780098599733320200,3.3073203125,4.953640059742331,-3.7524358859986067,-2.423793665343523
1780098599743312100,3.31731201171875,5.142814724120497,-4.28048711592257,-0.8665905263394117
1780098599753304300,3.32730419921875,5.098401581898331,-3.0434687014758586,0.14649346051514148
1780098599763296000,3.3372958984375,2.755356108483672,-2.03800395745337,1.3056699258685112
1780098599773288200,3.3472880859375,1.077346907928586,-1.9314754275798796,2.5854022774040697
1780098599783279000,3.357279052734375,1.8261591961055994,-1.4352531681150198,2.8109441401928663
1780098599793271000,3.36727099609375,0.663309522132203,-2.8804057989537712,2.722227745863795
1780098599803263200,3.37726318359375,1.1159586703956126,-2.7326334045439955,1.703149487030506
1780098599813255200,3.387255126953125,-0.5222802453070878,-4.123569876548648,1.5066770668596028
1780098599823247000,3.3972470703125,-0.17728022844493388,-4.99131541814208,0.5972925239324569
1780098599833239000,3.407239013671875,0.6908078429758548,-5.292393291169405,-0.2269324403643608
1780098599843231200,3.417231201171875,1.3515706762999296,-6.850231220945716,0.37585809646248813
1780098599853223200,3.42722314453125,2.15590962138772,-6.243735984382033,1.252002633088827
1780098599863215000,3.437215087890625,1.7970201953828333,-5.042335995805264,2.6910166150420904
1780098599873207000,3.44720703125,1.3774211568713188,-3.7987832111537454,4.31989499720335
1780098599883199200,3.45719921875,0.7896504945218563,-3.0364974011585115,4.793869769024849
1780098599893191200,3.467191162109375,0.8770704192996025,-3.231743494404852,4.288651717677713
1780098599903183000,3.47718310546875,1.3784288726091385,-3.657845631200075,3.725029992678761
1780098599913175000,3.487175048828125,2.5134417875647546,-4.694665298429131,2.5272949563503264
1780098599923166200,3.497166259765625,3.210464267271757,-5.131624052542448,1.5624749419271946
1780098599933158100,3.507158203125,2.9315140549004077,-3.2559619898602365,1.8581489100843667
1780098599943150300,3.517150390625,1.7239713257849216,-2.2001634813949464,2.0430887133717537
1780098599953142300,3.527142333984375,1.4408052492842078,-2.02721456015259,0.8830114997863769
1780098599963134200,3.53713427734375,2.7015070293962955,-1.3849582743778823,-0.035271804389357564
1780098599973126100,3.547126220703125,3.8823815318167205,-0.41221506574004885,-0.7289525724530219
1780098599983118300,3.557118408203125,4.33397496048212,-1.4831661351516843,-3.6626720284432173
1780098599993110300,3.5671103515625,3.307780147641897,-3.2744007328704,-5.913197623592615
1780098600003102000,3.57710205078125,1.9955342043839395,-2.9185803390473124,-6.434517499434947
1780098600013094100,3.58709423828125,1.2634968176580965,-2.0158914943665267,-6.0053498375892636
1780098600023086000,3.597086181640625,1.9068331537544727,0.44232408053874966,-4.41838576657176
1780098600033078300,3.607078369140625,1.1833099128738045,-0.6222434253156185,-3.1208295890539883
1780098600043070000,3.617070068359375,1.5427134258806705,-0.25835692167580127,-3.2167356026262044
1780098600053062100,3.627062255859375,1.09760263723284,1.3714353604599834,-1.950891491189599
1780098600063054000,3.63705419921875,1.108397587491572,3.3358144019931553,-0.2943786676496267
1780098600073045200,3.647045166015625,2.6503181094288824,4.754139816182851,0.8442401628434657
1780098600083037200,3.657037109375,2.114290786059201,4.494951119858026,-0.14694471141397952
1780098600093029400,3.667029296875,0.21815847453922033,4.1349373659983275,-2.7503590308487413
1780098600103021000,3.67702099609375,-0.4192983019992709,4.434533183774352,-2.19744340878129
1780098600113013200,3.68701318359375,-3.5997269119694826,5.397613076531886,-1.9533710330456495
1780098600123005200,3.697005126953125,-9.075970749884844,7.334556706389784,-1.1511182465821503
1780098600132997400,3.706997314453125,-9.079369160151481,8.612108791276812,0.49623570346832274
1780098600142989000,3.716989013671875,-5.997379297101498,7.773485299271345,0.9961381127506493
1780098600152981200,3.726981201171875,-6.89625004479885,5.9809688450485465,0.5597504365235567
1780098600162973200,3.73697314453125,-8.905242427301406,5.2113680358648296,-0.17215747860372066
1780098600172965400,3.74696533203125,-8.727278892767428,5.0581151642173525,-0.5096528189241886
1780098600182957000,3.75695703125,-6.459170294654369,4.125303860734403,-0.522755461603403
1780098600192949200,3.76694921875,-3.7972669613718986,3.2689322383314368,0.08574293147623538
1780098600202941200,3.776941162109375,-1.276221713066101,3.084171298742294,0.5901023201674223
1780098600212932000,3.78693212890625,0.025748481501638887,4.064344949641823,-0.11996376550793647
1780098600222924300,3.79692431640625,0.30940380282402036,5.107134338930249,0.7442968565791845
1780098600232916200,3.806916259765625,1.5699755268156528,5.25127802144885,3.917360490739345
1780098600242908200,3.816908203125,2.5870143887758252,6.18926438948214,5.425149318233132
1780098600252900000,3.826900146484375,2.292713462537527,7.104526300010085,5.933047986966371
1780098600262892300,3.836892333984375,0.6855250072021037,7.116088727509975,5.455659607309102
1780098600272884200,3.84688427734375,-0.6189280171573162,5.9851037528961895,4.124554795932769
1780098600282876200,3.856876220703125,-1.884260087418556,4.107169361367822,2.711237565293908
1780098600292868000,3.8668681640625,-3.019358342570066,3.36356604001075,2.5109330196142197
1780098600302860300,3.8768603515625,-3.1026246547996994,1.6868702601417898,2.2748545652419327
1780098600312852200,3.886852294921875,-3.4364906987071033,-0.8862158487856387,2.224530153149366
1780098600322844200,3.89684423828125,-3.2437568805426356,-2.2768378480136393,1.870593381115794
1780098600332836000,3.906836181640625,-2.8915286659926176,-3.0175100843548774,0.9391285238057374
1780098600342828300,3.916828369140625,-2.628668587678671,-3.190512197089195,0.15652853231728076
1780098600352820200,3.9268203125,-2.5032833816438913,-3.452730470368266,-0.5408861615777015
1780098600362811100,3.93681103515625,-2.222310723534226,-4.300975192677974,-1.0846920099943875
1780098600372803300,3.94680322265625,-1.6825030048429965,-4.571697674930095,-1.3331956461757422
1780098600382795000,3.956794921875,-1.0031195691358297,-4.310789899727702,-1.3002630983889103
1780098600392787200,3.966787109375,-0.5125432066034525,-4.03911873844862,-1.5101228233993051
1780098600402779100,3.976779052734375,-0.022934154733270404,-3.9005671768486496,-1.7499860570073127
1780098600412771300,3.986771240234375,0.5575820064432919,-3.461643260142207,-2.254749642585218
1780098600422761500,3.996761474609375,1.7522219993658363,-3.0544945378810167,-3.2587054433494806
1780098600432753400,4.00675341796875,3.441073350322246,-3.6662943105936048,-5.3664177278012035
1780098600442745300,4.016745361328125,8.44482271810174,-3.621550328981876,-8.51701701669693
1780098600452737300,4.0267373046875,8.755672043558954,-3.2904350450873374,-8.923684092921018
1780098600462729500,4.0367294921875,2.9749995608836413,-3.243803642293811,-6.129165602350235
1780098600472721400,4.046721435546875,0.058005029723048204,-3.0664702223569154,-4.53357720311135
1780098600482713300,4.05671337890625,-0.4982710086882114,-2.5593396153867243,-3.895421630653739
1780098600492705300,4.066705322265625,-0.6138961604699492,-1.9650854362368582,-3.198049314595759
1780098600502697500,4.076697509765625,-0.7254355042427778,-0.8622042740792035,-2.608437116032839
1780098600512688400,4.0866884765625,0.16365385415256023,0.240477566114068,-2.1676561732828614
1780098600522680300,4.096680419921875,2.5757754941418765,0.3908002295285463,-1.979758543103188
1780098600532672500,4.106672607421875,4.819631986790895,0.15472060611248015,-2.198951767517626
1780098600542664200,4.116664306640625,2.360564178970456,-0.4041080393910408,-2.8791724577665327
1780098600552656400,4.126656494140625,-0.853814631396532,-0.7444657834053039,-3.618982524320483
1780098600562648300,4.1366484375,-2.5876392426759005,-0.660545975703001,-4.293450934652984
1780098600572640500,4.146640625,-2.578622408005595,-0.23249299710094928,-4.882191318817436
1780098600582632200,4.156632080078125,0.11644143660068511,0.41122868505120275,-5.463033350947499
1780098600592624400,4.166624267578125,5.334471852964162,2.1691022804379463,-6.215482534322142
1780098600602616300,4.1766162109375,5.807513727849722,4.30473191486299,-6.880244666415453
1780098600612608500,4.1866083984375,3.0598554803922773,6.039230479881167,-6.509005461925268
1780098600622600200,4.19660009765625,3.921974706536531,7.603547250282764,-5.877127946823835
1780098600632592400,4.20659228515625,5.093315656936168,8.593023567056655,-4.742991522441804
1780098600642584300,4.216584228515625,3.8595053908810018,9.230056565225123,-3.414507414957881
1780098600652576500,4.226576416015625,2.9532261204928156,9.107189479491113,-2.9677836381554603
1780098600662567400,4.2365673828125,2.1957852663107214,9.440839834821224,-2.8753184126868843
1780098600672559600,4.2465595703125,1.7668455680020152,9.125054806527494,-1.6700298922389745
1780098600682551300,4.25655126953125,1.7132354122370481,7.783951163706183,0.33179391380846496
1780098600692543200,4.266543212890625,-2.5476211205422876,5.41888558166325,2.6955723786503074
1780098600702535400,4.276535400390625,-5.870545061302185,3.2531238438248633,5.098237915769219
1780098600712527400,4.28652734375,-3.7407273280262947,2.427836803254485,7.8543924811542025
1780098600722519300,4.296519287109375,-0.8031482739984989,1.9323358438014984,10.128950693798064
1780098600732511200,4.30651123046875,0.9555063887633383,1.747001488238573,11.49181141039729
1780098600742503400,4.31650341796875,-0.7974151371739804,1.340170745885372,10.802665947675704
1780098600752495400,4.326495361328125,-3.0673674634575843,0.7580641006469726,8.812437886875868
1780098600762487300,4.3364873046875,-2.4727307147309183,0.8310685465812683,7.417095288866758
1780098600772479200,4.346479248046875,-0.44732378852218385,0.8888023581475019,5.206987628823518
1780098600782471400,4.356471435546875,-0.5282163573577999,0.7395213127404451,2.9376515347421166
1780098600792463400,4.36646337890625,-2.1413193704992532,0.5474368983954191,1.250857846967876
1780098600802455600,4.37645556640625,-3.7949052006766197,0.19822890844941138,-0.03821107271164655
1780098600812446500,4.386446533203125,-4.402703044271469,-0.2855120551049709,-1.0024541640296578
1780098600822438400,4.3964384765625,-3.952749491767585,-0.6491326012849807,-1.596758319801092
1780098600832430300,4.406430419921875,-3.5194203263282775,-1.1733254022151232,-2.22332954518795
1780098600842422500,4.416422607421875,-3.4801641284778713,-1.6047925731748343,-2.2206933514654636
1780098600852414500,4.42641455078125,-3.9041312990710137,-1.4594763397455215,-1.4548448805525898
1780098600862406400,4.436406494140625,-3.7513825775533913,-1.4670312851697205,-0.9315402606338262
1780098600872398300,4.4463984375,-3.3163366713240743,-1.67701317525506,-0.9484308974191545
1780098600882390500,4.456390625,-2.9235806315526363,-1.9745687193751333,-1.1836650099217891
1780098600892382500,4.466382568359375,-2.9909938333511352,-2.396740238723159,-1.0441378812879323
1780098600902374400,4.47637451171875,-3.595766483905911,-2.9747043773293496,-0.9595315526261925
1780098600912366300,4.486366455078125,-4.720024780613183,-3.602745675268769,-0.7636407317355275
1780098600922358300,4.496358154296875,-5.914486494359374,-4.311618751767277,-0.27605098379850385
1780098600932350500,4.5063505859375,-6.588290595564246,-5.1015135764390225,0.028053689704090355
1780098600942342400,4.51634228515625,-6.646365183392167,-5.823538979977369,0.32389190851226446
1780098600952334300,4.526334228515625,-6.182665721869468,-6.261885973578691,0.7281650753371417
1780098600962325200,4.5363251953125,-5.914591123777628,-6.591690759396553,1.4986819764524697
1780098600972317400,4.5463173828125,-5.711974209502339,-6.709518681919574,2.350622776801139
1780098600982309400,4.556309326171875,-5.464900898385047,-6.820671948984265,2.996001140119135
1780098600992301600,4.566301513671875,-4.826650925642252,-7.17883773688972,3.213108644300699
1780098601002293200,4.576293212890625,-4.146948121787608,-7.775000380009413,2.9332275808200237
1780098601012285400,4.586285400390625,-4.122402001813054,-7.591237219285965,3.0098551856875417
1780098601022277400,4.59627734375,-3.3986318004339933,-6.983863446322083,3.028786096128821
1780098601032269600,4.60626953125,-1.169655189269781,-6.449456709891558,2.2033304209932685
1780098601042261200,4.61626123046875,3.073322280208766,-5.335907438725233,0.9686775666341185
1780098601052253400,4.62625341796875,9.84486136497259,-3.0524539719641206,-0.584174099162221
1780098601062245400,4.636245361328125,19.862308663094044,1.1134732833206653,-2.270782201236486
1780098601072237600,4.646237548828125,26.641733824932572,8.895645162394642,-3.7190596860975025
1780098601082229200,4.656229248046875,17.11719162455201,17.209002477765083,-2.331979304999113
1780098601092221400,4.666221435546875,6.1419374056398865,20.11657100893259,-2.8385037627696987
1780098601102213400,4.67621337890625,1.110114912803471,18.81067195048332,-3.8725513349369165
1780098601112205600,4.68620556640625,-0.1581672394350171,13.736060994017123,-2.3360984307557344
1780098601122196500,4.696196533203125,1.9984689426615834,7.294759533530473,0.38003830475658174
1780098601132188400,4.7061884765625,3.6788442878261205,1.4681044673591852,2.7704771052479744
1780098601142180400,4.716180419921875,2.587893217436969,-2.29261467833817,4.537606020236015
1780098601152172300,4.72617236328125,-0.6736179309830069,-4.783382861801981,5.887955630308389
1780098601162164500,4.73616455078125,-2.39407978734225,-6.810742091122269,6.895104966416954
1780098601172156400,4.746156494140625,-0.6980258115306496,-8.084703458040952,7.981631206101179
1780098601182148400,4.7561484375,-1.1401941169857979,-8.057108764150739,9.273147518932818
1780098601192140300,4.766140380859375,-2.364887302866578,-6.5716878358095885,11.05644430938959
1780098601202132500,4.776132568359375,0.21985607223734258,-3.3199855492204424,13.727235882526635
1780098601212124400,4.78612451171875,-0.6999708081185817,1.9134762450307607,13.614105177909135
1780098601222116400,4.796116455078125,-7.8141598394870755,4.445292478197813,7.825762598997354
1780098601232108300,4.8061083984375,-12.213733353561162,2.620273684298992,2.9691125486716627
1780098601242100500,4.8161005859375,-11.42271273972988,1.2216677005797625,1.2628937371984124
1780098601252092400,4.826092529296875,-10.173823270225524,0.7709323500484228,1.0228168608397246
1780098601262084600,4.836084716796875,-9.439557393795251,0.629018034017086,0.7679357985809445
1780098601272075500,4.846075439453125,-8.544344584083557,0.4387602505773306,-0.04763122748583555
1780098601282067200,4.856067138671875,-7.736195140796899,0.21742694539427757,-1.2016384735077619
1780098601292059400,4.866059326171875,-6.63147565729618,0.31153496963381766,-2.4047058107748627
1780098601302051300,4.87605126953125,-5.4700096197009085,0.9209370335549115,-3.08639774262011
1780098601312043500,4.88604345703125,-4.818494507193565,1.9633774632751941,-3.7407846111714838
1780098601322035200,4.89603515625,-4.603286406892538,3.206325852292776,-4.816949908100068
1780098601332027400,4.90602734375,-4.471970057243109,4.544252618643641,-5.548931765246391
1780098601342019300,4.916019287109375,-4.471912774097919,5.0406157478839155,-5.463644176322221
1780098601352011500,4.926011474609375,-5.123729499900341,3.9225609819918867,-4.983133865252137
1780098601362003200,4.936003173828125,-6.992713692253828,1.3646850094169378,-4.391263074107468
1780098601371995400,4.945995361328125,-5.68912583335638,-0.6170072782278061,-3.886586582291126
1780098601381987300,4.9559873046875,-2.6692215473413468,-0.8443155661672354,-4.0377591405332085
1780098601391979500,4.9659794921875,-1.1116904915571213,-0.988563293582201,-3.899112009604275
1780098601401971500,4.975971435546875,0.21759178056716919,-1.1855161907464264,-2.5399343654319644
1780098601411963400,4.98596337890625,1.9520505980968474,-0.8348048105001449,-0.1569432505980134
1780098601421955600,4.99595556640625,3.8036750748485324,-0.7013274834245443,1.0407517459809779
1780098601431946500,5.005946533203125,4.948362411600351,-1.3842723379403352,1.0418965321019291
1780098601441938400,5.0159384765625,5.544005414760113,-2.0289912144362927,0.8759481372714042
1780098601451930600,5.0259306640625,5.405825024560094,-2.725903804028034,0.46323388983756303
1780098601461922300,5.03592236328125,3.477018523928523,-3.241054051324725,-0.12635755819827318
1780098601471914500,5.04591455078125,1.8389122946947811,-3.6234850964367387,-0.685813103428483
1780098601481906400,5.055906494140625,0.35282457300797104,-2.5981466081649063,0.07195464462041855
1780098601491898600,5.065898681640625,1.0519729588277638,-1.2384884869992732,1.1017717396110296
1780098601501890300,5.075890380859375,3.5168168658316135,0.00002864157259464264,1.9115911619365213
1780098601511882500,5.085882568359375,3.429873326393962,1.1911761162042618,1.9145304302588104
1780098601521874400,5.09587451171875,2.917255227923393,2.0422721362918614,1.0779746844381093
1780098601531866600,5.10586669921875,2.7725173789039252,2.698063026422262,0.11933014377951622
1780098601541858600,5.115858642578125,3.0319720326885577,2.928493830296397,-1.1684732860088347
1780098601551850500,5.1258505859375,3.52141062336266,2.978252425199747,-2.269574579012394
1780098601561842400,5.135842529296875,3.860634394910931,2.8217952045530077,-2.862431458584964
1780098601571834600,5.145834716796875,3.7106390637546776,2.4595968001306057,-2.9742338372081516
1780098601581826600,5.15582666015625,3.2577094180494544,1.9439432794868945,-2.9723128060176967
1780098601591818500,5.165818603515625,2.9292911181539294,1.4736889894932508,-3.2136244848683475
1780098601601809400,5.175809326171875,2.911037084060907,1.2359195132941008,-3.868557004603743
1780098601611801600,5.185801513671875,2.999813099622726,1.1237246282219886,-4.933867437779903
1780098601621793500,5.19579345703125,2.752989963874221,1.1548895818144083,-5.838716090843081
1780098601631785700,5.20578564453125,2.231422250750661,1.3992536339730024,-6.302832900995016
1780098601641777400,5.21577734375,1.6115551991775632,1.570544266614318,-6.132734693008661
1780098601651769300,5.225769287109375,0.9826941092878579,1.7119103011131285,-5.4333641888707875
1780098601661761500,5.235761474609375,0.7596528311431407,1.8581728754818438,-4.75573643772453
1780098601671753500,5.24575341796875,0.7463987972944974,2.1319997534900903,-4.103110149104893
1780098601681745400,5.255745361328125,0.6196582311280071,2.5269553491324186,-3.426288161383569
1780098601691737300,5.2657373046875,0.9987497565537691,3.0501737520724532,-2.694610547880828
1780098601701729500,5.2757294921875,2.0242554180860517,3.6365596820652484,-2.0052590411931277
1780098601711721500,5.285721435546875,3.3956057306110856,4.442628227424621,-1.0705559326142071
1780098601721713700,5.295713623046875,4.579025533600151,5.328331450513005,0.2607294960260391
1780098601731705300,5.305705322265625,5.800552656665444,5.960999823731184,1.5281538623914122
1780098601741697500,5.315697509765625,6.582638853412866,5.620704623559117,2.8999305836349722
1780098601751689500,5.325689453125,6.8855234836012125,4.604644835764169,4.179329757693409
1780098601761680600,5.3356806640625,7.043646591633558,3.415568322187662,4.6965547654375435
1780098601771672600,5.345672607421875,6.522629498130082,3.169168964809179,3.841238789567351
1780098601781664500,5.35566455078125,4.630844275903701,4.1534027047544715,1.785172521200776
1780098601791656400,5.365656494140625,3.1250048289120196,5.394171411645412,-0.17190818001776934
1780098601801648600,5.375648681640625,2.8080525104045866,5.539710932436585,-1.4047536926940083
1780098601811640600,5.385640625,0.9776426711171865,4.980891054761409,-1.5566288462474942
1780098601821632500,5.395632568359375,-2.3431623777925967,4.02492479340136,-0.548335893061757
1780098601831624400,5.40562451171875,-4.536528161871433,3.116439829662442,0.7955997583150863
1780098601841616600,5.41561669921875,-5.673509746551513,2.4467905100494622,1.9649460277661681
1780098601851608600,5.425608642578125,-5.349996754354239,2.054765122640133,4.1062388025194405
1780098601861600500,5.4356005859375,-1.788908200597763,2.4521388853400943,6.2805000731557605
1780098601871592400,5.445592529296875,1.624374494870752,3.3156963275939226,6.906877821797132
1780098601881584400,5.45558447265625,1.708588901605457,3.542490820792317,5.7000178142488
1780098601891576600,5.46557666015625,-1.0468310658946633,2.6253736377865073,3.867753579266369
1780098601901568500,5.475568603515625,-3.4092817892640825,1.595460681205988,2.1321520214423537
1780098601911560400,5.485560546875,-4.28015276940167,1.0506313349604606,0.8742170756950974
1780098601921551400,5.49555126953125,-4.510746947143971,0.6438496924459934,0.00490121604502201
1780098601931543600,5.50554345703125,-4.218649960690737,0.17790391330122945,-0.6787976717084646
1780098601941535500,5.515535400390625,-4.029321274794638,-0.27717618843615055,-1.1257049883842467
1780098601951527700,5.525527587890625,-3.751510587847233,-0.7396347099870443,-1.6575883438169956
1780098601961519400,5.535519287109375,-3.4814266957595943,-1.0110609565943478,-2.12352447835058
1780098601971511600,5.545511474609375,-3.861666076046228,-1.0639221936881542,-2.107305749477446
1780098601981503500,5.55550341796875,-4.200925211168825,-0.8899223020881414,-2.2471301074922083
1780098601991495700,5.56549560546875,-4.357748342518509,-0.8055728707969189,-2.2884552205711604
1780098602001487600,5.575487548828125,-4.467715030147135,-0.724560474973917,-2.3660402722939846
1780098602011479600,5.5854794921875,-4.85015221273899,-0.7593161465346813,-1.7920199028775095
1780098602021471500,5.595471435546875,-5.53460980990529,-1.2886942411482334,-0.649756870663166
1780098602031463700,5.605463623046875,-5.935480182549357,-2.3442647860765455,0.5582666277065873
1780098602041455600,5.61545556640625,-6.264321091771126,-3.3363071539461613,1.247552960203588
1780098602051447600,5.625447509765625,-6.627063101550936,-4.126521127569675,1.7801928330920636
1780098602061439500,5.635439453125,-6.682529552707075,-4.777266424748301,2.4282776788897813
1780098602071431400,5.645431396484375,-6.484983950346708,-5.442817076870798,3.0516204437494276
1780098602081422600,5.655422607421875,-6.075358024317026,-6.3268655184894795,3.2555829274147747
1780098602091414500,5.66541455078125,-5.600091459119319,-7.13418844782412,3.1631863832682368
1780098602101406500,5.675406494140625,-5.019867558887601,-7.792555325922369,3.083593791115284
1780098602111398400,5.6853984375,-4.383184981592,-8.392444880610704,3.0268560048490762
1780098602121390600,5.695390625,-3.724479957580566,-8.741306833598017,2.909775101301074
1780098602131382500,5.705382568359375,-3.147991444484889,-8.671890183022617,2.666578047095239
1780098602141374500,5.71537451171875,-2.099069251529872,-8.499302496308088,2.3124065895229577
1780098602151366400,5.725366455078125,-0.23288784163743256,-8.323249179309606,1.9257476975828407
1780098602161358600,5.735358642578125,3.0712627173304554,-7.73975721719265,1.4278966678723692
1780098602171350500,5.7453505859375,8.17592745127678,-6.320249315220117,0.804774413895607
1780098602181342700,5.7553427734375,15.813253052520752,-2.429530163168907,0.3644122810795903
1780098602191334400,5.76533447265625,24.409035562896726,6.251695418953895,1.5833227919057011
1780098602201326600,5.77532666015625,20.857017619824408,15.239917742758989,4.787001929081976
1780098602211318500,5.785318603515625,11.809186922752856,19.840954909420013,2.8086013764590025
1780098602221310700,5.795310791015625,3.996724242572486,18.82494129885435,-2.7969261362344024
1780098602231301600,5.805301513671875,-1.5180731978818773,13.892274469035863,-6.304203020304441
1780098602241293300,5.815293212890625,-2.8405072115466,9.06997238625288,-5.023549462270736
1780098602251285500,5.825285400390625,-0.7500140651822089,3.836356862744689,-2.055635767994821
1780098602261277400,5.83527734375,1.6293357705399394,-1.1696177798688412,-0.10078180291503668
1780098602271269600,5.84526953125,1.6028348632358014,-3.8113252973407503,1.127092351089418
1780098602281261600,5.855261474609375,-0.324427184432745,-5.042613643702865,2.05376266759932
1780098602291253500,5.86525341796875,-3.6770840001553293,-5.3556853213846685,2.366054885341227
1780098602301245400,5.875245361328125,-6.818682820993661,-4.423385766816139,2.3921920738995075
1780098602311237600,5.885237548828125,-6.755251674568653,-2.568954415950179,2.4831658917665482
1780098602321229600,5.8952294921875,0.8065805865347385,1.6719938857883214,5.089337400954961
1780098602331221500,5.905221435546875,11.032599323421715,9.923518137580155,7.793278379499911
1780098602341213400,5.91521337890625,-2.5310429107069967,10.002635513436793,4.161496287100017
1780098602351205600,5.92520556640625,-9.226432529509067,5.358519083505868,3.1161987143829464
1780098602361197600,5.935197509765625,-7.307852823859453,2.2125562222391366,2.1795716520041224
1780098602371189500,5.945189453125,-7.223564767366647,-0.03251344559192657,0.7558826649546623
1780098602381181400,5.955181396484375,-6.5998331493198865,-1.8173001823455095,-0.006763502785563469
1780098602391172400,5.96517236328125,-6.284091960167885,-2.8135031770259142,-0.506393817128241
1780098602401164500,5.97516455078125,-5.864658925873041,-2.9736516534060238,-1.042166873475909
1780098602411156500,5.985156494140625,-5.063316239991784,-2.8040280771940944,-1.698943852034211
1780098602421151500,5.9951513671875,-4.416590407587588,-2.3501930070817467,-2.3302251548081636
1780098602431143200,6.00514306640625,-4.111185611271858,-1.304662794652581,-2.4575749389141794
1780098602441135400,6.01513525390625,-4.578907752439379,0.2434755788862705,-2.297749118617177
1780098602451127300,6.025127197265625,-5.805187330728769,1.7864140456944704,-2.5843612439185377
1780098602461119500,6.035119384765625,-7.2972460896492,2.367636309313774,-2.7993150771975515
1780098602471111400,6.045111328125,-7.7474121158599845,1.868564505636692,-2.8099098287090656
1780098602481103400,6.055103271484375,-7.1534291548669335,1.0533177975654602,-2.4518118453428146
1780098602491095300,6.06509521484375,-5.699890388476848,0.2838303856283426,-1.7186054148375987
1780098602501087500,6.07508740234375,-3.3098587074816224,-0.277981075078249,-0.6770154644668102
1780098602511079400,6.085079345703125,-0.29162849215865133,-0.5125321737527847,0.17357435966432094
1780098602521071400,6.0950712890625,2.672935599428415,-0.6905582521289587,0.5167284563988447
1780098602531063300,6.105063232421875,4.384752961561084,-0.8186433647722006,0.6290732713356614
1780098602541055500,6.115055419921875,4.897027945682406,-0.8438450260460376,0.9355050726115703
1780098602551046400,6.12504638671875,5.91656330063343,-0.29439620330631733,0.940248175485432
1780098602561038600,6.13503857421875,6.088165483441949,-0.11736381214261055,0.6657490973040461
1780098602571030300,6.1450302734375,3.9926691219627855,-0.4989812027841806,0.6531769082397222
1780098602581022500,6.1550224609375,1.0154086304098366,-0.733435855346918,0.12203589560687542
1780098602591014400,6.165014404296875,-2.493663904905319,-1.6428490398466586,-1.3202253977045415
1780098602601006300,6.17500634765625,-3.855770588266849,-2.764821271443367,-1.8724319947198031
1780098602610998300,6.184998291015625,-2.0790594598107037,-3.6787867124199867,-1.581055139234662
1780098602620990200,6.194990234375,1.921057640070468,-3.834237970894575,-0.26113836908787486
1780098602630982400,6.204982421875,4.577054233527183,-2.9012714768499133,1.2357117157623172
1780098602640974300,6.214974365234375,4.382293293449282,-1.8296786024034022,1.7900094398379325
1780098602650966500,6.224966552734375,3.5642607540518045,-0.8401029169082641,1.5582047172620892
1780098602660958200,6.234958251953125,3.067880381415784,-0.0025438392639160153,0.9413847782999276
1780098602670950400,6.244950439453125,2.72439135363847,0.7107067216664552,0.2796899248227477
1780098602680942300,6.2549423828125,2.4286957581713793,1.3259843996226788,-0.2599903680965304
1780098602690934500,6.2649345703125,2.2481606195837256,1.6226608228206634,-0.7361877844035625
1780098602700925400,6.274925537109375,2.4860236192852256,1.6017758557021617,-1.2495210454061627
1780098602710917400,6.28491748046875,2.8235157447353005,1.4481635030925273,-1.885211396794021
1780098602720909300,6.294909423828125,2.8556682480603457,1.4948650485128163,-2.553276369825005
1780098602730901500,6.304901611328125,2.64257348665148,1.8351620022505521,-3.0382819464877246
1780098602740893400,6.3148935546875,2.3698510627537965,2.314133267185092,-3.2394004388988016
1780098602750885400,6.324885498046875,2.0078776992589233,2.8306477885723114,-3.4017493479326366
1780098602760877300,6.334877197265625,1.1832008995413779,3.242751502892375,-3.7811724434003233
1780098602770869500,6.344869384765625,0.19040800556540488,3.574671673429012,-4.206425854411721
1780098602780861400,6.354861328125,-0.06974602866023778,4.096234125855565,-4.523733854489028
1780098602790853400,6.364853271484375,0.5380901011183857,4.83310696991384,-4.527482101106643
1780098602800845300,6.37484521484375,1.8146815242797136,5.763568203139305,-4.107966064703464
1780098602810837200,6.384837158203125,2.968983077073097,6.290986395856738,-3.3224551542043685
1780098602820829400,6.394829345703125,3.6324598455309864,6.33344898853302,-2.1904764923781155
1780098602830821400,6.4048212890625,4.439287684825063,6.195505914220213,-0.8035705910637975
1780098602840813300,6.414813232421875,5.220278487551212,5.720962987121939,0.37146044602543116
1780098602850804200,6.42480419921875,5.326317772603034,5.126388489976525,1.2030132689923048
1780098602860796400,6.43479638671875,4.978179457715154,4.855424015662074,1.4619251942023634
1780098602870788400,6.444788330078125,4.970383104750514,5.509822574651241,1.0662927222117782
1780098602880780500,6.454780517578125,4.478488645356893,6.585926789042353,0.45830929291695355
1780098602890772200,6.464772216796875,3.336898690098524,6.966255893439054,-0.18807313287705182
1780098602900764400,6.474764404296875,2.3755559963971375,5.844026472210884,-0.34217648387402294
1780098602910756400,6.48475634765625,2.122221871319413,3.8679227983534332,0.4328527800992131
1780098602920748500,6.49474853515625,1.8900059375941751,2.6619331438988447,1.9513789824455976
1780098602930740500,6.504740478515625,-0.2601163325637579,2.2999019127368925,3.3565897712573407
1780098602940732400,6.514732421875,-2.971538022252917,2.4494646976947783,4.118075078524649
1780098602950724400,6.524724365234375,-3.3505122049093243,2.723919936734438,4.80872217798084
1780098602960716500,6.534716552734375,-2.245180142468214,2.8069921876966952,5.743936450952291
1780098602970708500,6.54470849609375,-1.6640438035666942,2.6955904988288877,6.796784292918443
1780098602980700400,6.554700439453125,-1.430565887081623,2.1253747823923823,7.380602418249845
1780098602990692400,6.5646923828125,-0.5436825142979621,1.3849223262816668,7.210607086116075
1780098603000683300,6.574683349609375,-0.8950852378092705,1.2947773604542017,6.516433566099405
1780098603010675500,6.584675537109375,-1.51664623381868,1.1512187843471764,4.685485966673493
1780098603020667400,6.59466748046875,-2.2283087949052454,0.9600824645072221,2.716994813646376
1780098603030659300,6.604659423828125,-3.8652667308866975,1.0502063875466585,1.348803841935098
1780098603040651300,6.6146513671875,-5.224568878221511,1.0476748232424258,0.28338147281706333
1780098603050643500,6.6246435546875,-5.7390194528162475,0.959511971142888,-0.2866097872138023
1780098603060635400,6.634635498046875,-5.455156918483972,0.4834609775692224,-0.7706357051894068
1780098603070627300,6.64462744140625,-4.687014491415024,-0.6925503027290105,-1.4879080689817665
1780098603080619300,6.654619384765625,-4.0593341357424855,-1.859457654595375,-2.5900074331119654
1780098603090611500,6.664611572265625,-3.6273242362082003,-2.9106536377012726,-3.784680451521277
1780098603100603400,6.674603271484375,-3.1430469738200304,-3.451124788737297,-4.233014293868839
1780098603110595600,6.684595703125,-2.6084105202868577,-4.067160591584444,-4.905215343791246
1780098603120587300,6.694587158203125,-2.046923761489987,-4.53916377107203,-5.029637842273712
1780098603130579500,6.704579345703125,-2.649608499854803,-4.464772839215398,-4.076904279224574
1780098603140571400,6.7145712890625,-4.311760790586471,-3.955561918839812,-3.0076831023454664
1780098603150562300,6.724562255859375,-5.5287476398736235,-3.7230788586109873,-2.376002571120858
1780098603160554500,6.734554443359375,-6.147375797301531,-3.882601312047243,-1.6651207851484418
1780098603170546200,6.744546142578125,-6.5201739216715096,-4.225514001241326,-1.168308743096888
1780098603180538400,6.754538330078125,-6.97767862020731,-4.639891505712271,-1.0112091328933834
1780098603190530300,6.7645302734375,-7.146016248261928,-5.00722376589179,-0.5277890718564391
1780098603200522500,6.7745224609375,-6.805186795082688,-5.239802103188634,0.16987433610260486
1780098603210514400,6.784514404296875,-5.562582689458131,-5.419153877210617,1.208672902189195
1780098603220506400,6.79450634765625,-4.136826833006739,-5.738551250782609,2.355929212646186
1780098603230498300,6.804498291015625,-3.309389044143259,-6.444559585499763,2.81195331723541
1780098603240490500,6.814490478515625,-2.7051421710282564,-7.3499085893005125,2.5760291766420007
1780098603250482400,6.824482421875,-1.9731924625858663,-8.189439843800663,1.9872695032551884
1780098603260474400,6.834474365234375,-0.8265797107294202,-8.594166891872883,1.4913210922956466
1780098603270466300,6.84446630859375,1.5614990826323627,-8.38275175411403,0.8780138376295566
1780098603280458500,6.85445849609375,5.790727428221702,-6.387410295823216,0.1735997863665223
1780098603290450400,6.864450439453125,15.0384400616467,-2.5841929016143084,-0.8301488013878464
1780098603300441600,6.874441650390625,26.216699901890752,4.592661552503705,-0.38923020373284817
1780098603310433300,6.884433349609375,23.104200334286688,12.930818962609766,4.552579132962227
1780098603320425200,6.89442529296875,11.825502097737788,17.22925966837406,5.723990810510516
1780098603330417400,6.90441748046875,3.0263959861218925,16.988594470733403,3.164671068868041
1780098603340409300,6.914409423828125,-0.1373380941569805,13.077573704409598,0.4360667737096548
1780098603350401300,6.9244013671875,0.19755349340587852,7.701900072485208,-0.12347791110873221
1780098603360393200,6.934393310546875,1.897182697355747,2.376845451685786,1.372582484668493
1780098603370385400,6.944385498046875,2.201962055249512,-2.387332943430543,1.728291527071595
1780098603380377300,6.95437744140625,-0.1465422680929303,-4.790767711356282,1.7877870876133442
1780098603390369500,6.96436962890625,-4.334769325730204,-6.0660477596580975,1.5869021116971969
1780098603400361200,6.974361328125,-7.836155398195982,-6.3899319232553236,0.9102005354851483
1780098603410353400,6.984353515625,-8.775209687721729,-5.952997719061374,0.6353957523554563
1780098603420342800,6.9943427734375,-8.59456319771409,-5.053808406934142,1.9825489044740794
1780098603430334500,7.00433447265625,0.3905927242577076,-2.007404236528277,7.299207745110988
1780098603440325600,7.01432568359375,8.926523700261116,5.322710103499889,12.771940067774057
1780098603450317600,7.024317626953125,-4.992963769870996,7.7126055908948175,8.811980790758133
1780098603460309800,7.034309814453125,-12.001541386210917,4.766871871984005,5.98778846193552
1780098603470301700,7.0443017578125,-9.374552714443206,2.143328372234106,3.4192467184394597
1780098603480293600,7.054293701171875,-7.368989137345552,0.9543225858062505,1.303064711806178
1780098603490285600,7.06428564453125,-6.526165855562686,-0.22297873430252074,-0.07611117977797985
1780098603500277500,7.074277587890625,-6.320506504851579,-1.7158271822959184,-1.7668629575282335
1780098603510269700,7.084269775390625,-5.988425590795278,-2.320191836571693,-2.456428691488504
1780098603520261600,7.09426171875,-5.133328518372774,-1.7068062559723853,-2.071867064088583
1780098603530253600,7.104253662109375,-5.091908128225803,-0.7648661818772554,-1.8456255285978316
1780098603540245500,7.11424560546875,-5.473517335560918,0.6219061561852693,-1.7223194669246673
1780098603550237700,7.12423779296875,-5.592739342790842,2.4238223069161173,-1.6600836677640676
1780098603560229600,7.134229736328125,-5.696392609488964,3.6991450253158806,-1.776850683057308
1780098603570221600,7.1442216796875,-5.577554633140563,4.1820343404769895,-2.256422836494446
1780098603580212500,7.15421240234375,-5.051877731132507,3.474079547867179,-2.9513486361831425
1780098603590204700,7.16420458984375,-4.013118035751581,1.7463912473857401,-3.0507799012720582
1780098603600196600,7.174196533203125,-3.8542075767338275,0.06463526151776314,-2.8572330131590364
1780098603610188800,7.184188720703125,-4.43565488128066,-0.5058826527357101,-2.6626450915604827
1780098603620180500,7.194180419921875,-2.5410078398823734,-0.4970686471611261,-2.5334751062899827
1780098603630172700,7.204172607421875,-1.0221990212023258,-0.10908347505331038,-2.216328141993284
1780098603640164600,7.21416455078125,0.9909563261985779,0.8695213190943002,-1.5313427215605973
1780098603650156800,7.22415673828125,2.917380315607786,0.9546271217107772,-1.0045710100531577
1780098603660148700,7.234148681640625,3.8704444257855415,0.1062292546659708,-0.87586279707551
1780098603670140700,7.244140625,4.0936739199787375,-0.6556769083619117,-0.6151765556693076
1780098603680132600,7.254132568359375,3.8792467409223317,-0.9892956995099782,-0.5677244841426611
1780098603690124800,7.264124755859375,3.524157876244187,-1.1748656173944472,-0.5084188932150602
1780098603700116700,7.27411669921875,2.907113773137331,-1.451569512143731,-0.3229477595299482
1780098603710108400,7.2841083984375,2.324795530974865,-1.7919208264172075,-0.38335429743677374
1780098603720099600,7.294099609375,1.4913438886493444,-1.8528344370633363,-0.5620820943415165
1780098603730091500,7.304091552734375,0.24769589999504385,-1.8187831143796442,-0.6785740920856594
1780098603740083700,7.314083740234375,-0.5416781887382268,-1.9134522796332836,-0.7043520919427275
1780098603750075600,7.32407568359375,-0.21481289043836294,-1.6894465403705834,-0.5548582805678248
1780098603760067600,7.334067626953125,1.246305298230052,-1.3317203129261732,-0.32837913692891596
1780098603770059500,7.3440595703125,2.8483091174691912,-0.8555126674860716,0.0025327333480119705
1780098603780051700,7.3540517578125,3.84090561209023,-0.10454933875501156,0.25064941603839397
1780098603790043600,7.364043701171875,4.169246755096316,0.39885903282165525,0.11106675782501697
1780098603800035800,7.374035888671875,3.932997620332241,0.465253705227375,-0.1956879917949438
1780098603810027500,7.384027587890625,3.4354721693143246,0.5806044239819049,-0.41643911317586896
1780098603820019700,7.394019775390625,3.054292293307185,0.8019915051788091,-0.4778063128083944
1780098603830011600,7.40401171875,2.834951038724184,1.0075485645592213,-0.589783755737543
1780098603840003800,7.41400390625,2.454913610750437,1.5009025751113891,-0.7146084052801132
1780098603849995500,7.42399560546875,1.967972682110965,2.0695909358501434,-0.9994804089158773
1780098603859986400,7.433986328125,1.5493582707226274,2.4965157872051,-1.5159668732523917
1780098603869978600,7.443978515625,1.216612463016808,2.626909761312604,-2.1303946563810108
1780098603879970600,7.453970458984375,1.1151979151561855,2.816884636157751,-2.644291688746214
1780098603889962800,7.463962646484375,1.2417322912260889,3.082599519380927,-3.430781088888645
1780098603899954400,7.473954345703125,1.1925345450758933,3.5546219880908727,-4.1625259224087
1780098603909946600,7.483946533203125,1.2660991091109812,4.212213790163397,-4.653134433645009
1780098603919938600,7.4939384765625,1.5965796022333203,4.959686354169249,-4.624961063084006
1780098603929930800,7.5039306640625,2.328309530445188,5.733559433844685,-4.053698467943072
1780098603939922700,7.513922607421875,3.402534068569541,6.281770823743939,-3.14775734346807
1780098603949914600,7.52391455078125,4.518784999909997,6.5076651532322165,-2.1999393172502515
1780098603959906600,7.533906494140625,5.341666148382425,6.149694595637917,-1.2248708805352448
1780098603969898800,7.543898681640625,5.7271624262839556,5.558862792152166,-0.28722178163230416
1780098603979890700,7.553890625,5.666201469364762,4.707230765491723,0.60153907546103
1780098603989881900,7.5638818359375,5.689624430528283,3.9839188292741774,1.1784925757199525
1780098603999873500,7.57387353515625,5.475560239565372,3.770131701686978,1.195888531678915
1780098604009865500,7.583865478515625,4.4077018754720685,4.090558418306708,0.541603369936347
1780098604019857700,7.593857666015625,3.0743086608976125,4.503062530121207,-0.4715501750230789
1780098604029849600,7.603849609375,2.1506506779462096,4.405198952740431,-1.0471312178850174
1780098604039841500,7.613841552734375,1.1521323920607567,3.725338035714626,-0.7672323264867067
1780098604049833500,7.62383349609375,-0.646194794267416,2.8677456393450496,0.2661328163743019
1780098604059825700,7.63382568359375,-3.0243712022960185,2.440931262627244,1.3095593345224856
1780098604069817600,7.643817626953125,-4.354201755952835,1.9620418307572602,2.3420509094193576
1780098604079809800,7.653809814453125,-4.403212747359276,1.2570593319565058,3.5177614532053467
1780098604089801500,7.663801513671875,-3.669512688118219,0.693338238236308,5.127331908306479
1780098604099793700,7.673793701171875,-1.903192605295032,0.7431441794127226,7.50690941530466
1780098604109785600,7.68378564453125,0.25469459977597,1.3149901273995637,9.766973238649964
1780098604119777800,7.69377783203125,1.415855663075298,1.8608517393022774,10.365735835134982
1780098604129768700,7.703768798828125,0.6740658208809792,1.7461644528925417,8.711805429303645
1780098604139760600,7.7137607421875,-1.3681541468322276,1.2711819653332233,5.944872864794731
1780098604149752600,7.723752685546875,-3.81804934489876,0.835735369348526,3.5369326021432874
1780098604159744800,7.733744873046875,-4.647909100212156,0.6435808123767376,2.0968787557482718
1780098604169736700,7.74373681640625,-4.655445048674941,0.49751639092862604,1.0299915747746824
1780098604179728600,7.753728759765625,-4.4181709547773,0.014100421544909477,-0.046230128516256803
1780098604189720600,7.763720458984375,-4.031837933790683,-0.5969336274921894,-0.5747215034231543
1780098604199712800,7.773712646484375,-3.5294971914455293,-1.3779115707367657,-1.422936122855544
1780098604209704700,7.78370458984375,-3.1773794515326617,-2.1514830371171234,-2.435427404513955
1780098604219696600,7.793696533203125,-2.8127696020543573,-2.430458968451619,-2.793607220944762
1780098604229688600,7.8036884765625,-2.412752046847343,-2.3731945279628035,-2.616928173263371
1780098604239680500,7.813680419921875,-2.484227091257274,-2.1089386113762854,-2.0293471882671117
1780098604249671700,7.823671630859375,-3.355999988670647,-1.8822621915996074,-1.6850503512382506
1780098604259663600,7.83366357421875,-4.743322654092312,-1.9523586411327123,-1.9238649525761604
1780098604269655800,7.84365576171875,-6.351401993852853,-2.4083055888324973,-2.2612129933804272
1780098604279647500,7.8536474609375,-7.081662141773104,-3.261774183270335,-2.263873152500391
1780098604289639700,7.8636396484375,-6.7922858124554155,-4.06093894059062,-1.7371072862118482
1780098604299631600,7.873631591796875,-6.38246173350513,-4.543589770820737,-1.1484954968631267
1780098604309623800,7.883623779296875,-6.483498680225014,-5.022802443295717,-0.5047022107794881
1780098604319615500,7.893615478515625,-6.697956838941574,-5.488728348696232,0.08865881892293691
1780098604329607700,7.903607666015625,-6.664872315463423,-6.052857438695431,0.46671764030009505
1780098604339599600,7.913599609375,-5.794989761841297,-6.65012599723041,0.5431655046865344
1780098604349591800,7.923591796875,-4.582156525102257,-7.42033587822318,0.255849030508101
1780098604359583700,7.933583740234375,-3.5008185017108917,-8.179003789982199,-0.40265637927800413
1780098604369575700,7.94357568359375,-2.4465835893005132,-8.561201026338338,-0.9647995561569929
1780098604379566600,7.953566650390625,-1.5575176117807625,-8.251706622621416,-1.1705515535876154
1780098604389558500,7.96355859375,0.10439794758558273,-7.167191722759604,-1.0569149452745914
1780098604399550700,7.97355078125,3.28985169224143,-5.459000734430552,-0.7679699931114912
1780098604409542700,7.983542724609375,7.966678551641106,-2.6771552629500626,-0.4515858298808336
1780098604419534300,7.993534423828125,14.301522793924807,1.4537836810618638,-0.5326859039872884
1780098604429526300,8.0035263671875,19.655212557578086,8.158889222714304,-0.13941782304048536
1780098604439518500,8.0135185546875,15.318956792682409,15.452829841077326,3.066343965628743
1780098604449510400,8.023510498046875,8.171931659638881,17.825887006396055,4.387233672460914
1780098604459502300,8.03350244140625,4.503353329761326,15.43738209657669,2.795893870577216
1780098604469494300,8.043494384765625,2.8659818445429206,10.726113453871012,2.5643326013684273
1780098604479486500,8.053486572265625,2.0238705104216934,5.830223572307824,3.9864556542754173
1780098604489478400,8.063478515625,1.5590952363610266,1.4731933149307965,4.881435824275017
1780098604499470600,8.073470703125,1.7340727408215402,-2.0573224059075117,4.98779075114727
1780098604509461500,8.08346142578125,1.9792790890231728,-5.036787714028359,4.591593631011247
1780098604519453200,8.093453125,0.7365452195391059,-7.433571207371354,4.190865881708264
1780098604529445400,8.1034453125,-2.105140388137102,-8.797972723671794,3.877050107660889
1780098604539437300,8.113437255859376,-6.308875688290596,-8.494230015349387,3.9841304261982438
1780098604549429500,8.123429443359376,-8.47214210218191,-6.566776682892441,4.833999534839392
1780098604559421200,8.133421142578126,-4.649661789098381,-3.365734908482432,7.70808840573132
1780098604569413400,8.143413330078126,4.506986425566673,3.056495356309414,11.428106707727908
1780098604579405300,8.1534052734375,3.386537750275433,8.234028342589735,9.43159854374528
1780098604589397500,8.1633974609375,-7.266502576339245,7.0764914611369365,4.362115013295412
1780098604599389400,8.173389404296875,-9.608132337737082,3.0940362746745347,0.891897986075282
1780098604609381400,8.18338134765625,-8.35936795591712,0.14966156915724277,-1.399772689411044
1780098604619373300,8.193373291015625,-7.8545503020644185,-1.5926818641424179,-2.7554724283397194
1780098604629364500,8.203364501953125,-7.567345471566915,-3.0804186682105064,-4.426090349599718
1780098604639356400,8.2133564453125,-6.971020915883779,-3.7550323322325942,-5.5337762816905975
1780098604649348600,8.2233486328125,-5.735436333632469,-3.469459486851096,-5.264564788523316
1780098604659340300,8.23334033203125,-5.185010774815082,-2.4181711492866276,-4.469094794067741
1780098604669332500,8.24333251953125,-5.30728457083106,-0.6846773773968219,-4.12725704062879
1780098604679324400,8.253324462890625,-5.4202773282825945,1.7823194698572158,-3.9407133092761035
1780098604689316400,8.26331640625,-5.771332991921901,4.473133840325475,-3.7085090659886597
1780098604699308300,8.273308349609374,-5.857421375834941,6.552106937026977,-3.7355402807772156
1780098604709300200,8.28330029296875,-5.55191750305891,7.835704147297143,-3.7123891222923993
1780098604719292400,8.29329248046875,-4.989075530260801,6.8925476831495756,-3.7369209214806554
1780098604729284400,8.303284423828124,-5.035061036366224,2.829951038479805,-3.3901299295485017
1780098604739276300,8.3132763671875,-4.730107783210277,0.9950286902040243,-2.744571095097065
1780098604749268200,8.323268310546876,-2.1373265014708043,0.15434125140607355,-2.0455542267024516
1780098604759259400,8.33325927734375,0.2652420050144195,-0.30228491072952746,-0.7685346412569284
1780098604769251300,8.343251220703126,2.804325598835945,-0.6145920337796211,0.1243190381079912
1780098604779243500,8.353243408203125,4.750754265397787,-0.9025964902222156,1.1099106224030255
1780098604789235500,8.3632353515625,5.2504228659242385,-1.0222989744454622,1.698307892218232
1780098604799227400,8.373227294921875,4.831238837954402,-1.2425801402270793,1.1715350116670131
1780098604809219300,8.38321923828125,4.256233549153804,-1.2754372846901416,0.6988701534003019
1780098604819211500,8.39321142578125,3.521556753835082,-1.3624848690241576,0.4158054914474487
1780098604829203500,8.403203369140625,2.5913725839853283,-1.7733774539887903,0.14656594122946262
1780098604839195400,8.4131953125,1.6533640041202307,-2.0910686081647873,-0.234558112937212
1780098604849187300,8.423187255859375,0.4415566763628274,-2.081081467157602,-0.898774301585555
1780098604859179500,8.433179443359375,-1.2874521321326493,-2.0510487324655053,-1.6129647737145423
1780098604869170400,8.44317041015625,-2.3849463405549525,-2.2161352497696876,-2.0497645378738643
1780098604879162400,8.453162353515625,-1.8196353472948072,-2.077870688417554,-1.7508090638279914
1780098604889154600,8.463154541015625,-0.05704692528061568,-1.223729309284687,-0.8006389215260744
1780098604899146200,8.473146240234374,1.330254916548729,-0.07182371171712874,-0.03936287309527397
1780098604909138400,8.483138427734374,2.4960768112659455,0.9087328010201453,0.24017887542843816
1780098604919130400,8.49313037109375,3.6265392233103513,1.3290455407589674,-0.14212065225839615
1780098604929122600,8.50312255859375,4.298986649209261,1.6358604961335659,-0.5229074372947216
1780098604939114200,8.5131142578125,4.252007455891371,1.8994997421264648,-0.4460995074242353
1780098604949106400,8.5231064453125,3.8291046996593474,1.9125854336708783,-0.20321955634355543
1780098604959098400,8.533098388671876,3.5078108448162673,1.4988053105711936,-0.3082283293038606
1780098604969090600,8.543090576171876,3.267404298111796,1.0045815314471722,-0.7520932095438242
1780098604979082200,8.553082275390626,3.1129642625063654,0.7053028167963028,-1.1187333958059549
1780098604989073200,8.5630732421875,3.3038048142701384,0.8487503337442874,-1.239003450784087
1780098604999065300,8.5730654296875,3.7185260176122186,1.491667129254341,-1.5183271726429461
1780098605009057300,8.583057373046875,3.7752918609291313,2.456339844161272,-2.243076448187232
1780098605019049500,8.593049560546875,3.3503032383337614,3.3109196147114037,-3.083651074260473
1780098605029041400,8.60304150390625,2.7252988238722082,3.732166420429945,-3.884913680642843
1780098605039033300,8.613033447265625,2.1786586288124323,4.044855236274004,-4.391598881933093
1780098605049025300,8.623025390625,2.0046167977668343,4.400933696511387,-4.540220586648583
1780098605059017500,8.633017578125,2.250159246055037,4.90418249361217,-4.465913825944066
1780098605069009400,8.643009521484375,2.9464953509330747,5.771361048972606,-3.9462341185241936
1780098605079001300,8.65300146484375,3.896736220383644,6.428161992928385,-2.9585341637730598
1780098605088993300,8.6629931640625,4.492835150617361,6.616349984356761,-1.9252742348521947
1780098605098984400,8.672984375,4.843369712992012,6.680775402516126,-0.7320937930881977
1780098605108976400,8.682976318359374,5.180774744680524,6.388545437332987,0.5401110855519772
1780098605118968600,8.692968505859374,5.274567711621523,5.643931769889593,1.8678975661605595
1780098605128960300,8.702960205078124,5.3499231045961375,5.006106160038709,2.8221763128250834
1780098605138952400,8.712952392578124,5.0065644252002235,5.489892131778597,3.0068805537909267
1780098605148944400,8.7229443359375,3.7066573006421324,6.653408087641,2.369131516307592
1780098605158936600,8.7329365234375,2.488352354493737,6.630227703061699,1.7948820143103599
1780098605168928500,8.742928466796876,1.3983265822559594,4.99198644927144,1.6717068855404853
1780098605178920200,8.752920166015626,-1.4198708900660275,3.182607123053074,1.608228392842412
1780098605188912400,8.762912353515626,-5.228401003730297,2.354520807152986,1.3939321466892958
1780098605198904300,8.772904296875,-6.221439396899938,1.390227446952462,1.7547072403103112
1780098605208896500,8.782896484375,-5.096933847433328,0.31040333525538444,2.8609909043878314
1780098605218887400,8.792887451171875,-1.3755974485754965,-0.15904840618371963,5.247637034597993
1780098605228879400,8.80287939453125,3.5507506996154783,0.521520951372385,8.502672265002131
1780098605238871300,8.812871337890625,3.6824890740692613,1.4817799414902924,9.456478717979788
1780098605248863500,8.822863525390625,-0.044056583869457246,1.6638906588315963,8.154785879048704
1780098605258855400,8.83285546875,-2.9911200900793076,1.2439718868464231,6.539593492412567
1780098605268847400,8.842847412109375,-4.245576546061039,0.8894745583206415,5.125609906819462
1780098605278839300,8.85283935546875,-4.204706775534153,1.103370991501212,3.9752836873978374
1780098605288831500,8.86283154296875,-3.7890456609934566,1.0843161624193192,2.4057985744476316
1780098605298823400,8.872823486328125,-3.8586683555349706,0.9192717306911945,0.8566098150730133
1780098605308815400,8.8828154296875,-3.913402400763333,0.4555541489899158,-0.1875567077875137
1780098605318807300,8.892807373046875,-3.9326398929357524,-0.28301731567978855,-0.9179366826951503
1780098605328798200,8.902798095703124,-4.004588692337275,-0.8444716335117817,-1.4026947143375872
1780098605338790400,8.912790283203124,-3.897690452368557,-1.4656015446275472,-1.9681237810194492
1780098605348782300,8.9227822265625,-3.864016438564658,-2.0220096849858757,-2.511475163666904
1780098605358774500,8.9327744140625,-3.733587100882828,-2.2021154922455546,-2.277388175372779
1780098605368766200,8.94276611328125,-3.8237507714107632,-2.497116091185808,-1.9909888160392641
1780098605378758400,8.95275830078125,-3.9906174501299856,-2.954111671155691,-1.9958274882420897
1780098605388750300,8.962750244140626,-4.35055492388308,-3.5292911474794146,-1.9487299292415379
1780098605398742500,8.972742431640626,-5.219143346041441,-4.195285451716185,-2.0981886693030596
1780098605408734200,8.982734130859376,-6.116666770783066,-4.7405917678236955,-2.168541139423847
1780098605418726400,8.992726318359376,-6.627683863797784,-5.263275917756557,-2.0113085504904387
1780098605428719000,9.002718994140626,-6.895520561480522,-5.624052764943242,-1.7552333100110291
1780098605438710000,9.0127099609375,-6.817220347225666,-5.89321223566234,-1.467146143721044
1780098605448702200,9.0227021484375,-6.927797860229015,-6.2847711746037005,-0.8174494788125157
1780098605458694000,9.03269384765625,-6.995745022773742,-6.615603549903631,-0.12498626984506844
1780098605468686000,9.04268603515625,-6.5265563161849975,-7.103076685723662,0.33812516265660525
1780098605478678000,9.052677978515625,-5.619750099313259,-7.731988336756825,0.5102522461220622
1780098605488670200,9.062670166015625,-4.7012505220383405,-8.272709663161635,0.3180851219296455
1780098605498662000,9.072661865234375,-4.018741720852256,-8.51724030405879,-0.15035598116219043
1780098605508654000,9.082654052734375,-3.5007866452679037,-8.313709782069921,-0.7708505169838666
1780098605518646000,9.09264599609375,-2.361269404630363,-7.12827659343183,-1.520032222995162
1780098605528638200,9.10263818359375,0.3572638706296682,-4.6691246144592755,-2.185214626327157
1780098605538630000,9.1126298828125,5.560754304987192,-1.5507576161265373,-2.7664941730916497
1780098605548621000,9.12262109375,15.937301456993817,3.474907230862975,-2.9638404534876344
1780098605558613000,9.132613037109374,28.05588399926424,13.578368678617476,0.19056115030050277
1780098605568605000,9.14260498046875,21.090202106320856,21.22430779442787,4.714149166578054
1780098605578597000,9.15259716796875,7.766993599164485,21.304055284881592,4.047551635751128
1780098605588589000,9.162589111328124,1.2443737456455826,16.474392902463673,1.3706605766952038
1780098605598581000,9.1725810546875,0.76637746322304,9.638855392780899,-0.2022153477370739
1780098605608573000,9.182572998046876,1.94376500031054,4.009101201325655,0.9107149147480725
1780098605618565000,9.192565185546876,2.7304706735521553,-0.6483399896025658,2.3819553420454262
1780098605628557000,9.20255712890625,1.9177941082298755,-4.023644690462946,3.171934922391176
1780098605638549000,9.212549072265626,0.0008262216910719871,-6.323612069651484,4.3084395372092725
1780098605648541000,9.222541015625,-3.033618046329915,-7.680237691253423,5.014560684651136
1780098605658531800,9.23253173828125,-5.479702161675691,-8.197247302681207,4.845123570922016
1780098605668524000,9.24252392578125,-6.780549781954288,-8.15278213801086,4.399701524367928
1780098605678516000,9.252515869140625,-5.746318962174653,-7.3375792690813535,5.386645107793807
1780098605688508200,9.262508056640625,1.742315814640373,-4.885561964294314,9.861377615487575
1780098605698499800,9.272499755859375,9.411870929968357,2.254185871222615,14.505317519807814
1780098605708492000,9.282491943359375,1.0024112016707658,8.031240163400769,10.242051003277302
1780098605718484000,9.29248388671875,-9.31762262047529,7.526550519841909,4.269890903106331
1780098605728476200,9.30247607421875,-10.349332981866597,4.022466294333339,0.3718815940469503
1780098605738467800,9.3124677734375,-9.2304376734972,1.6425713919490574,-1.5451982284337282
1780098605748460000,9.3224599609375,-8.401295711064337,0.861817320588231,-1.3222241703063249
1780098605758452000,9.332451904296875,-7.671953847032785,-0.48900341412723064,-1.6462199775844812
1780098605768443100,9.342443115234374,-7.172391629490256,-1.927289666327834,-2.8952181681603193
1780098605778435000,9.35243505859375,-6.589045213323831,-2.5094647006273267,-3.855006618157029
1780098605788427000,9.362427001953124,-5.882898346918821,-2.3089175783634186,-4.74966705468297
1780098605798419000,9.3724189453125,-5.333323851972818,-1.1484095721453427,-5.098061974680424
1780098605808411100,9.3824111328125,-5.358619621270894,0.7004302423238754,-5.078769829711318
1780098605818403000,9.392403076171876,-5.878106436467171,2.9723639516830445,-4.804936521962285
1780098605828395000,9.40239501953125,-6.684183165132999,5.172386271041631,-3.8821822098523375
1780098605838387000,9.412386962890626,-6.25135055103898,7.470241188120841,-2.4518700052708384
1780098605848379000,9.42237890625,-4.075599918627739,6.533662348797917,-2.1834382643043995
1780098605858371000,9.43237109375,-3.0000831487357615,2.930143935590982,-2.4355267732352015
1780098605868362000,9.442362060546875,-2.870596352601051,0.8823702792733907,-2.081243964242935
1780098605878354200,9.452354248046875,-0.8002128781337291,-0.33475919335484505,-1.8270880013883113
1780098605888345900,9.462345947265625,1.9978771142482756,-0.8304682426005602,-1.5173644650906324
1780098605898338000,9.472338134765625,3.486632155448198,-0.729793699452281,-0.842691764357686
1780098605908330000,9.482330078125,3.620830782535672,-0.2957791820973158,-0.08076572758555411
1780098605918322200,9.492322265625,2.9899235737711187,-0.04625555521845817,0.36226503991782666
1780098605928313900,9.50231396484375,2.5452695889800787,-0.34028234069049357,0.14397241760492324
1780098605938306000,9.51230615234375,2.374454757156968,-1.1104700098514557,-0.41784196571111676
1780098605948298000,9.522298095703125,1.8633114074140786,-2.0460744511842726,-1.0718874734789132
1780098605958290200,9.532290283203125,0.7514916634541005,-2.5533658016741274,-1.6309060885965823
1780098605968281000,9.542281005859374,-1.0692660389341413,-2.8103613718688485,-2.213160033351183
1780098605978273000,9.55227294921875,-2.170812591487169,-2.8094255523234604,-2.4402076245278117
1780098605988265000,9.562264892578124,-1.7996201487481593,-2.291913252070546,-1.7587702519655226
1780098605998257000,9.5722568359375,0.09541326161921024,-1.5571692367345094,-0.4739548980772495
1780098606008249000,9.5822490234375,2.836128850331902,-0.989193408179283,0.86724635989964
1780098606018241000,9.592240966796876,4.50535093331933,-0.20887889727950096,1.9752064327567815
1780098606028233000,9.60223291015625,5.0015445512115955,0.5358592733263969,2.4444103369146584
1780098606038225000,9.612224853515626,5.062157133084535,1.0463210705459118,2.413969021421671
1780098606048217000,9.622217041015626,4.829819618806242,1.3113999939531087,2.008932176747918
1780098606058209000,9.632208984375,4.445006646993756,1.187764261934161,1.278879534098506
1780098606068201000,9.642200927734375,3.851359201565385,0.9759989955633878,0.5848685111671685
1780098606078191900,9.65219189453125,3.2162145013615486,0.7910597767978906,-0.20738018315434453
1780098606088184000,9.66218408203125,3.0838854675382374,0.8464642686337233,-0.9193412887960671
1780098606098176000,9.672176025390625,3.275810307407379,1.4044208074778317,-1.469654619410634
1780098606108168200,9.682168212890625,3.2426015730276703,2.268744557929039,-2.184901322594285
1780098606118160100,9.69216015625,2.5086802722513672,3.0620050596415993,-3.082274525210261
1780098606128151800,9.70215185546875,1.2667267394900321,3.63243471108973,-3.9678848093181847
1780098606138144000,9.71214404296875,0.4487403773218393,4.166856060567498,-4.694198849961161
1780098606148136000,9.722135986328125,0.4286528441913426,4.806740941035748,-5.168330858170986
1780098606158128000,9.732128173828125,1.0527788683831691,5.783362452411652,-5.443232087412476
1780098606168119800,9.742119873046875,1.9573244468465447,7.08424397495985,-5.528190590512752
1780098606178111000,9.752111083984374,2.868809469184279,8.072825973242521,-5.377122661688923
1780098606188103000,9.76210302734375,3.2454253982767463,8.231229651781916,-4.688760458299518
1780098606198095000,9.77209521484375,3.209755242219567,7.511935719034075,-3.5068776556193826
1780098606208087000,9.782087158203124,3.367892963299155,6.5917977269023655,-1.9829010789126156
1780098606218079000,9.792078857421876,4.086609972941875,5.899562481471896,0.023469138392806052
1780098606228071000,9.80207080078125,4.68496866480112,5.295635049569606,1.7770272086679935
1780098606238063000,9.81206298828125,4.166882364052534,5.026085702750087,2.454004679211974
1780098606248055000,9.822054931640626,3.519861640354991,5.336588406726718,2.5728169365972278
1780098606258047000,9.832046875,3.559261338329315,5.487745182877779,3.05077639414072
1780098606268039000,9.842038818359375,3.5545004075378177,4.560104852291941,3.133687901583314
1780098606278029800,9.85202978515625,2.9284160888850685,2.850782229584455,2.819211617800593
1780098606288022000,9.86202197265625,2.0753531526386735,1.7093512642800808,3.3274043010443446
1780098606298014000,9.872013916015625,-0.29580899271368977,1.41074650336802,3.778648770141601
1780098606308006100,9.882006103515625,-4.050958813846111,1.1224100384920834,3.47993353459239
1780098606317997800,9.891997802734375,-5.2635108955562115,0.4748913021445274,3.790749542301893
1780098606327990000,9.901989990234375,-3.484448381668329,-0.3146539784371853,5.385550298294425
1780098606337982000,9.91198193359375,0.13664353602156043,-0.7043880400389433,7.602485758531093
1780098606347974100,9.92197412109375,1.940008131995052,-0.5862082353383302,9.022572921696305
1780098606357965800,9.9319658203125,0.6765535460434854,-0.36919220883250237,8.896045559889078
1780098606367957000,9.94195703125,-0.8029027748048305,-0.23345745821893213,7.552340794658661
1780098606377949000,9.951948974609374,-1.488656841522455,-0.14769173038899897,5.6881473437130445
1780098606387941000,9.961941162109374,-2.18622497241348,0.29366262833476064,3.6896746016591786
1780098606397933000,9.97193310546875,-4.04753731496483,0.5966127249747515,2.048949714359641
1780098606407925200,9.98192529296875,-5.523489865475892,0.48874914710521694,0.48159576821923256
1780098606417917000,9.9919169921875,-5.448869801038503,0.12457856582701206,-1.0419202052384615
1780098606427908600,10.00190869140625,-4.770264437031746,-0.18363105877637861,-2.0244424650907513
1780098606437900500,10.011900634765626,-3.9103158329248426,-0.27944647145569323,-1.9726076484352348
1780098606447892700,10.021892822265626,-3.0309064492836595,-0.6627075376510619,-1.5037950816825032
1780098606457884700,10.031884765625,-2.9806676696479317,-1.2493635167568922,-1.8242957403212785
1780098606467875600,10.04187548828125,-3.3593615740582345,-1.632881772583723,-3.012894407252967
1780098606477867500,10.051867431640625,-3.458438911142945,-1.6963836461573838,-3.7519156615167852
1780098606487859500,10.061859375,-3.5076924791336057,-1.5090245067685841,-3.6406074961513277
1780098606497851600,10.0718515625,-4.143019257906079,-1.5197908154547213,-3.2906305676594374
1780098606507843600,10.081843505859375,-5.011452197241783,-2.0657944661766288,-3.0668969233363863
1780098606517835500,10.09183544921875,-5.848294651049375,-2.952332386523485,-2.730902342967689
1780098606527827500,10.101827392578125,-6.321929815652966,-3.7317882347673175,-2.093675575792789
1780098606537819600,10.111819580078125,-6.385041228604316,-4.339596307495236,-1.5070339174732565
1780098606547811600,10.1218115234375,-6.589734949153661,-4.84209574753344,-0.9474389637723565
1780098606557803500,10.131803466796875,-6.8753896275997155,-5.378205196228623,-0.267548236130178
1780098606567794700,10.141794677734374,-6.855265707981586,-5.937180556726456,0.3973214479908347
1780098606577786400,10.151786376953124,-6.3113768574565645,-6.432584485545754,0.9727686353400349
1780098606587778600,10.161778564453124,-5.2422103333741426,-7.060598310956358,1.1590674520209432
1780098606597770500,10.1717705078125,-4.169347877383232,-7.859449764543771,0.7768322217419743
1780098606607762700,10.1817626953125,-3.4901690974026915,-8.431196928331255,0.12327040583789348
1780098606617754400,10.19175439453125,-3.1139915597274896,-8.450745093888044,-0.5431333559826016
1780098606627746600,10.20174658203125,-2.28423175765723,-7.875306089845299,-1.062432247391343
1780098606637738500,10.211738525390626,-0.1652867160513997,-6.732915924119949,-1.4575976863920688
1780098606647730700,10.221730712890626,3.974490491193533,-4.707158284777402,-1.6843045013070106
1780098606657722400,10.231722412109375,11.366955196672677,-1.249594987425208,-2.118894772723317
1780098606667713500,10.241713623046875,23.040150763702393,6.3939814909070725,-1.65168642629683
1780098606677705500,10.25170556640625,25.331803903532027,16.72658253368139,4.731190317749977
1780098606687697700,10.26169775390625,16.078505578929185,20.77435453418493,7.475666720300913
1780098606697689600,10.271689697265625,7.046958492660522,19.194391866362093,4.885947748741507
1780098606707681500,10.281681640625,1.7250860090285538,13.580977984333037,1.501126446995139
1780098606717673500,10.291673583984375,0.14110329190939663,8.215484385639428,0.6163643041491508
1780098606727665700,10.301665771484375,1.3821215896472334,2.366086157262325,0.6418243240982293
1780098606737657600,10.31165771484375,2.3246654748544096,-3.201041774410009,0.42204818522930143
1780098606747649800,10.32164990234375,2.3010522518157956,-6.410396619135141,0.4700514608979225
1780098606757640700,10.331640625,-1.1505059599027037,-8.230529394558072,0.6622545331865549
1780098606767632400,10.34163232421875,-7.242983753585815,-8.478906774011254,0.8614508253633976
1780098606777624600,10.35162451171875,-11.227260310256481,-7.360621121972799,0.6405179176747798
1780098606787616500,10.361616455078124,-11.252046376466751,-6.277094064104556,0.5442915861070156
1780098606797608700,10.371608642578124,-10.286542471432686,-4.991637489703297,1.0652642559468746
1780098606807600400,10.381600341796876,-4.760818855555355,-2.9214731378793717,4.005346817228197
1780098606817592600,10.391592529296876,17.684625601315496,6.160351598730683,13.699353019344805
1780098606827584500,10.40158447265625,4.418592687320709,10.080751018774508,10.48280387920141
1780098606837576700,10.41157666015625,-14.222198497319221,6.3431730946898455,6.974820892688632
1780098606847567600,10.421567626953125,-12.769140207922458,3.632097441959381,6.526852084261178
1780098606857559600,10.4315595703125,-7.536930459558963,1.613720560517907,3.2366724752396343
1780098606867551500,10.441551513671875,-3.977365462107956,0.05720832638740539,0.7615794152915477
1780098606877543400,10.45154345703125,-4.620429849395156,-2.0419027184575795,-0.7186649871945381
1780098606887535600,10.46153564453125,-5.485245767277479,-2.5938983030706644,-0.8546715404868125
1780098606897527600,10.471527587890625,-4.80162637450099,-2.8163264177531,-1.0771429097890852
1780098606907519500,10.48151953125,-4.10479474119097,-3.0017338385522363,-1.6647691952317951
1780098606917511400,10.491511474609375,-3.5133772467717526,-2.5114129120856523,-2.038873141503334
1780098606927503600,10.501503662109375,-3.4873780053794383,-1.2476005987375973,-1.9912597419351339
1780098606937495600,10.51149560546875,-3.950235170859098,0.32090251743793485,-1.7006828046560287
1780098606947486700,10.52148681640625,-4.388397455543279,1.8693372435748576,-1.650448408934474
1780098606957478400,10.531478515625,-3.8456972302809356,3.6731694570600983,-1.494789060667157
1780098606967470600,10.541470703125,-2.8447955563902854,4.663088841426372,-1.4898790767937897
1780098606977462500,10.551462646484374,-2.993672112649679,2.790039299330115,-2.8236329413741825
1780098606987454700,10.561454833984374,-4.295959994864464,1.0143547374427317,-3.695470136195421
1780098606997446700,10.57144677734375,-6.132462305808067,0.09468202473521233,-3.8035909036964175
1780098607007438600,10.5814384765625,-5.742971989834309,-0.18863281258642672,-3.529982636874914
1780098607017430500,10.591430419921876,-3.8567011471152304,-0.15898936947286127,-2.7154443693339823
1780098607027422700,10.601422607421876,-2.4915070191323756,-0.7422913619756698,-2.3150848688215016
1780098607037413600,10.61141357421875,-0.9638462740201502,-1.4572346982985733,-2.7084908969342707
1780098607047405600,10.621405517578125,0.41647937212102115,-1.831989801955223,-2.62654385060966
1780098607057397500,10.6313974609375,1.524597338953614,-2.044988409513235,-2.32870247528553
1780098607067389400,10.641389404296875,2.246840184634924,-1.951381905055046,-1.8338105876415967
1780098607077381600,10.651381591796875,3.2423043436467647,-1.214087036192417,-0.9632949968129396
1780098607087373600,10.66137353515625,5.074543151926994,-0.9446277057439089,-0.2643324889540672
1780098607097365500,10.671365478515625,6.470360381710529,-0.6488040999829768,0.6490916847527026
1780098607107357400,10.681357421875,6.392398021107912,0.1530979733467102,1.5379688617020844
1780098607117349600,10.691349609375,5.35394812232852,0.8504887018442153,2.062884716209769
1780098607127340500,10.701340576171875,4.310838415044546,1.0506102921724318,2.0962726065486668
1780098607137332500,10.71133251953125,3.4031086535871027,0.828303173521161,1.5914561217397452
1780098607147324700,10.72132470703125,2.9103151995271443,0.8318962295770644,1.145898466107249
1780098607157316400,10.73131640625,2.482709087909758,1.027910969108343,0.7155933246642351
1780098607167308500,10.74130859375,2.248859123241901,1.1570482211530209,0.15831600025594234
1780098607177300500,10.751300537109374,2.728033509533107,1.092500053396821,-0.4501432298570871
1780098607187292700,10.761292724609374,3.4495956794738767,0.9694920978873968,-0.9728244571804999
1780098607197284400,10.771284423828124,3.5722149279266593,0.9723106624394655,-1.6149930646717547
1780098607207276500,10.781276611328124,3.0770600054323674,1.3961352096915245,-2.2117899140417574
1780098607217267500,10.791267333984376,2.5764482788369056,2.12381352442503,-2.739756972813606
1780098607227259600,10.801259765625,2.6554911281526086,2.9771716442257166,-3.148160079050064
1780098607237251600,10.81125146484375,2.701151640087366,3.492805875647068,-3.6405823617100714
1780098607247243500,10.821243408203125,1.8387949519254265,3.802172853592038,-4.432031430086493
1780098607257235500,10.8312353515625,0.9085833095468581,3.9572903500676153,-5.233540120184421
1780098607267227600,10.8412275390625,1.0179317191466688,4.848066638636589,-5.557752785083651
1780098607277219600,10.851219482421875,1.638978335893154,6.129552555841207,-5.329971034413576
1780098607287211800,10.861211669921875,2.473542323374748,7.179393617206811,-4.679612690725922
1780098607297203500,10.871203369140625,3.2915909371241927,7.591075306722521,-3.8767572621941566
1780098607307194400,10.8811943359375,3.858108091303706,7.240503042685985,-2.8816958387643097
1780098607317186600,10.8911865234375,4.677804179999232,6.597884937861561,-1.497157543364167
1780098607327178500,10.901178466796875,5.43567188129127,5.742562824511528,0.044542321559786796
1780098607337170700,10.911170654296875,6.068709087821841,5.063653509122133,1.6364134538412094
1780098607347162400,10.921162353515625,6.173903154221176,4.282603669685125,2.6127865434139967
1780098607357154600,10.931154541015625,5.095727394253015,4.078950982621312,2.8256735072910786
1780098607367146500,10.941146484375,3.472235965827107,4.346904000160098,2.501690559494495
1780098607377138700,10.951138671875,2.2665138762675223,4.443728882142901,1.9312591544806956
1780098607387129600,10.961129638671874,1.514097572249174,3.7740713792234657,1.3533143050968646
1780098607397121800,10.971121826171874,0.5869960977803915,2.676284909856319,1.5704028123170137
1780098607407113500,10.981113525390626,-1.3439619548618793,2.133126711693406,2.211024190366268
1780098607417105400,10.99110546875,-3.2540894739866255,1.9128870469659567,2.9130606988430023
1780098607427101200,11.00110107421875,-3.4954268718004227,1.5773521930634975,4.080671815064549
1780098607437093000,11.011093017578125,-2.7168331933438776,0.9728080905675888,5.382808306109905
1780098607447085000,11.0210849609375,-1.4087971228659153,0.36340251951515673,6.945147054436802
1780098607457077000,11.031076904296874,-0.9269780672848225,0.2704839973211288,8.444478434708714
1780098607467069200,11.041069091796874,-0.6543770778097212,0.7254998016506433,9.727756496027112
1780098607477060000,11.05106005859375,-0.1276701021015644,1.5024948127388953,10.000271706914901
1780098607487052300,11.06105224609375,-0.9600982465982436,1.849479865938425,8.819995170387624
1780098607497044000,11.0710439453125,-2.4362302453294395,1.9315835641294716,6.46623657977879
1780098607507036200,11.0810361328125,-3.868220612256229,1.473741011941433,3.8085365434050558
1780098607517028000,11.091028076171876,-4.871249945825338,0.7310182728111744,1.1425111617565153
1780098607527020300,11.101020263671876,-4.635563997901976,0.06099778179824352,-0.8276613684862851
1780098607537012200,11.11101220703125,-3.8253634673044083,-0.613208470466733,-2.0562951086863874
1780098607547004200,11.121004150390625,-3.4497117070689796,-1.020529626685381,-2.49557383017987
1780098607556995000,11.1309951171875,-3.078085549087822,-1.1871487603843212,-3.167333566075563
1780098607566987000,11.140987060546875,-2.865575601829588,-1.3655278899818657,-4.462551071512699
1780098607576979200,11.150979248046875,-2.8448738823235034,-1.4303800091207026,-4.8960833583086725
1780098607586971100,11.16097119140625,-3.023187837730348,-1.2610007630586624,-4.570900387072563
1780098607596963000,11.170963134765625,-3.743376381230354,-1.2828174580693243,-3.947153279195726
1780098607606955000,11.180955078125,-4.772544072401523,-1.650131013548374,-3.145899148380756
1780098607616947200,11.190947265625,-5.5414551457554095,-2.6028350582420825,-2.275913134384155
1780098607626939100,11.200939208984375,-6.009187223795056,-3.517181022968888,-1.7577745189264415
1780098607636931000,11.21093115234375,-6.481560990160704,-4.23636038942635,-1.4266656647726892
1780098607646922000,11.220921875,-7.030511215728521,-4.879664722949266,-1.1468868926227092
1780098607656914200,11.2309140625,-7.2939745206326245,-5.488145580372214,-0.779018625870347
1780098607666906000,11.240906005859374,-7.16348877658844,-6.1508998797744505,-0.31782325612306594
1780098607676898300,11.250898193359374,-7.058470066756009,-6.679875823327898,0.3347521790921688
1780098607686890200,11.26089013671875,-6.851479175180196,-7.257020462244749,0.8933999150708317
1780098607696882200,11.270882080078126,-6.3252037227571005,-7.822050300475954,1.2587962387517093
1780098607706874000,11.2808740234375,-5.304455484884977,-8.315040153890848,1.3070365380465983
1780098607716866300,11.2908662109375,-4.5461824176624415,-8.58348300077319,0.9813833189502358
1780098607726857200,11.300857177734375,-4.457895354661345,-8.170411902725697,0.5408928835794329
1780098607736849200,11.31084912109375,-4.233756636668741,-7.668325719663501,0.1002770682632923
1780098607746841000,11.320841064453125,-3.2102135073810816,-7.200175708472728,-0.4065554325431585
1780098607756833000,11.3308330078125,-0.4774722585484385,-5.973406300839781,-0.6569891600042581
1780098607766825200,11.3408251953125,5.046780115732551,-3.6233342897891996,-0.5259814379125833
1780098607776817200,11.350817138671875,13.879397451806067,0.64297933935225,-0.4695195459783077
1780098607786809000,11.36080908203125,27.598757486391065,10.12593689893484,1.656058065509796
1780098607796801000,11.370801025390625,28.613754028868673,20.162455977272987,7.208425650423765
1780098607806792000,11.3807919921875,14.908025044751167,21.975013933527467,6.3785857688546175
1780098607816784100,11.3907841796875,3.8289120996966957,18.728546624982357,2.5447043563127516
1780098607826776000,11.400776123046874,-0.8646358851402998,12.216413970947265,-0.16816694766283033
1780098607836768300,11.410768310546874,-0.6594222323700786,5.97532937785685,-0.33005203857719895
1780098607846760000,11.420760009765624,1.034123267751932,0.01540390535891056,0.22469255248308181
1780098607856752000,11.430752197265624,2.240488769781589,-4.338490976601839,0.9324550373911857
1780098607866744000,11.440744140625,1.2016603930786252,-6.7709028326869,1.8752485134452581
1780098607876736300,11.450736328125,-3.53115548004657,-7.914640321367979,2.26777249802649
1780098607886727200,11.46072705078125,-8.198291258776187,-7.956275815570354,2.1936416784107684
1780098607896719000,11.470718994140626,-9.849415959537028,-7.244722121685743,2.165451356714964
1780098607906711000,11.4807109375,-9.503384846061467,-5.869504027816653,3.1111703648269176
1780098607916703200,11.490703125,0.7309773562788963,-4.8547313572227955,8.078675868314503
1780098607926695200,11.500695068359375,14.73315363101363,2.4356413395255805,16.351803464627263
1780098607936687000,11.51068701171875,1.2689771487653254,8.504322370296716,11.865455337941645
1780098607946679000,11.520678955078125,-12.425219218468666,6.81821812609136,6.2907689537137745
1780098607956671200,11.530671142578125,-10.83736550513506,2.923323734182119,3.1703800941646096
1780098607966662100,11.540662109375,-7.094938387453555,0.7828174336314201,0.6470347522228956
1780098607976654000,11.550654052734375,-5.700450360447168,-0.022228198421001433,-0.27557050680518147
1780098607986646300,11.560646240234375,-5.687962634795904,-1.4069582170009611,-1.3626935433387755
1780098607996638000,11.570637939453125,-6.2365785138428205,-2.6519121006220576,-2.6091876421391964
1780098608006630100,11.580630126953125,-5.827424881500005,-2.9317426029592752,-3.4503163949638602
1780098608016622000,11.5906220703125,-4.826608255544304,-2.3995494509249924,-3.1501351785153147
1780098608026614300,11.6006142578125,-4.256806088344753,-1.3323615334391594,-2.9750229417592284
1780098608036606000,11.61060595703125,-4.1469782246649265,0.2659732418984175,-3.0889409973621365
1780098608046597000,11.62059716796875,-4.42903458635807,2.0519173319935797,-3.0196815831750627
1780098608056589000,11.630589111328124,-5.075909764105082,3.4008301872611044,-3.130789257532358
1780098608066581200,11.640581298828126,-5.324968696081638,4.375761261332035,-3.2657892641305923
1780098608076573200,11.6505732421875,-4.863088851201534,3.8461499424844976,-3.0708921304523944
1780098608086565400,11.6605654296875,-5.584080235517025,1.5686504156917334,-3.5254181054383515
1780098608096557000,11.67055712890625,-5.655216549491882,0.36272564316689965,-3.698492114365101
1780098608106549000,11.680549072265626,-4.417051887619495,0.6418710858494043,-2.9314176087886095
1780098608116541200,11.690541259765626,-2.738373409500718,0.8135609469413757,-1.8275374987214803
1780098608126532000,11.700531982421875,-1.3362702313154935,0.09474398405551909,-1.486432151210308
1780098608136524300,11.710524169921875,-0.056420975401997565,-1.1039952608793973,-2.3653917452573774
1780098608146516000,11.720515869140625,1.2539824087291955,-2.140924233701825,-2.750163800537586
1780098608156508200,11.730508056640625,2.4981840126782653,-2.544364749094844,-2.3917945990145206
1780098608166500000,11.7405,3.029512072315812,-2.3555068955808878,-1.5922124930649995
1780098608176492300,11.7504921875,3.104164869979024,-1.4058464563667774,-0.5930716913670301
1780098608186484200,11.760484130859375,4.752916996389628,-0.6632260085672139,0.6541314324855804
1780098608196476200,11.77047607421875,6.767390440651774,-0.08272913661301136,1.7501397862643002
1780098608206467000,11.780467041015624,6.705408323991298,0.6576864946186542,2.535037533301115
1780098608216459000,11.790458984375,5.457445906203985,1.025824225962162,2.5238877782553435
1780098608226451200,11.800451171875,3.8385651864439247,1.174304476380348,1.9835469756007194
1780098608236443100,11.810443115234374,2.5720436141371725,1.0581021092325449,1.354018653973937
1780098608246435000,11.82043505859375,1.9427723360113798,0.8014180892050266,0.6169090785503387
1780098608256427000,11.830427001953124,1.5921002648621796,0.5754021791636943,-0.5033125099867582
1780098608266419200,11.840419189453126,1.476015971136093,0.5546393771201372,-1.4686451501071451
1780098608276411100,11.8504111328125,1.6578281439222395,0.6294622706532478,-2.1309154653847218
1780098608286402300,11.86040234375,2.1680781980872155,0.7733908491164445,-2.4741852974534035
1780098608296394000,11.87039404296875,2.7580989774510263,1.009818847578764,-2.4688597185164687
1780098608306386200,11.88038623046875,3.0730811649292704,1.403929809090495,-2.4171733704209326
1780098608316378000,11.890378173828125,3.145716777551174,1.8705068718761204,-2.550913732346892
1780098608326370300,11.900370361328125,3.222583159610629,2.3160429001986977,-2.934391071641445
1780098608336362200,11.9103623046875,3.318790786477923,2.697026669111848,-3.1780618808388708
1780098608346354200,11.920354248046875,3.2765205015033483,2.7241093218266963,-3.286165112683177
1780098608356345000,11.930344970703125,2.716165084823966,2.6241075633734465,-3.105354956546426
1780098608366337000,11.9403369140625,1.7814479477196932,2.554138539612293,-2.814523752245307
1780098608376329200,11.9503291015625,0.9639645666375756,3.004402180978656,-2.8557670322597026
1780098608386321200,11.960321044921875,0.7405924491032958,3.6077579504728314,-3.0163948165893553
1780098608396313000,11.97031298828125,1.4920847701445221,4.45697239459753,-2.5931355020046234
1780098608406305000,11.980304931640624,2.5578262882143257,5.515920891526341,-1.8178999018043278
1780098608416297200,11.990297119140624,3.6762639159440993,6.418494585394859,-1.0666858131825923
1780098608426285300,12.000285400390625,4.125772062768042,6.870131853201985,-0.529758618363738
1780098608436276200,12.010276123046875,4.185823795887828,7.049460246348381,0.030202830561995506
1780098608446268400,12.020268310546875,4.627146882690489,6.539537378311157,0.9523533315598964
1780098608456260000,12.030260009765625,5.36407437954545,5.21496752166152,2.0179390745460988
1780098608466252300,12.040252197265625,5.717088191515207,3.5827930205643175,2.6997441113770004
1780098608476244200,12.050244140625,5.65490324575901,2.8994810863018032,2.8149849400162696
1780098608486236400,12.060236328125,4.618138523587584,3.812560976615548,2.1875410234481096
1780098608496228000,12.07022802734375,3.178444158154726,5.442886634975672,1.3021370755672455
1780098608506219300,12.08021923828125,2.132995778790116,5.502910018783807,0.5149047481030226
1780098608516211200,12.090211181640624,1.025935869643092,4.010314668768644,0.13114859186708927
1780098608526203400,12.100203369140624,-0.6776993550777435,2.937791235473752,0.7743892125040293
1780098608536195300,12.1101953125,-3.1619933740913866,2.5880156747728584,1.1376713205099105
1780098608546187500,12.1201875,-4.759897356796264,1.975721981063485,1.5550462532311677
1780098608556179200,12.13017919921875,-4.4725826361835,1.1713625777095555,2.78027603020668
1780098608566171400,12.14017138671875,-2.356561957591772,0.614884879246354,4.600847197046876
1780098608576163300,12.150163330078126,0.1279015727698803,0.4788946925669908,6.565215424925088
1780098608586154200,12.160154296875,0.9353332231760024,0.8596481598556042,7.627503295409679
1780098608596146400,12.170146484375,0.08103241569772363,1.3939210407733917,7.865205551591515
1780098608606138000,12.18013818359375,-1.2094399410389363,1.6800994508326053,7.5316849601209155
1780098608616130300,12.19013037109375,-3.017894699758291,1.530989085817337,6.24251082650125
1780098608626122200,12.200122314453125,-4.676938210819661,1.0136042113363741,4.225803339576721
1780098608636114400,12.210114501953125,-5.532351217323542,0.30800621098577974,2.2377730810821057
1780098608646106400,12.2201064453125,-4.8982843754842875,-0.48488311932682987,0.37221126439273355
1780098608656097500,12.23009765625,-4.109363072019815,-1.0538356839597225,-0.7809083851397037
1780098608666089200,12.240089111328125,-3.8950846537843344,-1.6017179880350827,-1.4665771116614341
1780098608676081400,12.250081298828125,-3.4843808693900704,-2.02614283926785,-1.4929603839352725
1780098608686073300,12.2600732421875,-2.9057550520047544,-2.4753455734044314,-1.5818912977978585
1780098608696065300,12.270065185546875,-2.9966458677634593,-3.0271722311913964,-2.490588150721788
1780098608706057200,12.28005712890625,-3.124170131653547,-3.2711008145421743,-3.3434418281316756
1780098608716049200,12.290049072265624,-3.4514448144719,-3.077303166538477,-3.4434169908389447
1780098608726040300,12.300040283203124,-4.237363136728107,-2.8131588936328886,-3.143108056357503
1780098608736032300,12.3100322265625,-5.101656784301996,-2.862640425160527,-2.6026523951515554
1780098608746024400,12.3200244140625,-5.875563181725144,-3.138553461793065,-1.9791922875225543
1780098608756016000,12.33001611328125,-6.203640120837092,-3.8287428806096315,-1.3531105992183088
1780098608766008300,12.34000830078125,-6.235187936267256,-4.605529217383265,-0.9492328614518046
1780098608776000300,12.350000244140626,-6.230138251662254,-5.264488216155767,-0.6635843204855918
1780098608785992400,12.359992431640626,-6.33352322281301,-5.9216322744607925,-0.27691666071712967
1780098608795983400,12.3699833984375,-6.484668893048167,-6.5406023771941655,0.38564883811473843
1780098608805975300,12.379975341796875,-6.242950386962295,-7.147782088890671,0.948667044262588
1780098608815967200,12.38996728515625,-5.629153302952647,-7.8400804626852265,1.1160483945056796
1780098608825959200,12.399959228515625,-4.838296355250478,-8.540547529888153,0.8027747645109892
1780098608835951400,12.409951416015625,-4.16556426719129,-8.918418135216832,0.25261048697829247
1780098608845943300,12.419943359375,-3.622561259590089,-8.527878602451086,-0.13235504504740236
1780098608855935200,12.429935302734375,-2.2549586091607807,-7.613119380748271,-0.5576186851918697
1780098608865926100,12.439926025390625,0.7761457007825374,-5.895524604257941,-1.1165654041171074
1780098608875918300,12.44991845703125,5.89668254212141,-3.174417386856675,-1.5959890889942645
1780098608885910300,12.45991015625,13.223528820264338,0.8784802860975265,-2.208695455157757
1780098608895902500,12.46990234375,24.429722961616516,9.666813659286499,-0.5906681373566389
1780098608905894400,12.479894287109374,23.435098176038263,19.449553206866977,5.22212908385396
1780098608915886300,12.48988623046875,11.852254495584964,21.50661316244602,6.130705817529559
1780098608925878300,12.499878173828124,4.09791199593991,18.410131832706927,3.697894732993841
1780098608935869200,12.509869140625,1.1982023615792392,12.142408823537826,1.596364936569333
1780098608945861400,12.519861328125,0.5920236436188221,6.397353597688674,1.154556404337287
1780098608955853300,12.529853271484376,1.1570812466397882,1.1464596071213484,1.6735393616646528
1780098608965845200,12.53984521484375,1.15254594129771,-3.1089526887774466,2.2570342463910578
1780098608975837200,12.549837158203125,1.2832441590487955,-6.094674719205498,2.3901176057130096
1780098608985829400,12.559829345703125,-1.491672974473238,-7.819042935353517,2.208952060267329
1780098608995821300,12.5698212890625,-6.352693787229061,-8.227071947580576,1.6334557730793953
1780098609005812500,12.5798125,-9.620037879586219,-7.742705545604228,1.0676064351588488
1780098609015804400,12.589804443359375,-10.318645582658052,-6.167964411821961,1.3701333379507064
1780098609025796400,12.59979638671875,-7.087606144869327,-3.851691794520616,4.313108698064089
1780098609035788300,12.609788330078125,4.568863912808895,1.8910744436085223,10.423621037870644
1780098609045780500,12.619780517578125,5.3527182882726185,8.415853813248873,11.176448991429805
1780098609055772400,12.6297724609375,-6.694623895126581,6.935877121788263,6.817234960272907
1780098609065764000,12.63976416015625,-8.459409461858868,2.999989040711522,4.090366695126891
1780098609075755300,12.64975537109375,-5.407409663403034,0.708215489372611,1.4370511574476956
1780098609085747200,12.659747314453124,-4.218225597798824,-0.681295918264985,-0.21727029352784155
1780098609095739400,12.669739501953124,-5.174921926999092,-2.1792881588876245,-1.4930664746582507
1780098609105731300,12.6797314453125,-5.984342120873928,-2.994921235927939,-2.371909164327383
1780098609115723300,12.68972314453125,-5.454238050073385,-2.957802342367172,-2.9255425792753695
1780098609125715200,12.699715087890626,-4.657493505637348,-2.3349995296031234,-3.1283453715115783
