time,seconds_elapsed,z,y,x
1780098596485940700,0.059940673828125,-0.5918489098548889,0.15225015580654144,0.23233743011951447
1780098596495933000,0.069932861328125,-0.8277928233146667,0.2662472128868103,0.13011577725410461
1780098596505923800,0.079923828125,-1.1090625524520874,0.28596019744873047,-0.08426684141159058
1780098596515915800,0.089915771484375,-1.2822462320327759,0.43678417801856995,-0.2779357433319092
1780098596525907700,0.09990771484375,-1.2397656440734863,0.7353047728538513,-0.4562559723854065
1780098596535900000,0.10989990234375,-1.0145312547683716,1.036825180053711,-0.6356614232063293
1780098596545891800,0.119891845703125,-0.6866356730461121,1.2879161834716797,-0.8022429347038269
1780098596555883800,0.1298837890625,-0.31778576970100403,1.3462492227554321,-0.9007594585418701
1780098596565875700,0.139875732421875,0.008785689249634743,1.2209393978118896,-0.8722929358482361
1780098596575868000,0.149867919921875,0.1784076690673828,0.99068284034729,-0.7606362104415894
1780098596585859800,0.15985986328125,0.21326951682567596,0.7517411112785339,-0.6176226139068604
1780098596595851800,0.169851806640625,0.20721568167209625,0.38324636220932007,-0.5133320689201355
1780098596605843700,0.17984375,0.2059304416179657,0.025288498029112816,-0.5093751549720764
1780098596615836000,0.1898359375,0.2097647488117218,-0.24739886820316315,-0.5754310488700867
1780098596625827800,0.199827880859375,0.17743290960788727,-0.2920880615711212,-0.710953950881958
1780098596635820000,0.209820068359375,0.1579444259405136,-0.09620349109172821,-0.9001989960670471
1780098596645811000,0.21981103515625,0.28058725595474243,-0.010778604075312614,-0.985305905342102
1780098596655802600,0.229802734375,0.4713805317878723,0.06799725443124771,-1.0716907978057861
1780098596665794800,0.239794921875,0.78298020362854,0.1713702529668808,-1.1621930599212646
1780098596675786800,0.249786865234375,1.1677443981170654,0.21561236679553986,-1.2374844551086426
1780098596685779000,0.259779052734375,1.4111837148666382,0.2565526068210602,-1.4190609455108643
1780098596695770600,0.2697705078125,1.4945992231369019,0.08912393450737,-1.749038815498352
1780098596705762800,0.2797626953125,1.550917625427246,-0.38169124722480774,-2.103356122970581
1780098596715754800,0.289754638671875,1.62419593334198,-1.0012270212173462,-2.302438735961914
1780098596725747000,0.299746826171875,1.5548479557037354,-1.4155954122543335,-2.256068229675293
1780098596735739000,0.30973876953125,1.370053768157959,-0.959736704826355,-1.943127155303955
1780098596745730800,0.319730712890625,1.114843487739563,0.22646670043468475,-1.4865458011627197
1780098596755722800,0.32972265625,0.8066827654838562,1.1676115989685059,-0.8692793250083923
1780098596765715000,0.33971484375,0.3825756311416626,1.4049032926559448,-0.2928948402404785
1780098596775707000,0.349706787109375,0.028170093894004822,0.8061827421188354,0.14714673161506653
1780098596785697800,0.35969775390625,-0.38096174597740173,-0.02754781022667885,0.38030940294265747
1780098596795689700,0.369689697265625,-0.8274737596511841,-0.7551039457321167,0.5733836889266968
1780098596805681700,0.379681640625,-1.1837605237960815,-0.9283350706100464,0.8543517589569092
1780098596815673900,0.389673828125,-1.3727807998657227,-0.8360114097595215,1.18547523021698
1780098596825665800,0.399665771484375,-1.2541438341140747,-0.7439296841621399,1.5035847425460815
1780098596835657700,0.40965771484375,-0.8466231226921082,-0.39352181553840637,1.8421590328216553
1780098596845649700,0.419649658203125,-0.5522996187210083,0.39190083742141724,2.131518840789795
1780098596855641900,0.429641845703125,-0.3382358253002167,1.1615155935287476,2.2866878509521484
1780098596865633800,0.4396337890625,-0.1861134022474289,1.5833810567855835,2.291156530380249
1780098596875625700,0.449625732421875,-0.06798253953456879,1.4782215356826782,2.1866981983184814
1780098596885617700,0.45961767578125,0.09100471436977386,0.958716869354248,1.9728957414627075
1780098596895609900,0.46960986328125,0.37817370891571045,0.2874160706996918,1.5969066619873047
1780098596905601800,0.479601806640625,0.5329630374908447,-0.25562167167663574,1.0769867897033691
1780098596915594000,0.489593994140625,0.525902271270752,-0.5635785460472107,0.5006856918334961
1780098596925585700,0.499585693359375,0.5422692894935608,-0.659956693649292,-0.030287327244877815
1780098596935576800,0.509576904296875,0.7220799326896667,-0.5904085636138916,-0.48932257294654846
1780098596945568800,0.51956884765625,0.9196617007255554,-0.46769216656684875,-0.7934585213661194
1780098596955561000,0.52956103515625,1.0364042520523071,-0.24080424010753632,-0.9464136362075806
1780098596965553000,0.539552978515625,1.055113434791565,0.07039917260408401,-0.9839644432067871
1780098596975544600,0.549544677734375,1.0697349309921265,0.287239134311676,-0.9245750308036804
1780098596985536800,0.559536865234375,1.1334398984909058,0.3782244324684143,-0.7903858423233032
1780098596995528700,0.56952880859375,1.0718542337417603,0.5359157919883728,-0.6092950105667114
1780098597005521000,0.57952099609375,1.0417274236679077,0.5714035034179688,-0.3614337742328644
1780098597015512800,0.589512939453125,1.0110174417495728,0.6074270009994507,-0.12300658226013184
1780098597025504800,0.5995048828125,0.9382965564727783,0.6725769639015198,0.030181370675563812
1780098597035496700,0.60949658203125,0.8427612781524658,0.9497787952423096,0.12911181151866913
1780098597045489000,0.619489013671875,0.7097685933113098,0.6061084866523743,0.1556616574525833
1780098597055480800,0.629480712890625,0.58482426404953,-0.055887579917907715,0.07716237753629684
1780098597065472800,0.63947265625,0.536776065826416,-0.37646692991256714,-0.035845667123794556
1780098597075464700,0.649464599609375,0.5225531458854675,-0.451903373003006,-0.1189594641327858
1780098597085456000,0.659455810546875,0.5022928714752197,-0.18351584672927856,-0.16409152746200562
1780098597095447800,0.66944775390625,0.4582577049732208,0.17778226733207703,-0.17225995659828186
1780098597105440000,0.67943994140625,0.38625702261924744,0.2781301736831665,-0.18650147318840027
1780098597115431700,0.689431640625,0.3176025152206421,0.08714394271373749,-0.2475835233926773
1780098597125423900,0.699423828125,0.2919085919857025,-0.18986821174621582,-0.33986419439315796
1780098597135415800,0.709415771484375,0.287339985370636,-0.4799826741218567,-0.4589572846889496
1780098597145408000,0.719407958984375,0.2608330249786377,-0.7707473635673523,-0.6087129712104797
1780098597155399700,0.729399658203125,0.21020472049713135,-1.021570086479187,-0.7524362802505493
1780098597165392000,0.739391845703125,0.16211308538913727,-1.0345699787139893,-0.8441420197486877
1780098597175383800,0.7493837890625,0.13771487772464752,-0.8437822461128235,-0.8584867119789124
1780098597185375700,0.759375732421875,0.12834614515304565,-0.5826526880264282,-0.8036280274391174
1780098597195368000,0.769367919921875,0.11696325987577438,-0.34074071049690247,-0.7050492167472839
1780098597205359600,0.779359619140625,0.08022122085094452,-0.1407090723514557,-0.5849198698997498
1780098597215351800,0.789351806640625,0.015098998323082924,-0.03616296499967575,-0.4501207172870636
1780098597225343700,0.79934375,-0.08209572732448578,-0.05889251455664635,-0.31867852807044983
1780098597235335000,0.8093349609375,-0.18253391981124878,-0.1706661731004715,-0.18366558849811554
1780098597245326800,0.819326904296875,-0.2729487717151642,-0.2515501081943512,-0.04294602572917938
1780098597255318800,0.82931884765625,-0.3789993226528168,-0.27828603982925415,0.05773621425032616
1780098597265310700,0.839310791015625,-0.49638986587524414,-0.2864491641521454,0.08996978402137756
1780098597275303000,0.849302978515625,-0.5960341095924377,-0.18523681163787842,0.0457073338329792
1780098597285294800,0.859294921875,-0.6740384101867676,0.004060958046466112,-0.07636771351099014
1780098597295286800,0.869286865234375,-0.746339738368988,0.18234600126743317,-0.25056320428848267
1780098597305278700,0.87927880859375,-0.8331340551376343,0.28710705041885376,-0.46923375129699707
1780098597315271000,0.88927099609375,-0.930823564529419,0.2739705741405487,-0.7089217305183411
1780098597325262800,0.899262939453125,-1.011603593826294,0.1541893184185028,-0.9335055947303772
1780098597335254800,0.9092548828125,-1.0305192470550537,0.05798925459384918,-1.0955438613891602
1780098597345246700,0.919246826171875,-0.9613168239593506,-0.011329364031553268,-1.181998372077942
1780098597355239000,0.929239013671875,-0.8271881937980652,-0.08244054019451141,-1.1849979162216187
1780098597365230800,0.93923095703125,-0.6429831981658936,-0.13077665865421295,-1.1051042079925537
1780098597375223000,0.94922314453125,-0.4226319193840027,-0.12377840280532837,-0.9320964217185974
1780098597385214000,0.9592138671875,-0.211509570479393,0.056654222309589386,-0.6713407039642334
1780098597395205600,0.96920556640625,-0.057354431599378586,0.40710341930389404,-0.36818748712539673
1780098597405197800,0.97919775390625,0.04696984589099884,0.7714715600013733,-0.07446081191301346
1780098597415189800,0.989189697265625,0.117967888712883,1.019910216331482,0.16665293276309967
1780098597425182000,0.999181884765625,0.15870626270771027,1.278610110282898,0.409406453371048
1780098597435173600,1.009173583984375,0.14423146843910217,0.5472248792648315,0.4885931611061096
1780098597445165800,1.019165771484375,0.10099265724420547,-0.10382962226867676,0.4642321765422821
1780098597455157800,1.02915771484375,0.09756287187337875,-0.5287763476371765,0.41469287872314453
1780098597465150000,1.03914990234375,0.07582056522369385,-0.6574709415435791,0.38828256726264954
1780098597475142000,1.049141845703125,0.03148543834686279,-0.5209811329841614,0.40008071064949036
1780098597485133800,1.0591337890625,-0.02220681682229042,-0.5108600854873657,0.4048434793949127
1780098597495125800,1.069125732421875,-0.08541698753833771,-0.6550271511077881,0.3493979871273041
1780098597505118000,1.079117919921875,-0.12713807821273804,-0.6848430633544922,0.2311278134584427
1780098597515110000,1.08910986328125,-0.15460126101970673,-0.6087864637374878,0.07769729197025299
1780098597525101800,1.099101806640625,-0.2110442966222763,-0.5436037182807922,-0.10598652064800262
1780098597535092700,1.1090927734375,-0.3234890401363373,-0.5278423428535461,-0.3069439232349396
1780098597545084700,1.119084716796875,-0.47337600588798523,-0.5173411965370178,-0.49903160333633423
1780098597555076900,1.129076904296875,-0.614711344242096,-0.4981389045715332,-0.6293622851371765
1780098597565068800,1.13906884765625,-0.7189197540283203,-0.4250394105911255,-0.6487008333206177
1780098597575060700,1.149060791015625,-0.7829263210296631,-0.2867375314235687,-0.5559004545211792
1780098597585052700,1.159052734375,-0.8159990310668945,-0.13132984936237335,-0.3897607624530792
1780098597595044900,1.169044921875,-0.8038684725761414,0.033298309892416,-0.1963130384683609
1780098597605036800,1.179036865234375,-0.7589835524559021,0.13704147934913635,-0.02190447226166725
1780098597615028700,1.18902880859375,-0.7100723385810852,0.12702792882919312,0.1178431436419487
1780098597625020700,1.199020751953125,-0.6640702486038208,0.014232131652534008,0.2128828465938568
1780098597635012900,1.209012939453125,-0.5778666734695435,-0.13104107975959778,0.254625529050827
1780098597645004800,1.2190048828125,-0.38274508714675903,-0.29361483454704285,0.2328384816646576
1780098597654997000,1.2289970703125,-0.14052604138851166,-0.33020249009132385,0.16367782652378082
1780098597664988700,1.23898876953125,0.06312136352062225,-0.20723289251327515,0.08659396320581436
1780098597674980900,1.24898095703125,0.15866614878177643,-0.059091538190841675,0.010336020961403847
1780098597684971800,1.2589716796875,0.15830208361148834,-0.06812284886837006,-0.06562212109565735
1780098597694963700,1.268963623046875,0.12936440110206604,-0.11882288008928299,-0.14243359863758087
1780098597704956000,1.278955810546875,0.04946531355381012,-0.1800023317337036,-0.16227681934833527
1780098597714947600,1.288947509765625,-0.11185788363218307,-0.42099347710609436,-0.1583237498998642
1780098597724939800,1.298939697265625,-0.32602477073669434,-0.502202033996582,-0.09879491478204727
1780098597734931700,1.308931640625,-0.563325047492981,-0.298555463552475,0.01261348370462656
1780098597744924000,1.318923828125,-0.7322930693626404,-0.31941521167755127,0.17646154761314392
1780098597754915800,1.328915771484375,-0.683355450630188,0.16713377833366394,0.40662363171577454
1780098597764907800,1.33890771484375,-0.4126443862915039,0.3855009973049164,0.70670485496521
1780098597774899700,1.348899658203125,-0.013870763592422009,0.7493137717247009,1.0120619535446167
1780098597784892000,1.358891845703125,0.4260770380496979,0.8218292593955994,1.2776148319244385
1780098597794883800,1.3688837890625,0.7994440793991089,0.5795723795890808,1.482601523399353
1780098597804875800,1.378875732421875,0.9884119033813477,0.10837583243846893,1.5931158065795898
1780098597814867700,1.38886767578125,0.7645673751831055,-0.5065661668777466,1.4773247241973877
1780098597824860000,1.39885986328125,0.13569599390029907,-0.91785728931427,1.1280559301376343
1780098597834850800,1.408850830078125,-0.4455740749835968,-0.7800635695457458,0.7979259490966797
1780098597844843000,1.418843017578125,-0.8100724220275879,-0.5938217639923096,0.48006725311279297
1780098597854834700,1.428834716796875,-1.0301573276519775,-0.6716665625572205,0.11219991743564606
1780098597864827000,1.438826904296875,-1.0674771070480347,-0.7718567848205566,-0.2476663887500763
1780098597874818800,1.44881884765625,-0.9360975623130798,-0.7984511852264404,-0.4965376853942871
1780098597884810800,1.458810791015625,-0.6799094676971436,-0.7238746881484985,-0.5820032954216003
1780098597894802700,1.468802734375,-0.38316434621810913,-0.6502321362495422,-0.5265735983848572
1780098597904794600,1.478794677734375,-0.14456535875797272,-0.7497813701629639,-0.42204588651657104
1780098597914786800,1.488786865234375,-0.02722373604774475,-1.124114751815796,-0.3321801424026489
1780098597924778800,1.49877880859375,-0.040068697184324265,-1.6751658916473389,-0.2947574257850647
1780098597934771000,1.50877099609375,-0.12020020186901093,-2.2234408855438232,-0.32464399933815
1780098597944762600,1.5187626953125,-0.20146842300891876,-2.6752769947052,-0.38221806287765503
1780098597954754800,1.5287548828125,-0.2510971426963806,-2.8945343494415283,-0.43708595633506775
1780098597964746800,1.538746826171875,-0.3504998981952667,-2.2679078578948975,-0.5708503723144531
1780098597974739000,1.548739013671875,-0.33482715487480164,-1.5175447463989258,-0.5017003417015076
1780098597984729900,1.558729736328125,-0.2945151627063751,-0.09937788546085358,-0.5456278324127197
1780098597994721800,1.5687216796875,-0.12564454972743988,0.5886583924293518,-0.5565513372421265
1780098598004713700,1.578713623046875,0.07816930115222931,0.8481120467185974,-0.6390467286109924
1780098598014706000,1.588705810546875,0.21690739691257477,0.733955979347229,-0.8168960213661194
1780098598024697900,1.59869775390625,0.22136712074279785,0.373106449842453,-0.9997822046279907
1780098598034689800,1.608689697265625,0.20460888743400574,-0.2393973022699356,-1.068982481956482
1780098598044681700,1.618681640625,0.2647593021392822,-0.9652996063232422,-1.0054795742034912
1780098598054674000,1.628673828125,0.42438367009162903,-1.5641530752182007,-0.7600827217102051
1780098598064665900,1.638665771484375,0.5986561179161072,-1.8620041608810425,-0.3970808684825897
1780098598074657800,1.64865771484375,0.6602028012275696,-1.1984909772872925,-0.10336180776357651
1780098598084649700,1.658649658203125,0.6682927012443542,-0.7355745434761047,0.08180885016918182
1780098598094641700,1.6686416015625,0.6771245002746582,-0.3903636336326599,0.30577945709228516
1780098598104633900,1.6786337890625,0.6748355031013489,-0.3738190233707428,0.4584624767303467
1780098598114625800,1.688625732421875,0.6773983240127563,-0.7395718097686768,0.5289863348007202
1780098598124617700,1.69861767578125,0.6441096067428589,-1.1902918815612793,0.5850232243537903
1780098598134609700,1.708609619140625,0.5050793886184692,-1.5851181745529175,0.6711975932121277
1780098598144600800,1.718600830078125,0.225765198469162,-1.791923999786377,0.7089287638664246
1780098598154592800,1.7285927734375,-0.09499125182628632,-1.6223477125167847,0.6149551868438721
1780098598164585000,1.7385849609375,-0.2893980145454407,-1.030320405960083,0.38533079624176025
1780098598174576600,1.74857666015625,-0.23975850641727448,-0.28366348147392273,0.11367154121398926
1780098598184568800,1.75856884765625,0.049138814210891724,0.2915675938129425,-0.17372162640094757
1780098598194560800,1.768560791015625,0.4578081965446472,0.7033774256706238,-0.4289287030696869
1780098598204553000,1.778552978515625,0.8007935285568237,0.9335044026374817,-0.5840892791748047
1780098598214545000,1.788544921875,0.9376428723335266,0.9796773195266724,-0.6520695090293884
1780098598224536800,1.798536865234375,0.8582050800323486,0.883101761341095,-0.606532633304596
1780098598234528800,1.80852880859375,0.641833484172821,0.6157181859016418,-0.41908562183380127
1780098598244521000,1.81852099609375,0.312843382358551,0.11500638723373413,-0.18166537582874298
1780098598254513000,1.828512939453125,0.08417106419801712,-0.1767967939376831,0.0565153993666172
1780098598264504800,1.8385048828125,0.26984903216362,-0.07222484052181244,0.2210276573896408
1780098598274496800,1.848496826171875,0.25954487919807434,0.11157075315713882,0.20994147658348083
1780098598284487700,1.85848779296875,0.09999063611030579,0.11428504437208176,0.013941618613898754
1780098598294480000,1.86847998046875,0.21336528658866882,0.3789324164390564,-0.10252922028303146
1780098598304471800,1.878471923828125,0.30358704924583435,0.5389681458473206,-0.20238950848579407
1780098598314463700,1.888463623046875,0.28749892115592957,0.6738533973693848,-0.3118126094341278
1780098598324455700,1.89845556640625,0.3185737431049347,0.8143290281295776,-0.3638923168182373
1780098598334447900,1.90844775390625,0.36391547322273254,0.8159287571907043,-0.338265061378479
1780098598344439800,1.918439697265625,0.35061004757881165,0.599114179611206,-0.28424549102783203
1780098598354431700,1.928431640625,0.2961024045944214,0.10071384906768799,-0.2017984539270401
1780098598364423700,1.938423583984375,0.15962977707386017,-0.4561249017715454,-0.048201438039541245
1780098598374416000,1.948415771484375,-0.02354433201253414,-0.6716533899307251,0.0764538049697876
1780098598384407800,1.95840771484375,-0.2579270005226135,-0.5983504056930542,0.024391131475567818
1780098598394400000,1.96839990234375,-0.47211816906929016,-0.25439199805259705,-0.2535598874092102
1780098598404391700,1.9783916015625,-0.5772611498832703,0.15294036269187927,-0.6064742803573608
1780098598414384000,1.988384033203125,-0.5860857963562012,0.5628179907798767,-0.9397530555725098
1780098598424376000,1.9983759765625,-0.5543702244758606,0.804289698600769,-1.1977022886276245
1780098598434367000,2.008366943359375,-0.5677903890609741,0.7916761636734009,-1.2607601881027222
1780098598444359200,2.018359130859375,-0.6400307416915894,0.5216529369354248,-1.1294727325439453
1780098598454350800,2.028350830078125,-0.6771851778030396,0.10584735125303268,-0.9332533478736877
1780098598464343000,2.038343017578125,-0.6393134593963623,-0.3528752326965332,-0.7824795842170715
1780098598474335000,2.0483349609375,-0.5585705637931824,-0.7553470134735107,-0.6602684259414673
1780098598484327200,2.0583271484375,-0.3822154700756073,-0.9117494225502014,-0.5904624462127686
1780098598494318800,2.06831884765625,-0.29099559783935547,-0.5751506686210632,-0.5837000608444214
1780098598504311000,2.07831103515625,0.022091194987297058,-0.6430005431175232,-0.5551219582557678
1780098598514303000,2.088302978515625,0.4111514687538147,-0.5278125405311584,-0.319977730512619
1780098598524295200,2.098295166015625,0.5221863389015198,-0.32252591848373413,-0.13360652327537537
1780098598534286800,2.108286865234375,0.35605472326278687,-0.14447158575057983,-0.0695403590798378
1780098598544279000,2.118279052734375,0.16065087914466858,0.13894760608673096,0.0021625934168696404
1780098598554271000,2.12827099609375,0.054518166929483414,0.22878044843673706,0.06676042079925537
1780098598564263200,2.13826318359375,-0.024584641680121422,-0.037683986127376556,0.07523486018180847
1780098598574255000,2.148255126953125,-0.07719526439905167,-0.04995965212583542,0.07933072000741959
1780098598584247000,2.1582470703125,-0.057093195617198944,-0.11342012137174606,-0.012125158682465553
1780098598594238000,2.168238037109375,-0.241059347987175,-0.3032953441143036,-0.2366507202386856
1780098598604230000,2.17822998046875,-0.3727846145629883,-0.03479064628481865,-0.3332182765007019
1780098598614222000,2.18822216796875,-0.25978341698646545,0.1041162982583046,-0.3288852274417877
1780098598624214000,2.198214111328125,-0.19979916512966156,0.05932538956403732,-0.35688143968582153
1780098598634206000,2.2082060546875,-0.31429532170295715,0.16363652050495148,-0.34499627351760864
1780098598644198000,2.218197998046875,-0.45341938734054565,0.16785869002342224,-0.304023802280426
1780098598654190000,2.228190185546875,-0.5448561906814575,0.15014798939228058,-0.2833397090435028
1780098598664182000,2.23818212890625,-0.6174829602241516,0.18474112451076508,-0.3522050678730011
1780098598674174000,2.248174072265625,-0.6992937326431274,0.2501392662525177,-0.5142237544059753
1780098598684166000,2.258165771484375,-0.746781051158905,0.1914793998003006,-0.6940078735351562
1780098598694158000,2.268157958984375,-0.8267403244972229,0.047334056347608566,-0.8280807733535767
1780098598704150000,2.27814990234375,-0.7011624574661255,0.03897572681307793,-0.8407651782035828
1780098598714142200,2.28814208984375,-0.4276816248893738,-0.1180051863193512,-0.8068810701370239
1780098598724134000,2.2981337890625,-0.2603328227996826,-0.20027263462543488,-0.7313953638076782
1780098598734124800,2.308124755859375,-0.18466223776340485,-0.23487773537635803,-0.5973995327949524
1780098598744117000,2.318116943359375,-0.12107793986797333,-0.4314675033092499,-0.41266539692878723
1780098598754109000,2.32810888671875,-0.03888336941599846,-0.7516673803329468,-0.19004759192466736
1780098598764101000,2.33810107421875,0.032201994210481644,-1.067704677581787,0.026921741664409637
1780098598774092800,2.3480927734375,-0.051961615681648254,-1.3946738243103027,0.08758175373077393
1780098598784085000,2.3580849609375,-0.30225107073783875,-1.302079439163208,0.023408357053995132
1780098598794077000,2.368076904296875,-0.40376999974250793,-0.7099859118461609,-0.21241909265518188
1780098598804069000,2.378069091796875,-0.4179835021495819,-0.2740335166454315,-0.5667568445205688
1780098598814060800,2.388060791015625,-0.36426663398742676,0.010667823255062103,-0.9241300821304321
1780098598824053000,2.398052978515625,-0.19065648317337036,0.10496209561824799,-1.2215501070022583
1780098598834045000,2.408044921875,0.07998054474592209,-0.32243797183036804,-1.4360758066177368
1780098598844037000,2.418037109375,0.342144250869751,-0.9393965005874634,-1.52312433719635
1780098598854029000,2.428029052734375,0.5594430565834045,-1.636452317237854,-1.4869682788848877
1780098598864021000,2.43802099609375,0.6869147419929504,-2.3440439701080322,-1.294905662536621
1780098598874013000,2.448012939453125,0.6742192506790161,-2.75244402885437,-0.9620911478996277
1780098598884005000,2.458005126953125,0.48211872577667236,-2.287397623062134,-0.5970317125320435
1780098598893996000,2.46799609375,0.08255981653928757,-1.3617041110992432,-0.39632073044776917
1780098598903988200,2.47798828125,-0.3186741769313812,-1.028356671333313,-0.6443608403205872
1780098598913980000,2.48797998046875,-0.5728591084480286,-0.2834084928035736,-1.00194251537323
1780098598923972000,2.49797216796875,-0.5750205516815186,0.4446169137954712,-1.2363187074661255
1780098598933964000,2.507964111328125,-0.33982938528060913,0.8314430117607117,-1.2820441722869873
1780098598943956000,2.5179560546875,-0.07346293330192566,0.9255854487419128,-1.1727805137634277
1780098598953948000,2.527947998046875,0.041115257889032364,0.539573073387146,-1.0435079336166382
1780098598963939800,2.53793994140625,0.10911668092012405,0.01954876072704792,-0.8049823641777039
1780098598973932000,2.54793212890625,0.1210562214255333,-0.9072058200836182,-0.5506981611251831
1780098598983924000,2.557924072265625,-0.08015677332878113,-1.6110239028930664,-0.2865395247936249
1780098598993916200,2.567916259765625,-0.33476170897483826,-1.8784748315811157,-0.041965994983911514
1780098599003907800,2.577907958984375,-0.45826607942581177,-1.9232958555221558,-0.004706237465143204
1780098599013900000,2.587900146484375,-0.5106582045555115,-1.712634801864624,-0.21888390183448792
1780098599023892000,2.59789208984375,-0.46499985456466675,-1.299904227256775,-0.5363516211509705
1780098599033883100,2.607883056640625,-0.14667320251464844,-0.5579753518104553,-0.6752628684043884
1780098599043875000,2.617875,0.27520400285720825,-0.07831795513629913,-0.6449164152145386
1780098599053867000,2.627866943359375,0.560222864151001,0.2753039300441742,-0.4806939959526062
1780098599063859000,2.63785888671875,0.6313149333000183,0.3050250709056854,-0.3145756125450134
1780098599073851100,2.64785107421875,0.748264491558075,0.16329234838485718,-0.03778911381959915
1780098599083843000,2.657843017578125,0.854058563709259,-0.13474465906620026,0.181743785738945
1780098599093835000,2.6678349609375,0.7192301154136658,-0.24172188341617584,0.10788262635469437
1780098599103827000,2.677826904296875,0.47229647636413574,-0.17366772890090942,-0.2757124602794647
1780098599113819100,2.687819091796875,0.35286858677864075,-0.054089225828647614,-0.7212465405464172
1780098599123811000,2.69781103515625,0.4604645371437073,0.02644183486700058,-1.0222727060317993
1780098599133803000,2.707802978515625,0.7059342861175537,0.08876324445009232,-1.1085195541381836
1780098599143795000,2.717794921875,0.8994854092597961,0.16173304617404938,-1.0183849334716797
1780098599153787000,2.727786865234375,0.9778922200202942,0.3871077001094818,-0.8210755586624146
1780098599163779000,2.737779052734375,1.0406475067138672,0.5836902856826782,-0.6004664897918701
1780098599173771000,2.74777099609375,1.0996735095977783,0.7520660161972046,-0.3642575144767761
1780098599183762200,2.75776220703125,1.1573389768600464,0.7870386242866516,-0.11125986278057098
1780098599193753900,2.76775390625,1.1513351202011108,0.6613305807113647,0.13713228702545166
1780098599203746000,2.77774609375,0.9960948824882507,0.5124108791351318,0.3732667863368988
1780098599213738000,2.787738037109375,0.7445327639579773,0.5009692311286926,0.5447056293487549
1780098599223730200,2.797730224609375,0.5113184452056885,0.4910484850406647,0.5827842950820923
1780098599233721900,2.807721923828125,0.36419937014579773,0.44545137882232666,0.5270669460296631
1780098599243714000,2.817714111328125,0.3187088370323181,0.2810072898864746,0.43157264590263367
1780098599253706000,2.8277060546875,0.3492191731929779,0.045258764177560806,0.3298189640045166
1780098599263698200,2.8376982421875,0.45197218656539917,-0.2741796672344208,0.2450585663318634
1780098599273690000,2.847690185546875,0.5879887342453003,-0.6875908970832825,0.20970040559768677
1780098599283682000,2.85768212890625,0.7014620304107666,-1.3022773265838623,0.24311348795890808
1780098599293674000,2.867674072265625,0.8188987970352173,-2.184316873550415,0.3750344514846802
1780098599303666200,2.877666259765625,1.0522511005401611,-3.153440237045288,0.6123631596565247
1780098599313658000,2.887658203125,1.4132329225540161,-4.17983341217041,0.8861496448516846
1780098599323650000,2.897650146484375,1.7410169839859009,-4.927911281585693,1.1451729536056519
1780098599333641000,2.907640869140625,1.8470770120620728,-4.584421634674072,1.2745832204818726
1780098599343633000,2.9176328125,1.8048927783966064,-3.7813992500305176,1.0441782474517822
1780098599353625000,2.927625,1.7336715459823608,-3.0261878967285156,0.5554821491241455
1780098599363617000,2.937616943359375,1.718197226524353,-2.6067886352539062,0.036786213517189026
1780098599373609000,2.94760888671875,1.7651175260543823,-2.5604045391082764,-0.1962662786245346
1780098599383601000,2.957600830078125,2.130673408508301,-3.1226189136505127,-0.07506236433982849
1780098599393593000,2.967593017578125,2.490821599960327,-3.6502323150634766,0.20464611053466797
1780098599403585000,2.9775849609375,2.575205087661743,-3.6364073753356934,0.4093758463859558
1780098599413577000,2.987576904296875,2.473038673400879,-3.310307025909424,0.33624812960624695
1780098599423570200,2.997570068359375,2.323315143585205,-2.7359116077423096,0.1485125869512558
1780098599433562400,3.007562255859375,2.2398271560668945,-2.2113208770751953,-0.059195954352617264
1780098599443554000,3.017553955078125,2.19655179977417,-1.9782521724700928,-0.2366066873073578
1780098599453546200,3.027546142578125,2.2133190631866455,-2.0906729698181152,-0.26483842730522156
1780098599463538200,3.0375380859375,2.3212358951568604,-2.6309967041015625,-0.06435886025428772
1780098599473529000,3.047529052734375,2.452706813812256,-3.588831663131714,0.29786208271980286
1780098599483521300,3.057521240234375,2.623561382293701,-4.672933578491211,0.7198495864868164
1780098599493513200,3.06751318359375,2.890538215637207,-5.762920379638672,1.091961145401001
1780098599503505200,3.077505126953125,3.194169759750366,-6.61454439163208,1.570225715637207
1780098599513497000,3.0874970703125,3.5579233169555664,-7.042086124420166,2.0639307498931885
1780098599523489300,3.0974892578125,3.6646928787231445,-7.076772212982178,2.568800449371338
1780098599533481200,3.107481201171875,3.4603700637817383,-7.114744186401367,2.9755780696868896
1780098599543473200,3.11747314453125,3.058276414871216,-6.888965606689453,3.2707571983337402
1780098599553465000,3.127465087890625,2.5400919914245605,-6.02012300491333,3.3810040950775146
1780098599563457300,3.137457275390625,2.0753791332244873,-4.635086536407471,3.1055216789245605
1780098599573449200,3.14744921875,1.7872735261917114,-3.149475574493408,2.4701104164123535
1780098599583441200,3.157441162109375,1.5902317762374878,-1.6929582357406616,1.8247145414352417
1780098599593433000,3.16743310546875,1.356383204460144,-0.555694043636322,1.3493735790252686
1780098599603425300,3.17742529296875,1.1828715801239014,0.03969772532582283,1.0078442096710205
1780098599613417200,3.187417236328125,1.00110924243927,0.30227944254875183,0.7522703409194946
1780098599623409200,3.1974091796875,0.6975293159484863,0.30678337812423706,0.6302126049995422
1780098599633400300,3.207400390625,0.41548678278923035,-0.043097298592329025,0.6456518173217773
1780098599643392000,3.21739208984375,0.1520271897315979,-0.4096214771270752,0.6930075883865356
1780098599653384200,3.22738427734375,-0.11918900161981583,-0.7566315531730652,-0.11257965117692947
1780098599663376100,3.237376220703125,-0.09146708995103836,-0.8833748698234558,-1.731186866760254
1780098599673368300,3.247368408203125,0.22552023828029633,-0.729674220085144,-2.711099863052368
1780098599683360000,3.257360107421875,0.5251535773277283,-0.3105403780937195,-2.644155740737915
1780098599693352200,3.267352294921875,0.47648555040359497,0.36963951587677,-1.8036115169525146
1780098599703344000,3.27734423828125,0.14319202303886414,0.6317342519760132,-0.8022528886795044
1780098599713336300,3.28733642578125,-0.1948424130678177,0.3530372381210327,-0.39706119894981384
1780098599723328000,3.297327880859375,-0.41132572293281555,0.07785840332508087,-0.46737292408943176
1780098599733320200,3.3073203125,-0.5242987871170044,-0.2373853623867035,-0.5157336592674255
1780098599743312100,3.31731201171875,-0.5471207499504089,-0.8677657246589661,-0.46766895055770874
1780098599753304300,3.32730419921875,-0.4131337106227875,-1.320295810699463,-0.24423477053642273
1780098599763296000,3.3372958984375,-0.23081691563129425,-1.4571388959884644,0.10883646458387375
1780098599773288200,3.3472880859375,-0.14971058070659637,-1.8557671308517456,0.3112202286720276
1780098599783279000,3.357279052734375,-0.07899220287799835,-1.9100269079208374,0.562617838382721
1780098599793271000,3.36727099609375,-0.033675480633974075,-1.9250513315200806,0.7172932028770447
1780098599803263200,3.37726318359375,-0.08781221508979797,-1.6720763444900513,0.9118586778640747
1780098599813255200,3.387255126953125,-0.24015043675899506,-1.3807111978530884,1.089631199836731
1780098599823247000,3.3972470703125,-0.6699010133743286,-1.2422274351119995,1.1426717042922974
1780098599833239000,3.407239013671875,-1.1409423351287842,-1.2657926082611084,1.1133917570114136
1780098599843231200,3.417231201171875,-1.5421653985977173,-1.46644926071167,1.0269057750701904
1780098599853223200,3.42722314453125,-1.7230461835861206,-1.708812952041626,0.9545140862464905
1780098599863215000,3.437215087890625,-1.6223089694976807,-1.8924205303192139,0.8809508681297302
1780098599873207000,3.44720703125,-1.430577039718628,-1.9392199516296387,0.8372249603271484
1780098599883199200,3.45719921875,-1.2753461599349976,-1.8999098539352417,0.7412811517715454
1780098599893191200,3.467191162109375,-1.1548373699188232,-1.782400369644165,0.5787876844406128
1780098599903183000,3.47718310546875,-1.1760730743408203,-1.614371657371521,0.30188071727752686
1780098599913175000,3.487175048828125,-1.3387988805770874,-1.537200689315796,0.015952184796333313
1780098599923166200,3.497166259765625,-1.435947060585022,-1.5457032918930054,-0.199451744556427
1780098599933158100,3.507158203125,-1.4370651245117188,-1.4725216627120972,-0.26926344633102417
1780098599943150300,3.517150390625,-1.4821434020996094,-1.3492282629013062,-0.19403022527694702
1780098599953142300,3.527142333984375,-1.5169731378555298,-1.3474236726760864,-0.1270071268081665
1780098599963134200,3.53713427734375,-1.557600975036621,-1.2911640405654907,-0.18102909624576569
1780098599973126100,3.547126220703125,-1.8201662302017212,-0.981368362903595,-0.3646897077560425
1780098599983118300,3.557118408203125,-2.1268856525421143,-0.9129477143287659,-0.4210736155509949
1780098599993110300,3.5671103515625,-2.3333334922790527,-0.8941909670829773,-0.3372378945350647
1780098600003102000,3.57710205078125,-2.45941424369812,-0.8113384246826172,-0.199884831905365
1780098600013094100,3.58709423828125,-2.3873634338378906,-1.0004886388778687,-0.33150357007980347
1780098600023086000,3.597086181640625,-2.253729820251465,-1.1450471878051758,-0.596257209777832
1780098600033078300,3.607078369140625,-2.23004412651062,-1.0962514877319336,-0.9666634202003479
1780098600043070000,3.617070068359375,-2.037175416946411,-0.9293524622917175,-1.207839846611023
1780098600053062100,3.627062255859375,-1.607103943824768,-0.7288074493408203,-1.3901262283325195
1780098600063054000,3.63705419921875,-1.0552839040756226,-0.5359669327735901,-1.7896400690078735
1780098600073045200,3.647045166015625,-0.7257298827171326,-0.2081838995218277,-2.084937334060669
1780098600083037200,3.657037109375,-0.7114734649658203,0.014778612181544304,-1.8799554109573364
1780098600093029400,3.667029296875,-0.6254246830940247,-0.29967182874679565,-1.3678385019302368
1780098600103021000,3.67702099609375,-0.6986494064331055,-0.47205105423927307,-0.494297593832016
1780098600113013200,3.68701318359375,-0.4907274544239044,-0.18130211532115936,0.8242663741111755
1780098600123005200,3.697005126953125,0.10782916843891144,-0.08202081173658371,1.8679118156433105
1780098600132997400,3.706997314453125,0.6028127670288086,-0.21957266330718994,2.187838315963745
1780098600142989000,3.716989013671875,0.8139426112174988,-0.32733985781669617,2.307652711868286
1780098600152981200,3.726981201171875,0.8333104848861694,-0.3956834673881531,2.59205961227417
1780098600162973200,3.73697314453125,0.790173351764679,-0.3183963894844055,2.817621946334839
1780098600172965400,3.74696533203125,0.7709066271781921,-0.08298622071743011,2.6583521366119385
1780098600182957000,3.75695703125,0.8563165664672852,0.4569196105003357,1.9697037935256958
1780098600192949200,3.76694921875,1.0185906887054443,1.3075826168060303,0.8446365594863892
1780098600202941200,3.776941162109375,1.0739953517913818,2.146357536315918,-0.31192633509635925
1780098600212932000,3.78693212890625,1.141243577003479,2.8682148456573486,-1.198721170425415
1780098600222924300,3.79692431640625,1.63377046585083,3.16903018951416,-1.8338433504104614
1780098600232916200,3.806916259765625,2.277042865753174,3.2674407958984375,-2.2614357471466064
1780098600242908200,3.816908203125,2.8595876693725586,3.1412277221679688,-2.430257558822632
1780098600252900000,3.826900146484375,3.282609701156616,3.016007900238037,-2.3666086196899414
1780098600262892300,3.836892333984375,3.549293041229248,2.901761054992676,-2.1810152530670166
1780098600272884200,3.84688427734375,3.7052066326141357,2.7525057792663574,-1.8978641033172607
1780098600282876200,3.856876220703125,3.9125022888183594,2.6094281673431396,-1.5164276361465454
1780098600292868000,3.8668681640625,4.2258687019348145,2.2283740043640137,-1.1726257801055908
1780098600302860300,3.8768603515625,4.61350154876709,1.8160834312438965,-0.8638938069343567
1780098600312852200,3.886852294921875,4.943397045135498,1.5159631967544556,-0.48357245326042175
1780098600322844200,3.89684423828125,5.159219741821289,1.2474230527877808,-0.05912556126713753
1780098600332836000,3.906836181640625,5.269386291503906,0.9460576772689819,0.36969873309135437
1780098600342828300,3.916828369140625,5.236668586730957,0.6443878412246704,0.7935402989387512
1780098600352820200,3.9268203125,5.0353569984436035,0.36750340461730957,1.1772352457046509
1780098600362811100,3.93681103515625,4.79042911529541,0.07396045327186584,1.5411969423294067
1780098600372803300,3.94680322265625,4.627100944519043,-0.24317944049835205,1.860164761543274
1780098600382795000,3.956794921875,4.5336737632751465,-0.4940524101257324,2.1256279945373535
1780098600392787200,3.966787109375,4.475167274475098,-0.6629683971405029,2.3490331172943115
1780098600402779100,3.976779052734375,4.426283836364746,-0.7569215297698975,2.528355360031128
1780098600412771300,3.986771240234375,4.346162796020508,-0.8746574521064758,2.627761125564575
1780098600422761500,3.996761474609375,4.005831241607666,-0.9479148983955383,2.5549046993255615
1780098600432753400,4.00675341796875,3.316340923309326,-0.4086398780345917,1.632761001586914
1780098600442745300,4.016745361328125,2.46494197845459,0.5263357758522034,0.33227238059043884
1780098600452737300,4.0267373046875,1.8762273788452148,1.021177887916565,-0.20409691333770752
1780098600462729500,4.0367294921875,1.5474780797958374,1.190259575843811,-0.14015735685825348
1780098600472721400,4.046721435546875,1.3963450193405151,1.2248700857162476,0.12092567980289459
1780098600482713300,4.05671337890625,1.4270718097686768,1.1793601512908936,0.4352726936340332
1780098600492705300,4.066705322265625,1.7272560596466064,1.1362688541412354,0.7786934971809387
1780098600502697500,4.076697509765625,2.3127846717834473,1.057193398475647,1.0376038551330566
1780098600512688400,4.0866884765625,2.9779770374298096,1.1176470518112183,0.890595555305481
1780098600522680300,4.096680419921875,3.56864333152771,1.2493587732315063,0.24496272206306458
1780098600532672500,4.106672607421875,4.0328288078308105,1.4889503717422485,-0.28223302960395813
1780098600542664200,4.116664306640625,4.454206943511963,1.8415549993515015,-0.44791173934936523
1780098600552656400,4.126656494140625,4.820312976837158,2.11248779296875,-0.30714765191078186
1780098600562648300,4.1366484375,5.095089912414551,2.1114585399627686,-0.05454869940876961
1780098600572640500,4.146640625,5.247812271118164,1.522993564605713,0.05523556098341942
1780098600582632200,4.156632080078125,5.291394233703613,-0.0854758471250534,-0.2647858262062073
1780098600592624400,4.166624267578125,5.249998092651367,-2.035693883895874,-0.6810474991798401
1780098600602616300,4.1766162109375,5.142246246337891,-3.312598943710327,-0.9560641646385193
1780098600612608500,4.1866083984375,5.00986385345459,-4.143864631652832,-1.3566097021102905
1780098600622600200,4.19660009765625,4.86651086807251,-4.74456787109375,-1.8519515991210938
1780098600632592400,4.20659228515625,4.679085731506348,-4.851463794708252,-2.3148608207702637
1780098600642584300,4.216584228515625,4.296753883361816,-4.7239203453063965,-2.687237501144409
1780098600652576500,4.226576416015625,3.615119218826294,-4.408636093139648,-2.954535722732544
1780098600662567400,4.2365673828125,2.686380386352539,-3.343735456466675,-3.425945997238159
1780098600672559600,4.2465595703125,1.6148029565811157,-1.8139522075653076,-4.131727695465088
1780098600682551300,4.25655126953125,0.5570885539054871,-0.2332758754491806,-4.491825580596924
1780098600692543200,4.266543212890625,-0.27080175280570984,1.2329163551330566,-4.375894069671631
1780098600702535400,4.276535400390625,-0.667580246925354,1.9785284996032715,-4.177071571350098
1780098600712527400,4.28652734375,-0.7137724757194519,1.7992382049560547,-4.040433883666992
1780098600722519300,4.296519287109375,-0.48229503631591797,0.7979245185852051,-3.912637710571289
1780098600732511200,4.30651123046875,-0.17722737789154053,-0.1758885681629181,-3.6113336086273193
1780098600742503400,4.31650341796875,0.0025098947808146477,-0.6764706969261169,-3.1652801036834717
1780098600752495400,4.326495361328125,0.07925237715244293,-0.8929325938224792,-2.791524648666382
1780098600762487300,4.3364873046875,-0.0227711983025074,-1.0805517435073853,-2.6747169494628906
1780098600772479200,4.346479248046875,-0.26188427209854126,-0.8331677913665771,-2.68017840385437
1780098600782471400,4.356471435546875,-0.45555493235588074,-0.11369353532791138,-2.576242685317993
1780098600792463400,4.36646337890625,-0.5764583945274353,0.8545101284980774,-2.278463125228882
1780098600802455600,4.37645556640625,-0.6623104810714722,1.6984211206436157,-1.8481954336166382
1780098600812446500,4.386446533203125,-0.741895854473114,2.053823709487915,-1.3885728120803833
1780098600822438400,4.3964384765625,-0.8763455152511597,1.910880446434021,-0.9570656418800354
1780098600832430300,4.406430419921875,-1.0118194818496704,1.5944570302963257,-0.6257072687149048
1780098600842422500,4.416422607421875,-1.0264149904251099,1.3805092573165894,-0.390309602022171
1780098600852414500,4.42641455078125,-0.9421001076698303,1.2254135608673096,-0.28735190629959106
1780098600862406400,4.436406494140625,-0.8563889265060425,0.946330189704895,-0.31057652831077576
1780098600872398300,4.4463984375,-0.8018700480461121,0.39587345719337463,-0.4407804608345032
1780098600882390500,4.456390625,-0.7135117053985596,-0.22784365713596344,-0.6485986709594727
1780098600892382500,4.466382568359375,-0.6073499321937561,-0.7197033762931824,-0.8876041173934937
1780098600902374400,4.47637451171875,-0.47897595167160034,-0.9940015077590942,-1.089670181274414
1780098600912366300,4.486366455078125,-0.29237881302833557,-0.9137248396873474,-1.198830008506775
1780098600922358300,4.496358154296875,-0.1122002825140953,-0.5859613418579102,-1.2043288946151733
1780098600932350500,4.5063505859375,0.016425976529717445,-0.21305803954601288,-1.1273491382598877
1780098600942342400,4.51634228515625,0.07860839366912842,-0.018910665065050125,-0.9893696904182434
1780098600952334300,4.526334228515625,0.12052880972623825,0.008535781875252724,-0.7230765223503113
1780098600962325200,4.5363251953125,0.1785614788532257,-0.12882792949676514,-0.3488704562187195
1780098600972317400,4.5463173828125,0.24782375991344452,-0.34604397416114807,0.10395820438861847
1780098600982309400,4.556309326171875,0.3062841296195984,-0.6207149624824524,0.5722545981407166
1780098600992301600,4.566301513671875,0.32549959421157837,-0.9236289262771606,1.022373080253601
1780098601002293200,4.576293212890625,0.4055960178375244,-1.1019939184188843,1.4961912631988525
1780098601012285400,4.586285400390625,0.5649398565292358,-1.2685174942016602,1.9585069417953491
1780098601022277400,4.59627734375,0.6725091934204102,-1.7227071523666382,2.3091533184051514
1780098601032269600,4.60626953125,0.6820983290672302,-2.725938558578491,2.442089557647705
1780098601042261200,4.61626123046875,0.5741273760795593,-4.265157699584961,2.1332931518554688
1780098601052253400,4.62625341796875,0.2728649973869324,-5.014561176300049,0.6079633831977844
1780098601062245400,4.636245361328125,-0.12710316479206085,-3.670628070831299,-2.2021214962005615
1780098601072237600,4.646237548828125,-0.15768662095069885,-2.9171605110168457,-3.2373385429382324
1780098601082229200,4.656229248046875,-0.13696908950805664,-2.5605628490448,-2.4501500129699707
1780098601092221400,4.666221435546875,-0.30752187967300415,-1.7172443866729736,-1.2209889888763428
1780098601102213400,4.67621337890625,-0.46324092149734497,-0.4367356300354004,-0.27211055159568787
1780098601112205600,4.68620556640625,-0.6116700768470764,0.4777890145778656,0.23499305546283722
1780098601122196500,4.696196533203125,-0.7807661890983582,0.7617477774620056,0.4216707944869995
1780098601132188400,4.7061884765625,-0.9191191792488098,0.8289633393287659,0.48770228028297424
1780098601142180400,4.716180419921875,-0.9826797842979431,1.0605281591415405,0.6744266152381897
1780098601152172300,4.72617236328125,-0.9935224652290344,1.264827847480774,1.0166937112808228
1780098601162164500,4.73616455078125,-0.9200743436813354,0.7446391582489014,1.266072392463684
1780098601172156400,4.746156494140625,-0.6365419030189514,-0.041065625846385956,1.2454010248184204
1780098601182148400,4.7561484375,-0.12157231569290161,-0.525947093963623,1.043338418006897
1780098601192140300,4.766140380859375,0.6422883868217468,-1.1175179481506348,0.6909856200218201
1780098601202132500,4.776132568359375,1.5175604820251465,-1.0154856443405151,0.2716512084007263
1780098601212124400,4.78612451171875,1.8970550298690796,0.38960251212120056,0.054056935012340546
1780098601222116400,4.796116455078125,1.5786266326904297,1.9083489179611206,-0.2323436737060547
1780098601232108300,4.8061083984375,0.8663408160209656,2.650613307952881,-0.5185750126838684
1780098601242100500,4.8161005859375,0.4738646447658539,2.5543649196624756,-0.4518153667449951
1780098601252092400,4.826092529296875,0.4803372919559479,2.1358187198638916,-0.061539068818092346
1780098601262084600,4.836084716796875,0.6465582251548767,1.5565564632415771,0.4257829189300537
1780098601272075500,4.846075439453125,0.8010162711143494,0.7883801460266113,0.9174408316612244
1780098601282067200,4.856067138671875,0.8734263181686401,-0.22278618812561035,1.3430688381195068
1780098601292059400,4.866059326171875,0.8986604809761047,-1.288339376449585,1.6681052446365356
1780098601302051300,4.87605126953125,0.8429266214370728,-2.222153425216675,1.8809727430343628
1780098601312043500,4.88604345703125,0.6387925744056702,-2.944514751434326,2.0161004066467285
1780098601322035200,4.89603515625,0.38561704754829407,-3.3782198429107666,2.109083414077759
1780098601332027400,4.90602734375,0.1820727437734604,-3.4251363277435303,2.1768484115600586
1780098601342019300,4.916019287109375,0.07388795912265778,-2.7465572357177734,2.3172972202301025
1780098601352011500,4.926011474609375,-0.03862527012825012,-0.2245267629623413,2.828603982925415
1780098601362003200,4.936003173828125,-0.29874324798583984,2.6344056129455566,3.310199737548828
1780098601371995400,4.945995361328125,-0.7596951127052307,4.189171314239502,3.3349220752716064
1780098601381987300,4.9559873046875,-1.359000563621521,4.628419876098633,3.212270975112915
1780098601391979500,4.9659794921875,-1.784656286239624,4.312455654144287,3.290358304977417
1780098601401971500,4.975971435546875,-1.728167176246643,3.5887389183044434,3.4868931770324707
1780098601411963400,4.98596337890625,-1.407073736190796,2.5629889965057373,3.5342917442321777
1780098601421955600,4.99595556640625,-1.0947425365447998,1.464957594871521,3.3343276977539062
1780098601431946500,5.005946533203125,-0.8386321067810059,0.6190153360366821,2.893441915512085
1780098601441938400,5.0159384765625,-0.6305534839630127,0.09520833194255829,2.3241281509399414
1780098601451930600,5.0259306640625,-0.4472847282886505,0.06474323570728302,1.8349179029464722
1780098601461922300,5.03592236328125,-0.3397228419780731,0.4028552174568176,1.4959110021591187
1780098601471914500,5.04591455078125,-0.1656334102153778,1.0354323387145996,1.362950086593628
1780098601481906400,5.055906494140625,0.0885181725025177,1.4611972570419312,1.3554847240447998
1780098601491898600,5.065898681640625,0.35647693276405334,1.1972521543502808,1.3255183696746826
1780098601501890300,5.075890380859375,0.6004003882408142,0.6899564862251282,1.352241039276123
1780098601511882500,5.085882568359375,0.7421720623970032,0.2910858988761902,1.4081827402114868
1780098601521874400,5.09587451171875,0.8215430378913879,0.23352618515491486,1.4195011854171753
1780098601531866600,5.10586669921875,0.8207663893699646,0.48559218645095825,1.3306071758270264
1780098601541858600,5.115858642578125,0.7766228914260864,0.8636230826377869,1.1636887788772583
1780098601551850500,5.1258505859375,0.7634930610656738,1.1209814548492432,0.9686844944953918
1780098601561842400,5.135842529296875,0.8138201236724854,1.0951133966445923,0.7922570109367371
1780098601571834600,5.145834716796875,0.8998507857322693,0.8447645306587219,0.6493901610374451
1780098601581826600,5.15582666015625,0.9630707502365112,0.5232552289962769,0.5505189895629883
1780098601591818500,5.165818603515625,0.9460207223892212,0.2405102550983429,0.4594895839691162
1780098601601809400,5.175809326171875,0.7969231009483337,0.04917624220252037,0.36143890023231506
1780098601611801600,5.185801513671875,0.5425540804862976,-0.03825923800468445,0.2865982949733734
1780098601621793500,5.19579345703125,0.24769610166549683,-0.04620771110057831,0.24611957371234894
1780098601631785700,5.20578564453125,-0.016187818720936775,0.01661902293562889,0.22092211246490479
1780098601641777400,5.21577734375,-0.15205004811286926,0.11007706820964813,0.20825424790382385
1780098601651769300,5.225769287109375,-0.1761666238307953,0.10812946408987045,0.17743074893951416
1780098601661761500,5.235761474609375,-0.1333232969045639,-0.050546467304229736,0.12278854101896286
1780098601671753500,5.24575341796875,-0.06252795457839966,-0.3065449595451355,0.066981740295887
1780098601681745400,5.255745361328125,-0.018448906019330025,-0.6137144565582275,0.032562509179115295
1780098601691737300,5.2657373046875,-0.052633896470069885,-0.9351701736450195,0.021276112645864487
1780098601701729500,5.2757294921875,-0.1168496385216713,-1.1433188915252686,0.0019905646331608295
1780098601711721500,5.285721435546875,-0.1415230929851532,-1.085830569267273,-0.09718982875347137
1780098601721713700,5.295713623046875,-0.14850616455078125,-0.8331037759780884,-0.36175304651260376
1780098601731705300,5.305705322265625,-0.16846629977226257,-0.3837015926837921,-0.7365867495536804
1780098601741697500,5.315697509765625,-0.21957820653915405,0.19582036137580872,-1.1781551837921143
1780098601751689500,5.325689453125,-0.31537550687789917,0.8897145390510559,-1.6961010694503784
1780098601761680600,5.3356806640625,-0.4885097146034241,1.4655662775039673,-2.294642210006714
1780098601771672600,5.345672607421875,-0.7546742558479309,1.672516107559204,-2.8658037185668945
1780098601781664500,5.35566455078125,-0.9608697891235352,1.634181261062622,-3.3780856132507324
1780098601791656400,5.365656494140625,-1.1413605213165283,1.3559070825576782,-3.892340898513794
1780098601801648600,5.375648681640625,-1.3161851167678833,0.7945830225944519,-4.2161970138549805
1780098601811640600,5.385640625,-1.416221022605896,0.19791431725025177,-4.1270551681518555
1780098601821632500,5.395632568359375,-1.3374031782150269,-0.1977728307247162,-3.701754331588745
1780098601831624400,5.40562451171875,-1.0871217250823975,-0.3322082459926605,-3.1183102130889893
1780098601841616600,5.41561669921875,-0.6583327651023865,-0.18783800303936005,-2.522305727005005
1780098601851608600,5.425608642578125,-0.12131334841251373,-0.13631998002529144,-2.189800262451172
1780098601861600500,5.4356005859375,0.3368430435657501,-0.030108055099844933,-2.2753565311431885
1780098601871592400,5.445592529296875,0.5378409028053284,0.4818290174007416,-2.6083714962005615
1780098601881584400,5.45558447265625,0.43516862392425537,1.2858235836029053,-2.816002130508423
1780098601891576600,5.46557666015625,0.12761729955673218,1.933895230293274,-2.7684733867645264
1780098601901568500,5.475568603515625,-0.21083903312683105,2.1290886402130127,-2.542184829711914
1780098601911560400,5.485560546875,-0.46833300590515137,1.880702257156372,-2.2059285640716553
1780098601921551400,5.49555126953125,-0.6410816311836243,1.3457677364349365,-1.8454700708389282
1780098601931543600,5.50554345703125,-0.7334380745887756,0.754647970199585,-1.5266313552856445
1780098601941535500,5.515535400390625,-0.7862765192985535,0.1467161923646927,-1.3054494857788086
1780098601951527700,5.525527587890625,-0.8297489285469055,-0.47846874594688416,-1.2239400148391724
1780098601961519400,5.535519287109375,-0.8264639377593994,-0.7908124923706055,-1.2466461658477783
1780098601971511600,5.545511474609375,-0.8074877858161926,-0.7812349200248718,-1.3318504095077515
1780098601981503500,5.55550341796875,-0.7532399892807007,-0.6487740874290466,-1.4481440782546997
1780098601991495700,5.56549560546875,-0.7091550230979919,-0.668549120426178,-1.5618373155593872
1780098602001487600,5.575487548828125,-0.6295685768127441,-0.763143002986908,-1.6318515539169312
1780098602011479600,5.5854794921875,-0.49985453486442566,-0.7155278325080872,-1.6011106967926025
1780098602021471500,5.595471435546875,-0.3712123930454254,-0.6231515407562256,-1.476141095161438
1780098602031463700,5.605463623046875,-0.2798776626586914,-0.5321871638298035,-1.2593419551849365
1780098602041455600,5.61545556640625,-0.2111755609512329,-0.39146071672439575,-0.9433339238166809
1780098602051447600,5.625447509765625,-0.12783710658550262,-0.2187160849571228,-0.5763554573059082
1780098602061439500,5.635439453125,-0.032629091292619705,-0.06507432460784912,-0.18133623898029327
1780098602071431400,5.645431396484375,0.007220067083835602,-0.00008744797378312796,0.21265876293182373
1780098602081422600,5.655422607421875,-0.03340272605419159,-0.04409964755177498,0.6005324721336365
1780098602091414500,5.66541455078125,-0.12146271765232086,-0.21141797304153442,0.9889081716537476
1780098602101406500,5.675406494140625,-0.24069349467754364,-0.4872508943080902,1.3847585916519165
1780098602111398400,5.6853984375,-0.32816067337989807,-0.858176052570343,1.8001656532287598
1780098602121390600,5.695390625,-0.3050500154495239,-1.2501475811004639,2.2625904083251953
1780098602131382500,5.705382568359375,-0.18386930227279663,-1.746926188468933,2.7574081420898438
1780098602141374500,5.71537451171875,-0.03249683231115341,-2.3975024223327637,3.207695722579956
1780098602151366400,5.725366455078125,0.09878848493099213,-3.23518705368042,3.4318950176239014
1780098602161358600,5.735358642578125,0.1985584795475006,-3.9670815467834473,3.0575904846191406
1780098602171350500,5.7453505859375,0.30148354172706604,-3.4488933086395264,1.2903083562850952
1780098602181342700,5.7553427734375,0.55511474609375,-1.6504014730453491,-2.064788579940796
1780098602191334400,5.76533447265625,1.3116480112075806,-1.2788385152816772,-4.081227779388428
1780098602201326600,5.77532666015625,2.045456886291504,-2.546947717666626,-3.745666980743408
1780098602211318500,5.785318603515625,1.9563510417938232,-2.8247859477996826,-2.577596664428711
1780098602221310700,5.795310791015625,1.0420228242874146,-1.1286907196044922,-1.1870189905166626
1780098602231301600,5.805301513671875,0.04211534559726715,1.0485057830810547,0.2116955816745758
1780098602241293300,5.815293212890625,-0.6286547780036926,2.263549327850342,1.383277177810669
1780098602251285500,5.825285400390625,-0.9671432375907898,2.3363535404205322,2.1313838958740234
1780098602261277400,5.83527734375,-1.0627105236053467,1.9330182075500488,2.3916852474212646
1780098602271269600,5.84526953125,-0.9908273220062256,1.326474905014038,2.1788032054901123
1780098602281261600,5.855261474609375,-0.7706611752510071,0.8515632152557373,1.6102443933486938
1780098602291253500,5.86525341796875,-0.3964560031890869,0.8434967398643494,0.9140312671661377
1780098602301245400,5.875245361328125,-0.06262743473052979,1.0400651693344116,0.19458870589733124
1780098602311237600,5.885237548828125,0.13739371299743652,0.6670994758605957,-0.3843066096305847
1780098602321229600,5.8952294921875,0.46575239300727844,-1.071606159210205,-0.5860524773597717
1780098602331221500,5.905221435546875,0.6643394827842712,-0.7092401385307312,-0.4731038212776184
1780098602341213400,5.91521337890625,0.6739292740821838,0.36404117941856384,-0.600682258605957
1780098602351205600,5.92520556640625,0.6116307973861694,0.9102359414100647,-0.7425764203071594
1780098602361197600,5.935197509765625,0.5901784896850586,1.0928547382354736,-0.6193666458129883
1780098602371189500,5.945189453125,0.6401700377464294,0.8751659989356995,-0.28382229804992676
1780098602381181400,5.955181396484375,0.6993936896324158,0.5585832595825195,-0.03476825729012489
1780098602391172400,5.96517236328125,0.7449516654014587,0.14315758645534515,0.09636633098125458
1780098602401164500,5.97516455078125,0.764947235584259,-0.5208901762962341,0.16208435595035553
1780098602411156500,5.985156494140625,0.7375882267951965,-1.3631343841552734,0.17811839282512665
1780098602421151500,5.9951513671875,0.7286943197250366,-2.2636375427246094,0.19024242460727692
1780098602431143200,6.00514306640625,0.7601765394210815,-3.0456855297088623,0.28545933961868286
1780098602441135400,6.01513525390625,0.6798052787780762,-3.6022469997406006,0.5765772461891174
1780098602451127300,6.025127197265625,0.4248000979423523,-3.7279155254364014,1.166391372680664
1780098602461119500,6.035119384765625,-0.054358240216970444,-3.3922863006591797,1.9658366441726685
1780098602471111400,6.045111328125,-0.6287170052528381,-2.7455785274505615,2.7864508628845215
1780098602481103400,6.055103271484375,-1.0675138235092163,-1.9225496053695679,3.5260045528411865
1780098602491095300,6.06509521484375,-1.3228956460952759,-0.7653136849403381,4.059779167175293
1780098602501087500,6.07508740234375,-1.4116599559783936,0.7352753281593323,4.148160457611084
1780098602511079400,6.085079345703125,-1.3944171667099,2.0435452461242676,3.7355008125305176
1780098602521071400,6.0950712890625,-1.307015061378479,2.662451982498169,3.086371898651123
1780098602531063300,6.105063232421875,-1.132337212562561,2.584644317626953,2.467552661895752
1780098602541055500,6.115055419921875,-0.8879677653312683,1.8020179271697998,1.8915735483169556
1780098602551046400,6.12504638671875,-0.6290367245674133,0.6101725697517395,1.3549669981002808
1780098602561038600,6.13503857421875,-0.3449033200740814,-0.3097200095653534,0.9983290433883667
1780098602571030300,6.1450302734375,-0.07152935117483139,-0.6280614733695984,0.8816962242126465
1780098602581022500,6.1550224609375,0.017105707898736,-0.1834944486618042,1.0685704946517944
1780098602591014400,6.165014404296875,-0.037080999463796616,0.6366645693778992,1.4446542263031006
1780098602601006300,6.17500634765625,-0.12335196882486343,1.2524243593215942,1.8362923860549927
1780098602610998300,6.184998291015625,-0.10718172788619995,1.2159281969070435,2.0433101654052734
1780098602620990200,6.194990234375,0.09796183556318283,0.6430999040603638,2.0171492099761963
1780098602630982400,6.204982421875,0.39606308937072754,0.05806810036301613,1.8379393815994263
1780098602640974300,6.214974365234375,0.6848930716514587,-0.3116505444049835,1.5754859447479248
1780098602650966500,6.224966552734375,0.8886516690254211,-0.4700331687927246,1.3106651306152344
1780098602660958200,6.234958251953125,0.9983299374580383,-0.4551011025905609,1.1253466606140137
1780098602670950400,6.244950439453125,1.0221102237701416,-0.3195459544658661,1.039331078529358
1780098602680942300,6.2549423828125,0.9856638312339783,-0.10368344932794571,1.0058934688568115
1780098602690934500,6.2649345703125,0.922243058681488,0.09891945868730545,0.9644795060157776
1780098602700925400,6.274925537109375,0.8279144167900085,0.2174716740846634,0.8797997236251831
1780098602710917400,6.28491748046875,0.7037941217422485,0.2746092677116394,0.7745941877365112
1780098602720909300,6.294909423828125,0.5682602524757385,0.314052015542984,0.6781131625175476
1780098602730901500,6.304901611328125,0.4469708204269409,0.3609294891357422,0.5926872491836548
1780098602740893400,6.3148935546875,0.3270534873008728,0.38516613841056824,0.5159444808959961
1780098602750885400,6.324885498046875,0.18323436379432678,0.4043033719062805,0.4091569781303406
1780098602760877300,6.334877197265625,0.03789981082081795,0.3971554636955261,0.2714877724647522
1780098602770869500,6.344869384765625,-0.07949776202440262,0.27143555879592896,0.1541130691766739
1780098602780861400,6.354861328125,-0.13436686992645264,-0.005747816059738398,0.11813589185476303
1780098602790853400,6.364853271484375,-0.12860995531082153,-0.3918737769126892,0.17737092077732086
1780098602800845300,6.37484521484375,-0.11572345346212387,-0.693075954914093,0.24119730293750763
1780098602810837200,6.384837158203125,-0.14938195049762726,-0.7442944645881653,0.2078378051519394
1780098602820829400,6.394829345703125,-0.2153915911912918,-0.5426950454711914,0.05611671879887581
1780098602830821400,6.4048212890625,-0.28296130895614624,-0.2014402449131012,-0.24926316738128662
1780098602840813300,6.414813232421875,-0.3171491026878357,0.1947062909603119,-0.6872565150260925
1780098602850804200,6.42480419921875,-0.348613977432251,0.5401986241340637,-1.1947895288467407
1780098602860796400,6.43479638671875,-0.43623703718185425,0.637082576751709,-1.749707818031311
1780098602870788400,6.444788330078125,-0.5310713648796082,0.6029391884803772,-2.271165609359741
1780098602880780500,6.454780517578125,-0.5719836354255676,0.6476643085479736,-2.6878840923309326
1780098602890772200,6.464772216796875,-0.6048309803009033,0.7900255918502808,-2.9376516342163086
1780098602900764400,6.474764404296875,-0.6500328183174133,0.9063074588775635,-3.038012981414795
1780098602910756400,6.48475634765625,-0.653825581073761,0.8866766691207886,-3.1173441410064697
1780098602920748500,6.49474853515625,-0.5753278136253357,0.8218433856964111,-3.1322500705718994
1780098602930740500,6.504740478515625,-0.41594138741493225,0.8380014300346375,-3.0594377517700195
1780098602940732400,6.514732421875,-0.19557492434978485,0.7842918634414673,-3.013312578201294
1780098602950724400,6.524724365234375,0.08899896591901779,0.560231626033783,-3.0739777088165283
1780098602960716500,6.534716552734375,0.46184444427490234,0.35707026720046997,-3.218491315841675
1780098602970708500,6.54470849609375,0.887243926525116,0.3387647569179535,-3.349595069885254
1780098602980700400,6.554700439453125,1.2644290924072266,0.36952173709869385,-3.4995827674865723
1780098602990692400,6.5646923828125,1.6008567810058594,0.557315468788147,-3.59006929397583
1780098603000683300,6.574683349609375,1.761393427848816,0.9053139090538025,-3.5626142024993896
1780098603010675500,6.584675537109375,1.699167251586914,1.2109756469726562,-3.369626760482788
1780098603020667400,6.59466748046875,1.5191797018051147,1.5889493227005005,-2.9755237102508545
1780098603030659300,6.604659423828125,1.2807958126068115,1.9846135377883911,-2.4190173149108887
1780098603040651300,6.6146513671875,0.980722188949585,2.255601167678833,-1.8047481775283813
1780098603050643500,6.6246435546875,0.5972856283187866,2.346402645111084,-1.2410277128219604
1780098603060635400,6.634635498046875,0.13235683739185333,2.251389503479004,-0.8060469627380371
1780098603070627300,6.64462744140625,-0.34145689010620117,1.8201123476028442,-0.4916142225265503
1780098603080619300,6.654619384765625,-0.7982577085494995,1.1022249460220337,-0.27404141426086426
1780098603090611500,6.664611572265625,-1.1291931867599487,0.32422691583633423,-0.1906352937221527
1780098603100603400,6.674603271484375,-1.3823647499084473,-0.39199697971343994,-0.2571173906326294
1780098603110595600,6.684595703125,-1.5541772842407227,-0.9213186502456665,-0.5414649248123169
1780098603120587300,6.694587158203125,-1.5278247594833374,-1.0886934995651245,-0.9427610039710999
1780098603130579500,6.704579345703125,-1.2817018032073975,-0.8821921348571777,-1.2248988151550293
1780098603140571400,6.7145712890625,-0.9183510541915894,-0.555804967880249,-1.3332535028457642
1780098603150562300,6.724562255859375,-0.4961315393447876,-0.29513320326805115,-1.3165414333343506
1780098603160554500,6.734554443359375,-0.09310498833656311,-0.14219583570957184,-1.1865850687026978
1780098603170546200,6.744546142578125,0.2047206163406372,0.05453353747725487,-0.9545585513114929
1780098603180538400,6.754538330078125,0.4470973014831543,0.3186671733856201,-0.6550663709640503
1780098603190530300,6.7645302734375,0.6129188537597656,0.5660631060600281,-0.3393688499927521
1780098603200522500,6.7745224609375,0.7150516510009766,0.5422539114952087,-0.031380657106637955
1780098603210514400,6.784514404296875,0.7796059846878052,0.10209213197231293,0.27710220217704773
1780098603220506400,6.79450634765625,0.7682520747184753,-0.6077974438667297,0.5841702818870544
1780098603230498300,6.804498291015625,0.6445225477218628,-1.4542893171310425,0.8827037215232849
1780098603240490500,6.814490478515625,0.4081534147262573,-2.421462059020996,1.19456946849823
1780098603250482400,6.824482421875,0.16598157584667206,-3.550851345062256,1.548429250717163
1780098603260474400,6.834474365234375,0.014202169142663479,-4.896782875061035,1.8876779079437256
1780098603270466300,6.84446630859375,0.09541736543178558,-6.295762538909912,2.0190815925598145
1780098603280458500,6.85445849609375,0.29216423630714417,-6.320262432098389,1.006419062614441
1780098603290450400,6.864450439453125,0.45105376839637756,-2.7117533683776855,-2.342318296432495
1780098603300441600,6.874441650390625,1.0469146966934204,-1.2610822916030884,-4.177703857421875
1780098603310433300,6.884433349609375,1.712592363357544,-2.0985612869262695,-3.5734355449676514
1780098603320425200,6.89442529296875,1.8285930156707764,-2.217910051345825,-2.1695046424865723
1780098603330417400,6.90441748046875,1.1823545694351196,-1.0702296495437622,-0.9141873121261597
1780098603340409300,6.914409423828125,0.10920117795467377,0.36493298411369324,-0.04178822413086891
1780098603350401300,6.9244013671875,-0.6671525239944458,1.114469289779663,0.485576868057251
1780098603360393200,6.934393310546875,-1.0572621822357178,1.2279444932937622,0.7528086304664612
1780098603370385400,6.944385498046875,-1.138258457183838,0.9781426787376404,1.055655598640442
1780098603380377300,6.95437744140625,-1.0010955333709717,0.7764298319816589,1.3880335092544556
1780098603390369500,6.96436962890625,-0.7653214931488037,0.8362249732017517,1.4751582145690918
1780098603400361200,6.974361328125,-0.5552888512611389,1.169106364250183,1.2302334308624268
1780098603410353400,6.984353515625,-0.3825143575668335,1.8275725841522217,0.9291092753410339
1780098603420342800,6.9943427734375,-0.10980908572673798,1.2662594318389893,0.719890832901001
1780098603430334500,7.00433447265625,0.5272569060325623,-0.912327766418457,0.5513781905174255
1780098603440325600,7.01432568359375,1.079282283782959,-0.44098928570747375,0.48262470960617065
1780098603450317600,7.024317626953125,1.2326569557189941,1.4249114990234375,0.23720325529575348
1780098603460309800,7.034309814453125,0.8479918241500854,2.521646738052368,-0.15169523656368256
1780098603470301700,7.0443017578125,0.4326573312282562,2.3207221031188965,-0.1737404614686966
1780098603480293600,7.054293701171875,0.26270556449890137,1.487507939338684,0.14676912128925323
1780098603490285600,7.06428564453125,0.15301521122455597,0.565364420413971,0.47071048617362976
1780098603500277500,7.074277587890625,0.03851978853344917,-0.2797048091888428,0.652665913105011
1780098603510269700,7.084269775390625,0.07409101724624634,-1.1705197095870972,0.731408953666687
1780098603520261600,7.09426171875,0.22780947387218475,-1.979267954826355,0.7894560098648071
1780098603530253600,7.104253662109375,0.4148266315460205,-2.520451307296753,0.8218262195587158
1780098603540245500,7.11424560546875,0.6095066666603088,-2.7605528831481934,0.7719204425811768
1780098603550237700,7.12423779296875,0.7571430802345276,-2.6849894523620605,0.6379919052124023
1780098603560229600,7.134229736328125,0.7629940509796143,-2.420125722885132,0.49242860078811646
1780098603570221600,7.1442216796875,0.5929374694824219,-2.1440060138702393,0.4242391288280487
1780098603580212500,7.15421240234375,0.1931421458721161,-2.366925001144409,1.057082176208496
1780098603590204700,7.16420458984375,-0.3854556679725647,-2.3167483806610107,2.488201379776001
1780098603600196600,7.174196533203125,-0.8092817664146423,-0.7798327803611755,3.536724328994751
1780098603610188800,7.184188720703125,-1.0889396667480469,1.11166512966156,3.7778079509735107
1780098603620180500,7.194180419921875,-1.2728352546691895,2.459333896636963,3.5337908267974854
1780098603630172700,7.204172607421875,-1.27616286277771,2.8585994243621826,3.0691964626312256
1780098603640164600,7.21416455078125,-1.1592631340026855,2.3675618171691895,2.6028103828430176
1780098603650156800,7.22415673828125,-1.0228122472763062,1.4269098043441772,2.2703335285186768
1780098603660148700,7.234148681640625,-0.8450168371200562,0.5520681738853455,2.0400450229644775
1780098603670140700,7.244140625,-0.6550095081329346,-0.05340852215886116,1.790452241897583
1780098603680132600,7.254132568359375,-0.4890378713607788,-0.3694778084754944,1.4869650602340698
1780098603690124800,7.264124755859375,-0.3283653259277344,-0.4457325339317322,1.191407322883606
1780098603700116700,7.27411669921875,-0.1898774951696396,-0.4141541123390198,0.9717665314674377
1780098603710108400,7.2841083984375,-0.08375940471887589,-0.3338143527507782,0.8818749785423279
1780098603720099600,7.294099609375,0.0066261496394872665,-0.14419355988502502,0.9745088219642639
1780098603730091500,7.304091552734375,0.08809631317853928,0.11972695589065552,1.2157106399536133
1780098603740083700,7.314083740234375,0.1665533035993576,0.2931530773639679,1.5063467025756836
1780098603750075600,7.32407568359375,0.24444864690303802,0.2533737123012543,1.6992332935333252
1780098603760067600,7.334067626953125,0.3325459957122803,0.039323724806308746,1.7161006927490234
1780098603770059500,7.3440595703125,0.4527793228626251,-0.20851004123687744,1.5799466371536255
1780098603780051700,7.3540517578125,0.5715541839599609,-0.37539491057395935,1.3449525833129883
1780098603790043600,7.364043701171875,0.6568287014961243,-0.4246678054332733,1.0626909732818604
1780098603800035800,7.374035888671875,0.7030431032180786,-0.41393688321113586,0.7918564081192017
1780098603810027500,7.384027587890625,0.7341601252555847,-0.3931344747543335,0.5887946486473083
1780098603820019700,7.394019775390625,0.7486498951911926,-0.39390572905540466,0.48464080691337585
1780098603830011600,7.40401171875,0.7333666086196899,-0.3417329788208008,0.45489025115966797
1780098603840003800,7.41400390625,0.6687313914299011,-0.1749623715877533,0.46659430861473083
1780098603849995500,7.42399560546875,0.530040442943573,0.08263438940048218,0.5008918046951294
1780098603859986400,7.433986328125,0.32729536294937134,0.35612452030181885,0.5398187041282654
1780098603869978600,7.443978515625,0.1441018134355545,0.5467244982719421,0.541373610496521
1780098603879970600,7.453970458984375,-0.025288281962275505,0.5911990404129028,0.42602065205574036
1780098603889962800,7.463962646484375,-0.15529069304466248,0.5029503107070923,0.26998308300971985
1780098603899954400,7.473954345703125,-0.25606924295425415,0.2749025225639343,0.17779751121997833
1780098603909946600,7.483946533203125,-0.31107282638549805,-0.06410618126392365,0.22417671978473663
1780098603919938600,7.4939384765625,-0.309623658657074,-0.40643084049224854,0.3553265333175659
1780098603929930800,7.5039306640625,-0.29160091280937195,-0.6095002293586731,0.39911794662475586
1780098603939922700,7.513922607421875,-0.313302218914032,-0.6203781366348267,0.262261301279068
1780098603949914600,7.52391455078125,-0.3756137192249298,-0.41616976261138916,-0.018516989424824715
1780098603959906600,7.533906494140625,-0.4219508469104767,-0.0464622899889946,-0.4478933811187744
1780098603969898800,7.543898681640625,-0.3789970278739929,0.3742557466030121,-0.9100465178489685
1780098603979890700,7.553890625,-0.30565890669822693,0.6437852382659912,-1.3624873161315918
1780098603989881900,7.5638818359375,-0.27123668789863586,0.7051277756690979,-1.8448964357376099
1780098603999873500,7.57387353515625,-0.32691165804862976,0.6771366000175476,-2.337625026702881
1780098604009865500,7.583865478515625,-0.4975053071975708,0.6513816118240356,-2.8169450759887695
1780098604019857700,7.593857666015625,-0.7163907885551453,0.6838138699531555,-3.232940435409546
1780098604029849600,7.603849609375,-0.9168096780776978,0.7800869941711426,-3.523296356201172
1780098604039841500,7.613841552734375,-1.052694320678711,0.8537265658378601,-3.5663788318634033
1780098604049833500,7.62383349609375,-1.0837574005126953,0.8869096040725708,-3.3563413619995117
1780098604059825700,7.63382568359375,-1.0007798671722412,0.9229086637496948,-3.0512921810150146
1780098604069817600,7.643817626953125,-0.8333403468132019,0.9563581347465515,-2.762303352355957
1780098604079809800,7.653809814453125,-0.6172330975532532,0.9961548447608948,-2.574713945388794
1780098604089801500,7.663801513671875,-0.30497199296951294,0.8719189763069153,-2.5041706562042236
1780098604099793700,7.673793701171875,0.13236300647258759,0.34633931517601013,-2.5038657188415527
1780098604109785600,7.68378564453125,0.5993150472640991,-0.307882696390152,-2.5678720474243164
1780098604119777800,7.69377783203125,0.9108343124389648,-0.538641095161438,-2.679849863052368
1780098604129768700,7.703768798828125,0.9410219788551331,-0.07355460524559021,-2.744633197784424
1780098604139760600,7.7137607421875,0.6694319844245911,1.0211254358291626,-2.6384265422821045
1780098604149752600,7.723752685546875,0.33368104696273804,2.048125982284546,-2.3293137550354004
1780098604159744800,7.733744873046875,0.08632023632526398,2.619929313659668,-1.850219488143921
1780098604169736700,7.74373681640625,-0.1030980572104454,2.703547716140747,-1.297182559967041
1780098604179728600,7.753728759765625,-0.21244025230407715,2.4951653480529785,-0.82200026512146
1780098604189720600,7.763720458984375,-0.33203426003456116,2.0246388912200928,-0.5026106834411621
1780098604199712800,7.773712646484375,-0.5276745557785034,1.3374942541122437,-0.3545099198818207
1780098604209704700,7.78370458984375,-0.7240294814109802,0.5199609398841858,-0.4062691330909729
1780098604219696600,7.793696533203125,-0.8138408660888672,-0.37289178371429443,-0.6861060857772827
1780098604229688600,7.8036884765625,-0.693210780620575,-1.0823962688446045,-1.1538403034210205
1780098604239680500,7.813680419921875,-0.4215118885040283,-1.3928366899490356,-1.696781873703003
1780098604249671700,7.823671630859375,-0.09817250818014145,-1.2851380109786987,-2.166532278060913
1780098604259663600,7.83366357421875,0.19260554015636444,-0.7908142805099487,-2.423781633377075
1780098604269655800,7.84365576171875,0.34087976813316345,-0.17777831852436066,-2.466005325317383
1780098604279647500,7.8536474609375,0.4105270206928253,0.2009894996881485,-2.3247222900390625
1780098604289639700,7.8636396484375,0.45485666394233704,0.2463880479335785,-1.995288610458374
1780098604299631600,7.873631591796875,0.4964640140533447,0.09711974859237671,-1.4599114656448364
1780098604309623800,7.883623779296875,0.5305526852607727,-0.0894213616847992,-0.8091443181037903
1780098604319615500,7.893615478515625,0.5537325739860535,-0.2085469514131546,-0.1259918212890625
1780098604329607700,7.903607666015625,0.5393398404121399,-0.34877151250839233,0.46669185161590576
1780098604339599600,7.913599609375,0.45864468812942505,-0.5718293786048889,0.91236412525177
1780098604349591800,7.923591796875,0.28346461057662964,-0.8557147979736328,1.2329177856445312
1780098604359583700,7.933583740234375,0.05935748293995857,-1.231842041015625,1.4794485569000244
1780098604369575700,7.94357568359375,-0.12267179787158966,-1.7063913345336914,1.713194489479065
1780098604379566600,7.953566650390625,-0.18165095150470734,-2.3500876426696777,1.922524333000183
1780098604389558500,7.96355859375,-0.13519203662872314,-3.333503246307373,2.0613906383514404
1780098604399550700,7.97355078125,-0.03840264678001404,-4.705693244934082,2.019949197769165
1780098604409542700,7.983542724609375,0.001592191867530346,-5.516468048095703,1.3511230945587158
1780098604419534300,7.993534423828125,-0.07489325851202011,-3.8189170360565186,-0.5688874125480652
1780098604429526300,8.0035263671875,0.10194653272628784,-2.0721657276153564,-1.8623095750808716
1780098604439518500,8.0135185546875,0.39977848529815674,-1.4957846403121948,-1.8911654949188232
1780098604449510400,8.023510498046875,0.31375110149383545,-1.2520349025726318,-1.4744012355804443
1780098604459502300,8.03350244140625,0.021133599802851677,-0.7561399340629578,-1.0569500923156738
1780098604469494300,8.043494384765625,-0.1856442391872406,-0.044101983308792114,-0.7249868512153625
1780098604479486500,8.053486572265625,-0.25212764739990234,0.5993810892105103,-0.4673409163951874
1780098604489478400,8.063478515625,-0.24017104506492615,0.9425031542778015,-0.277849406003952
1780098604499470600,8.073470703125,-0.2636755704879761,0.8019596338272095,-0.11785013973712921
1780098604509461500,8.08346142578125,-0.37288370728492737,0.34511005878448486,0.22105111181735992
1780098604519453200,8.093453125,-0.537175714969635,-0.2288791984319687,0.820044755935669
1780098604529445400,8.1034453125,-0.6290103793144226,-0.3272756040096283,1.4572598934173584
1780098604539437300,8.113437255859376,-0.4997122585773468,0.2694240212440491,1.822932481765747
1780098604549429500,8.123429443359376,-0.07329951971769333,0.7923212051391602,1.797595500946045
1780098604559421200,8.133421142578126,0.6730322241783142,0.6102134585380554,1.2080496549606323
1780098604569413400,8.143413330078126,1.3212271928787231,0.8936023712158203,0.4112940728664398
1780098604579405300,8.1534052734375,1.4256478548049927,1.7955942153930664,0.09597127884626389
1780098604589397500,8.1633974609375,1.0823947191238403,2.125095844268799,-0.0314880907535553
1780098604599389400,8.173389404296875,0.7094851136207581,1.6948398351669312,0.09402961283922195
1780098604609381400,8.18338134765625,0.5072272419929504,0.9744948148727417,0.3982885181903839
1780098604619373300,8.193373291015625,0.35494768619537354,0.2726389169692993,0.7010292410850525
1780098604629364500,8.203364501953125,0.17551112174987793,-0.4342947006225586,0.9022518992424011
1780098604639356400,8.2133564453125,0.08233483880758286,-1.1799203157424927,0.9378485083580017
1780098604649348600,8.2233486328125,0.15753932297229767,-1.7403334379196167,0.8324748277664185
1780098604659340300,8.23334033203125,0.2839862108230591,-2.0245883464813232,0.631373941898346
1780098604669332500,8.24333251953125,0.41140633821487427,-2.1202452182769775,0.3739728331565857
1780098604679324400,8.253324462890625,0.5172813534736633,-2.081024169921875,0.15966826677322388
1780098604689316400,8.26331640625,0.545751690864563,-1.954069972038269,0.014621483162045479
1780098604699308300,8.273308349609374,0.4440585970878601,-1.952506184577942,0.29856717586517334
1780098604709300200,8.28330029296875,-0.037428248673677444,-2.0448665618896484,1.9150310754776
1780098604719292400,8.29329248046875,-0.6958886981010437,-1.006218433380127,3.3950915336608887
1780098604729284400,8.303284423828124,-1.1678466796875,0.7943996787071228,4.173868656158447
1780098604739276300,8.3132763671875,-1.4987897872924805,2.177464008331299,4.278250694274902
1780098604749268200,8.323268310546876,-1.6694954633712769,2.9108002185821533,4.032641410827637
1780098604759259400,8.33325927734375,-1.7257022857666016,2.879607915878296,3.6881086826324463
1780098604769251300,8.343251220703126,-1.6132566928863525,2.256847858428955,3.3082268238067627
1780098604779243500,8.353243408203125,-1.3411916494369507,1.5369117259979248,2.8226566314697266
1780098604789235500,8.3632353515625,-1.0462783575057983,0.9264426827430725,2.247075080871582
1780098604799227400,8.373227294921875,-0.7492579221725464,0.4623416066169739,1.652153491973877
1780098604809219300,8.38321923828125,-0.44079822301864624,0.07948555797338486,1.1365026235580444
1780098604819211500,8.39321142578125,-0.15781229734420776,-0.252260684967041,0.786115288734436
1780098604829203500,8.403203369140625,0.07257633656263351,-0.5136915445327759,0.5795035362243652
1780098604839195400,8.4131953125,0.23569415509700775,-0.6341841816902161,0.5036458373069763
1780098604849187300,8.423187255859375,0.32739073038101196,-0.527800440788269,0.6244511008262634
1780098604859179500,8.433179443359375,0.3300056755542755,-0.28038692474365234,0.9388958811759949
1780098604869170400,8.44317041015625,0.2932588756084442,-0.14627522230148315,1.3626837730407715
1780098604879162400,8.453162353515625,0.31396469473838806,-0.30724093317985535,1.7362581491470337
1780098604889154600,8.463154541015625,0.40227290987968445,-0.5671369433403015,1.978533148765564
1780098604899146200,8.473146240234374,0.5266206860542297,-0.7173025012016296,2.0447375774383545
1780098604909138400,8.483138427734374,0.5908606052398682,-0.6599308848381042,1.9324951171875
1780098604919130400,8.49313037109375,0.5927109718322754,-0.4287988543510437,1.6841886043548584
1780098604929122600,8.50312255859375,0.5995281338691711,-0.08728983253240585,1.367928385734558
1780098604939114200,8.5131142578125,0.6546190977096558,0.14873123168945312,1.0941729545593262
1780098604949106400,8.5231064453125,0.7021375298500061,0.142475888133049,0.927710771560669
1780098604959098400,8.533098388671876,0.6892486214637756,-0.04571106657385826,0.8506351113319397
1780098604969090600,8.543090576171876,0.6330809593200684,-0.25134438276290894,0.8178068995475769
1780098604979082200,8.553082275390626,0.5850870609283447,-0.36347490549087524,0.7658102512359619
1780098604989073200,8.5630732421875,0.5394603610038757,-0.36463499069213867,0.6802932024002075
1780098604999065300,8.5730654296875,0.4573151767253876,-0.28308314085006714,0.5876980423927307
1780098605009057300,8.583057373046875,0.33090686798095703,-0.06642120331525803,0.4720873534679413
1780098605019049500,8.593049560546875,0.17095474898815155,0.23359958827495575,0.3346751630306244
1780098605029041400,8.60304150390625,0.0007647834718227386,0.45160096883773804,0.17122361063957214
1780098605039033300,8.613033447265625,-0.13060975074768066,0.449587881565094,0.033180516213178635
1780098605049025300,8.623025390625,-0.23125965893268585,0.18902555108070374,-0.04974472522735596
1780098605059017500,8.633017578125,-0.3107191026210785,-0.3072444796562195,-0.059062518179416656
1780098605069009400,8.643009521484375,-0.3829675018787384,-0.8610032200813293,-0.06635826826095581
1780098605079001300,8.65300146484375,-0.48310741782188416,-1.1633497476577759,-0.16161100566387177
1780098605088993300,8.6629931640625,-0.5665935277938843,-1.0246086120605469,-0.39350271224975586
1780098605098984400,8.672984375,-0.5916216373443604,-0.4731587767601013,-0.7661647200584412
1780098605108976400,8.682976318359374,-0.5544543862342834,0.26110801100730896,-1.213535189628601
1780098605118968600,8.692968505859374,-0.5318100452423096,0.8991068601608276,-1.7238514423370361
1780098605128960300,8.702960205078124,-0.5608011484146118,1.215457558631897,-2.3218462467193604
1780098605138952400,8.712952392578124,-0.6459122896194458,1.2355705499649048,-2.916940689086914
1780098605148944400,8.7229443359375,-0.7722841501235962,1.0863860845565796,-3.342849016189575
1780098605158936600,8.7329365234375,-0.8839611411094666,0.9289025068283081,-3.5522725582122803
1780098605168928500,8.742928466796876,-0.9347533583641052,0.8768849968910217,-3.5458264350891113
1780098605178920200,8.752920166015626,-0.8744604587554932,1.1057623624801636,-3.3290140628814697
1780098605188912400,8.762912353515626,-0.7402917146682739,1.4422154426574707,-3.0670042037963867
1780098605198904300,8.772904296875,-0.5877722501754761,1.7096105813980103,-2.8896923065185547
1780098605208896500,8.782896484375,-0.37340354919433594,1.5061966180801392,-2.937784433364868
1780098605218887400,8.792887451171875,-0.023679912090301514,0.36566248536109924,-3.196434259414673
1780098605228879400,8.80287939453125,0.36331912875175476,-0.9593265056610107,-3.411409854888916
1780098605238871300,8.812871337890625,0.6859099268913269,-1.4368449449539185,-3.42476749420166
1780098605248863500,8.822863525390625,0.8663391470909119,-0.9218217134475708,-3.291076898574829
1780098605258855400,8.83285546875,0.8469862341880798,0.20322242379188538,-3.0777297019958496
1780098605268847400,8.842847412109375,0.7608224153518677,1.3609840869903564,-2.7620203495025635
1780098605278839300,8.85283935546875,0.6120665073394775,2.098092555999756,-2.2926361560821533
1780098605288831500,8.86283154296875,0.4116900861263275,2.3670787811279297,-1.6973481178283691
1780098605298823400,8.872823486328125,0.18336395919322968,2.3906660079956055,-1.1323648691177368
1780098605308815400,8.8828154296875,-0.0658525601029396,2.3200011253356934,-0.6915911436080933
1780098605318807300,8.892807373046875,-0.3096734583377838,2.126147747039795,-0.37066957354545593
1780098605328798200,8.902798095703124,-0.5457325577735901,1.8288451433181763,-0.1740531474351883
1780098605338790400,8.912790283203124,-0.7741042375564575,1.4837037324905396,-0.08990444988012314
1780098605348782300,8.9227822265625,-0.888128936290741,1.1125379800796509,-0.16232703626155853
1780098605358774500,8.9327744140625,-0.8598275184631348,0.7820160388946533,-0.36458346247673035
1780098605368766200,8.94276611328125,-0.7565691471099854,0.4508790075778961,-0.6562895178794861
1780098605378758400,8.95275830078125,-0.5743860006332397,0.13607582449913025,-0.9878740906715393
1780098605388750300,8.962750244140626,-0.37115275859832764,-0.052794620394706726,-1.277064561843872
1780098605398742500,8.972742431640626,-0.1958739161491394,-0.04981986805796623,-1.4573568105697632
1780098605408734200,8.982734130859376,-0.057777393609285355,0.04559773579239845,-1.52909255027771
1780098605418726400,8.992726318359376,0.036705970764160156,0.1433117836713791,-1.4562418460845947
1780098605428719000,9.002718994140626,0.07492075115442276,0.11897439509630203,-1.2375006675720215
1780098605438710000,9.0127099609375,0.09859172254800797,-0.003764573484659195,-0.8587995171546936
1780098605448702200,9.0227021484375,0.1602174937725067,-0.17805762588977814,-0.33576712012290955
1780098605458694000,9.03269384765625,0.2217322438955307,-0.4498382806777954,0.22406448423862457
1780098605468686000,9.04268603515625,0.28246432542800903,-0.8391679525375366,0.7446225881576538
1780098605478678000,9.052677978515625,0.3339487910270691,-1.2840080261230469,1.1819384098052979
1780098605488670200,9.062670166015625,0.39262866973876953,-1.7000141143798828,1.5265580415725708
1780098605498662000,9.072661865234375,0.4620162546634674,-2.0825583934783936,1.7937204837799072
1780098605508654000,9.082654052734375,0.5398374199867249,-2.6223740577697754,1.978670597076416
1780098605518646000,9.09264599609375,0.6047754287719727,-3.591240167617798,2.0164616107940674
1780098605528638200,9.10263818359375,0.5156968832015991,-4.805905818939209,1.6271437406539917
1780098605538630000,9.1126298828125,0.22884728014469147,-4.492198944091797,-0.07771261036396027
1780098605548621000,9.12262109375,0.11654254049062729,-2.224557399749756,-3.315819501876831
1780098605558613000,9.132613037109374,0.6155443787574768,-2.3374857902526855,-4.269303321838379
1780098605568605000,9.14260498046875,1.016282081604004,-2.4757604598999023,-3.1691854000091553
1780098605578597000,9.15259716796875,0.7139956951141357,-1.6224403381347656,-1.501173496246338
1780098605588589000,9.162589111328124,-0.07046536356210709,-0.5635144710540771,-0.19168415665626526
1780098605598581000,9.1725810546875,-0.7537169456481934,0.18560822308063507,0.5598322153091431
1780098605608573000,9.182572998046876,-1.2001399993896484,0.5026891231536865,0.8565677404403687
1780098605618565000,9.192565185546876,-1.399044394493103,0.5289859771728516,0.92326420545578
1780098605628557000,9.20255712890625,-1.345519781112671,0.5416750907897949,0.979152500629425
1780098605638549000,9.212549072265626,-1.1151281595230103,0.6145754456520081,1.1867111921310425
1780098605648541000,9.222541015625,-0.7929881811141968,0.47621768712997437,1.4071980714797974
1780098605658531800,9.23253173828125,-0.4365589916706085,0.3643326759338379,1.4453307390213013
1780098605668524000,9.24252392578125,0.014874383807182312,0.258804053068161,1.2755906581878662
1780098605678516000,9.252515869140625,0.7004527449607849,-0.5944061875343323,0.8204535245895386
1780098605688508200,9.262508056640625,1.6891459226608276,-1.8079814910888672,0.04788524657487869
1780098605698499800,9.272499755859375,2.317582845687866,-0.9164512753486633,-0.4598166048526764
1780098605708492000,9.282491943359375,2.175699234008789,1.2713247537612915,-0.5854810476303101
1780098605718484000,9.29248388671875,1.395233392715454,2.4460713863372803,-0.7135910987854004
1780098605728476200,9.30247607421875,0.5800689458847046,2.1180126667022705,-0.46893396973609924
1780098605738467800,9.3124677734375,0.2740677297115326,1.2227497100830078,0.09552355110645294
1780098605748460000,9.3224599609375,0.32679346203804016,0.42002347111701965,0.6136916279792786
1780098605758452000,9.332451904296875,0.3997741937637329,-0.11304576694965363,0.8864241242408752
1780098605768443100,9.342443115234374,0.40514111518859863,-0.41462481021881104,0.9214072823524475
1780098605778435000,9.35243505859375,0.329647958278656,-0.7749934196472168,0.8524178266525269
1780098605788427000,9.362427001953124,0.23145201802253723,-1.2539846897125244,0.7216129302978516
1780098605798419000,9.3724189453125,0.13660380244255066,-1.7263082265853882,0.5585739612579346
1780098605808411100,9.3824111328125,0.057571351528167725,-2.0537045001983643,0.4575479030609131
1780098605818403000,9.392403076171876,0.03998143598437309,-2.0898399353027344,0.52897047996521
1780098605828395000,9.40239501953125,0.12277591973543167,-2.4143781661987305,1.4122344255447388
1780098605838387000,9.412386962890626,-0.027874844148755074,-2.5221660137176514,2.688187599182129
1780098605848379000,9.42237890625,-0.398091584444046,-1.4741190671920776,3.5238466262817383
1780098605858371000,9.43237109375,-0.7186879515647888,0.4727819263935089,3.8098485469818115
1780098605868362000,9.442362060546875,-0.9921171069145203,1.8895807266235352,3.633998394012451
1780098605878354200,9.452354248046875,-1.2329260110855103,2.1114745140075684,3.2394607067108154
1780098605888345900,9.462345947265625,-1.3784804344177246,1.6448338031768799,2.8256008625030518
1780098605898338000,9.472338134765625,-1.3305217027664185,1.0004162788391113,2.4309756755828857
1780098605908330000,9.482330078125,-1.1018455028533936,0.3739837408065796,2.071758508682251
1780098605918322200,9.492322265625,-0.8056617975234985,-0.16437400877475739,1.750284194946289
1780098605928313900,9.50231396484375,-0.5543954968452454,-0.6095434427261353,1.4662100076675415
1780098605938306000,9.51230615234375,-0.4094351530075073,-0.8253188729286194,1.2533643245697021
1780098605948298000,9.522298095703125,-0.3531612455844879,-0.7557390928268433,1.1756439208984375
1780098605958290200,9.532290283203125,-0.36854657530784607,-0.3733869194984436,1.2888636589050293
1780098605968281000,9.542281005859374,-0.4137948155403137,0.21361587941646576,1.529552698135376
1780098605978273000,9.55227294921875,-0.3869711756706238,0.7094929814338684,1.8280664682388306
1780098605988265000,9.562264892578124,-0.22645607590675354,0.8012163043022156,2.1214895248413086
1780098605998257000,9.5722568359375,-0.01200077310204506,0.3890782594680786,2.3145177364349365
1780098606008249000,9.5822490234375,0.22428515553474426,-0.16746249794960022,2.3137576580047607
1780098606018241000,9.592240966796876,0.4536201059818268,-0.47519367933273315,2.0888869762420654
1780098606028233000,9.60223291015625,0.6477241516113281,-0.46462857723236084,1.6980314254760742
1780098606038225000,9.612224853515626,0.7716386318206787,-0.2648746967315674,1.2894359827041626
1780098606048217000,9.622217041015626,0.8063729405403137,-0.08356296271085739,0.9990376234054565
1780098606058209000,9.632208984375,0.8075075745582581,0.008861133828759193,0.884583055973053
1780098606068201000,9.642200927734375,0.7822508811950684,0.14234977960586548,0.8512130975723267
1780098606078191900,9.65219189453125,0.7337885499000549,0.33797043561935425,0.806131899356842
1780098606088184000,9.66218408203125,0.6778398752212524,0.4961640238761902,0.7369906902313232
1780098606098176000,9.672176025390625,0.5939322113990784,0.6091907024383545,0.6713216304779053
1780098606108168200,9.682168212890625,0.46166563034057617,0.749981701374054,0.614220142364502
1780098606118160100,9.69216015625,0.2942502796649933,0.9412379264831543,0.5419321060180664
1780098606128151800,9.70215185546875,0.12076589465141296,1.0509670972824097,0.40553632378578186
1780098606138144000,9.71214404296875,-0.025997722521424294,0.9079962968826294,0.2130214422941208
1780098606148136000,9.722135986328125,-0.13722148537635803,0.37139812111854553,0.06871107965707779
1780098606158128000,9.732128173828125,-0.1893472671508789,-0.4191681742668152,0.050496384501457214
1780098606168119800,9.742119873046875,-0.22013267874717712,-1.123901605606079,0.11376913636922836
1780098606178111000,9.752111083984374,-0.2802964150905609,-1.3835805654525757,0.11352013051509857
1780098606188103000,9.76210302734375,-0.4174179136753082,-1.0810173749923706,0.0032809460535645485
1780098606198095000,9.77209521484375,-0.625424325466156,-0.43874290585517883,-0.21979208290576935
1780098606208087000,9.782087158203124,-0.756350040435791,0.19519144296646118,-0.5592740774154663
1780098606218079000,9.792078857421876,-0.7673057317733765,0.5087629556655884,-0.9846833944320679
1780098606228071000,9.80207080078125,-0.7551826238632202,0.539428174495697,-1.4370659589767456
1780098606238063000,9.81206298828125,-0.7618205547332764,0.4117056131362915,-1.9002306461334229
1780098606248055000,9.822054931640626,-0.7398256659507751,0.24730098247528076,-2.3660309314727783
1780098606258047000,9.832046875,-0.7051603198051453,0.2126798778772354,-2.76303768157959
1780098606268039000,9.842038818359375,-0.7394773960113525,0.42179250717163086,-3.0187551975250244
1780098606278029800,9.85202978515625,-0.7630415558815002,0.7134459614753723,-3.207322120666504
1780098606288022000,9.86202197265625,-0.7246447205543518,0.972600519657135,-3.2992942333221436
1780098606298014000,9.872013916015625,-0.677017331123352,1.3695082664489746,-3.196629524230957
1780098606308006100,9.882006103515625,-0.6188783049583435,1.835331916809082,-3.0351014137268066
1780098606317997800,9.891997802734375,-0.5088748335838318,2.0507326126098633,-2.9717013835906982
1780098606327990000,9.901989990234375,-0.3259325921535492,1.5965471267700195,-3.066514730453491
1780098606337982000,9.91198193359375,-0.08151806145906448,0.663866400718689,-3.2001945972442627
1780098606347974100,9.92197412109375,0.15686647593975067,-0.07335028797388077,-3.180591583251953
1780098606357965800,9.9319658203125,0.3485299050807953,-0.327172189950943,-3.040644645690918
1780098606367957000,9.94195703125,0.455661803483963,-0.09485168009996414,-2.877310276031494
1780098606377949000,9.951948974609374,0.5072517991065979,0.5234956741333008,-2.7088534832000732
1780098606387941000,9.961941162109374,0.542107880115509,1.4106701612472534,-2.3905060291290283
1780098606397933000,9.97193310546875,0.5045972466468811,2.348384380340576,-1.8795268535614014
1780098606407925200,9.98192529296875,0.31885775923728943,2.9510936737060547,-1.3253498077392578
1780098606417917000,9.9919169921875,0.026897259056568146,3.004889726638794,-0.8183907866477966
1780098606427908600,10.00190869140625,-0.21038447320461273,2.6450488567352295,-0.43765971064567566
1780098606437900500,10.011900634765626,-0.34419554471969604,1.9803049564361572,-0.31212788820266724
1780098606447892700,10.021892822265626,-0.44488972425460815,1.2119425535202026,-0.4003612995147705
1780098606457884700,10.031884765625,-0.6058564782142639,0.5030247569084167,-0.5857700109481812
1780098606467875600,10.04187548828125,-0.778149425983429,-0.10725142806768417,-0.8546794652938843
1780098606477867500,10.051867431640625,-0.8002637028694153,-0.48427140712738037,-1.2350338697433472
1780098606487859500,10.061859375,-0.6367436647415161,-0.40419435501098633,-1.6388654708862305
1780098606497851600,10.0718515625,-0.4374316334724426,-0.12207744270563126,-1.9488520622253418
1780098606507843600,10.081843505859375,-0.2611556053161621,0.14276187121868134,-2.072516441345215
1780098606517835500,10.09183544921875,-0.11525486409664154,0.28083133697509766,-1.9751073122024536
1780098606527827500,10.101827392578125,-0.02115120366215706,0.22304198145866394,-1.7138534784317017
1780098606537819600,10.111819580078125,0.015408403240144253,0.07973568886518478,-1.3138903379440308
1780098606547811600,10.1218115234375,0.02936457470059395,-0.03961671516299248,-0.8159446120262146
1780098606557803500,10.131803466796875,0.030537430197000504,-0.11462491750717163,-0.2729455828666687
1780098606567794700,10.141794677734374,0.03635478764772415,-0.2207777202129364,0.2546045780181885
1780098606577786400,10.151786376953124,0.03805575519800186,-0.4538738429546356,0.7146667838096619
1780098606587778600,10.161778564453124,-0.00626822654157877,-0.8558623790740967,1.1024256944656372
1780098606597770500,10.1717705078125,-0.0749756470322609,-1.3791096210479736,1.4754831790924072
1780098606607762700,10.1817626953125,-0.08526284247636795,-1.961303949356079,1.8648685216903687
1780098606617754400,10.19175439453125,0.013006733730435371,-2.6045782566070557,2.258009433746338
1780098606627746600,10.20174658203125,0.19166196882724762,-3.455479383468628,2.594266891479492
1780098606637738500,10.211738525390626,0.39661434292793274,-4.538362503051758,2.6863632202148438
1780098606647730700,10.221730712890626,0.4787406921386719,-4.860291481018066,1.9433528184890747
1780098606657722400,10.231722412109375,0.2861179709434509,-2.0351922512054443,-0.9416813254356384
1780098606667713500,10.241713623046875,0.5269299149513245,-0.4558432996273041,-3.378005266189575
1780098606677705500,10.25170556640625,1.0132741928100586,-1.4148635864257812,-3.5829436779022217
1780098606687697700,10.26169775390625,1.0632821321487427,-2.0721547603607178,-2.7222533226013184
1780098606697689600,10.271689697265625,0.4505743086338043,-1.5677709579467773,-1.6000902652740479
1780098606707681500,10.281681640625,-0.2397891879081726,-0.588238000869751,-0.5346333980560303
1780098606717673500,10.291673583984375,-0.7523195743560791,0.13818204402923584,0.16921791434288025
1780098606727665700,10.301665771484375,-1.0615774393081665,0.45386847853660583,0.4961116909980774
1780098606737657600,10.31165771484375,-1.1708602905273438,0.25730055570602417,0.6117823719978333
1780098606747649800,10.32164990234375,-1.1153583526611328,-0.025315623730421066,0.812524676322937
1780098606757640700,10.331640625,-0.9340676069259644,0.07534946501255035,1.1776694059371948
1780098606767632400,10.34163232421875,-0.6577404141426086,0.6275866031646729,1.3598421812057495
1780098606777624600,10.35162451171875,-0.3492579460144043,1.3186920881271362,1.2737677097320557
1780098606787616500,10.361616455078124,-0.06898213922977448,1.9514222145080566,1.079267978668213
1780098606797608700,10.371608642578124,0.11571553349494934,1.9716987609863281,0.95987468957901
1780098606807600400,10.381600341796876,0.6766533851623535,-3.012526035308838,1.0807729959487915
1780098606817592600,10.391592529296876,1.177907109260559,-3.9446072578430176,1.0285494327545166
1780098606827584500,10.40158447265625,1.2225022315979004,-0.724668562412262,0.9341347813606262
1780098606837576700,10.41157666015625,0.8816892504692078,2.2492573261260986,0.42675596475601196
1780098606847567600,10.421567626953125,0.3387412428855896,3.307676076889038,0.08409977704286575
1780098606857559600,10.4315595703125,0.11451266705989838,2.3927369117736816,0.31798526644706726
1780098606867551500,10.441551513671875,0.12485263496637344,1.1665369272232056,0.7078774571418762
1780098606877543400,10.45154345703125,0.23924338817596436,0.5772325992584229,0.8571164608001709
1780098606887535600,10.46153564453125,0.41585299372673035,0.2819519340991974,0.7775375247001648
1780098606897527600,10.471527587890625,0.5904054045677185,-0.06104005500674248,0.6114681363105774
1780098606907519500,10.48151953125,0.7458450794219971,-0.5111786723136902,0.3620566725730896
1780098606917511400,10.491511474609375,0.8810098171234131,-0.9144616723060608,0.06277941912412643
1780098606927503600,10.501503662109375,0.9508058428764343,-1.1146109104156494,-0.24624231457710266
1780098606937495600,10.51149560546875,0.8614445924758911,-1.168953776359558,-0.48364582657814026
1780098606947486700,10.52148681640625,0.6941368579864502,-1.6304317712783813,-0.40268445014953613
1780098606957478400,10.531478515625,0.5770525336265564,-2.8482255935668945,0.3182481527328491
1780098606967470600,10.541470703125,0.30524590611457825,-3.9079110622406006,1.1992148160934448
1780098606977462500,10.551462646484374,-0.1602722704410553,-4.138569355010986,1.8715569972991943
1780098606987454700,10.561454833984374,-0.6917606592178345,-3.433187961578369,2.4624688625335693
1780098606997446700,10.57144677734375,-1.1151905059814453,-2.265430450439453,2.9090678691864014
1780098607007438600,10.5814384765625,-1.2911841869354248,-1.0508954524993896,3.1243607997894287
1780098607017430500,10.591430419921876,-1.293646216392517,0.3829851448535919,3.197314500808716
1780098607027422700,10.601422607421876,-1.2580478191375732,1.6503616571426392,3.1804964542388916
1780098607037413600,10.61141357421875,-1.245450496673584,2.436194896697998,3.1386332511901855
1780098607047405600,10.621405517578125,-1.2346079349517822,2.6972672939300537,3.101569652557373
1780098607057397500,10.6313974609375,-1.1915695667266846,2.5556325912475586,3.0919077396392822
1780098607067389400,10.641389404296875,-1.075823426246643,2.137482166290283,3.0702474117279053
1780098607077381600,10.651381591796875,-0.9507976174354553,1.37041175365448,2.9570870399475098
1780098607087373600,10.66137353515625,-0.7707675695419312,0.5041877031326294,2.6516621112823486
1780098607097365500,10.671365478515625,-0.4545683264732361,-0.10062067210674286,2.183939218521118
1780098607107357400,10.681357421875,0.0009027775377035141,-0.3249046206474304,1.6746416091918945
1780098607117349600,10.691349609375,0.48179349303245544,-0.26742348074913025,1.2391633987426758
1780098607127340500,10.701340576171875,0.7993453145027161,-0.12170446664094925,0.9914548993110657
1780098607137332500,10.71133251953125,0.914861261844635,-0.03108108974993229,0.9329298138618469
1780098607147324700,10.72132470703125,0.906201958656311,0.007292226422578096,0.9934036135673523
1780098607157316400,10.73131640625,0.8563039302825928,0.12472617626190186,1.0622854232788086
1780098607167308500,10.74130859375,0.8234068155288696,0.2832143306732178,1.0648659467697144
1780098607177300500,10.751300537109374,0.8091477155685425,0.39951378107070923,0.9787521362304688
1780098607187292700,10.761292724609374,0.7613721489906311,0.48891422152519226,0.8359046578407288
1780098607197284400,10.771284423828124,0.67680823802948,0.5805214047431946,0.673067033290863
1780098607207276500,10.781276611328124,0.5645566582679749,0.6209481358528137,0.5552093386650085
1780098607217267500,10.791267333984376,0.444768488407135,0.5396575927734375,0.4919901490211487
1780098607227259600,10.801259765625,0.3023569881916046,0.4316537082195282,0.4489334523677826
1780098607237251600,10.81125146484375,0.13332320749759674,0.49526891112327576,0.34735384583473206
1780098607247243500,10.821243408203125,-0.05546777695417404,0.6573740243911743,0.16405801475048065
1780098607257235500,10.8312353515625,-0.20635183155536652,0.6094019412994385,-0.06026111915707588
1780098607267227600,10.8412275390625,-0.2964920401573181,0.23746700584888458,-0.17469026148319244
1780098607277219600,10.851219482421875,-0.346523255109787,-0.4202996790409088,-0.10573303699493408
1780098607287211800,10.861211669921875,-0.42807501554489136,-1.0297136306762695,0.024324296042323112
1780098607297203500,10.871203369140625,-0.5882255434989929,-1.2069318294525146,0.03902893885970116
1780098607307194400,10.8811943359375,-0.7607739567756653,-0.8720774054527283,-0.15479275584220886
1780098607317186600,10.8911865234375,-0.8528415560722351,-0.21885035932064056,-0.4792264997959137
1780098607327178500,10.901178466796875,-0.8021047115325928,0.3922608494758606,-0.9304217100143433
1780098607337170700,10.911170654296875,-0.7259023189544678,0.6894925832748413,-1.4526928663253784
1780098607347162400,10.921162353515625,-0.685177743434906,0.7633703351020813,-2.0208756923675537
1780098607357154600,10.931154541015625,-0.6923059225082397,0.783341646194458,-2.5705580711364746
1780098607367146500,10.941146484375,-0.734950840473175,0.8601388335227966,-3.0362486839294434
1780098607377138700,10.951138671875,-0.8356680870056152,1.0078555345535278,-3.3686981201171875
1780098607387129600,10.961129638671874,-0.9524234533309937,1.1631349325180054,-3.5298590660095215
1780098607397121800,10.971121826171874,-1.0225656032562256,1.160921573638916,-3.450261354446411
1780098607407113500,10.981113525390626,-0.9901723265647888,1.0618711709976196,-3.1933517456054688
1780098607417105400,10.99110546875,-0.8185545206069946,0.9366405606269836,-2.938727617263794
1780098607427101200,11.00110107421875,-0.5634274482727051,0.7494127750396729,-2.7749083042144775
1780098607437093000,11.011093017578125,-0.2958405017852783,0.49588194489479065,-2.7538390159606934
1780098607447085000,11.0210849609375,-0.08114755153656006,0.25809240341186523,-2.765202522277832
1780098607457077000,11.031076904296874,0.09045456349849701,0.10267617553472519,-2.732555389404297
1780098607467069200,11.041069091796874,0.23572160303592682,0.09028777480125427,-2.7076406478881836
1780098607477060000,11.05106005859375,0.3295056223869324,0.5215968489646912,-2.634875774383545
1780098607487052300,11.06105224609375,0.37429967522621155,1.3605575561523438,-2.426978588104248
1780098607497044000,11.0710439453125,0.3868125379085541,2.244539737701416,-2.0459203720092773
1780098607507036200,11.0810361328125,0.3033715486526489,2.764589548110962,-1.5138527154922485
1780098607517028000,11.091028076171876,0.1320227086544037,2.817967653274536,-1.037658452987671
1780098607527020300,11.101020263671876,-0.09574536234140396,2.3984220027923584,-0.7590132355690002
1780098607537012200,11.11101220703125,-0.28394776582717896,1.7694116830825806,-0.6908016800880432
1780098607547004200,11.121004150390625,-0.4400281608104706,0.9670059084892273,-0.7853982448577881
1780098607556995000,11.1309951171875,-0.6426829695701599,-0.000011043084668926895,-0.9577583074569702
1780098607566987000,11.140987060546875,-0.8009426593780518,-0.6885287761688232,-1.1937953233718872
1780098607576979200,11.150979248046875,-0.846871018409729,-0.910538911819458,-1.4775944948196411
1780098607586971100,11.16097119140625,-0.7766320705413818,-0.7695680260658264,-1.7380975484848022
1780098607596963000,11.170963134765625,-0.5924736857414246,-0.47321945428848267,-1.883742332458496
1780098607606955000,11.180955078125,-0.32715433835983276,-0.25348901748657227,-1.9168802499771118
1780098607616947200,11.190947265625,-0.09256897866725922,-0.20085696876049042,-1.8748619556427002
1780098607626939100,11.200939208984375,0.0910879373550415,-0.22292792797088623,-1.7599990367889404
1780098607636931000,11.21093115234375,0.21740379929542542,-0.18558374047279358,-1.5577753782272339
1780098607646922000,11.220921875,0.2830594480037689,-0.10439503937959671,-1.2823922634124756
1780098607656914200,11.2309140625,0.2800444960594177,-0.08973460644483566,-0.9430842399597168
1780098607666906000,11.240906005859374,0.24203753471374512,-0.15016697347164154,-0.5407797694206238
1780098607676898300,11.250898193359374,0.1784319132566452,-0.27899715304374695,-0.09834109991788864
1780098607686890200,11.26089013671875,0.09845741838216782,-0.47488629817962646,0.3654254674911499
1780098607696882200,11.270882080078126,0.0027918796986341476,-0.7916147112846375,0.7969496846199036
1780098607706874000,11.2808740234375,-0.07697394490242004,-1.1687049865722656,1.1843751668930054
1780098607716866300,11.2908662109375,-0.02645644173026085,-1.413885235786438,1.5930180549621582
1780098607726857200,11.300857177734375,0.12294689565896988,-1.5926952362060547,2.011172294616699
1780098607736849200,11.31084912109375,0.27536386251449585,-1.9111554622650146,2.391043186187744
1780098607746841000,11.320841064453125,0.4068477153778076,-2.652209520339966,2.6416187286376953
1780098607756833000,11.3308330078125,0.47812697291374207,-3.9072718620300293,2.562669515609741
1780098607766825200,11.3408251953125,0.3540670573711395,-4.556614398956299,1.5567302703857422
1780098607776817200,11.350817138671875,0.14027808606624603,-1.8900866508483887,-1.6789268255233765
1780098607786809000,11.36080908203125,0.5156585574150085,-1.1977181434631348,-3.9369301795959473
1780098607796801000,11.370801025390625,0.9496408700942993,-2.204227924346924,-3.7228384017944336
1780098607806792000,11.3807919921875,0.7981746196746826,-2.028507947921753,-2.307586669921875
1780098607816784100,11.3907841796875,0.16035950183868408,-0.7866976261138916,-0.6732251048088074
1780098607826776000,11.400776123046874,-0.48043298721313477,0.32513228058815,0.5583587288856506
1780098607836768300,11.410768310546874,-0.9768251776695251,0.8593519926071167,1.2270361185073853
1780098607846760000,11.420760009765624,-1.2940281629562378,0.7929638028144836,1.429964303970337
1780098607856752000,11.430752197265624,-1.3914825916290283,0.3567065894603729,1.3940597772598267
1780098607866744000,11.440744140625,-1.2787598371505737,0.1489417999982834,1.3612613677978516
1780098607876736300,11.450736328125,-1.0112391710281372,0.38480067253112793,1.323075294494629
1780098607886727200,11.46072705078125,-0.6335330009460449,0.9299414753913879,1.1970000267028809
1780098607896719000,11.470718994140626,-0.15167555212974548,1.6469368934631348,1.0751014947891235
1780098607906711000,11.4807109375,0.32988065481185913,0.7847106456756592,0.8768856525421143
1780098607916703200,11.490703125,1.1441080570220947,-2.6776890754699707,0.5074929594993591
1780098607926695200,11.500695068359375,1.822142243385315,-2.630506992340088,0.2787201404571533
1780098607936687000,11.51068701171875,1.9072502851486206,0.5075307488441467,0.26772767305374146
1780098607946679000,11.520678955078125,1.374586582183838,2.81858229637146,-0.06250542402267456
1780098607956671200,11.530671142578125,0.6990148425102234,3.0323402881622314,-0.1510789692401886
1780098607966662100,11.540662109375,0.3999776542186737,2.0499463081359863,0.22457441687583923
1780098607976654000,11.550654052734375,0.3992588520050049,0.9058313369750977,0.6870525479316711
1780098607986646300,11.560646240234375,0.39749082922935486,0.1263168305158615,0.9682316184043884
1780098607996638000,11.570637939453125,0.3540323078632355,-0.4423932433128357,1.0486761331558228
1780098608006630100,11.580630126953125,0.41905704140663147,-0.8982164263725281,0.9613165855407715
1780098608016622000,11.5906220703125,0.5702473521232605,-1.252834439277649,0.7141819000244141
1780098608026614300,11.6006142578125,0.7310985922813416,-1.5603574514389038,0.3515060544013977
1780098608036606000,11.61060595703125,0.8291801810264587,-1.7013590335845947,-0.06039628013968468
1780098608046597000,11.62059716796875,0.7372087240219116,-1.5404199361801147,-0.3449134826660156
1780098608056589000,11.630589111328124,0.5325514078140259,-1.3391034603118896,-0.3923323154449463
1780098608066581200,11.640581298828126,0.23171068727970123,-2.0074167251586914,0.542056679725647
1780098608076573200,11.6505732421875,-0.24045658111572266,-2.8513033390045166,2.207425117492676
1780098608086565400,11.6605654296875,-0.7700245976448059,-2.8942089080810547,3.410594940185547
1780098608096557000,11.67055712890625,-1.1977804899215698,-2.2947587966918945,3.885685920715332
1780098608106549000,11.680549072265626,-1.3765206336975098,-1.282718300819397,3.863250732421875
1780098608116541200,11.690541259765626,-1.3706632852554321,0.16468605399131775,3.5731804370880127
1780098608126532000,11.700531982421875,-1.3976970911026,1.5024503469467163,3.2230350971221924
1780098608136524300,11.710524169921875,-1.4823753833770752,2.3226029872894287,2.9515085220336914
1780098608146516000,11.720515869140625,-1.5290710926055908,2.5953335762023926,2.790184736251831
1780098608156508200,11.730508056640625,-1.4703329801559448,2.554776191711426,2.7414286136627197
1780098608166500000,11.7405,-1.323505163192749,2.32483172416687,2.8268251419067383
1780098608176492300,11.7504921875,-1.1222926378250122,1.8064910173416138,2.870131015777588
1780098608186484200,11.760484130859375,-0.8413116931915283,0.9923191666603088,2.6475002765655518
1780098608196476200,11.77047607421875,-0.43463584780693054,0.3256676495075226,2.198455333709717
1780098608206467000,11.780467041015624,0.026354290544986725,0.005311212036758661,1.6528123617172241
1780098608216459000,11.790458984375,0.42599064111709595,0.03480971232056618,1.1808327436447144
1780098608226451200,11.800451171875,0.6827846765518188,0.21154765784740448,0.9037677049636841
1780098608236443100,11.810443115234374,0.7904046177864075,0.23369503021240234,0.8491467833518982
1780098608246435000,11.82043505859375,0.8094016909599304,0.23272520303726196,0.8901149034500122
1780098608256427000,11.830427001953124,0.8377768993377686,0.311703622341156,0.9023734331130981
1780098608266419200,11.840419189453126,0.8627621531486511,0.3273962140083313,0.8730748295783997
1780098608276411100,11.8504111328125,0.8391907811164856,0.14043138921260834,0.8434303998947144
1780098608286402300,11.86040234375,0.7765509486198425,-0.22191199660301208,0.859407901763916
1780098608296394000,11.87039404296875,0.7066892981529236,-0.528080403804779,0.8841201663017273
1780098608306386200,11.88038623046875,0.6443192362785339,-0.5539265871047974,0.8439805507659912
1780098608316378000,11.890378173828125,0.5591803789138794,-0.3349423408508301,0.7259843945503235
1780098608326370300,11.900370361328125,0.44231855869293213,-0.04868616163730621,0.5671543478965759
1780098608336362200,11.9103623046875,0.2661496698856354,0.08099513500928879,0.4543982148170471
1780098608346354200,11.920354248046875,0.08723337948322296,0.11142932623624802,0.37309280037879944
1780098608356345000,11.930344970703125,-0.04449481889605522,0.22680331766605377,0.27730315923690796
1780098608366337000,11.9403369140625,-0.12774057686328888,0.4093903601169586,0.1393318921327591
1780098608376329200,11.9503291015625,-0.19531244039535522,0.42459914088249207,0.03950515761971474
1780098608386321200,11.960321044921875,-0.23300878703594208,0.10800787806510925,0.027014104649424553
1780098608396313000,11.97031298828125,-0.23180504143238068,-0.4527883231639862,0.07434514164924622
1780098608406305000,11.980304931640624,-0.22802093625068665,-1.0168644189834595,0.08989745378494263
1780098608416297200,11.990297119140624,-0.27149254083633423,-1.2271443605422974,-0.00017065629072021693
1780098608426285300,12.000285400390625,-0.3436068892478943,-0.9271926879882812,-0.22862130403518677
1780098608436276200,12.010276123046875,-0.3859868347644806,-0.2721509337425232,-0.529198169708252
1780098608446268400,12.020268310546875,-0.38409340381622314,0.38685736060142517,-0.8194615244865417
1780098608456260000,12.030260009765625,-0.40890154242515564,0.9002223610877991,-1.1167925596237183
1780098608466252300,12.040252197265625,-0.4754883348941803,1.2200145721435547,-1.5566051006317139
1780098608476244200,12.050244140625,-0.5751746892929077,1.3566666841506958,-2.1567938327789307
1780098608486236400,12.060236328125,-0.6465685963630676,1.3623720407485962,-2.805323600769043
1780098608496228000,12.07022802734375,-0.7460418939590454,1.3507204055786133,-3.2818448543548584
1780098608506219300,12.08021923828125,-0.9340949654579163,1.3116719722747803,-3.481316328048706
1780098608516211200,12.090211181640624,-1.0693755149841309,1.145061731338501,-3.461658000946045
1780098608526203400,12.100203369140624,-1.06770658493042,0.9941806793212891,-3.31168794631958
1780098608536195300,12.1101953125,-0.9408555030822754,0.9686092734336853,-3.1037142276763916
1780098608546187500,12.1201875,-0.7221900820732117,0.9365825057029724,-2.9123969078063965
1780098608556179200,12.13017919921875,-0.4603326618671417,0.7001484036445618,-2.837827205657959
1780098608566171400,12.14017138671875,-0.2168595939874649,0.12847791612148285,-2.8440253734588623
1780098608576163300,12.150163330078126,-0.036717258393764496,-0.48225095868110657,-2.8399360179901123
1780098608586154200,12.160154296875,0.12324175238609314,-0.6304774284362793,-2.818953514099121
1780098608596146400,12.170146484375,0.30462005734443665,-0.13139201700687408,-2.7841432094573975
1780098608606138000,12.18013818359375,0.4564128518104553,0.8758960962295532,-2.6423747539520264
1780098608616130300,12.19013037109375,0.4950563907623291,1.9063506126403809,-2.2899391651153564
1780098608626122200,12.200122314453125,0.40291476249694824,2.6238362789154053,-1.7421072721481323
1780098608636114400,12.210114501953125,0.17701266705989838,2.791173219680786,-1.1862903833389282
1780098608646106400,12.2201064453125,-0.061879515647888184,2.4657042026519775,-0.7457488775253296
1780098608656097500,12.23009765625,-0.29768964648246765,1.955739974975586,-0.4199656844139099
1780098608666089200,12.240089111328125,-0.4314790368080139,1.5515869855880737,-0.2892249524593353
1780098608676081400,12.250081298828125,-0.43916386365890503,1.1938037872314453,-0.3990960717201233
1780098608686073300,12.2600732421875,-0.4738912582397461,0.7947157621383667,-0.6006423234939575
1780098608696065300,12.270065185546875,-0.5652076005935669,0.3707921802997589,-0.8425984978675842
1780098608706057200,12.28005712890625,-0.6536890864372253,-0.07005871087312698,-1.0989547967910767
1780098608716049200,12.290049072265624,-0.6223093271255493,-0.364770770072937,-1.3133933544158936
1780098608726040300,12.300040283203124,-0.5042444467544556,-0.4109765887260437,-1.4847248792648315
1780098608736032300,12.3100322265625,-0.3294353783130646,-0.2658039629459381,-1.5772340297698975
1780098608746024400,12.3200244140625,-0.13136564195156097,-0.0685950294137001,-1.60809326171875
1780098608756016000,12.33001611328125,0.03278360888361931,0.07540608197450638,-1.5667839050292969
1780098608766008300,12.34000830078125,0.1359594613313675,0.1319129317998886,-1.4142695665359497
1780098608776000300,12.350000244140626,0.17690236866474152,0.08236349374055862,-1.1367868185043335
1780098608785992400,12.359992431640626,0.2007860690355301,-0.014326375909149647,-0.7245007157325745
1780098608795983400,12.3699833984375,0.2352902591228485,-0.19524076581001282,-0.22316601872444153
1780098608805975300,12.379975341796875,0.2664261758327484,-0.49747422337532043,0.3016532063484192
1780098608815967200,12.38996728515625,0.27598002552986145,-0.8966637253761292,0.8056138157844543
1780098608825959200,12.399959228515625,0.2906495928764343,-1.3248398303985596,1.2762821912765503
1780098608835951400,12.409951416015625,0.4007566571235657,-1.7302550077438354,1.715813159942627
1780098608845943300,12.419943359375,0.586905300617218,-2.2626590728759766,2.0848212242126465
1780098608855935200,12.429935302734375,0.775775671005249,-3.20566987991333,2.289341688156128
1780098608865926100,12.439926025390625,0.8704816102981567,-4.60162353515625,2.132643938064575
1780098608875918300,12.44991845703125,0.6979551315307617,-5.24416971206665,1.0783851146697998
1780098608885910300,12.45991015625,0.35871008038520813,-2.899287700653076,-1.9091856479644775
1780098608895902500,12.46990234375,0.5368881225585938,-1.896263837814331,-3.7762458324432373
1780098608905894400,12.479894287109374,0.855945348739624,-2.1690359115600586,-3.4619972705841064
1780098608915886300,12.48988623046875,0.6880550980567932,-1.6842602491378784,-2.2649247646331787
1780098608925878300,12.499878173828124,0.1761680692434311,-0.7982613444328308,-1.008164405822754
1780098608935869200,12.509869140625,-0.3572676479816437,0.003342186566442251,0.011695869266986847
1780098608945861400,12.519861328125,-0.7814177870750427,0.5074412226676941,0.633023738861084
1780098608955853300,12.529853271484376,-1.0468376874923706,0.7976000905036926,0.9709082841873169
