time,seconds_elapsed,z,y,x
1780506587398179600,0.0591796875,0.18730185624361037,-0.13100611465647816,-0.6039005438953637
1780506587408171500,0.069171630859375,-0.49607788255810736,0.21135054809004067,-0.6076750574653967
1780506587418164500,0.07916455078125,-0.8974287321954965,0.39366424065753813,-0.0034504235816653814
1780506587428156400,0.089156494140625,-0.973598364162445,0.3282337371088564,-0.8728753056973219
1780506587438148600,0.099148681640625,-1.1046966871470212,0.8930778435096144,-2.167900649563223
1780506587448140300,0.109140380859375,-1.106263790333271,1.173183947917819,-2.236208462113887
1780506587458133500,0.119133544921875,-0.5597936911433935,0.8662176013737917,-2.056844559262693
1780506587468125400,0.12912548828125,-0.2829939348042011,-0.5557993608102202,-2.2355876998670396
1780506587478117400,0.139117431640625,0.20610300282537936,-1.2458695371612907,-1.7618949598573148
1780506587488109300,0.149109375,0.9239461522430181,-1.4037886470541356,-1.1586942347943783
1780506587498102500,0.1591025390625,1.4888386278301478,-0.8092544819191098,-0.7341166772179305
1780506587508094200,0.16909423828125,1.7998785074234007,0.11409721156209707,-0.09399184138081036
1780506587518086400,0.17908642578125,1.5738491533786056,0.6044611003875732,0.5087966770188883
1780506587528078300,0.189078369140625,1.2329840443640947,0.9094771896466612,0.9250587165948003
1780506587538071300,0.1990712890625,0.9538409397691487,1.128849131628871,1.205621990185976
1780506587548063500,0.2090634765625,0.9950205068975686,0.884665404473245,1.3033164946101605
1780506587558055400,0.219055419921875,1.6728770983636378,0.287442146384716,1.3923735190704465
1780506587568047600,0.229047607421875,1.3057125959664582,-0.3006611089199781,1.241191608478129
1780506587578040300,0.239040283203125,0.1964507928609848,-0.8359627483636141,1.5755908824793994
1780506587588032500,0.249032470703125,-1.093109709727764,-0.9127361914426088,2.410016922795027
1780506587598024400,0.2590244140625,-1.6903753456532955,-0.6850126007005571,1.35436761354208
1780506587608017400,0.269017333984375,-2.059552356916666,0.0240945768147707,-0.742800188280642
1780506587618008300,0.27900830078125,-2.2302415165334937,0.865929724343121,-1.4511236680723727
1780506587628000500,0.28900048828125,-1.7200474303394555,1.1395061347216366,-0.9319776291377841
1780506587637992400,0.298992431640625,-0.7173702712088823,0.673828651124239,0.03317735286075622
1780506587647985400,0.3089853515625,-0.13423954361975193,0.1648249437585473,0.7691342876505106
1780506587657977600,0.3189775390625,-0.1549976694881916,-0.29346096828281876,0.7455602275785058
1780506587667969500,0.328969482421875,-0.15091770669817925,-0.570354248124361,0.2169284578202292
1780506587677961500,0.33896142578125,0.4633545936077833,-0.5053790871277452,-0.3333992666458711
1780506587687954400,0.348954345703125,0.7883516868829726,-0.42478667028248307,-0.46111627662908283
1780506587697946600,0.358946533203125,0.7461416076630354,-0.42264790468811986,-0.2792780560862273
1780506587707938600,0.3689384765625,0.6990063470005988,-0.22335633544325828,-0.03117317343149334
1780506587717930500,0.378930419921875,0.5754086089044809,-0.012957388989627361,0.033116379921138285
1780506587727923500,0.38892333984375,0.36076691031455993,0.002814472898840904,0.023632000804319975
1780506587737915400,0.398915283203125,0.20453882224857806,-0.08426964405328034,0.046433615199103946
1780506587747907300,0.4089072265625,0.054529462566971776,-0.1326563660815358,0.04914086486380547
1780506587757899500,0.4188994140625,-0.07640577881038188,-0.07313859370797872,0.06689560766518116
1780506587767892500,0.428892578125,-0.3119336135625839,-0.2046241624444723,0.07723075839243829
1780506587777884400,0.438884521484375,-0.29704291842281816,-0.13120645953416823,0.053733855209872124
1780506587787876400,0.44887646484375,-0.2121177330702543,0.015988427248597146,0.003223272895440459
1780506587797868500,0.45886865234375,-0.09928104296326637,0.04686784189790487,-0.15978183502480386
1780506587807861500,0.468861572265625,0.050749359506368635,-0.034031741200387475,-0.3768608072316274
1780506587817853400,0.478853515625,0.1210603285729885,-0.12759411425590514,-0.5736174146387726
1780506587827845600,0.488845703125,0.415295788359642,-0.02184548271372914,-0.6210362414829432
1780506587837838300,0.49883837890625,1.3469003464013338,-0.0176481771543622,-0.2312050761822611
1780506587847830500,0.50883056640625,1.0914993519216776,-0.2530078157328069,0.4469385885968804
1780506587857822500,0.518822509765625,0.014589081844687461,-0.6008111995778977,0.4537663887903094
1780506587867814700,0.528814697265625,-0.8358452594637871,-0.6492838463239371,0.08183744847029448
1780506587877807400,0.538807373046875,-1.2827742034494876,-0.2915298540897667,-0.21165259977653622
1780506587887799600,0.548799560546875,-1.2332932564437389,0.1142297519005835,-0.43801016286239025
1780506587897791500,0.55879150390625,-0.44298809740543366,0.4186588350519538,-0.10746047696135938
1780506587907783400,0.568783447265625,0.4304062637299299,0.8483703945159912,-0.15322035761736333
1780506587917776600,0.578776611328125,0.5461076956182718,1.0184010902240872,-0.04557495254315436
1780506587927768600,0.5887685546875,0.49019583878219125,0.3363312649771571,-0.036435112547688185
1780506587937760300,0.59876025390625,0.4277566260039806,-0.10702698091492056,0.21553258301503955
1780506587947752400,0.60875244140625,0.19125030160844325,-0.2417000936463475,0.6241543735034764
1780506587957745700,0.61874560546875,-0.23606091871559617,-0.3336804582074284,0.4298880120094865
1780506587967737300,0.6287373046875,-0.7597060226351022,-0.3291485138662159,-0.07465948313232511
1780506587977729500,0.6387294921875,-1.163657410159707,-0.28251608815938234,-0.4691514433182776
1780506587987722500,0.648722412109375,-1.0801707331776618,-0.04199161416366696,-0.6372527783989906
1780506587997714400,0.65871435546875,-0.3547673776388168,0.8916441574446856,-0.4428097816964611
1780506588007706400,0.668706298828125,0.5789104795455933,1.1684471286542712,-0.40836913090161975
1780506588017698600,0.678698486328125,1.2123182729542255,1.0117970157839358,-0.1345969513558317
1780506588027691300,0.688691162109375,1.192986380496621,0.6286706818841398,0.2044831465385854
1780506588037683500,0.698683349609375,0.8713152167737483,0.07465250540226698,0.32540611246749757
1780506588047675400,0.70867529296875,0.36116496972143647,-0.5173129782885313,0.10441365661136806
1780506588057667600,0.71866748046875,-0.5840379055619239,-0.9843319396227598,-0.4256703212492168
1780506588067660500,0.72866064453125,-1.2088029583096505,-0.8705053616955876,-1.113289158925414
1780506588077652500,0.738652587890625,-1.0355559309035538,-0.21599194415509698,-1.6770850714474916
1780506588087644700,0.748644775390625,-0.6413683970242738,0.2819946946337819,-1.7796726086102426
1780506588097636400,0.75863623046875,-0.2654904268175363,0.4250400605216622,-1.5813322026103733
1780506588107629600,0.768629638671875,-0.05859831944108009,0.29858605621159073,-1.2770702927194535
1780506588117621500,0.77862158203125,0.1503577347278595,0.05215425786823034,-1.0582787809737026
1780506588127613400,0.788613525390625,0.5025386030048131,-0.29236995817571876,-0.9985320221498608
1780506588137605400,0.79860546875,1.0001906030118466,-0.6613602146953343,-0.8984026187289506
1780506588147598600,0.8085986328125,1.121571834102273,-0.7652689174592494,-0.6642458531342447
1780506588157590300,0.81859033203125,0.7528238619059324,-0.5566831579074263,-0.4532064533526078
1780506588167582500,0.82858251953125,0.335678646287322,-0.1933016811802983,-0.5327141071684658
1780506588177575400,0.838575439453125,0.05342939237058163,-0.014787234765291214,-0.6116525097290053
1780506588187567400,0.8485673828125,-0.00905658215880394,-0.054015375564992425,-0.8358295504380017
1780506588197559300,0.858559326171875,-0.23610183524787426,-0.03996288481503725,-0.7932651048224418
1780506588207551500,0.868551513671875,0.029791911673545834,-0.041923371233046056,-0.3138505530998111
1780506588217544400,0.87854443359375,0.857755477976799,0.18319237509816885,0.4529426513172686
1780506588227536400,0.888536376953125,1.4889257215917109,1.153125494751334,1.4798415207736193
1780506588237528600,0.898528564453125,1.402645029976964,1.1047367268964647,1.7394757689088582
1780506588247520500,0.9085205078125,0.7654080336689949,0.7442290520399808,1.2729352387413382
1780506588257513500,0.918513427734375,0.09763795193135738,0.4291349286198616,0.8706474735800176
1780506588267505400,0.92850537109375,-0.229755681091547,-0.39556320614665746,0.49676235769093036
1780506588277497600,0.93849755859375,0.2123445275634527,-1.0007140423640608,0.0005333762243390083
1780506588287489500,0.948489501953125,0.9091612555652856,-0.8148708604961633,-0.24900216028802094
1780506588297482500,0.958482421875,1.2345634225100277,-0.4740311781838536,-0.14467092126309872
1780506588307474400,0.968474365234375,0.4653717786490917,-0.4465139334440231,-0.08299889346510171
1780506588317466600,0.978466552734375,-0.6833470055758952,-0.43834553229659795,0.16573840534165502
1780506588327458300,0.988458251953125,-1.4714496861338615,-0.48989276418238875,0.7267895492002368
1780506588337451500,0.998451416015625,-1.9062661675214767,-0.609930617839843,1.4147652374900876
1780506588347443500,1.008443359375,-1.2641612729161977,-0.3070109163381159,1.082235995144397
1780506588357435400,1.018435302734375,-0.2461597034037113,0.5563102329418063,0.3014073972426355
1780506588367428600,1.0284287109375,-0.7295312491238117,0.5551062639795243,0.4413811006002128
1780506588377420500,1.038420654296875,-0.9955155969381332,0.35508404237255453,0.494726467949152
1780506588387412500,1.04841259765625,-0.8574258076310157,0.04701061136946082,0.2107965674690902
1780506588397404400,1.058404296875,-0.873507173860073,-0.21569602994844317,-0.23411226886585354
1780506588407397600,1.068397705078125,-0.7217074236303568,0.14848229624480008,-0.6120191145516931
1780506588417389300,1.078389404296875,-0.10185177023410796,0.7852557666942477,-1.068966471465677
1780506588427381500,1.088381591796875,0.5841974800378084,1.4561156311407684,-1.6913073658064006
1780506588437373400,1.09837353515625,-0.2277905184984207,0.7900013537861407,-0.35161505108773705
1780506588447366400,1.108366455078125,-1.1924749238431454,-0.5641551012232899,1.863435618315637
1780506588457358300,1.1183583984375,-1.7423808427006005,-1.5181374952897428,2.841576886604726
1780506588467350500,1.1283505859375,-0.5055436300396919,-1.1909740177609025,1.3841789605684578
1780506588477342500,1.138342529296875,0.8584206638872623,0.17278057893812657,-0.558040563865751
1780506588487335400,1.14833544921875,0.2983329582333565,-0.10345233729854225,0.016651494267210364
1780506588497327600,1.15832763671875,-0.014816460859775542,-0.8573919053614139,-0.0763896313931793
1780506588507319600,1.168319580078125,0.036194179931282995,-0.9285960238754749,-0.5259948819160462
1780506588517312500,1.1783125,0.4427361684709787,-0.30632731798812746,-0.3997892263438552
1780506588527304400,1.188304443359375,0.5182745167970657,0.20678806248009204,0.129137690436095
1780506588537296600,1.198296630859375,0.05740706382989883,-0.02393763268738985,0.9500898436073213
1780506588547288300,1.208288330078125,0.5058148481965065,0.24478446952775118,0.5884153169285505
1780506588557281500,1.218281494140625,0.1571194839477539,0.1469222073212266,0.1274615008521825
1780506588567273500,1.2282734375,0.1683651005834341,0.46274596019014713,-0.4157691049598157
1780506588577265400,1.238265380859375,-0.0824573339343071,0.2832214599497616,-0.635683994712308
1780506588587257300,1.24825732421875,0.1589882004290819,0.05783610289692878,-0.8537794870179146
1780506588597250600,1.25825048828125,-0.5511439362198114,-0.6258817818179726,0.21674247026145457
1780506588607242500,1.268242431640625,-0.9719669635683298,-1.1964141629882157,1.6275637924313544
1780506588617234400,1.278234375,-0.08274082705080509,-0.3733116268500685,1.943032009860873
1780506588627227000,1.288226806640625,0.23862054007053374,0.6954281962528824,0.4493520794793963
1780506588637219800,1.2982197265625,-0.4579109412491321,0.4444239754274487,-0.39124804636128246
1780506588647212000,1.3082119140625,-0.5081441679269075,0.009134469700604676,-0.29150903049744664
1780506588657204000,1.318203857421875,-0.3821224175542593,-0.025095862811803815,-0.29240992485992606
1780506588667196200,1.328196044921875,-0.17188684496879578,0.12000497430115938,-0.4377538500137627
1780506588677188900,1.33818896484375,0.6212737035006284,-0.04447480928152799,0.769881964212656
1780506588687181000,1.34818115234375,1.9577514400869607,0.07008826622664928,2.471088500481844
1780506588697173000,1.358173095703125,2.5096523321539164,1.0386312466956675,1.7593848767325282
1780506588707166000,1.368166015625,1.6940034730225801,0.37446459627747536,0.7703064001698047
1780506588717158000,1.378157958984375,1.4077081585854292,-0.7269315880194306,0.14352613514214754
1780506588727150000,1.388150146484375,1.7690917394936083,-0.03611921499893069,-0.5828849361345172
1780506588737141800,1.398141845703125,1.3980594557523727,0.6414078522518277,-0.5923696805775165
1780506588747135000,1.408135009765625,2.0549930861771104,0.6542153113767505,-0.6847836142502725
1780506588757127000,1.418126953125,2.8398791427761316,0.7872998397424816,-0.7697669595308602
1780506588767118800,1.428118896484375,4.067658019712567,0.6693313397049904,-1.1407191637732088
1780506588777110800,1.43811083984375,6.54693567186892,0.9170379802897572,-0.4399135122656822
1780506588787104000,1.44810400390625,6.456746282377838,0.9708911510303616,-0.1919040893420577
1780506588797096000,1.458095947265625,6.300411811327934,1.5300094271302223,0.22457973975837228
1780506588807087900,1.468087890625,5.655008459699154,1.9190493689879773,0.0632949528247118
1780506588817080000,1.478080078125,5.122839273062348,2.0436989542245865,-0.8091068901419639
1780506588827072800,1.48807275390625,6.1619327304422855,3.1491759780943394,-1.283685473075509
1780506588837065000,1.49806494140625,7.113055058902502,3.2493834882527586,-0.6871349996820092
1780506588847057000,1.508056884765625,7.091925761634111,3.299399272787571,-0.6839315274655818
1780506588857049900,1.5180498046875,6.208685713788866,3.679962770462036,-0.6405524044662714
1780506588867041800,1.528041748046875,5.468709643018245,3.2796140836045145,0.18413082499206065
1780506588877034000,1.538033935546875,3.758389825966954,1.86008250849545,1.079383382192254
1780506588887026000,1.54802587890625,3.988797833487391,1.3414295137748122,0.6599556085944175
1780506588897019000,1.558018798828125,3.7536166202157735,2.672367151890695,0.05685293707847595
1780506588907011000,1.568010986328125,2.4766800368785855,3.7114559330955146,-0.6974217081576586
1780506588917003000,1.5780029296875,1.8771791892468928,3.883188172024488,-1.1482342155784369
1780506588926995000,1.587994873046875,1.599311511415243,3.978080332379043,-0.7569137615680694
1780506588936988000,1.59798779296875,0.6448211678266524,3.2566035026341673,0.036895606198906895
1780506588946980000,1.60797998046875,0.5359907907515764,2.4861563057541844,1.0148755464464425
1780506588956971800,1.6179716796875,1.3390458335086703,1.6521458605021238,1.729393935355544
1780506588966964000,1.6279638671875,2.1169585439637304,2.338672372896969,1.3010685695528983
1780506588976957000,1.63795703125,2.669714883816242,3.795127026733756,1.5329121628344058
1780506588986948900,1.647948974609375,2.6625930691123005,5.083192906850576,0.8913315843641757
1780506588996940800,1.65794091796875,1.544602016106248,5.699146292111277,0.15191373199820518
1780506589006934000,1.66793408203125,0.29508069670544934,6.2066287812590595,0.3073170596778393
1780506589016925700,1.67792578125,0.9648036478102207,6.634786389279365,-1.7747703696519135
1780506589026918000,1.68791796875,-0.2873834019348025,4.509219591446221,-5.02337410570383
1780506589036909800,1.697909912109375,-1.2764017458081245,2.048471575453877,-8.389695289641619
1780506589046902800,1.70790283203125,-1.1965043254896999,1.0769172843396664,-10.544394950717686
1780506589056895000,1.71789501953125,-1.5483876721248029,0.14758812388405204,-11.151059698629378
1780506589066887000,1.727886962890625,-1.5967685489341616,-0.16133797842562198,-11.259538778048753
1780506589076879000,1.737879150390625,-1.5017293813243509,-0.4276540424123406,-11.305984887403248
1780506589086871800,1.747871826171875,-1.3971350343838334,-0.6677171825066208,-11.348438712251186
1780506589096864000,1.757864013671875,-1.279093761371076,-0.8922700342580675,-11.387718583238124
1780506589106856000,1.76785595703125,-1.1449167615935205,-1.1131555956736205,-11.427118865734338
1780506589116847900,1.777847900390625,-1.016713867789507,-1.3316419869929552,-11.475633013534544
1780506589126840800,1.7878408203125,-0.9110080524757503,-1.538911695510149,-11.534506058263778
1780506589136833000,1.7978330078125,-0.8171715386539697,-1.7277701335459947,-11.594985369145869
1780506589146825000,1.807824951171875,-0.7230696518942713,-1.9222762220799923,-11.66417639427185
1780506589156818000,1.81781787109375,-0.5907514317259193,-2.1309362159118055,-11.735247241795062
1780506589166810000,1.82781005859375,-0.40715778235048056,-2.3165970269501206,-11.785256596589088
1780506589176801800,1.8378017578125,3.9355008353248238,-0.5669663592517376,-14.78556069459915
1780506589186794000,1.8477939453125,4.095871137762069,-0.5460384297743439,-14.729810165804624
1780506589196787000,1.857786865234375,1.113235090650618,-3.627831308947503,1.1297528024703263
1780506589206779000,1.86777880859375,0.37731267918497324,0.238491360732913,-1.3156751870542764
1780506589216770800,1.877770751953125,0.2885166437484324,-4.823467034909129,-4.326016110432148
1780506589226763000,1.887762939453125,1.0042645744524896,-5.985393091231584,-6.5344134594261645
1780506589236756000,1.897755859375,-1.5077533177889884,4.123907145678997,-0.10152852962911128
1780506589246748000,1.907747802734375,-11.152505805784463,22.333012548172473,10.280706604886054
1780506589256739800,1.91773974609375,-13.221901511323452,-1.9227946929961441,0.6659814447551965
1780506589266732000,1.92773193359375,0.5147275649052113,-10.948889943599701,-7.746872602155804
1780506589276724700,1.937724853515625,9.660106855124235,-7.015825687772035,-2.094274710729718
1780506589286717000,1.947717041015625,11.35926756477952,-6.072602588129043,4.926967156872153
1780506589296708900,1.957708984375,6.979250984090566,-0.7956161249279975,8.166931659394502
1780506589306701800,1.967701904296875,5.22106525401473,4.777920504742861,7.629953026649355
1780506589316694000,1.977694091796875,-5.053171862596273,6.042423722964525,4.8487628042072055
1780506589326686000,1.98768603515625,0.04384279498830437,-1.5671628074824808,2.7759809633612633
1780506589336678100,1.99767822265625,-3.669462419235706,-2.0112030442893505,0.040053193446993825
1780506589346670800,2.0076708984375,2.5804174747288227,-1.785070229870081,1.382189686447382
1780506589356663000,2.0176630859375,5.148238502734899,-1.8382745813131331,3.048331923598051
1780506589366655000,2.027655029296875,-0.782092699553445,3.040979807269573,2.0659131241202355
1780506589376647000,2.03764697265625,-2.4899440075993535,9.571858662828802,5.463351915377378
1780506589386640000,2.047639892578125,-4.323038555926084,0.6967752269476651,-0.8145745078980923
1780506589396632000,2.057632080078125,6.165446876043081,-8.65441297852099,-5.2091000909328455
1780506589406623700,2.067623779296875,5.6363470138490195,-5.939736086428165,-1.044136712244153
1780506589416617000,2.077616943359375,4.4892660599589345,-6.775121911686658,-2.181350352114439
1780506589426609200,2.087609130859375,-1.2996329837918281,-2.906471968102455,-1.8229086698770522
1780506589436600800,2.097600830078125,-10.914697751140594,2.4473124880969523,-0.5315332268208265
1780506589446592800,2.1075927734375,-1.864326721936464,-3.075308777850866,-2.762702964115143
1780506589456586000,2.1175859375,8.287273026043176,-10.405228472089767,-2.4913369232624767
1780506589466578000,2.127577880859375,9.186136759477852,-11.517145758140087,-0.6457786146819591
1780506589476569900,2.13756982421875,2.8776252283245323,-7.13486006347537,0.41003626039624214
1780506589486562000,2.14756201171875,0.2474532503455877,-3.8483588507056234,1.4186457321852444
1780506589496554800,2.1575546875,0.11434417206048965,-3.068254183164239,1.9844775344491004
1780506589506547000,2.167546875,1.5198480985999105,-3.4198698187738654,1.6912836926698684
1780506589516539000,2.177538818359375,1.3126292434871196,-3.441904540449381,1.0335627112597225
1780506589526531000,2.187531005859375,1.734088230651617,-3.9332220767378803,1.6374012958347797
1780506589536523800,2.197523681640625,1.9142507365345953,-4.563348364257812,2.5827619920283555
1780506589546516000,2.207515869140625,2.273911731433868,-4.899823713880777,3.1604853076159953
1780506589556508000,2.2175078125,2.6273674419522286,-5.149313438490033,2.9036107334524393
1780506589566500900,2.2275009765625,2.888290122462809,-4.942366970577836,2.1719366270810365
1780506589576493000,2.2374931640625,2.695099500441551,-4.360824973484873,1.1435855129897594
1780506589586485000,2.247485107421875,0.8634910990193486,-2.002300775909424,0.36937808679342266
1780506589596477000,2.257476806640625,-1.4929031007900833,1.133897647190094,-0.5902940433472394
1780506589606470000,2.267469970703125,-1.3766367284953593,2.053300310784578,-1.5592431203991173
1780506589616462000,2.277462158203125,0.5833914243519306,-0.4283557609409094,0.6490279718667268
1780506589626450400,2.287450439453125,1.718878971081972,-2.008087542617321,1.4426479545414448
1780506589636442600,2.297442626953125,4.857668287457526,1.1625479876130818,-0.660273588502407
1780506589646435600,2.307435546875,1.604611955910921,4.442161778956652,-2.4994857429265975
1780506589656427500,2.317427490234375,0.14396569560319183,3.44425607201159,-3.129030431166291
1780506589666419500,2.32741943359375,1.1732877005532383,2.7760364929407833,-2.1515146012991666
1780506589676411600,2.33741162109375,1.604796664828062,1.787843201714754,-1.0889631114423275
1780506589686404600,2.347404541015625,1.4983096360087393,0.8892600387871265,-1.0348656105518341
1780506589696396500,2.357396484375,1.9020844979226588,0.585348988160491,-0.453817534455657
1780506589706388500,2.367388427734375,2.0317583410620688,-0.35005496216416354,0.5409428602010011
1780506589716381400,2.37738134765625,1.8175848445057867,-0.012322305956482886,0.8180243560910224
1780506589726373600,2.38737353515625,0.7583212902784348,0.6937322059899568,0.12017185530066489
1780506589736365600,2.397365478515625,-0.29969606328010556,1.2771388279110192,-2.374533083090186
1780506589746357800,2.407357666015625,-0.5804667690768838,1.923057727846503,-3.74123936920166
1780506589756350500,2.4173505859375,0.09498685290068387,1.4869570518672466,-3.8708828172028062
1780506589766342700,2.4273427734375,1.6641110235840082,1.8580764293700456,-4.259346128216386
1780506589776334600,2.43733447265625,3.9351220651403067,0.6431739851415157,-3.0593063220769166
1780506589786326500,2.447326416015625,3.803868551594019,-1.003566801446676,-2.2816566464722157
1780506589796319500,2.457319580078125,3.180045748132467,-1.0289514180719852,-2.9097406145095825
1780506589806311700,2.467311767578125,2.973474543273449,-1.4476356798261403,-2.514899585157633
1780506589816303600,2.4773037109375,2.6627859613358975,-1.9506249492079017,-2.4680302819550035
1780506589826295600,2.487295654296875,2.1643311205133795,-1.8746119691073893,-2.630381821337342
1780506589836288800,2.497288818359375,2.6022923296675082,-2.807078696936369,-2.791872944498062
1780506589846280400,2.507280517578125,2.663359085048735,-3.118355307894945,-2.162916285279393
1780506589856272600,2.517272705078125,2.77617385558486,-1.9186176995724438,-1.9579776500582693
1780506589866265600,2.527265625,2.01947432128936,0.03526712821424007,-1.4490905548095703
1780506589876257500,2.537257568359375,2.681866801641881,1.093449316945672,-2.781184377223253
1780506589886249500,2.54724951171875,2.538148066537082,0.5866594862371682,-1.6966700618833301
1780506589896241700,2.55724169921875,-0.23045447701066732,-0.7600193263679742,-0.6043710840165615
1780506589906234600,2.567234619140625,-0.7934428725421429,2.0720430051773784,-0.24720775115191934
1780506589916226600,2.5772265625,-2.5188848554015157,5.3077141944199795,-1.8279244522124527
1780506589926218500,2.587218505859375,-0.16164222206920384,0.8202689201474189,-13.785765228384733
1780506589936210700,2.597210693359375,-0.5575763073548674,-2.1171558201014995,-17.854108892273903
1780506589946203600,2.60720361328125,-0.6080018417343497,-1.9857523766905067,-17.737220880949497
1780506589956195600,2.617195556640625,-6.105423492234945,4.87486346014738,-2.887939117068052
1780506589966187500,2.6271875,-4.054720796728134,6.285894625675678,7.7970245802909135
1780506589976180500,2.637180419921875,-2.2769848552688954,4.0943081262290475,12.349352953362464
1780506589986172700,2.647172607421875,-0.17407734075039624,1.6299556560039519,13.450045081043243
1780506589996164600,2.65716455078125,-5.491541068029403,0.5313163691997528,7.358615042847394
1780506590006156800,2.66715673828125,-5.885094980180263,0.30849019511044024,14.456787005394697
1780506590016149500,2.6771494140625,-2.416386019435525,0.19948036981523035,18.895783013796805
1780506590026141700,2.6871416015625,-2.0801614297032356,1.320427934539318,16.366130096143483
1780506590036133600,2.697133544921875,-2.0440195644810792,2.6240514492720366,10.680071833664178
1780506590046125600,2.70712548828125,-1.3514482189640402,1.1174427714735269,5.0606812153130765
1780506590056118500,2.717118408203125,-1.3443570916593075,1.2785463566213846,0.8905535857290029
1780506590066110700,2.72711083984375,-5.001204359471798,3.22489377464056,-1.6698486904531715
1780506590076102400,2.737102294921875,-2.718942148321867,5.148319751277565,-5.028637725320458
1780506590086095600,2.747095703125,-1.0040731435336172,5.674941825181246,-4.974739546394348
1780506590096087800,2.757087890625,-3.4715316169500348,7.0956602719873185,0.6121311966240406
1780506590106079500,2.76707958984375,-1.0133388383984565,5.217775564819574,3.3169641555726526
1780506590116071700,2.77707177734375,-2.885494646525383,3.275978649711609,2.291221762675047
1780506590126064600,2.787064697265625,-2.8607600182414052,6.377862715277075,3.944806716069579
1780506590136056600,2.797056640625,-1.8544494710445403,7.052331417870521,3.5157477752953765
1780506590146048500,2.807048583984375,-1.467820974242687,6.625277971699833,5.28175207016766
1780506590156040700,2.817040771484375,-4.839869303655624,3.82210563455224,5.6554456820726395
1780506590166033400,2.827033447265625,-4.3342800809085364,-1.3932254597246647,-2.724018720933795
1780506590176025600,2.837025634765625,-2.4666449650764464,-3.541431667128205,-9.612453123545647
1780506590186017500,2.847017578125,-3.462694815021753,-5.106511238595843,-11.690730054676532
1780506590196010500,2.857010498046875,-3.9820635567963123,-4.250077364611625,-8.790228393155337
1780506590206002400,2.86700244140625,-0.6100514677405356,-3.891352189257741,-6.13282938555479
1780506590215994600,2.87699462890625,1.5199065507888794,-5.898952240619063,-7.9812243788659565
1780506590225986600,2.886986572265625,2.1777274854421615,-7.828615065819025,-8.487403968721628
1780506590235979500,2.8969794921875,2.6604022810697554,-10.136937600898742,-9.746458273887633
1780506590245971700,2.9069716796875,2.663186943352222,-12.166135736083984,-6.243784499698877
1780506590255963600,2.916963623046875,1.8479191924929619,-6.3990370207309715,-2.1613979896709323
1780506590265955600,2.92695556640625,-0.5395990078439936,-3.4536996076613664,-0.33527971009761093
1780506590275948500,2.936948486328125,-1.3999346019744872,-2.5457418826669453,-1.3099307981833814
1780506590285940700,2.946940673828125,-1.324935767352581,-1.8141519474476575,-1.5687448159769177
1780506590295932400,2.956932373046875,-1.9604536847829817,-3.0425381426274773,1.0984186297908425
1780506590305925600,2.966925537109375,0.8048375422596931,-4.192005699393153,0.86257456869632
1780506590315917600,2.97691748046875,0.19431027370095252,-4.927054835155606,1.3668240672722458
1780506590325909500,2.986909423828125,1.1658522898554802,-6.170882929617166,3.686671620450914
1780506590335901400,2.9969013671875,0.6929331645667552,-5.768516180935502,5.465694679111242
1780506590345894700,3.006894775390625,2.4781495249092576,-4.18815077753067,1.7831474451139568
1780506590355886600,3.016886474609375,0.2549648680847138,-3.3218799846649167,-0.3602008008643985
1780506590365878500,3.02687841796875,-2.235575278776884,-0.12221300573945044,-0.921573870153725
1780506590375870700,3.03687060546875,-1.997305451840162,1.7723446038097141,-1.6299290602579712
1780506590385863400,3.046863525390625,-1.8238252002000808,3.5877386602729557,-2.8843074825674293
1780506590395855600,3.056855712890625,-3.415769397717714,5.438713733205199,-2.389318564289808
1780506590405847600,3.06684765625,-0.1662264080543071,4.996229493668675,1.4039172418698667
1780506590415840500,3.076840576171875,1.9635491665802896,3.3257524421840903,2.1245406696558
1780506590425832400,3.08683251953125,1.5026362670361995,1.6065899779856203,1.8632731212303042
1780506590435824600,3.09682470703125,-0.07486907076239585,-1.1527952398836612,0.9915946241021155
1780506590445816600,3.106816650390625,-1.8175075414858757,-3.4008787025779483,-1.0649477373436094
1780506590455809500,3.1168095703125,-1.8884721521556376,-3.046699938482046,-1.678624409843981
1780506590465801500,3.126801513671875,-1.335241034398228,-0.3491998066395521,-0.5065455005586147
1780506590475793700,3.136793701171875,-0.7514358416136354,0.7084107196837663,-0.02536971131712198
1780506590485785600,3.14678564453125,-0.24433139199800788,1.5102829823970794,-1.595156145301461
1780506590495778600,3.156778564453125,-0.22522804759927093,1.9815245298624038,-3.040631139962375
1780506590505770800,3.166770751953125,-0.1872142510253936,-0.10672434470653533,-0.9214850228264927
1780506590515762700,3.1767626953125,0.20782558883428573,-0.8237906645327806,-0.5928457736566662
1780506590525755600,3.186755615234375,0.6177190797589719,-0.9504653258562088,-0.3328095205917954
1780506590535747600,3.19674755859375,-0.48873161144852634,1.0579407811909913,-1.033274541968107
1780506590545739800,3.20673974609375,-0.824936911958456,4.696273902669549,0.3051955374792218
1780506590555731500,3.2167314453125,-0.01127323529496789,3.5912446225672956,2.3352011896550655
1780506590565724700,3.226724609375,0.8550467304747551,1.8457208056658505,1.157428452642262
1780506590575716600,3.236716552734375,0.6661772595882416,1.7221639841020107,-1.1993231823027133
1780506590585708500,3.24670849609375,1.0069172809183597,3.1353666484504936,-1.3870692751824856
1780506590595701800,3.25670166015625,0.9487222815811633,4.085402935239673,-1.6054539596930146
1780506590605693700,3.266693603515625,0.9189046509444713,3.6788866656631227,-2.3174977751821277
1780506590615685600,3.276685546875,0.5094459712404757,2.0541303318679334,-2.5516931922867894
1780506590625682000,3.286681884765625,0.12595157121326775,-0.21998598222732543,-3.333043475975096
1780506590635674600,3.296674560546875,0.6798293528437614,-0.5958370644271374,-3.60855319250375
1780506590645666800,3.306666748046875,2.6278818212151527,0.4223071284264326,-1.7322081159934402
1780506590655658800,3.31665869140625,4.386912769943476,-1.0878069271445274,0.5088885565534234
1780506590665651700,3.326651611328125,3.5321786856144666,-1.837465603017807,0.1006193058297038
1780506590675643600,3.3366435546875,0.6037649348169565,-1.022989294797182,0.9444809907495975
1780506590685635800,3.3466357421875,-1.563999375015497,-1.8985569083184002,3.1646742837384343
1780506590695627800,3.356627685546875,-1.595156145301461,-3.074876816174388,3.502596617299318
1780506590705620700,3.366620849609375,-2.901512884390354,-1.546309989067912,4.134907847642898
1780506590715613000,3.376613037109375,-0.1363286248534918,-3.705993283775449,2.79025381886363
1780506590725604900,3.38660498046875,1.6119874531149863,-3.1470664385944604,1.7300088523834942
1780506590735596800,3.3965966796875,0.07223353462703526,-0.9134721045017242,0.2433222880207002
1780506590745589800,3.40658984375,-2.110047887792438,-0.28016601790189744,-1.6543825335130093
1780506590755582000,3.41658203125,-1.1856447124969214,-2.056784645769,-2.3606818140007553
1780506590765573600,3.42657373046875,-5.732108065992594,1.5734873343288898,-3.736448043271899
1780506590775566800,3.43656689453125,-1.373496676903963,2.7314491631954905,-3.06487623116374
1780506590785558800,3.446558837890625,2.095049202233553,-1.538956119173765,-0.9455445283278823
1780506590795550700,3.45655078125,2.9076649772793055,-7.462264802414178,0.17547171771824358
1780506590805542700,3.466542724609375,3.419143842586875,-10.362616826331616,-0.5396726941347122
1780506590815535900,3.476535888671875,-1.4008575620383024,-8.60004601303935,-2.8896836226478215
1780506590825527800,3.48652783203125,-1.5061976127795875,-2.6296038227021694,-4.836235331067442
1780506590835519700,3.496519775390625,-2.180217402561754,5.6293865271866315,-4.575438322763144
1780506590845513000,3.506512939453125,3.3586382282197476,9.791835877227783,-1.6483207492560148
1780506590855504600,3.516504638671875,3.2121342463105913,5.630437497544288,1.4844795558378099
1780506590865496800,3.526496826171875,3.85528426605463,2.0600585528731346,2.3752982222437855
1780506590875488800,3.53648876953125,4.992181679582596,-1.798149491673708,2.587105281929672
1780506590885481700,3.546481689453125,1.3464929346442223,3.877809986117482,-9.93675288220644
1780506590895473700,3.5564736328125,4.087782523852587,11.582823806709051,-3.4921649473950267
1780506590905465900,3.5664658203125,0.8178963457971811,9.397262558901309,-7.145090365588665
1780506590915458800,3.576458740234375,1.3969886116504668,6.458358393749594,-3.384648283267021
1780506590925450800,3.58645068359375,2.8883132110774516,8.067330298435687,-3.1541175261497494
1780506590935442700,3.596442626953125,2.0228665940761563,7.487006444960832,-3.5110879667907953
1780506590945435000,3.606434814453125,1.6739257306337356,6.470497159832716,-2.9129832496926187
1780506590955427800,3.616427734375,1.785719049167633,4.203617811253666,-1.9351815886214374
1780506590965419800,3.626419677734375,2.2842530927062032,3.4770506726324557,-1.4485001877009869
1780506590975412000,3.636411865234375,2.0476655197679996,3.1535885338395833,-0.9313213571861386
1780506590985404700,3.64640478515625,1.0007142615597695,2.1635423082232474,-1.1148068700119853
1780506590995396900,3.65639697265625,-0.43116687283888455,0.7103226907849312,-0.9184396637812257
1780506591005388800,3.666388916015625,-1.261095601735264,-0.8225970708340405,-0.5009022339746356
1780506591015380700,3.676380615234375,-2.0081752209007737,-2.2903742059350014,0.7655734533637761
1780506591025373700,3.686373779296875,-1.6198213616110384,-2.375161444121599,1.9823419837251304
1780506591035366000,3.696365966796875,-0.5928980883657932,-1.2173580206871033,2.4567729748815297
1780506591045357800,3.70635791015625,-0.9346844038784503,-0.8155307857096195,1.9583429762393234
1780506591055350800,3.716350830078125,-1.0109167258180678,0.6108931792616844,0.9798904500439762
1780506591065343000,3.726343017578125,-0.9175646345123648,2.4555606764823197,-0.16318799020648
1780506591075335000,3.7363349609375,-0.4573451240599155,2.751987508833408,-2.010955791530013
1780506591085326800,3.746326904296875,-0.11356997281759977,2.7711230019360777,-4.081824199970066
1780506591095319800,3.75631982421875,0.5449348524466157,3.295713862273097,-4.334083097031712
1780506591105311700,3.766311767578125,0.38023587315529583,2.545328625690937,-2.2316984373435376
1780506591115303700,3.7763037109375,0.35423896985054015,1.6401923878580331,0.27149405114650726
1780506591125297000,3.786296875,0.24872224736809728,1.7737983097493648,1.954326726335287
1780506591135288800,3.796288818359375,-0.24810265416502952,1.485742415380478,2.8791052377492186
1780506591145280800,3.80628076171875,-0.33189854322671886,1.4197294357687233,3.9999277147889134
1780506591155272700,3.816272705078125,-1.2544959112092853,0.6156131935209036,4.576089187887311
1780506591165266000,3.826265869140625,-2.360967206813395,0.11052899768650531,4.476672828106582
1780506591175257600,3.836257568359375,-3.2946406800836323,0.05527998867332935,4.356349873897433
1780506591185249800,3.846249755859375,-3.6617642659485337,0.021866963893175124,4.078092027704417
1780506591195243000,3.856242919921875,-3.4391502733051773,-0.852591227081418,2.503553723017871
1780506591205234700,3.866234619140625,-2.710825477361679,-1.5812544611990451,0.4604410442486405
1780506591215227000,3.876226806640625,-1.5370532081618904,-1.405367732939124,-0.46586949903815983
1780506591225218800,3.88621875,-1.1436632544010876,-0.9074076898962259,-0.11152648429125547
1780506591235211800,3.896211669921875,-1.7706565045922993,-0.6265852539122104,0.7049377828761935
1780506591245203700,3.90620361328125,-2.5104741699308155,-0.8196025651931762,1.4435451956421137
1780506591255196000,3.91619580078125,-3.106225894162059,-1.0910188749283551,1.9525722838833928
1780506591265188600,3.926188720703125,-3.255784002944827,-1.2458084546238184,2.2954466868937016
1780506591275180800,3.936180908203125,-3.177561530101299,-1.2851578837156294,2.7081501206725833
1780506591285172700,3.9461728515625,-2.675720261710882,-1.4993816491544245,3.304478768008947
1780506591295165000,3.9561650390625,-2.3452403531104324,-2.0075351694315673,3.3986586884409187
1780506591305158000,3.966157958984375,-2.246627418667078,-2.3436662356615066,3.048275809496641
1780506591315149800,3.97614990234375,-1.9700041879385708,-2.848250080758333,2.917277439755201
1780506591325142000,3.98614208984375,-1.5284452465534208,-3.302529972028732,2.9155630370527503
1780506591335134700,3.996134765625,-1.0634329488664864,-3.8026960006833073,2.6193030857011674
1780506591345127000,4.006126953125,-0.6581348229080438,-4.2636201522737736,2.050935919740796
1780506591355118800,4.016118896484375,-0.22162907325923442,-4.266556790247559,1.5678525433123112
1780506591365111800,4.02611181640625,0.1690834779858589,-4.308884942889213,1.1734291548505424
1780506591375103700,4.036103759765625,0.2670125218182802,-4.408724204257131,0.661051294876635
1780506591385096000,4.046095947265625,0.1246773500263691,-4.480995659741759,0.12324848626703024
1780506591395087600,4.056087646484375,-0.08845102139115334,-4.634849419891834,-0.1719540649861097
1780506591405080800,4.066080810546875,-0.40654958732426166,-4.756626372301578,0.18588672874867915
1780506591415073000,4.076072998046875,-0.6210995159775018,-4.812902970796824,1.2140610249683261
1780506591425064700,4.086064697265625,-1.0595534770846367,-4.773831189602613,2.3932155717283488
1780506591435058000,4.096057861328125,-1.3315771050632,-3.9478082359731195,3.154702340300381
1780506591445049900,4.1060498046875,3.013946838915348,-1.8843284764796495,4.51900185753107
1780506591455041800,4.116041748046875,6.179765324252844,1.5978800173074006,3.6945886771857737
1780506591465033700,4.12603369140625,-1.1110346579968928,5.875802835699916,-2.7182679023221135
1780506591475027000,4.13602685546875,0.7194114216476678,11.776938850098848,-5.121536373770237
1780506591485018600,4.1460185546875,-2.787823961368203,15.65984177544117,-8.063730812638997
1780506591495010800,4.1560107421875,-2.5970915461540223,15.604630175828932,-7.960344087922572
1780506591505003800,4.166003662109375,3.0780101457640527,7.814763650599121,-4.417502553996443
1780506591514995700,4.17599560546875,1.1385463497787713,1.8621201518028974,-1.9501485638678073
1780506591524987600,4.185987548828125,-0.5314534395828843,-0.4498381094306707,0.6708677554920315
1780506591534980900,4.19598095703125,-1.1716630219608544,-1.4054004661649464,1.688270482328534
1780506591544972800,4.205972900390625,-1.2281485870316624,-1.3664835832715034,2.339409162738919
1780506591554964700,4.21596484375,-2.2159414807632563,-1.4008651608228682,2.24785433011353
1780506591564957000,4.22595703125,-2.011625069093704,-1.3985562993586063,2.30514741217494
1780506591574949600,4.23594970703125,-1.0237544339507818,-0.6620072804272175,2.6153847432136534
1780506591584941800,4.24594189453125,-1.0963085057690738,0.45049043585956094,2.904724832174182
1780506591594933800,4.255933837890625,-1.7467992436647415,0.9696423200130462,2.889582208099961
1780506591604926700,4.2659267578125,-1.7352850392207502,1.4147317736119032,2.5702535158500073
1780506591614918700,4.275918701171875,-1.094939263242483,2.2398224148273465,1.9396876678690314
1780506591624910000,4.28591015625,-0.33843028308302164,2.676986336123943,1.072533077906072
1780506591634902300,4.29590234375,-0.16049714368730783,2.4989205102592704,-0.0341635508865118
1780506591644895200,4.305895263671875,-1.1608350462153554,2.081443286207318,-1.374721834784746
1780506591654887200,4.31588720703125,-1.3109504966199397,1.730406327268481,-2.1620725279316306
1780506591664879400,4.32587939453125,-1.20898094522506,1.085513847771287,-2.406363514854014
1780506591674872000,4.3358720703125,-1.5831468508169053,0.41397769149839875,-2.287918337215483
1780506591684864300,4.3458642578125,-1.6297613024756312,-0.1675239735841751,-1.7324121141329407
1780506591694856200,4.355856201171875,-1.3396174959167837,-0.7342623692989348,-0.881733734935522
1780506591704849200,4.36584912109375,-1.4896693795658646,-1.2573504238575697,-0.16451397811323404
1780506591714841000,4.375841064453125,-1.6544287107422946,-1.7258365351349114,0.2664192321002483
1780506591724833300,4.385833251953125,-1.313227940032631,-2.0172744731575247,0.48348757331520315
1780506591734825200,4.3958251953125,-0.994816508758068,-2.445223991385102,0.5576753838151693
1780506591744818200,4.405818115234375,-0.7610159361898898,-2.9990421152502296,0.21506284661144018
1780506591754810400,4.415810302734375,-0.3858348622061312,-3.020140432858467,-0.17118600322306154
1780506591764802300,4.42580224609375,-0.03156096717268228,-2.581736740633845,-0.4954883922323584
1780506591774795300,4.435795166015625,0.0940669615767896,-1.6011539244115351,-0.7425999895334243
1780506591784787200,4.445787109375,0.10408690887503326,-0.49842006177008147,-0.9460156529709696
1780506591794779400,4.455779296875,-0.15276486893482505,0.2442342882990837,-1.0822826107650994
1780506591804772000,4.465772216796875,0.3743990567605942,0.8642875100940466,-0.2953635870337486
1780506591814764300,4.475764404296875,0.8405798867702484,1.302134152957797,0.957134136095643
1780506591824756200,4.485756103515625,0.6781177996855229,1.0390502027601003,1.1230550583973526
1780506591834748200,4.495748046875,0.5827624787986279,0.699575086799264,1.433850315579772
1780506591844741000,4.5057412109375,0.6539842790998518,0.39373511393666266,1.7633423821866512
1780506591854733300,4.5157333984375,0.31993703340664503,0.25574177074134347,2.453675008866191
1780506591864725000,4.52572509765625,0.1454560802914202,-0.23331775748729705,2.510010936333239
1780506591874718200,4.53571826171875,0.06649053399562835,-0.7731056024342775,1.712179765704274
1780506591884710400,4.54571044921875,-0.05210428124666214,-1.1890040328621863,0.8281886072307825
1780506591894702000,4.5557021484375,0.06859013662338256,-1.4340969838172197,0.1002183238133788
1780506591904695300,4.5656953125,-0.11166947295852005,-1.304042032405734,-0.3867793034493923
1780506591914687200,4.575687255859375,-0.474839864218235,-1.1934195112168788,-0.702631551760435
1780506591924679200,4.58567919921875,-0.462299531596899,-1.061568908560276,-0.760165164579451
1780506591934671000,4.595671142578125,-0.20603117969818413,-0.8204016066163777,-0.47926937109827994
1780506591944664300,4.605664306640625,-0.30487733837552367,-0.5380477232813835,-0.3194654703721404
1780506591954656000,4.615656005859375,-0.19906126762032508,-0.34068799888193607,-0.24990970358699557
1780506591964648200,4.625648193359375,0.06329677945561707,-0.25936931358873844,-0.35596243264228106
1780506591974641400,4.635641357421875,0.16495331937856972,-0.26294132685661314,-0.4785562543928623
1780506591984633000,4.645633056640625,0.21476035653352737,-0.286179579102993,-0.48692251619994636
1780506591994625300,4.655625244140625,0.2922621138870716,-0.26746494176089763,-0.45471243746876716
1780506592004618200,4.6656181640625,0.18417926724366843,-0.27980186076462266,-0.3300014774337411
1780506592014610200,4.675610107421875,0.07015892031006514,-0.25181436816453934,-0.24390257212668656
1780506592024602000,4.68560205078125,0.12764197198562324,0.06990238826572895,-0.11150047306716442
1780506592034594300,4.69559423828125,0.39813302010204643,0.4286959526807069,0.07306845108121633
1780506592044587000,4.7055869140625,0.6796223590295761,0.678448127618432,0.14443711250722407
1780506592054579200,4.7155791015625,0.8629974702835083,0.7867033351540565,0.0570294626891613
1780506592064571100,4.725571044921875,1.0975029762506485,0.6952320891588926,-0.08541238434761762
1780506592074564000,4.735564208984375,1.1892939557194708,0.45479894670844073,-0.3041939592212438
1780506592084556000,4.74555615234375,1.0864707101047038,0.14628244811296462,-0.5989309387892484
1780506592094548200,4.75554833984375,0.7844225307404995,-0.18362638260126113,-0.7755176320120691
1780506592104541200,4.765541259765625,0.3917571283945814,-0.4846995794534683,-0.8271402672216296
1780506592114533000,4.775533203125,0.20434651454687117,-0.6219862356841563,-0.873833629335463
1780506592124525300,4.785525390625,0.18592472267150878,-0.5431400779843331,-0.927648513892293
1780506592134517200,4.795517333984375,0.2056184341788292,-0.27792086932361126,-1.051764430643618
1780506592144510200,4.80551025390625,0.5756897639334202,0.1577250486254692,-1.6669412785738706
1780506592154502100,4.815502197265625,0.31733810295462606,0.5520177964448929,-2.0254183243855834
1780506592164494300,4.825494384765625,0.3000245645821094,1.09675420370996,-2.467130410505831
1780506592174487000,4.835487060546875,0.16099486407637595,1.6369804400742054,-2.7085511026889084
1780506592184479200,4.845479248046875,0.4697159453332424,2.104383432289958,-2.868140483881533
1780506592194471200,4.85547119140625,0.9114911598175763,2.2479706499695777,-2.8303488056257367
1780506592204464000,4.865464111328125,1.5592051264762878,1.972956023481488,-2.708301804102957
1780506592214456300,4.875456298828125,2.741899830061197,2.3002824364870786,-2.470179861204326
1780506592224448300,4.8854482421875,2.983091681924462,2.601032392734289,-2.1123791072189806
1780506592234441200,4.895441162109375,3.3723084416538476,3.2206647587686774,-2.3972455578967926
1780506592244433200,4.90543310546875,2.9610990458250046,3.4279923349529504,-2.2223110157951713
1780506592254425300,4.91542529296875,2.3636685747265815,3.1403070274621245,-1.621179059830308
1780506592264417300,4.925417236328125,1.7561317201554774,2.7851392523288725,-1.0069795324996114
1780506592274410200,4.93541015625,1.7760475499808788,2.5728385639071463,-0.6154328685179352
1780506592284402200,4.945402099609375,1.5585434476971625,2.292396067151427,-0.3813476337894797
1780506592294394400,4.955394287109375,1.7355881138205527,2.125493440335989,-0.27373715389817954
1780506592304387300,4.96538720703125,1.7957143734812735,2.0293822595804927,-0.4220958237633109
1780506592314379300,4.975379150390625,1.6338368813514708,1.909066611894965,-0.7097843461245298
1780506592324371200,4.98537109375,1.1008088859282434,1.6661778929859399,-0.9744494280338287
1780506592334364200,4.9953642578125,0.438074533335492,1.3078811721771955,-1.018099184668064
1780506592344356400,5.0053564453125,-0.2894903110861778,0.9106324971616268,-0.736936556944251
1780506592354348300,5.015348388671875,-0.834721662261337,0.41125615758001804,-0.5510004360958933
1780506592364340200,5.02534033203125,-0.8266575982712209,0.06887012260854244,-0.6785340523362159
1780506592374333200,5.035333251953125,-0.4863103756509721,-0.2845744819939136,-0.16649638410210607
1780506592384325400,5.045325439453125,0.04895721539258956,-0.11117781698405742,1.0794885961323977
1780506592394317000,5.055317138671875,0.22614786585792898,0.4065075017482042,1.0481348419696093
1780506592404310300,5.065310302734375,0.2124827669903636,0.9754951376944779,0.8531272336542606
1780506592414302200,5.07530224609375,0.022909458683431146,1.707084488391876,0.8081888985142112
1780506592424294100,5.085294189453125,-0.3000245645821094,2.1627549572378397,0.17377426615059374
1780506592434287400,5.095287353515625,0.6657328768216073,1.9581419007092713,0.22552198904454707
1780506592444279300,5.105279296875,0.5266176899895072,1.6912468677908181,0.870360984788835
1780506592454271200,5.115271240234375,-0.6817001151517034,1.8210697640120983,1.8742419667512178
1780506592464263200,5.12526318359375,-1.430515325938165,1.5410247421413659,2.6052906347006557
1780506592474256400,5.13525634765625,-2.059093214972317,0.8376905950695276,2.690467164465785
1780506592484248000,5.145248046875,-1.8430375579312444,-0.05354220509529113,2.409291677260399
1780506592494240300,5.155240234375,-1.7028037423327564,-0.35645196972489357,1.8201453426435588
1780506592504233200,5.165233154296875,-1.5687114982292054,-0.34244331811666484,1.4569886145830153
1780506592514225200,5.17522509765625,-1.2040379358649254,-0.8634054665625095,0.34660540623217817
1780506592524217000,5.185217041015625,-1.1305065434470771,-1.0379571468263864,-0.28383623084723947
1780506592534210300,5.195210205078125,-1.1129092196971178,-0.5509335083395243,-0.19596710099726913
1780506592544202200,5.2052021484375,-1.1451572923511266,-0.14143559260368346,-0.24503654459267854
1780506592554194200,5.215194091796875,-1.0319318951874972,0.1586795728713274,-0.6805062291920184
1780506592564186400,5.225186279296875,-1.1741089538082479,0.3076777096837759,-0.3488590303778648
1780506592574179000,5.235178955078125,-1.663458404894173,0.32793957646787164,0.04374152657091617
1780506592584171300,5.245171142578125,-1.9140318330869077,0.028806407767534254,-0.05122048414945602
1780506592594163200,5.2551630859375,-1.8478712616980075,-0.30592648210227485,0.3730979840993881
1780506592604156200,5.26515625,-1.8469874646008013,-0.6309978096574544,0.8122218072921037
1780506592614148000,5.275148193359375,-1.7875591240763664,-0.8510311381578445,1.2840320945560932
1780506592624137700,5.2851376953125,-1.8472452387541531,-1.1678975319474936,1.8467139083564281
1780506592634130400,5.29513037109375,-2.0538906778931616,-1.6195535044550895,2.250351699887216
1780506592644122600,5.30512255859375,-2.3776000694453714,-1.9219044661581515,2.3741496367305515
1780506592654114600,5.315114501953125,-2.399040332359075,-2.1280752735227346,2.5812173929348585
1780506592664107500,5.325107421875,-2.521085580316186,-2.182508874499798,2.4593688365936277
1780506592674099700,5.335099609375,-2.486187285414338,-2.1878619259655476,2.2414152369767426
1780506592684091600,5.345091552734375,-2.300296465012431,-2.119752850857377,2.100623787495494
1780506592694083600,5.35508349609375,-2.189149627688527,-1.883497286352515,2.031876999005675
1780506592704076500,5.36507666015625,-2.0369997488468883,-1.7848323294609785,2.067894068804383
1780506592714068700,5.37506884765625,-1.7536042475044726,-1.7756506596177815,2.1790496739566323
1780506592724060400,5.385060302734375,-1.3925018216252325,-1.89367088984251,2.1459084518551825
1780506592734053600,5.3950537109375,-1.0495961466938257,-2.1209949598729607,2.0708008961617947
1780506592744045600,5.405045654296875,-0.8014420546025037,-2.299524311596155,1.8180293734028934
1780506592754037500,5.41503759765625,-0.6021399639636278,-2.4729168849527836,1.5737991767570376
1780506592764030700,5.42503076171875,-0.5432891310662031,-2.700120543473959,1.1999456981152294
1780506592774022700,5.435022705078125,-0.5070902749598026,-2.8254011200904845,1.1942293662950396
1780506592784014600,5.4450146484375,-0.5438496875584126,-2.857591909599304,1.2121502229109407
1780506592794006500,5.455006591796875,-0.4705640865951776,-3.0727403886675835,0.9193915576785803
1780506592803999700,5.464999755859375,-0.20266952124536036,-3.2379455639153716,0.5458277096331119
1780506592813991400,5.474991455078125,0.2507347562342882,-3.2223809150367972,0.28531448670625686
1780506592823983600,5.484983642578125,0.8056523657739162,-3.0763977421313524,0.12891776407510042
1780506592833976600,5.4949765625,1.0376491037905216,-3.0113848794728515,0.031905542826652526
1780506592843968500,5.504968505859375,0.8362859889686107,-3.0973972755402324,0.11584697783887386
1780506592853960400,5.51496044921875,0.6885112564712762,-3.2079268577486273,0.7534060457080602
1780506592863953700,5.52495361328125,1.6469892083913087,-2.993019786220789,1.6260785223096608
1780506592873945600,5.534945556640625,1.8557383418112992,-2.0129449195206166,1.5065087245553732
1780506592883937500,5.5449375,6.664668901845812,1.11284901394248,1.1921104744449258
1780506592893929500,5.554929443359375,13.769064268952608,8.871071277630328,-0.08753507559001446
1780506592903922400,5.56492236328125,2.0589397779762746,16.154427958136797,-5.840132387381792
1780506592913914600,5.57491455078125,2.5480934142291543,16.86347756024599,-4.747558099704981
1780506592923906600,5.584906494140625,4.932161802905798,7.444564310550689,-4.248752253487706
1780506592933899500,5.5948994140625,-1.807011428043246,0.061595747691392894,-2.0498156835392116
1780506592943891500,5.604891357421875,1.112891684040427,-1.9084727376550434,2.0288065055191518
1780506592953883600,5.614883544921875,-1.8001023793071507,-2.736025385069847,2.5716186667233703
1780506592963876600,5.624876708984375,-2.290160270923376,-3.7031776418328284,3.831581903427839
1780506592973868500,5.63486865234375,-2.4832208368241786,-4.210039368733764,4.758316809606552
1780506592983860500,5.644860595703125,-1.880562109683454,-3.64573199955821,5.00183447406888
1780506592993853700,5.654853759765625,-1.8948188908338546,-2.1411305699288845,4.4629505922243
1780506593003845600,5.664845703125,-2.048934809051454,0.025594459983706474,3.726506202711165
1780506593013837600,5.674837646484375,-1.8684604607403277,2.747809930887818,2.7083102796703575
1780506593023829800,5.684829833984375,-1.7188056135848164,5.05914626083076,0.8154279098570346
1780506593033822500,5.694822509765625,-1.5513272327080367,6.359813848367333,-1.5286565512165426
1780506593043814700,5.704814697265625,-1.5538380464851855,6.437136157500744,-3.4637937161743637
1780506593053806600,5.714806640625,-2.108872268141806,5.280486580276489,-4.259099459978938
1780506593063799600,5.724799560546875,-2.0630670870393515,3.382005659803748,-3.9371906881079077
1780506593073791500,5.73479150390625,-1.8252154855147003,1.6576684233158825,-2.929459460458159
1780506593083783700,5.74478369140625,-1.742023699826002,0.35668694752454755,-1.8995222462192176
1780506593093776600,5.754776611328125,-1.7938778057038782,-0.48824353567063805,-1.0087751837447285
1780506593103768600,5.7647685546875,-1.7517007519707082,-0.7795031945168972,-0.037144028002023696
1780506593113760800,5.7747607421875,-1.3988628810897468,-0.6426870784074068,0.8164832641288637
1780506593123752700,5.784752685546875,-1.3248027886226772,-0.6451601905226707,1.3142106674596667
1780506593133745700,5.79474560546875,-1.5683368196979164,-0.6811702460587025,1.3363155317619442
1780506593143737600,5.804737548828125,-1.7339850625380873,-0.6438964541971683,1.018785705627501
1780506593153729800,5.814729736328125,-1.72367614223063,-0.5997802490949631,0.4111486055523157
1780506593163722500,5.824722412109375,-1.5811863643988966,-0.5912386307209729,-0.3148088767379522
1780506593173714700,5.834714599609375,-1.0117442626833915,-0.6503998447418212,-0.8477157299995421
1780506593183706600,5.84470654296875,-0.7076873738452791,-0.6925275063753128,-1.0828984045758843
1780506593193699600,5.854699462890625,-0.7561395623251795,-0.8075076382517814,-1.0197188948243856
1780506593203691500,5.86469140625,-0.920870982581377,-0.961587608373165,-0.5667284588426351
1780506593213683700,5.87468359375,-0.9490928684592247,-1.0957663617163895,-0.08785422454178332
1780506593223676700,5.8846767578125,-1.104894840067625,-1.20108259319067,0.032137305755913254
1780506593233668600,5.894668701171875,-1.3099062482640147,-1.3338736915677785,-0.05898731875866651
1780506593243660800,5.904660888671875,-1.2015607320964337,-1.4602332955926656,-0.027879648311436175
1780506593253652500,5.914652587890625,-1.0991187408842147,-1.5567437047988175,-0.28946897603720423
1780506593263645700,5.924645751953125,-0.8957460398055612,-1.551837812578678,-0.2554804894566536
1780506593273637600,5.9346376953125,-0.5772787866905331,-1.4677946707576512,-0.008098550781607627
1780506593283629600,5.944629638671875,-0.5201965709008276,-1.3820499857157469,0.015829437294602393
1780506593293622500,5.95462255859375,-0.6473195605136454,-1.1792740814864635,0.13611118271052836
1780506593303614700,5.96461474609375,-0.4581821594059467,-0.9006582156360149,0.5452256520867348
1780506593313606400,5.9746064453125,-0.07787818945050239,-0.8674129486382007,0.7817009968221187
1780506593323599600,5.984599609375,-0.06487360031828283,-0.9219102625012398,0.5905345741048454
1780506593333591800,5.994591796875,0.018038491646200416,-0.8537479959011077,0.4694926579713821
1780506593343583500,6.00458349609375,0.15409867482185363,-0.5521808780521154,0.5836831007748842
1780506593353575700,6.01457568359375,-0.5342950196843594,-0.1741869386047125,1.0307342098355292
1780506593363568600,6.024568603515625,-0.11471483200378715,0.07835340574681758,1.241556934659183
1780506593373560600,6.034560546875,0.23151041580438614,0.07000760220587253,1.0190183453395962
1780506593383552500,6.044552490234375,0.28839952017478643,-0.0857470231294632,0.762091748727858
1780506593393545700,6.054545654296875,0.4381400728523731,-0.3487339426934719,0.482646738576889
1780506593403537400,6.064537353515625,0.17990414720773695,-0.7086696628808975,0.08553484168350696
1780506593413529600,6.074529541015625,-0.058944319867156446,-1.0650187567532061,-0.1545353126734495
1780506593423522800,6.084522705078125,-0.16275668611712754,-1.1553835028111934,-0.4764095977529883
1780506593433514500,6.094514404296875,-0.1936147291848436,-0.8724147024482488,-0.838392898119986
1780506593443506400,6.10450634765625,0.049768513509165495,-0.792530433872342,-1.0243027154833078
1780506593453498600,6.11449853515625,0.3205915517926216,-0.5118395153135061,-1.1255994821831583
1780506593463491600,6.12449169921875,0.816290664166212,-0.2691734992444515,-0.7854822689265012
1780506593473483500,6.1344833984375,1.189316167551279,-0.22112053921520708,-0.5706324805438518
1780506593483475700,6.144475830078125,1.3004355323463677,-0.11894377481043338,-0.4508180603787303
1780506593493468400,6.154468505859375,0.858512433823943,-0.27999007681310173,-0.503484651683271
1780506593503460600,6.164460693359375,0.7781880202651024,-0.3128758628487587,-0.7359411161661148
1780506593513452500,6.17445263671875,0.7595622302502393,-0.29180092611610886,-0.8594158124044537
1780506593523445500,6.184445556640625,0.7532885568082333,-0.23832827912569043,-0.8682517375499009
1780506593533437400,6.1944375,0.5960691926825791,-0.2644417945474386,-0.7818199470266699
1780506593543429600,6.2044296875,0.6732458828002214,-0.1365630181312561,-0.5641518863528967
1780506593553422600,6.214422607421875,1.0461679258108139,-0.047179099804162974,-0.3709878600776195
1780506593563414500,6.22441455078125,1.447017255666852,-0.030144962894916534,-0.2449897828415036
1780506593573406700,6.23440673828125,1.5614362465292215,-0.1625754112660885,-0.3698831137061119
1780506593583398700,6.244398681640625,1.388873694255948,-0.07681202152371407,-0.7653004816412925
1780506593593391600,6.2543916015625,0.9681628951102494,0.04855389528870582,-1.2371174909070133
1780506593603383600,6.264383544921875,0.7923721015054732,0.24318916316032407,-1.1705439548030494
1780506593613375700,6.274375732421875,0.40760464933514595,0.5592997701466084,-0.7811290421530603
1780506593623368000,6.284367919921875,0.02294073060452938,0.9544611174941062,-0.5527557553306222
1780506593633360000,6.29435986328125,-0.12977262733876704,1.5059581049352884,-0.5385641483709216
1780506593643352000,6.30435205078125,-0.3846669144053012,1.9820833327889442,-0.8688044029965997
1780506593653344800,6.3143447265625,-0.3611421733677387,2.4390590390145777,-1.413349963864684
1780506593663337000,6.3243369140625,-0.1926040543049574,2.651287246721983,-1.9054910914957521
1780506593673329000,6.334328857421875,0.12353760540671646,2.6007255187422036,-2.0939304273366925
1780506593683321000,6.344321044921875,0.3881155204892158,2.3217694611519573,-2.1250787220552563
1780506593693313800,6.354313720703125,1.023205567896366,2.078084623429179,-1.9535227164760232
1780506593703306000,6.364305908203125,1.683885983633995,1.8287953898280858,-1.463028187008202
1780506593713298000,6.3742978515625,2.4995155535429716,2.0711668068647384,-2.110317790775001
1780506593723291000,6.384290771484375,2.052045342287421,2.354441312175989,-2.8874066176265476
1780506593733283000,6.394282958984375,1.5268109233498572,2.4988129582315683,-3.6807834391951557
1780506593743275000,6.40427490234375,1.1636801334481686,2.7166566677331923,-4.111413574808836
1780506593753268000,6.41426806640625,0.7675064672529697,2.584014622437954,-3.845516028495133
1780506593763260000,6.424260009765625,0.7102841123402118,2.326003153198957,-3.0353955773964523
1780506593773252000,6.434252197265625,0.9809142401337623,2.2677812658548353,-2.0616832314655182
1780506593783244800,6.444244873046875,1.1912006661236285,2.3331401654720305,-1.3771759499385952
1780506593793237000,6.454237060546875,1.2592512890428305,2.3326012362897393,-0.9824559166178106
1780506593803229000,6.46422900390625,1.329269997164607,2.2747341537326573,-0.867731220807135
1780506593813220900,6.474220947265625,1.5679232704609631,2.2366578133165835,-0.7778092500805854
1780506593823213800,6.4842138671875,1.9501836351811885,1.9987001210689543,-0.7970362208589911
1780506593833206000,6.4942060546875,2.235030504375696,1.7621832752794027,-0.8505869015216827
1780506593843197700,6.50419775390625,2.052224790507555,1.5226649095863103,-1.0519976548776029
1780506593853191000,6.51419091796875,1.4977952567458153,1.150102347537875,-1.281234572792053
1780506593863183000,6.52418310546875,1.0660814906138927,0.7670715829670429,-1.4658771466985343
1780506593873174800,6.5341748046875,0.5918166498046368,0.6579290712028741,-1.331716805794835
1780506593883168000,6.54416796875,-0.12078326519727706,0.45176586262285706,-0.8754469097509979
1780506593893160000,6.554159912109375,-0.8934650892615318,-0.06881459302902221,0.2368143674314022
1780506593903151900,6.56415185546875,-1.9897547441996633,-0.17540040604770182,1.5680828449368476
1780506593913144800,6.574144775390625,-2.064683290064335,0.2794254286676645,2.4003639821782707
1780506593923137000,6.584136962890625,-1.304716132275015,1.8262533041298388,1.8605793521016836
1780506593933129000,6.59412890625,-0.2665431507408619,2.268244791713357,0.19875819302052258
1780506593943121000,6.604120849609375,1.283802961975336,2.1487954054683445,-0.5045294845610857
1780506593953114000,6.614114013671875,1.5324375310599803,1.6080664802789688,-0.28240619804412126
1780506593963105800,6.624105712890625,0.5270714251063764,1.4686527488917112,0.35039632294774054
1780506593973098000,6.634097900390625,-0.37666269084364173,1.4023235429376364,0.629105712300539
1780506593983091000,6.644091064453125,-0.7040355733394622,0.5532803637266158,1.5172724028930067
1780506593993083000,6.654082763671875,-1.972810769791901,-0.11440028616189955,2.227482865475118
1780506594003074800,6.66407470703125,-2.8215964671105143,-0.8042652953296899,1.8148723706766963
1780506594013068000,6.674068115234375,-3.2549875918701288,-1.4085299963623283,1.53642923104465
1780506594023060000,6.68406005859375,-2.1156112210080025,-1.1505436615645885,1.5428078261658549
1780506594033052000,6.694052001953125,-0.9306175928309559,-1.3929086488604545,0.3577034310907125
1780506594043043800,6.7040439453125,-0.6484072096198796,-1.193133680012822,-0.2095326850131154
1780506594053037000,6.714037109375,-0.5476181001812219,-0.6651140142709017,-0.13183774317502975
1780506594063028700,6.72402880859375,-1.001021208617091,-0.10069441689252853,0.07903028209507465
1780506594073021000,6.73402099609375,-1.603839802494645,0.1832522885918617,0.1206578852519393
1780506594083014000,6.744013916015625,-1.8362901294976472,0.3424082468032837,0.2005769328802824
1780506594093005800,6.754005859375,-1.8530635696440934,0.27221535115838047,1.136256485275924
1780506594102998000,6.763998046875,-2.0777891476139425,0.2943535332083702,1.564449164609611
1780506594112991000,6.773990966796875,-2.218245373791456,0.3731897540360689,1.7718688029915093
1780506594122983000,6.78398291015625,-2.3481296448111535,0.3136725661844015,2.102982333320379
1780506594132974800,6.793974853515625,-2.2710148409485815,-0.031221652215719223,2.3496304047629235
1780506594142968000,6.803968017578125,-2.263320779314637,-0.6688520317554474,2.1930258845999835
1780506594152959700,6.813959716796875,-1.9887299311965703,-1.2466992659837006,2.1635817634508014
1780506594162952000,6.823951904296875,-2.0694676017314193,-1.7824322825819252,2.249228248815238
1780506594172944000,6.83394384765625,-1.824692046162486,-2.3103835592627524,2.5634055496513843
1780506594182936800,6.843936767578125,-1.8456611844331026,-2.6132956619799135,2.637094178457558
1780506594192929000,6.853928955078125,-1.9016653957277536,-2.4764275234222413,2.381592353951931
1780506594202921000,6.8639208984375,-1.8721780199587343,-2.3912691138356923,2.155379752294719
1780506594212914000,6.873913818359375,-1.9622826537758111,-2.6020839476138353,2.029827372999489
1780506594222905900,6.88390576171875,-1.8590636868417263,-2.863342435950041,2.0780054207131267
1780506594232898000,6.89389794921875,-1.5974731900721788,-3.0515421178162097,1.98794725638628
1780506594242890800,6.903890869140625,-1.0064584312349558,-3.1267566410154104,1.9642668133303522
1780506594252883000,6.913883056640625,-0.21253449717760084,-3.2896512012332675,1.8375985817477105
1780506594262875000,6.923875,0.22837854751944542,-3.358908861854672,1.063152378359437
1780506594272867800,6.933867919921875,0.4558201064497232,-3.242413649240136,0.1594187008008361
1780506594282860000,6.943860107421875,0.4414081347376108,-3.167237119963765,-0.20630320157259702
1780506594292852000,6.95385205078125,0.3131616940528154,-3.2213626779049633,-0.2952458058729768
1780506594302844000,6.963843994140625,0.20825521242320535,-3.3414456858783956,-0.4360065679550171
1780506594312836900,6.9738369140625,0.2178004548817873,-3.383258874735236,-0.6622440117925406
1780506594322829000,6.9838291015625,0.3427823408126831,-3.348094622373581,-0.8621674492001533
1780506594332821000,6.993821044921875,0.282345115506649,-3.3904993473827836,-0.8781842257604002
1780506594342814000,7.00381396484375,0.08443418696522713,-3.635562487721443,-0.45137335617393254
1780506594352806000,7.013805908203125,0.07683364883363246,-4.017569754463434,0.725289666031301
1780506594362798000,7.023798095703125,0.45166532485783095,-4.214026977065205,2.3832988656088707
1780506594372790800,7.033790771484375,1.3449486278116702,-3.4214182172596455,3.82580770394057
1780506594382783000,7.043782958984375,6.386286844751239,-0.5694534998923539,4.590988358594477
1780506594392775000,7.05377490234375,10.046609095197915,5.378890255883336,2.550620594619214
1780506594402768000,7.063767822265625,0.3546282614290714,11.602656634426117,-4.254273647257685
1780506594412760000,7.073760009765625,-0.9697013567239046,16.96526854020357,-6.463318061983585
1780506594422752000,7.083751953125,-0.884579772016406,16.89026035323143,-6.482412054032087
1780506594432744000,7.093743896484375,1.1203045906454323,6.444336882659792,-4.070890133501589
1780506594442737000,7.10373681640625,1.3997475549697875,1.65744922760725,0.03000526216328144
1780506594452729000,7.11372900390625,-0.866354964017868,-0.966789268669486,1.8615707012265919
1780506594462720800,7.123720703125,-1.5973761594384908,-2.538657477363944,3.6236496393486854
1780506594472714000,7.1337138671875,-1.486275499343872,-3.1448622065484524,5.008293440949917
1780506594482706000,7.143705810546875,-2.493958503937721,-3.258316736292839,4.379168439427018
1780506594492697900,7.15369775390625,-3.070012425008416,-2.8957150117665527,3.371642086699605
1780506594502691000,7.163691162109375,-2.7058710698246955,-1.454327870941162,3.0376886567696926
1780506594512683000,7.17368310546875,-2.3391285922318694,0.611574731785059,2.561253340053558
1780506594522675000,7.183675048828125,-2.3858494268745183,2.5406916135400532,1.2782237005382775
1780506594532667000,7.1936669921875,-2.3898344048574565,3.969821914860606,-0.32994127167910337
1780506594542660000,7.20366015625,-2.0673066243052483,4.651875373494625,-1.8698484079673885
1780506594552651800,7.21365185546875,-1.7935811608448624,4.293826489967108,-3.160243315553665
1780506594562644000,7.22364404296875,-1.3451117094188927,3.2496365862309933,-3.7858009799838066
1780506594572637000,7.233636962890625,-0.9334960708767175,2.071862972435355,-3.473794301185012
1780506594582628900,7.24362890625,-0.9256018104955553,0.893489054659009,-2.7222406053453683
1780506594592620800,7.253620849609375,-1.0536483446940779,-0.1733013879418373,-1.8633821345627306
1780506594602614000,7.263614013671875,-1.067663426043093,-0.927014307641983,-0.9046481620550155
1780506594612605700,7.273605712890625,-1.0500725320339201,-1.277366791447997,-0.15303075332939625
1780506594622598000,7.283597900390625,-0.867291368085146,-1.4317062892884016,0.3022588995054364
1780506594632594200,7.29359423828125,-0.9561939326360821,-1.6422247704684734,0.5198366515472531
1780506594642586000,7.303586181640625,-1.1451052699029445,-1.723673804143071,0.5395324088811874
1780506594652578000,7.313578125,-0.9478533897921443,-1.5197563286632298,0.3499415649175644
1780506594662570000,7.323570068359375,-0.5219616808772087,-1.19125385761559,-0.0166200031504035
1780506594672563200,7.333563232421875,-0.40880642634034153,-1.000739469066262,-0.5176686598584056
1780506594682555000,7.343554931640625,-0.4640168569087982,-0.8691372882127761,-0.8654843186631799
1780506594692547000,7.353547119140625,-0.4456640386164188,-0.630125702998042,-0.9422031089454889
1780506594702540000,7.3635400390625,-0.56496612534523,-0.3708417296051979,-0.7754948356583714
1780506594712532000,7.373531982421875,-0.6752513774037361,-0.19186638768017292,-0.48819092870056624
1780506594722524200,7.383524169921875,-0.8276429560467601,-0.1424970843553543,-0.13467647373229263
1780506594732517000,7.39351708984375,-1.3523989438176154,-0.4058610205382108,-0.11484598410278558
1780506594742509000,7.403509033203125,-1.3389188461281358,-0.43666357055902477,-0.13848258801698685
1780506594752501000,7.4135009765625,-0.5797815632916986,-0.5315735588312148,0.15889584597051143
1780506594762494200,7.423494140625,-0.44945904698520894,-0.7551292162388563,0.4566977660670876
1780506594772486000,7.43348583984375,-0.570607930624485,-0.8279261569023132,0.7584373178735375
1780506594782478000,7.44347802734375,-0.7035562653899192,-1.0025485643148422,0.6995601814910769
1780506594792470000,7.453469970703125,-0.5182791929721832,-1.2883932123750448,0.645116643641889
1780506594802463000,7.463462890625,-0.23037629720792174,-1.315675771576166,0.8406973756700754
1780506594812455000,7.473454833984375,-0.07091901796236634,-1.034330188500881,0.8781614294067025
1780506594822447000,7.483447021484375,-0.057257426226139066,-0.6043500412285328,0.7404191383630037
1780506594832440000,7.493440185546875,0.1078150625526905,-0.3868354175508022,0.754764182318747
1780506594842432000,7.503431884765625,-0.02915602492280304,-0.3962602485001087,0.5656181595131754
1780506594852424200,7.513424072265625,-0.048760889102891086,-0.2372323005825281,0.4805614567354321
1780506594862417000,7.5234169921875,-0.039707741010189056,-0.1366366678893566,0.3505845389962196
1780506594872409000,7.5334091796875,0.34204818131923675,-0.05354512770473957,0.2354521391674876
1780506594882401000,7.543401123046875,0.7647907054882496,0.13173311375677585,0.09014818069785833
1780506594892394000,7.55339404296875,0.878169247386977,0.20604688872396945,-0.09878799874931574
1780506594902386000,7.563385986328125,0.6003869828164577,-0.04516600641608238,-0.3445417517006397
1780506594912378000,7.573378173828125,-0.17224574140906332,-0.5429594607204199,-0.3420493503630161
1780506594922370000,7.5833701171875,-0.40452304993271826,-0.972376713413,-0.5364437952160835
1780506594932363000,7.593363037109375,-0.1931611767310649,-0.8188339189082383,-0.7079612223505973
1780506594942355200,7.603355224609375,-0.04450198954939842,-0.7038350823312998,-0.7977370626047253
1780506594952347100,7.61334716796875,0.05018931447081267,-0.7395066996932029,-0.9480012738302349
1780506594962340000,7.623340087890625,0.8144400678634643,-0.44643736107647414,-0.8407587504684925
1780506594972332000,7.63333203125,1.157396596199274,-0.24017010760009289,-0.7441004572242498
1780506594982324200,7.64332421875,0.883240632367134,-0.30612171241343017,-0.6835133020535111
1780506594992317000,7.65331689453125,0.566312900311686,-0.4611199664235115,-0.610808131326735
1780506595002309000,7.66330908203125,0.1261363531956449,-0.7910393185317516,-0.7189595862269401
1780506595012301000,7.673301025390625,0.051041620451211925,-0.9131681531190872,-0.5861886538550257
1780506595022293000,7.68329296875,0.19644845477342604,-0.7200152327597141,-0.4031710508018732
1780506595032286200,7.6932861328125,0.13365325903124176,-0.5494347942143678,-0.31095600070208307
1780506595042278100,7.703278076171875,0.4187690174281597,-0.20362053835988045,-0.28627368712723256
1780506595052269800,7.713269775390625,0.7213689854562282,0.03087093908190727,-0.13498890068233013
1780506595062263000,7.723262939453125,1.674948643940687,0.37804187024235725,-0.2529036247059703
1780506595072255200,7.733255126953125,2.1157138045996424,0.5753302829712629,-0.2894765748217702
1780506595082247000,7.743246826171875,2.035167272722721,0.5839566570192575,-0.35780075398534533
1780506595092240100,7.753240234375,1.4780162050426005,0.564660420396924,-0.7177423193916678
1780506595102232000,7.763232177734375,0.71399874894917,0.5247019194960594,-0.827339004664123
1780506595112224000,7.77322412109375,0.18488544275164603,0.6046376259982585,-0.7904308312445879
1780506595122217000,7.783217041015625,-0.4440302999347448,0.6629542058885097,-1.1566741271436214
1780506595132209200,7.793209228515625,-1.0752326922535895,0.7871674455344676,-1.7875082706719636
1780506595142200800,7.803200927734375,-1.446120014566183,1.0427157395303248,-2.4242718042492863
1780506595152193000,7.813193115234375,-1.0411948135733604,1.5640905604302882,-3.0545246407583355
1780506595162186200,7.823186279296875,-1.0540466963618993,1.6641291437625885,-3.857263457173109
1780506595172178000,7.833177978515625,-0.5043523744285107,1.781007802736759,-3.9941915092244744
1780506595182170000,7.843170166015625,0.4037397906005382,1.8828911371529102,-3.220708597910404
1780506595192163000,7.8531630859375,1.8130331725507973,2.29060041590631,-3.104107002311945
1780506595202155000,7.863155029296875,2.114426102876663,2.8411662599772214,-2.6885958176359535
1780506595212147000,7.87314697265625,2.0321096387177704,3.3240777869701383,-2.130771380738914
1780506595222140200,7.88314013671875,1.9027005839943885,3.9070278972953556,-1.8284417540848255
1780506595232131800,7.8931318359375,1.7993360711097717,4.525927272880077,-1.2905471755385398
1780506595242124000,7.9031240234375,1.843944443643093,4.533711350885033,-0.6590773644551634
1780506595252116000,7.913115966796875,1.8967302774131296,3.8287446341753,-0.5027940390706062
1780506595262109000,7.92310888671875,1.9839602325767278,3.1462510305583473,-0.3897624109134078
1780506595272101000,7.93310107421875,2.039956260564923,2.6481565474808213,-0.23576339707374572
1780506595282093000,7.943093017578125,1.9557436073958872,2.187178035354614,-0.15177198543995618
1780506595292086000,7.9530859375,1.9516297423362732,1.9374808054745196,-0.11739303823709488
1780506595302078000,7.963077880859375,1.8907973802328109,1.714080046367645,-0.20579729787707327
1780506595312070100,7.973070068359375,1.5247592515170574,1.407059339287877,-0.4330567782387137
1780506595322062800,7.983062744140625,0.9360182828307151,1.0460282250791788,-0.6463873942300677
1780506595332055000,7.993054931640625,0.2682756736218929,0.727574269837141,-0.7173837152123451
1780506595342047000,8.003046875,-0.35380291652083395,0.40065994476377964,-0.7006839248239993
1780506595352040000,8.0130400390625,-0.5411189474202692,0.2315764667779207,-0.8505930390015244
1780506595362031900,8.023031982421875,-0.5658019916474819,-0.1701385399967432,-0.2113987711459398
1780506595372024000,8.033024169921875,-0.9599263971626758,0.3057908730238676,0.7280056469917296
1780506595382016000,8.04301611328125,-1.1846470066964625,0.9536573998957871,0.8978387743011117
1780506595392009000,8.053009033203125,-0.9800627378709613,1.0882710375249385,1.0719199144437908
1780506595402001200,8.063001220703125,-0.5031844996929168,1.2291846520811318,1.350005034418404
1780506595411993000,8.0729931640625,-0.45969271009936924,1.0958201377302408,1.2081018243029713
1780506595421986000,8.082986083984375,-0.582408696924895,0.9957406378656625,0.8421277007341385
1780506595431978000,8.09297802734375,-0.5268719570115208,0.9161106363117695,0.8874804618939757
1780506595441970200,8.10297021484375,-1.037694696497917,0.6904927856773138,0.9752332718878984
1780506595451963000,8.112962890625,-1.2120391637519001,0.34261925920546055,1.0325015117689966
1780506595461955000,8.122955078125,-1.1122653688356279,-0.11518413001596926,1.1900298687785864
1780506595471947000,8.132947021484375,-1.3050368886619805,-0.8392050912857055,0.9393979883968829
1780506595481939200,8.142939208984375,-1.420287946434319,-1.4438614219844341,0.11919745731055736
1780506595491932200,8.15293212890625,-1.21322369736135,-1.278351710832119,-0.14402648587971925
1780506595501924000,8.162924072265625,-0.7678691630855202,-0.9494903433442116,0.13189707214683294
1780506595511916300,8.172916259765625,-0.7390241768732666,-0.5949485911548137,0.725138567122817
1780506595521909000,8.182908935546875,-0.7478346753165125,-0.4040209456294775,1.2114014503702522
1780506595531901200,8.192901123046875,-0.9093293056085705,-0.7350409524559974,1.1624696616798638
1780506595541893000,8.20289306640625,-1.3350368901282548,-0.7465671395987272,0.3534861056566238
1780506595551886000,8.212885986328125,-1.3802262774199248,-0.23599252965450285,0.09954349329173565
1780506595561878000,8.2228779296875,-1.4820622655630111,-0.02843231375813484,-0.18229191912710666
1780506595571870200,8.2328701171875,-1.6662328380435705,0.29123861605823037,-0.15176701700389383
1780506595581862000,8.24286181640625,-1.6252964320212602,0.4979039289414882,0.3397352282017469
1780506595591855000,8.252855224609375,-1.8159259713828562,0.6603215192973614,1.1276175440073013
1780506595601847000,8.262846923828125,-2.1134160490512848,0.38612639249861236,1.6240812110126017
1780506595611839000,8.2728388671875,-2.14160520170331,-0.0899035582870245,1.7444523882776497
1780506595621832200,8.282832275390625,-2.0405144789695737,-0.6152268245518208,1.9048177222788332
1780506595631821600,8.292821533203124,-1.8174732008248566,-1.1274766742318867,2.1550714169979095
1780506595641813800,8.302813720703124,-1.736184326148033,-1.7177724711447953,2.320360178875923
1780506595651806700,8.312806640625,-1.491592310452461,-2.0693892757982013,2.446992170101404
1780506595661798700,8.322798583984374,-1.1968980009824037,-1.9748370149224996,2.4964935753732918
1780506595671790600,8.33279052734375,-1.0833902797460555,-1.8097294548302887,2.327856087589264
1780506595681783600,8.342783447265624,-1.3142781797379255,-1.6362737531095741,2.170726666769385
1780506595691775500,8.352775390625,-1.5149720169961451,-1.4903805965751409,2.0611475171536204
1780506595701767700,8.362767578125,-1.5642168171584605,-1.4951146393597126,1.9203619128912686
1780506595711759600,8.372759521484374,-1.4372288521021603,-1.3018664419323205,1.6726719311803577
1780506595721752600,8.382752685546874,-1.059701945644617,-1.4306500582337378,1.5318538859531283
1780506595731744800,8.392744873046874,-0.8473334526836872,-1.4841127683520317,1.1555682117283343
1780506595741736700,8.40273681640625,-0.6870283244371413,-1.5561083295047282,0.8232002974241972
1780506595751729700,8.412729736328124,-0.6024643736124038,-1.8814841929644346,0.7306742816790938
1780506595761721600,8.4227216796875,-0.6030225920170545,-2.1283365548074245,0.6743453684747218
1780506595771713800,8.4327138671875,-0.48399698414206505,-2.596825004172325,0.7497428470253944
1780506595781706500,8.44270654296875,-0.292106631064415,-3.065014178329706,0.781665048725903
1780506595791698700,8.45269873046875,-0.12997019573748111,-3.3247973334163428,0.6544739623129368
1780506595801690600,8.462690673828124,0.112799280706048,-3.3447143322855233,0.43475919824242587
1780506595811682800,8.472682861328124,0.34533670147061346,-3.341613443660736,0.1830626112386584
1780506595821675800,8.48267578125,0.30262393342554567,-3.339091816228628,-0.013243804715573787
1780506595831667700,8.492667724609374,0.1331429805546999,-3.3174726896166797,-0.196467159473896
1780506595841660000,8.502659912109374,0.10907353818118572,-3.2817472962409258,-0.23099340619295833
1780506595851652600,8.512652587890624,0.9821972656816244,-2.9072353536903854,-0.039705110661685465
1780506595861644800,8.522644775390624,1.822349282428622,-2.0490461604714394,-0.47066257853358984
1780506595871636700,8.53263671875,1.7984353228777645,-0.5520084440946579,-1.8718609168335794
1780506595881629700,8.542629638671874,5.728854617154598,3.110266109463572,-2.0932506283789873
1780506595891621600,8.55262158203125,8.27439717785716,7.659988683950901,-2.577953130441904
1780506595901613800,8.56261376953125,3.76956880710721,8.63978824084103,-3.349471171423793
1780506595911605500,8.57260546875,1.5688625971376895,6.667474606916308,-0.026679624871909616
1780506595921598700,8.5825986328125,5.393015227347612,4.113953906941414,2.40196966380924
1780506595931590700,8.592590576171874,2.497161099371314,0.8166904771387576,0.974784651337564
1780506595941582600,8.60258251953125,0.4164326834350824,-1.5087363374769687,0.1492640942722559
1780506595951575800,8.612575927734374,0.2091986307531595,-2.2850661626547573,0.16858400403112173
1780506595961567700,8.622567626953124,-5.144038712957501,-3.043790188515186,-0.1185462999254465
1780506595971559700,8.6325595703125,-3.917448753544688,-2.3689812941819426,3.3838343365356325
1780506595981552600,8.642552734375,-0.5558651195228099,-0.991021208128333,5.925673658806085
1780506595991544800,8.652544921875,1.3388415431082248,0.5277969629019499,5.070889305594563
1780506596001536500,8.66253662109375,-0.22830197515189646,2.2133353899180888,2.089547389946878
1780506596011528700,8.67252880859375,-1.055763437151909,3.5894781974166627,0.4611678972184658
1780506596021521700,8.682521728515624,-0.927829131156206,4.235679421424866,-0.7601455830961465
1780506596031513600,8.692513671875,-0.8825351144462823,4.243570466935634,-1.5101938428089021
1780506596041505500,8.702505615234376,-0.7909878806054592,3.839246738967299,-1.4838880196854471
1780506596051498800,8.712498779296874,-1.1463672526627777,2.8721693010061977,-1.3464233765393494
1780506596061490700,8.72249072265625,-1.5837439399272202,1.77141989018023,-1.0410188724845648
1780506596071482600,8.732482666015626,-1.7491209646105765,0.8981833499550819,-0.4897627080619335
1780506596081475800,8.742475830078124,-1.8205746739715336,0.2493716511875391,-0.03483896593004465
1780506596091467500,8.752467529296876,-1.9093021742165088,-0.06839198370277881,0.3320648397043347
1780506596101459700,8.762459716796876,-1.913691933608055,-0.13257716336548328,0.5982061316460371
1780506596111451600,8.77245166015625,-1.816116525518894,-0.1070394020050764,0.6546311987012624
1780506596121444600,8.782444580078124,-1.7247472785934805,-0.015502689558267592,0.5391317191258073
1780506596131436500,8.7924365234375,-1.5122133659377692,0.19064006075561046,0.2855991488665342
1780506596141428700,8.8024287109375,-1.2039654551506043,0.4612286874949932,-0.041321021425724025
1780506596151421700,8.812421630859374,-1.0666872744873166,0.6284083776861429,-0.5112319048091769
1780506596161413600,8.82241357421875,-1.020404539000988,0.7322691496551036,-0.8861863304302096
1780506596171405800,8.83240576171875,-0.9735992409452795,0.6921195100963116,-1.150508882512152
1780506596181398500,8.8423984375,-0.8981175912424921,0.5481850864142179,-1.2932631564989685
1780506596191390700,8.852390625,-0.8493196580648422,0.27054887925088406,-1.2111416303902864
1780506596201382700,8.862382568359376,-0.7398574128270149,-0.04547580301761627,-0.8806792574465274
1780506596211374800,8.872374755859376,-0.8645639889478683,-0.4511982918679714,-0.497040882371366
1780506596221367600,8.882367431640626,-1.0366294053539633,-0.8275655068963765,-0.0345078342795372
1780506596231359700,8.89235986328125,-1.4024293413996696,-1.062359766677022,0.37223639883399007
1780506596241351700,8.9023515625,-1.7881683420158923,-1.3276783440589903,0.6694526279971004
1780506596251344600,8.9123447265625,-1.7518550657495855,-1.6154244418263435,0.7697592146158218
1780506596261336600,8.922336669921876,-1.3986151899389923,-1.6747130816191433,0.5332534747421741
1780506596271328800,8.932328857421876,-1.0072165561258792,-1.6483610812664031,0.05208937593847513
1780506596281321700,8.94232177734375,-0.9561594458445906,-1.7435890494465827,-0.5964303541451692
1780506596291313700,8.952313720703126,-0.9226071587242185,-1.5896294908344746,-1.0125596707195044
1780506596301305900,8.962305908203126,-0.7728872835084796,-1.3383809398591517,-1.001558384233713
1780506596311297500,8.972297607421876,-0.7227192310214042,-1.1033476106256246,-0.8075576148733496
1780506596321290800,8.982290771484376,-0.12147314715757965,-0.7705997570931911,-0.18532763356119394
1780506596331282700,8.99228271484375,-0.11586261379942298,-0.5102852716088294,0.1965744192406535
1780506596341274600,9.002274658203126,-0.47859848609939215,-0.18560966537296772,0.6212187584429979
1780506596351267600,9.012267578125,-0.6835913357257842,0.0019008651852607725,1.0162190700098872
1780506596361259800,9.022259765625,-0.6001848843730986,-0.2824105819582939,1.1584332457706332
1780506596371251500,9.03225146484375,-0.12364420758634805,-0.5203425552427768,1.0604176926985383
1780506596381243600,9.04224365234375,0.21306743501052258,-0.5970113689035177,0.9167623782187699
1780506596391236900,9.05223681640625,0.1593230584066361,-0.6022995384395122,0.6200514682292938
1780506596401228500,9.062228515625,0.05894545237831771,-0.7833277212411165,0.412908600962162
1780506596411220700,9.072220703125,0.09628361471295356,-0.7098059734344482,0.11042319922447204
1780506596421213700,9.082213623046876,0.18872830885015426,-0.44187925938069816,-0.010225625938177108
1780506596431205600,9.09220556640625,0.14779402171969414,-0.6046791270524263,0.10344488464444875
1780506596441197600,9.102197509765626,-0.06014964053630829,-0.6500187364697456,0.23416589874923227
1780506596451190800,9.112190673828126,0.08797748559527098,-0.5776473277419805,0.38553748669475313
1780506596461182700,9.1221826171875,0.25144137013368306,-0.40360418152213096,0.48061231013983485
1780506596471174700,9.132174560546876,0.13968560713119804,-0.23284487927854058,0.6236722890749573
1780506596481166600,9.14216650390625,0.11969028232879936,-0.3061918550401926,0.6734782302513718
1780506596491159600,9.15215966796875,0.18314364058561622,-0.4297498456478119,0.31470804671198127
1780506596501151500,9.1621513671875,0.1645873356103897,-0.3009586305618286,-0.22155337767452
1780506596511143700,9.172143798828126,0.3326829716026783,-0.08880407261252403,-0.6802297503381967
1780506596521136600,9.18213671875,0.7845850278258323,-0.14306056345701218,-0.8995128449931741
1780506596531128600,9.192128662109376,1.446640239048004,-0.06397942795753479,-0.6590215426146984
1780506596541120800,9.202120849609376,1.7384160307228564,-0.021076105776429176,-0.5462511957421898
1780506596551113700,9.21211376953125,1.7158032168984412,-0.1600385862648487,-0.8708204189941287
1780506596561105700,9.222105712890626,1.1800830597817897,-0.5562345373570918,-1.3007196099847553
1780506596571097600,9.23209765625,0.8418822015404701,-0.8693845409721136,-1.2058221889331937
1780506596581089800,9.24208984375,0.6033177755713462,-0.9495838668465614,-0.6790902249142527
1780506596591082500,9.25208251953125,0.3138473382294178,-0.8384288462162017,-0.4354018800601363
1780506596601074700,9.26207470703125,0.3302542831510305,-0.5176829806447029,-0.3824021112784743
1780506596611066600,9.272066650390625,0.2031903302490711,-0.08731821796894072,-0.4789715571954846
1780506596621059600,9.2820595703125,0.1846475423425436,0.29735680667757985,-0.6575868336364626
1780506596631051300,9.29205126953125,0.5181237101495265,0.6938689841121435,-0.8862997276768088
1780506596641043200,9.302043212890625,0.8918681754589081,0.9574988777548075,-1.120866900703311
1780506596651036200,9.3120361328125,0.9939239438325166,1.2547989858090878,-1.2656032884180546
1780506596661028000,9.322028076171875,0.8779203141272067,1.4577216050326824,-1.6117442920088767
1780506596671020300,9.332020263671875,0.9427660035252571,1.6573171256601809,-2.1555606618195773
1780506596681012200,9.34201220703125,0.6897036811262369,1.7744640801817178,-2.626047591525316
1780506596691005200,9.352005126953125,0.3444067636767402,2.109797274032235,-2.9373496291860937
1780506596700997000,9.3619970703125,-0.34286651196479795,2.4168168120682236,-3.1713834259882567
1780506596710989300,9.3719892578125,-0.8068605725198984,2.70662744114995,-3.2155960772022603
1780506596720982300,9.381982177734375,-0.37974980667140334,2.837341148731112,-2.9508506235331295
1780506596730974200,9.39197412109375,0.5103583733776584,2.911929064464569,-2.6343846272379157
1780506596740966400,9.40196630859375,1.5451158108472822,3.31984117231369,-2.143364320330322
1780506596750959000,9.411958984375,2.0026444747805594,3.5531747118920087,-1.786034106466174
1780506596760951300,9.421951416015625,2.568152451917529,3.731964760378003,-1.5736238201901316
1780506596770943200,9.431943115234375,2.683698985505104,3.4954824013799426,-1.4039587429240346
1780506596780935200,9.44193505859375,2.7918250137031078,3.3334061718076464,-0.9843348622322082
1780506596790928100,9.45192822265625,2.775588164651394,3.087711163306236,-0.7807067250877618
1780506596800920300,9.46192041015625,2.3344939181685445,2.5481460211992264,-0.7042904248833656
1780506596810912300,9.471912353515625,1.85413266018033,2.035612678402662,-0.6292033274561166
1780506596820905200,9.4819052734375,1.7894553130865096,1.703830455031991,-0.6955626362875104
1780506596830897400,9.4918974609375,1.8798071996629238,1.412469673898816,-0.7157932311505079
1780506596840889000,9.50188916015625,1.599915907049179,1.0667419272840022,-0.7202376433387399
1780506596850881000,9.511881103515625,1.0818320174533873,0.7671312041997909,-0.8923430994942784
1780506596860874200,9.521874267578125,0.3538322156805545,0.4898889647901058,-1.1203230030849576
1780506596870866200,9.5318662109375,-0.457087788297981,-0.1724386336326599,-1.2953849709585308
1780506596880858000,9.541858154296875,-1.0366612617969513,-0.577885228151083,-0.8237553009584545
1780506596890851300,9.551851318359375,-1.4565747730851173,-0.807497116857767,-0.4474421542048454
1780506596900843300,9.56184326171875,-1.410528476703167,-1.0792705694675444,-0.16604922485649584
1780506596910835200,9.571835205078125,-1.2777636818110942,-1.0168950695753096,-0.025684184093773363
1780506596920828200,9.581828125,-0.8463385964274406,-0.6032166532844304,0.07259937226474285
1780506596930820400,9.5918203125,-0.4709858191385865,-0.11317045210599899,0.056284489540755746
1780506596940812000,9.60181201171875,-0.415338750718534,0.23654782544970512,0.5347042580723762
1780506596950804200,9.61180419921875,-0.4908301911629736,0.3642886546999216,0.9334656757384538
1780506596960797200,9.621797119140625,-0.12760112851858138,0.6545587179869413,1.0485177038073539
1780506596970789000,9.6317890625,-0.41039048066139217,0.5762888988703488,0.7878457831874489
1780506596980781300,9.64178125,-0.8043941824063658,0.4783715454757213,0.5798413306549192
1780506596990774300,9.651774169921875,-1.296321082764864,0.2698199804544449,0.43641631779968737
1780506597000766200,9.66176611328125,-1.4851543863594532,0.018708207601308823,0.36521482963413
1780506597010758100,9.671758056640625,-1.1290551755949854,-0.16819617375731466,0.17843436691612005
1780506597020751400,9.68175146484375,-1.257271513402462,-0.36949382212758064,0.07017652903199195
1780506597030743000,9.691742919921875,-1.418769650825858,-0.25690613834559917,0.6189423379436135
1780506597040735200,9.7017353515625,-1.7413745882675051,-0.3058212681621313,0.9836538942307234
1780506597050727200,9.71172705078125,-1.873685501912236,-0.38122225384414193,1.1108636853441596
1780506597060720000,9.72172021484375,-1.5212147107779979,-0.40953064896166325,1.1392083208188415
1780506597070712300,9.73171240234375,-1.491893046964705,-0.1606312914609909,0.844657511472702
1780506597080704300,9.741704345703125,-1.1949760930091142,0.39555531510114667,0.49831455556899307
1780506597090697200,9.751697265625,-0.23750614908784626,0.2506570148229599,0.21282558907866478
1780506597100689200,9.761689208984375,-0.4135337471231818,0.2685959916174412,0.5634112971186638
1780506597110681300,9.771681396484375,-1.0970926418840885,0.3700777594953775,0.8700771994113922
1780506597120674000,9.781674072265625,-1.657981142526865,0.2923059530287981,0.8446154258966445
1780506597130666200,9.791666259765625,-2.004012840524316,0.16327508396804333,0.7111854450941085
1780506597140658200,9.801658203125,-2.305117017036676,0.04876140055954456,0.4983329680085182
1780506597150650400,9.811650390625,-2.2142197715371847,-0.1756231088876724,0.6280477276802062
1780506597160643000,9.82164306640625,-2.1298089654475447,-0.4451812235355377,0.9327660030364989
1780506597170635300,9.83163525390625,-2.2011440168648955,-0.8075503083497285,1.0772592296451329
1780506597180627200,9.841627197265625,-2.0666081206470728,-1.484428994694352,1.3391501706659794
1780506597190620200,9.8516201171875,-1.820326252168417,-1.8253829510360955,1.6870049924373627
1780506597200612400,9.8616123046875,-1.545666430467367,-1.7922323765844106,2.1064485481262207
1780506597210604300,9.871604248046875,-1.3064566923320293,-1.7013696178764104,2.396741407766938
1780506597220596200,9.88159619140625,-1.3732763121515512,-1.8467805438518523,2.374902208663523
1780506597230589200,9.891589111328125,-1.4315180732399224,-1.8695447488456964,2.261819434840977
1780506597240581400,9.901581298828125,-1.198525309923291,-1.8547686199963092,2.0850313738271593
1780506597250573000,9.911572998046875,-1.189499122902751,-1.951502901086211,1.715109681676328
1780506597260566300,9.921566162109375,-1.274988956400752,-2.05689628944993,1.325235919342935
1780506597270558200,9.93155810546875,-0.992261563578248,-2.144937560996413,1.2925702057987452
1780506597280550100,9.941550048828125,-0.6558972731143236,-2.2077052750766275,1.1708771322801708
1780506597290542000,9.9515419921875,-0.42962826509475704,-2.5814170071601867,1.045799969281256
1780506597300535300,9.961535400390625,-0.19128829553127288,-2.7755215291559696,0.929158918455243
1780506597310527200,9.97152734375,-0.07910860802829266,-2.7238006942689417,0.5355114828020334
1780506597320519200,9.981519287109375,0.005191138902306556,-2.651439806935191,0.20298545532673595
1780506597330512400,9.991512451171875,0.05785656116306782,-2.795330391475558,0.03574994329512119
1780506597340504000,10.001504150390625,0.22225275811553,-2.9309008914381263,-0.1561675900503993
1780506597350496300,10.011496337890625,0.27252631680369377,-2.93831672065258,-0.5128773339286447
1780506597360489200,10.0214892578125,0.3956266267716884,-2.8290672413825986,-0.7307654670938849
1780506597370481200,10.031481201171875,0.6373404566824435,-2.5799738226145505,-0.47773587792068717
1780506597380473000,10.04147314453125,0.7638970445841551,-1.961732618677616,-0.14163929848223925
1780506597390465300,10.05146533203125,2.1592302902430296,-0.9284609993189573,0.1352244630038738
1780506597400458200,10.061458251953125,6.996148927399516,1.2182967628419399,-0.3187669667139649
1780506597410450200,10.0714501953125,9.527640166395901,4.664142734393478,-2.7361715155422686
1780506597420442000,10.081442138671875,1.1752730291515587,7.052933475416898,-6.303827757251263
1780506597430435000,10.09143505859375,2.5096219370156527,7.540678413915634,-3.577663548721373
1780506597440427300,10.10142724609375,1.3835241499215363,4.889383568409085,-2.056978414775431
1780506597450419200,10.111419189453125,-2.4565818362236023,1.3438088101267813,-1.5504326219558715
1780506597460412200,10.121412109375,0.3993395098149776,-0.227172678861022,1.2598282121479512
1780506597470404000,10.131404052734375,-0.38187574931681156,-1.3769406798779964,2.052683347930014
1780506597480396300,10.141396240234375,-0.3031581864327192,-1.944283471226692,2.1886358329474924
1780506597490388200,10.15138818359375,-1.9622858686462044,-1.8858786285310982,1.9729691752240062
1780506597500381200,10.161381103515625,-2.224922367337346,-1.0809691900789737,2.8370129396900534
1780506597510373000,10.171373046875,-1.774327594320476,0.05415536855757236,3.2024343978121874
1780506597520365300,10.181365234375,-1.679768026921153,1.1953595393687486,2.797815194028616
1780506597530358300,10.191358154296875,-1.3722054680496454,2.405085457742214,2.1676246091008187
1780506597540350200,10.20135009765625,-1.017767176234722,3.61581792280972,1.3121055118739604
1780506597550342400,10.21134228515625,-0.6272025090277195,4.460607536229491,0.4135454375609755
1780506597560334000,10.221333984375,-0.6792284643411636,4.765476033711433,-0.36508711160123347
1780506597570327300,10.231327392578125,-0.8254808095768094,4.445663065075874,-0.8524909815773367
1780506597580319200,10.2413193359375,-0.851490864624083,3.510815579590201,-1.0302689304113388
1780506597590311200,10.251311279296875,-1.0369181591674685,2.294212761184573,-0.9654536361515521
1780506597600304000,10.26130419921875,-0.9557134556427598,1.1780465855181217,-0.5900102579697967
1780506597610296300,10.27129638671875,-1.0039163455367088,0.23956571196615695,-0.15264613792598247
1780506597620288300,10.281288330078125,-1.1337263822764159,-0.40826632811427116,0.32157968604713677
1780506597630281200,10.29128125,-1.1733178034305571,-0.7464496506989001,0.7053641915947199
1780506597640273400,10.3012734375,-1.2795207546114922,-1.0586994906038045,0.953641033282876
1780506597650265300,10.311265380859375,-1.5306468482509255,-1.1049328339904545,1.201985094988346
1780506597660257300,10.32125732421875,-1.7281252305939792,-0.9835819980382918,1.2841437382370233
1780506597670250500,10.33125048828125,-1.417070737953484,-0.8445043667376041,1.1535200470268725
1780506597680242200,10.3412421875,-1.1634347073197364,-0.7892273006737232,0.916516002242267
1780506597690234000,10.351234130859375,-1.157097467122227,-0.813151781618595,0.5857336035639047
1780506597700227300,10.361227294921875,-1.1903021098487079,-0.7858779902458191,0.24253537542670964
1780506597710219300,10.37121923828125,-1.1006364519707859,-0.6460726291924714,-0.18716829299181698
1780506597720211200,10.381211181640625,-0.835997381285578,-0.5160147551715374,-0.6420253996282815
1780506597730203400,10.391203369140625,-0.726117641288042,-0.48941491753757,-0.8317524371922016
1780506597740196400,10.4011962890625,-0.9983259781837462,-0.5506535223543644,-0.8851464659884571
1780506597750188300,10.411188232421875,-0.9428772088147699,-0.8476385731101036,-0.8703472485244274
1780506597760180200,10.42118017578125,-0.6523439645469188,-1.25930798766613,-0.9991977925822139
1780506597770173200,10.431173095703125,-0.567635052293539,-1.644690868321061,-1.376663616502285
1780506597780165000,10.4411650390625,-0.5417055151365697,-1.8994056341022252,-1.595258728893101
1780506597790157300,10.4511572265625,-0.5567747817136347,-1.750638383436203,-1.4236609299987553
1780506597800150300,10.461150390625,-0.787099640995264,-1.4870447301506995,-0.7026482106342912
1780506597810142200,10.47114208984375,-0.759157302711159,-1.0567261447042227,0.23442367290258406
1780506597820134400,10.481134521484375,-0.2630488788843155,-0.6122136142104864,1.1338944323197007
1780506597830126300,10.491126220703125,0.34509470940828324,-0.4042342961192131,1.5774232124730945
1780506597840119300,10.501119384765625,0.6876445566393434,-0.2678004573255777,1.678693967948854
1780506597850111200,10.511111328125,0.22013671580962835,-0.034817630881071086,1.925019967830181
1780506597860103400,10.521103515625,0.3339361134689301,0.16279343793094156,1.8364836062431333
1780506597870096100,10.53109619140625,0.6696235275845974,0.0452174443423748,1.2118313662201166
1780506597880088300,10.54108837890625,0.5257411994159221,-0.2606365570455789,0.48922670148909086
1780506597890080300,10.551080322265625,0.6056558631300926,-0.381927187243104,-0.08465279815196991
1780506597900072400,10.561072509765625,0.2846878792405128,-0.5314379497528076,-0.9277347308710217
1780506597910065400,10.5710654296875,-0.03513100767917931,-0.6643079585850239,-0.9406152552321553
1780506597920057300,10.581057373046875,0.020276991287991403,-0.5944792200773954,-0.4249088353574276
1780506597930049500,10.591049560546875,0.250181214004755,-0.3102081049442291,0.009570376899838447
1780506597940042200,10.601042236328125,0.47406011201739306,-0.11567746649086474,-0.012689970225095748
1780506597950034400,10.611034423828125,0.7628174326539039,0.013190320962667465,-0.2664960967287421
1780506597960026400,10.6210263671875,0.9913935485720634,0.09693068044483662,-0.6922627179592847
1780506597970019300,10.631019287109375,1.0254746818721294,-0.14109072468876838,-1.0130927546828985
1780506597980011300,10.64101123046875,0.9236626591265201,-0.3828723591387272,-1.285869246855378
1780506597990003500,10.65100341796875,0.7956956199049949,-0.4972182847648859,-1.6713208088323472
1780506597999995100,10.6609951171875,0.762379041236639,-0.6777332573473454,-1.8623276570737362
1780506598009988400,10.67098828125,0.9006102848410605,-0.656534401974082,-1.5962296197518706
1780506598019980300,10.680980224609375,0.9704127198636531,-0.580251957282424,-1.1064499605551361
1780506598029972200,10.69097216796875,1.099255372875929,-0.4649971001178026,-0.8299033021941781
1780506598039965400,10.70096533203125,1.4328770866334437,-0.1860714376658201,-0.8401321430027484
1780506598049957400,10.710957275390625,1.3957073396682738,-0.041243864536285396,-1.1475523707941173
1780506598059949300,10.72094921875,1.3079612516760826,0.06941898866295815,-1.4553750419065354
1780506598069941200,10.730941162109374,1.3094073588311672,0.20637948167920112,-1.5234402778729796
1780506598079934500,10.7409345703125,1.2608324207544326,0.37128830432891846,-1.489555836188793
1780506598089926100,10.750926025390624,0.8428419864833354,0.42008536072373387,-1.421996211656928
1780506598099918300,10.76091845703125,0.36582886987924573,0.5944961712121963,-1.3273220779672263
1780506598109911300,10.770911376953125,0.005031568992999382,0.9880798939794302,-1.189120352718234
1780506598119903200,10.7809033203125,-0.19197920040488242,1.4518512516945599,-1.39237614941895
1780506598129895200,10.790895263671874,-0.3398205683976412,1.9254723877727984,-1.7170888727948068
1780506598139888400,10.800888427734375,-0.0949999955100473,2.533365800696611,-2.285415999005735
1780506598149880300,10.81088037109375,-0.43777942284643645,2.9514772309988735,-2.8922797766208648
1780506598159872300,10.820872314453124,-0.539130257821083,3.16258374119997,-3.2124326447352765
1780506598169864400,10.830864501953124,0.21558511691987514,3.404167222729325,-3.0195161634802816
1780506598179857200,10.840857177734375,1.3871446785062551,3.4340918208718296,-2.148279564900696
1780506598189849300,10.850849365234374,2.2667320490628478,3.4612376019507645,-0.8713973420992494
1780506598199841300,10.86084130859375,2.736301279401779,3.514543660202622,-0.20643968743383884
1780506598209834200,10.870834228515625,2.555850604227185,3.374564696148038,0.33183629164546724
1780506598219826200,10.880826171875,2.536651982760429,3.3987276620239015,0.4788014613255858
1780506598229818400,10.890818359375,2.431067455738783,3.3969378559976815,0.4747986554250121
1780506598239810300,10.900810302734374,2.0403437985777853,3.3930466937780377,0.3984232717528939
1780506598249803300,10.91080322265625,1.711084956204891,2.973712443682551,0.18989421082437039
1780506598259795200,10.920795166015624,1.4908382772147655,2.470213471212983,0.0415855175808072
1780506598269787400,10.930787353515624,1.4352034837543963,1.9607406850308178,-0.2713222017109394
1780506598279780400,10.9407802734375,1.1641535961788148,1.4332973578721284,-0.736427438378334
1780506598289772300,10.950772216796874,0.7076854741491377,1.040854037311673,-1.0696893789127468
1780506598299764500,10.960764404296874,-0.36768399622663855,0.6796411367952824,-1.2545958644524215
1780506598309756200,10.970756103515624,-1.339649498490244,0.40488136185109613,-1.3503066477134824
1780506598319749400,10.980749267578124,-1.760851149892807,0.09355331296622753,-0.3612219606056809
1780506598329741300,10.9907412109375,-1.567554437148571,0.2948743422120809,1.026922834853828
1780506598339733200,11.000733154296874,-1.5468566631652414,0.30259529185295103,0.6794672415331006
1780506598349726200,11.010726318359374,-0.6269150703884661,0.24579613078832624,0.9109609984636307
1780506598359718400,11.020718505859374,-0.0030906594917178153,0.11677636764347553,0.9446730061903595
1780506598369710000,11.0307099609375,0.017084698052704333,-0.18628595719933508,0.26576339854001996
1780506598379702300,11.040702392578124,0.2976189647451043,-0.08739303677082061,-0.006840075153112411
1780506598389695500,11.050695556640624,0.30695582515001296,-0.1728659191340208,0.038463878428936005
1780506598399687200,11.060687255859374,-0.5567220286130905,-0.5308136803746223,0.599315846453607
1780506598409679400,11.070679443359374,-1.690034861652553,-0.5825795234471559,1.7148250195160508
1780506598419672300,11.08067236328125,-2.5199890172511337,-1.1538766053795815,1.6771759646013378
1780506598429664300,11.090664306640624,-3.0690745596364137,-1.3133219019263982,1.44214380441159
1780506598439656200,11.10065625,-1.5743027423650024,-1.3352087395638226,1.2888359877064823
1780506598449649400,11.1106494140625,-0.7412047357827425,-0.7340864282101393,1.3193021453797817
1780506598459641300,11.120641357421874,-0.7088207617893815,-0.507425206002593,1.465059108313918
1780506598469633300,11.13063330078125,-0.6378142116740345,-0.2526338678538799,1.5159633661210536
1780506598479625200,11.140625244140624,-0.5110273221477866,0.08060381502211093,0.6181792446166277
1780506598489618200,11.1506181640625,-0.7076917577594518,-0.0687456194460392,-0.37530806136429307
1780506598499610000,11.160610107421874,-1.3946172063440083,0.2174123323470354,-0.3590320493459701
1780506598509602300,11.170602294921874,-1.9249150461509823,0.3215840699613094,0.2055699188619852
1780506598519595300,11.18059521484375,-2.2406389919072387,0.20880992369651794,0.3470277232974768
1780506598529587200,11.190587158203124,-1.9660376223951577,0.09472060317993164,0.4896557405561208
1780506598539579400,11.200579345703124,-1.9377631295472382,0.03312134835720062,0.8537035722374916
1780506598549571300,11.2105712890625,-1.890470632496476,-0.09128069185912609,0.8817425027638673
1780506598559564300,11.220564208984374,-1.932405401906371,-0.23971301148235796,1.1359978343397379
1780506598569556200,11.23055615234375,-1.915810825458169,-0.3822019125312566,1.7464263186991213
1780506598579548400,11.24054833984375,-1.8112006964266298,-0.6207593242377042,2.4570816024392843
1780506598589541000,11.250541015625,-1.8240958338350057,-1.069511976519227,2.836480732509494
1780506598599533300,11.260533203125,-1.5358797804683446,-1.6416291426628826,3.054697366976738
1780506598609525200,11.270525146484376,-1.3154331949919462,-1.714248388671875,2.831196654626727
1780506598619517400,11.280517333984376,-1.4633920518845318,-1.2688356944680212,2.4344553446114063
1780506598629511000,11.290510986328124,-1.5224533126622437,-1.292495971518755,2.2539500166401267
1780506598639502800,11.3005029296875,-1.493623524019122,-1.5357868414878844,2.2497131097227334
1780506598649494800,11.310494873046874,-1.2565098813802003,-1.778348228138685,2.0117080712020394
1780506598659487700,11.32048779296875,-0.6607546500176191,-2.07545310588181,1.7776847957938908
1780506598669480000,11.33047998046875,-0.09767360776662826,-2.287659101757407,1.6230521602258086
1780506598679471600,11.3404716796875,0.21029110216498373,-2.2706880932122466,1.2435945779666304
1780506598689463800,11.3504638671875,0.23940730653405187,-2.1855419585853815,0.47485593857020136
1780506598699456800,11.360456787109374,-0.06650222443342209,-2.3520909496575593,-0.240173614731431
1780506598709448700,11.37044873046875,-0.5654851807832717,-2.584165429085493,-0.6793272485405206
1780506598719440600,11.380440673828126,-0.857248112976551,-2.890483540853858,-0.8180670261889695
1780506598729433900,11.390433837890624,-0.7298299398094416,-3.167520613080263,-0.7232917702123522
1780506598739425800,11.40042578125,-0.4918535428613424,-3.423285764697194,-0.581460456289351
1780506598749417700,11.410417724609376,-0.14381868834793568,-3.6055350137263535,-0.5870923246964812
1780506598759411000,11.420410888671874,0.31036767942011356,-3.63547539395988,-0.6861842748284339
1780506598769402600,11.430402587890624,0.6821031429946423,-3.4122178427159784,-0.76462448207587
1780506598779394800,11.440394775390626,0.39045711517930026,-2.9729917281925675,-0.670383771367371
1780506598789386800,11.45038671875,1.5317337667047977,-1.8127496794342994,0.43663843611776826
1780506598799379700,11.460379638671874,4.9724774466812605,0.27692192141413685,1.582828578647971
1780506598809371600,11.47037158203125,5.674971635797619,3.0147365279883145,0.5071931508123875
1780506598819363800,11.48036376953125,1.9758026450842618,5.2980602308899165,-2.4295120429903267
1780506598829356800,11.490356689453124,4.787973112201691,7.5106123614758244,-2.2804762045159936
1780506598839348700,11.5003486328125,2.314129175531864,7.084545003733038,-4.19899570441097
1780506598849341000,11.5103408203125,-2.164907751357555,4.700403549820185,-4.908985509979725
1780506598859332900,11.520332763671876,0.10653612865805626,2.935397618335485,-1.0737149811670184
1780506598869325800,11.530325927734374,-0.32089374960958955,0.7535831558406353,1.4056222922220825
1780506598879317800,11.54031787109375,-0.037319969090819353,-0.77390289029181,2.48429986423254
1780506598889310000,11.55031005859375,-1.2082575993865727,-1.4611205998212098,2.359681550917029
1780506598899302700,11.560302734375,-1.4336404722213745,-1.323846803072095,2.6735359034091233
1780506598909294800,11.570294921875,-1.3339783209860323,-0.6590536913186311,2.712999606530368
1780506598919286800,11.580286865234376,-1.7513848178893328,-0.08125555692911147,2.233622391143441
1780506598929279000,11.590279052734376,-1.4559358906596898,0.8013327490091323,2.1818638545945284
1780506598939271700,11.600271728515626,-1.1808160502314566,1.7877338961213827,1.9512205770134925
1780506598949264000,11.610263916015626,-1.1885650569230317,2.555918408766389,1.4009379337981342
1780506598959255800,11.620255859375,-1.0980196936011313,3.1505951972424984,0.7025932655766606
1780506598969248800,11.630248779296876,-1.1387208295628428,3.5558880625039335,-0.1438885387137532
1780506598979241000,11.640240966796876,-1.0967021812617779,3.5487978119820354,-0.980534300905466
1780506598989233000,11.65023291015625,-1.072016652816534,2.987470919921994,-1.6694351412162183
1780506598999224800,11.660224853515626,-1.0340215609431267,2.1035960813045502,-1.9262357733607292
1780506599009217800,11.6702177734375,-1.082889636747539,1.0921037475556135,-1.868189827105403
1780506599019210000,11.6802099609375,-1.0108233484461904,0.17671441125571727,-1.5897282750338315
1780506599029201700,11.69020166015625,-0.8163090766057371,-0.5000070387005806,-1.088001572933793
1780506599039195000,11.70019482421875,-0.6409165616035462,-0.9730360541045665,-0.4748953937977552
1780506599049186800,11.710186767578126,-0.7853323390617967,-1.112172137594223,0.07369973472207784
1780506599059178800,11.7201787109375,-1.1088406550839542,-1.0817039340943098,0.44714287899732585
1780506599069170700,11.730170654296876,-1.3443772576645017,-1.1912860063195228,0.6559127629444003
1780506599079164000,11.740163818359376,-1.3719314734138548,-1.3577145858824253,0.6588315730005503
1780506599089155800,11.75015576171875,-1.3781542934514581,-1.4861772996664047,0.47185909484177824
1780506599099147800,11.760147705078126,-1.5772564776040612,-1.2906032896399497,0.25741730273813007
1780506599109141000,11.77014111328125,-1.3249090254761278,-1.0396090056866407,0.04058043219149112
1780506599119132700,11.780132568359376,-0.9531167171478271,-0.9549655598849057,-0.17255261540114877
1780506599129124900,11.790124755859376,-0.8566508777357638,-0.9535200372517109,-0.4407210292562842
1780506599139116800,11.80011669921875,-0.928483795672655,-0.9685007487624883,-0.5818862804859877
1780506599149109800,11.81010986328125,-0.8759551515340804,-0.9997311688065529,-0.6104927817672491
1780506599159101700,11.820101806640626,-1.046010251031071,-1.1704951472252607,-0.7366051330327987
1780506599169094000,11.830093994140626,-1.16636097002998,-1.3165472937136888,-0.9935013345062732
1780506599179086600,11.840086669921876,-0.9634570555068552,-1.2846838364630937,-1.053778693075478
1780506599189078800,11.850078857421876,-0.875530788642168,-1.225258418548107,-0.913906988787651
1780506599199070700,11.86007080078125,-0.7675695956170558,-1.097683008992672,-0.23506840054690836
1780506599209063000,11.87006298828125,-0.48276115873679515,-0.9738397717028856,0.8820753879800438
1780506599219055900,11.880055908203126,-0.10949965463876724,-1.0922083769738673,1.161365207569301
1780506599229047800,11.8900478515625,0.20084391325339673,-0.9507552487134933,1.4180784536913036
1780506599239040000,11.9000400390625,0.16218845777511595,-0.7885621147632599,1.391016259242594
1780506599249032700,11.91003271484375,0.05514496411681175,-0.7605202616274357,1.3261577103629707
1780506599259025000,11.92002490234375,0.1182053775332868,-0.5350672461658715,1.2271268427684903
1780506599269016800,11.930016845703125,-0.12625205199718476,-0.3667372168958187,0.9356111633345484
1780506599279008800,11.9400087890625,-0.1328676707446575,-0.30584055738449095,0.5359779312700033
1780506599289001700,11.950001708984376,0.08476626846380532,0.22024141829311847,0.4711418864831328
1780506599298994000,11.959993896484375,0.0821697491645813,0.5999497604429721,0.26673691974729297
1780506599308985600,11.969985595703125,0.4613164388436824,0.7327882050931454,0.24110680392831563
1780506599318978800,11.979978759765626,0.5326596005022526,0.7380787127166986,0.2067351632490754
1780506599328971000,11.989970947265626,0.5867197650570422,0.2693091083228588,-0.2649649416387081
1780506599338962700,11.999962646484375,0.8363456102013588,-0.4249135115325451,-0.9710767367303371
1780506599348955000,12.009954833984375,0.728115610172227,-0.7140192072153091,-1.3559274102047085
1780506599358947800,12.01994775390625,0.5644190493891015,-0.7404910345554352,-1.3358064131960272
1780506599368939800,12.029939697265625,0.4391244077146053,-0.8060521787464618,-1.347776252453029
1780506599378931700,12.039931640625,0.5748573682298883,-0.6730068133473396,-1.2599603140950202
1780506599388925000,12.049925048828126,0.8278045763492584,-0.4688263030171394,-1.242843759599328
1780506599398916600,12.05991650390625,1.0926070209026335,-0.4162555733025074,-1.3471397081151604
1780506599408908800,12.06990869140625,1.2657353903651236,-0.48313773696422574,-1.4917328879669307
1780506599418900700,12.079900634765625,1.1050538300216197,-0.6809831990540027,-1.904212157601118
1780506599428893700,12.089893798828125,1.0276783293962477,-0.8190876014083623,-2.118557503592968
1780506599438885600,12.0998857421875,1.0192179595649242,-0.9197147982835769,-2.154387818647921
1780506599448877800,12.1098779296875,0.8434966509997844,-0.8756582144141196,-1.9704367341369389
1780506599458869800,12.119869873046875,0.5441559770286083,-0.6319634398192167,-1.6496522901207207
1780506599468862700,12.12986279296875,0.16900281396508215,-0.334494404938817,-1.372638598769903
1780506599478855000,12.13985498046875,0.26820436195135117,0.11082067410945892,-1.1154764398366213
1780506599488846800,12.149846923828125,0.3157686616808176,0.4406622848063707,-0.9616244332522154
1780506599498839800,12.15983984375,0.6474632067680358,0.6962894892573356,-0.9732681092947721
1780506599508831700,12.169831787109375,0.996731986990571,0.8923287787079811,-1.105534599275887
1780506599518824000,12.179823974609375,0.8740414268672466,1.0024901121258736,-1.3373521813333034
1780506599528815900,12.18981591796875,0.7082873855650424,1.3839590342074632,-1.9166177579268813
1780506599538808800,12.199808837890625,0.24049102838383987,1.8528993189930916,-2.432680151632428
1780506599548800800,12.20980078125,-0.005140906552411615,2.6020424465596674,-2.7662361066773533
1780506599558792700,12.219792724609375,0.425178263415955,3.606889935466647,-3.2361551733672616
1780506599568786000,12.229785888671875,0.8688035262137651,4.386358643192053,-3.1526614821225403
1780506599578777900,12.23977783203125,1.5980793392717838,4.853053779399395,-2.758229618093371
1780506599588769800,12.249769775390625,1.8761030844479798,4.786362754395604,-2.237710244978964
1780506599598761700,12.25976171875,1.7115426368445157,4.403054926449061,-1.3737433451414107
1780506599608755000,12.2697548828125,1.475281227120757,3.9809441973775623,-0.6203305774316191
1780506599618747000,12.279746826171875,1.717262183535099,3.5993840898811813,0.16361936736106872
1780506599628738800,12.28973876953125,2.0555612414538857,3.389333810734749,0.6282262991175055
1780506599638730500,12.29973046875,2.1354256362855435,3.078121497184038,0.6199336870685219
1780506599648722700,12.30972265625,1.9725322451114653,2.5347213069587946,0.3064306322321296
1780506599658714600,12.319714599609375,1.6953052032709122,1.805678133612871,0.08154927917867899
1780506599668706600,12.32970654296875,1.1386357816278934,1.1007008955091238,-0.1422398947238922
1780506599678699500,12.339699462890625,0.37341479496359825,0.43937984378039835,-0.5966366903722286
1780506599688691700,12.349691650390625,-0.386774700339511,0.07663841852247714,-1.2451175497502087
1780506599698683400,12.359683349609375,-0.686442487373203,-0.10499299086928367,-1.4917141832664609
1780506599708676600,12.369676513671875,-0.9202632259465754,0.005164250895380974,-0.9194564396083355
1780506599718668800,12.379668701171875,-1.1750143782153726,0.6402239031642675,0.01933481506705284
1780506599728660500,12.389660400390625,-1.5033068597741424,1.1665618994295597,0.209550220669806
1780506599738652700,12.399652587890625,-1.5009189417243003,1.0708177984207867,0.3148264123946428
1780506599748645600,12.409645751953125,-1.1411091860041023,0.4482055397927761,0.6131392046228051
1780506599758637600,12.419637451171875,-0.3822419522807002,0.14576222363114355,0.9045312576770782
1780506599768629500,12.42962939453125,0.31651188126355406,-0.1491238090187311,0.8177686277642846
1780506599778621700,12.43962158203125,-0.20416151336878538,-0.26824878561496734,1.1182082028880715
1780506599788614400,12.449614501953125,-0.8252972697034477,-0.1722913341164589,1.469703134727478
1780506599798606600,12.459606689453125,-0.9748799284055828,-0.025887889972329138,1.814419366212189
1780506599808598500,12.4695986328125,-1.2049997666344046,-0.041937107497453684,1.8944073874235152
1780506599818591500,12.479591552734375,-1.2215011118412018,-0.008217208725214004,1.9077037991091608
1780506599828583400,12.48958349609375,-1.35000357311368,0.1710842964142561,1.8160002056628464
1780506599838575600,12.49957568359375,-1.4766355643391609,0.2745160293161869,1.5081620447203516
1780506599848567600,12.509567626953125,-1.2392913278147577,0.13516717985868454,1.0032146270081401
1780506599858560500,12.519560546875,-1.4092647403776646,0.3856844939500093,0.9422297046914696
1780506599868552700,12.529552734375,-1.54478438693583,0.5108908362865447,1.100761978046596
1780506599878544600,12.539544677734375,-1.816258564338088,0.2897270424515009,0.9350497300595044
1780506599888537600,12.54953759765625,-1.632892878499627,0.48117140532732006,0.7478107099190354
1780506599898529500,12.559529541015625,-0.861449948580563,-0.08937865763008594,0.5161494874671101
1780506599908521700,12.569521728515625,-0.86013126719743,-0.10233867696821689,0.5517261200219392
1780506599918513700,12.579513671875,-1.009348891979456,-0.10534311948120594,0.4221843788295984
