time,seconds_elapsed,z,y,x
1780506587398179600,0.0591796875,0.02367250621318817,-0.22762438654899597,0.257087767124176
1780506587408171500,0.069171630859375,0.024386873468756676,-0.19004791975021362,0.39997246861457825
1780506587418164500,0.07916455078125,0.06874635070562363,-0.1770210713148117,0.5771757960319519
1780506587428156400,0.089156494140625,-0.03304532170295715,-0.17370837926864624,0.7428354024887085
1780506587438148600,0.099148681640625,-0.245123490691185,-0.015391702763736248,0.8986971974372864
1780506587448140300,0.109140380859375,-0.4577028453350067,0.1729048490524292,1.0109554529190063
1780506587458133500,0.119133544921875,-0.7470182776451111,0.2192169576883316,1.072985291481018
1780506587468125400,0.12912548828125,-1.1505143642425537,0.08083496987819672,1.0894651412963867
1780506587478117400,0.139117431640625,-1.5518513917922974,-0.2082975059747696,1.0054298639297485
1780506587488109300,0.149109375,-1.8907617330551147,-0.4983387887477875,0.8249289989471436
1780506587498102500,0.1591025390625,-2.0662989616394043,-0.6771066188812256,0.6154346466064453
1780506587508094200,0.16909423828125,-2.056574583053589,-0.7307450175285339,0.3945724070072174
1780506587518086400,0.17908642578125,-1.966141939163208,-0.5371561050415039,0.1569681018590927
1780506587528078300,0.189078369140625,-1.7974395751953125,-0.1370219886302948,-0.11440037190914154
1780506587538071300,0.1990712890625,-1.5324592590332031,0.47648561000823975,-0.47156062722206116
1780506587548063500,0.2090634765625,-1.2001986503601074,0.7796344757080078,-0.8055643439292908
1780506587558055400,0.219055419921875,-0.859891951084137,0.7673360109329224,-1.0579172372817993
1780506587568047600,0.229047607421875,-0.519629955291748,0.659420907497406,-1.2471930980682373
1780506587578040300,0.239040283203125,-0.13398346304893494,0.5345740914344788,-1.2769815921783447
1780506587588032500,0.249032470703125,0.2594132125377655,0.38599395751953125,-1.0886828899383545
1780506587598024400,0.2590244140625,0.35867029428482056,0.2062460333108902,-0.7367711067199707
1780506587608017400,0.269017333984375,0.24307087063789368,0.1643003672361374,-0.29703959822654724
1780506587618008300,0.27900830078125,0.09757544845342636,0.2095583975315094,0.12979640066623688
1780506587628000500,0.28900048828125,0.05389085039496422,0.12123705446720123,0.482963889837265
1780506587637992400,0.298992431640625,0.15118518471717834,-0.1744164228439331,0.7284718751907349
1780506587647985400,0.3089853515625,0.2775280773639679,-0.4468437433242798,0.8565107583999634
1780506587657977600,0.3189775390625,0.32207661867141724,-0.4580862820148468,0.8704928755760193
1780506587667969500,0.328969482421875,0.30721694231033325,-0.32275259494781494,0.7591497898101807
1780506587677961500,0.33896142578125,0.26026859879493713,-0.18630659580230713,0.5158823132514954
1780506587687954400,0.348954345703125,0.20503346621990204,0.029917797073721886,0.18460747599601746
1780506587697946600,0.358946533203125,0.18570184707641602,0.2625582218170166,-0.1480405181646347
1780506587707938600,0.3689384765625,0.1800154447555542,0.4219052791595459,-0.44975998997688293
1780506587717930500,0.378930419921875,0.16077490150928497,0.479615718126297,-0.6858060956001282
1780506587727923500,0.38892333984375,0.14674659073352814,0.48895588517189026,-0.8097229599952698
1780506587737915400,0.398915283203125,0.14419688284397125,0.42335769534111023,-0.8255267143249512
1780506587747907300,0.4089072265625,0.1641150414943695,0.2729956805706024,-0.7536964416503906
1780506587757899500,0.4188994140625,0.1641443371772766,0.1071835532784462,-0.6186837553977966
1780506587767892500,0.428892578125,0.11754941940307617,-0.007586702238768339,-0.45955580472946167
1780506587777884400,0.438884521484375,0.07849070429801941,-0.09778983145952225,-0.30608421564102173
1780506587787876400,0.44887646484375,0.05784185603260994,-0.12426432222127914,-0.2099149078130722
1780506587797868500,0.45886865234375,0.05586765334010124,-0.08334032446146011,-0.1860324889421463
1780506587807861500,0.468861572265625,0.06782767921686172,0.009573109447956085,-0.2257571816444397
1780506587817853400,0.478853515625,0.10083595663309097,0.18607331812381744,-0.3160516321659088
1780506587827845600,0.488845703125,0.10204515606164932,0.5778676867485046,-0.36896952986717224
1780506587837838300,0.49883837890625,0.09915322810411453,0.2938723862171173,-0.49195244908332825
1780506587847830500,0.50883056640625,0.11447866261005402,-0.004709090571850538,-0.558849036693573
1780506587857822500,0.518822509765625,0.1297183334827423,-0.06026076525449753,-0.5571787357330322
1780506587867814700,0.528814697265625,0.1288212537765503,-0.046628374606370926,-0.5041515231132507
1780506587877807400,0.538807373046875,0.08512357622385025,0.059394728392362595,-0.401178777217865
1780506587887799600,0.548799560546875,0.061030734330415726,0.24201834201812744,-0.23851855099201202
1780506587897791500,0.55879150390625,0.11595311015844345,0.1387747824192047,-0.09755610674619675
1780506587907783400,0.568783447265625,0.10181064903736115,-0.15647046267986298,-0.046016521751880646
1780506587917776600,0.578776611328125,0.08217968791723251,-0.34991130232810974,0.006849357858300209
1780506587927768600,0.5887685546875,0.08863627165555954,-0.4588986337184906,0.05248120799660683
1780506587937760300,0.59876025390625,0.1573500782251358,-0.5975036025047302,0.06343478709459305
1780506587947752400,0.60875244140625,0.2871074676513672,-0.7296803593635559,0.07111915946006775
1780506587957745700,0.61874560546875,0.42241230607032776,-0.7597887516021729,0.11573802679777145
1780506587967737300,0.6287373046875,0.5154281258583069,-0.6330062747001648,0.21075189113616943
1780506587977729500,0.6387294921875,0.5712215900421143,-0.5226608514785767,0.35835838317871094
1780506587987722500,0.648722412109375,0.6479573845863342,-0.4880783259868622,0.5411971807479858
1780506587997714400,0.65871435546875,0.7782599925994873,-0.5091348886489868,0.6784213781356812
1780506588007706400,0.668706298828125,0.8610649108886719,-0.5868551731109619,0.7250497341156006
1780506588017698600,0.678698486328125,0.8824034929275513,-0.6849157214164734,0.6743394732475281
1780506588027691300,0.688691162109375,0.9038558602333069,-0.8201051950454712,0.5811713337898254
1780506588037683500,0.698683349609375,0.944263756275177,-0.9538366794586182,0.4637698233127594
1780506588047675400,0.70867529296875,0.9800419211387634,-0.9227885603904724,0.36969584226608276
1780506588057667600,0.71866748046875,0.9747057557106018,-0.5973058342933655,0.3145902454853058
1780506588067660500,0.72866064453125,0.9029591679573059,-0.21274565160274506,0.2999391257762909
1780506588077652500,0.738652587890625,0.7599066495895386,0.10235290974378586,0.29362156987190247
1780506588087644700,0.748644775390625,0.574830949306488,0.3002622127532959,0.274502694606781
1780506588097636400,0.75863623046875,0.3844048082828522,0.4788798987865448,0.2507654130458832
1780506588107629600,0.768629638671875,0.19272911548614502,0.570997416973114,0.2356017678976059
1780506588117621500,0.77862158203125,0.0009245285764336586,0.512856662273407,0.22494672238826752
1780506588127613400,0.788613525390625,-0.19251468777656555,0.25030848383903503,0.21003983914852142
1780506588137605400,0.79860546875,-0.38362953066825867,-0.19521544873714447,0.19527287781238556
1780506588147598600,0.8085986328125,-0.5361030101776123,-0.6692874431610107,0.1978566199541092
1780506588157590300,0.81859033203125,-0.6317219138145447,-0.9539095759391785,0.20932498574256897
1780506588167582500,0.82858251953125,-0.6936039924621582,-0.9923132061958313,0.22099125385284424
1780506588177575400,0.838575439453125,-0.7589457035064697,-0.8557060956954956,0.21408115327358246
1780506588187567400,0.8485673828125,-0.8486841917037964,-0.6294163465499878,0.17689330875873566
1780506588197559300,0.858559326171875,-0.9501607418060303,-0.3150957226753235,0.11434392631053925
1780506588207551500,0.868551513671875,-0.9946473240852356,-0.13489805161952972,0.003302151570096612
1780506588217544400,0.87854443359375,-0.8807295560836792,-0.13545624911785126,-0.14883306622505188
1780506588227536400,0.888536376953125,-0.6091704964637756,-0.3150613009929657,-0.3187602758407593
1780506588237528600,0.898528564453125,-0.3281913101673126,-0.5363795757293701,-0.42590564489364624
1780506588247520500,0.9085205078125,-0.11945579946041107,-0.6604793667793274,-0.4218082129955292
1780506588257513500,0.918513427734375,-0.018845301121473312,-0.7032715678215027,-0.33416280150413513
1780506588267505400,0.92850537109375,-0.06415072083473206,-0.7464172840118408,-0.24934177100658417
1780506588277497600,0.93849755859375,-0.19949603080749512,-0.8446397185325623,-0.23081761598587036
1780506588287489500,0.948489501953125,-0.317399263381958,-1.0244220495224,-0.2934044301509857
1780506588297482500,0.958482421875,-0.37183159589767456,-1.230302333831787,-0.3954509198665619
1780506588307474400,0.968474365234375,-0.39169541001319885,-1.1885273456573486,-0.471579909324646
1780506588317466600,0.978466552734375,-0.3796401023864746,-0.8880645036697388,-0.5099424719810486
1780506588327458300,0.988458251953125,-0.3363741338253021,-0.4757629632949829,-0.5143301486968994
1780506588337451500,0.998451416015625,-0.27952444553375244,0.0011026584543287754,-0.4254212975502014
1780506588347443500,1.008443359375,-0.24675488471984863,-0.029324552044272423,-0.3808775544166565
1780506588357435400,1.018435302734375,-0.1935121715068817,-0.14062631130218506,-0.29887086153030396
1780506588367428600,1.0284287109375,-0.12890256941318512,-0.17430385947227478,-0.15535977482795715
1780506588377420500,1.038420654296875,-0.08926380425691605,-0.2223597913980484,-0.037171605974435806
1780506588387412500,1.04841259765625,-0.10443783551454544,-0.16696597635746002,-0.021873552352190018
1780506588397404400,1.058404296875,-0.17205868661403656,-0.06414478272199631,-0.06213095784187317
1780506588407397600,1.068397705078125,-0.24685943126678467,0.03286338225007057,-0.11679568141698837
1780506588417389300,1.078389404296875,-0.2427179515361786,-0.12106652557849884,-0.360371857881546
1780506588427381500,1.088381591796875,-0.1942613273859024,-0.14059661328792572,-0.5596684813499451
1780506588437373400,1.09837353515625,-0.11030837148427963,0.08483277261257172,-0.6191445589065552
1780506588447366400,1.108366455078125,0.03805660828948021,0.522234320640564,-0.5772596597671509
1780506588457358300,1.1183583984375,0.21232108771800995,0.9523372650146484,-0.42911019921302795
1780506588467350500,1.1283505859375,0.12214964628219604,0.6831792593002319,-0.29317712783813477
1780506588477342500,1.138342529296875,0.053616661578416824,0.24741236865520477,-0.2327401489019394
1780506588487335400,1.14833544921875,0.033542145043611526,0.1323522925376892,-0.10445629060268402
1780506588497327600,1.15832763671875,-0.13593849539756775,0.09058912843465805,0.021934138610959053
1780506588507319600,1.168319580078125,-0.32833802700042725,0.08784181624650955,0.039157066494226456
1780506588517312500,1.1783125,-0.35591480135917664,0.10740965604782104,-0.08661896735429764
1780506588527304400,1.188304443359375,-0.2613449990749359,0.23388351500034332,-0.18273209035396576
1780506588537296600,1.198296630859375,-0.11192489415407181,0.3322279155254364,-0.22463266551494598
1780506588547288300,1.208288330078125,-0.058803923428058624,0.3036715090274811,-0.2588318884372711
1780506588557281500,1.218281494140625,-0.06089290603995323,0.2240203469991684,-0.23080851137638092
1780506588567273500,1.2282734375,-0.04825855419039726,0.13292346894741058,-0.21182642877101898
1780506588577265400,1.238265380859375,-0.10674983263015747,-0.13599826395511627,-0.169949010014534
1780506588587257300,1.24825732421875,-0.2553405463695526,-0.1754888892173767,-0.11118877679109573
1780506588597250600,1.25825048828125,-0.3596346974372864,-0.04071322828531265,0.0232558436691761
1780506588607242500,1.268242431640625,-0.23239272832870483,0.05161423608660698,0.20273049175739288
1780506588617234400,1.278234375,-0.017140602692961693,-0.18682682514190674,0.19581826031208038
1780506588627227000,1.288226806640625,0.020807810127735138,-0.055787988007068634,0.1678447127342224
1780506588637219800,1.2982197265625,-0.008702412247657776,0.10873464494943619,0.18221940100193024
1780506588647212000,1.3082119140625,-0.008288011886179447,0.17751623690128326,0.21570853888988495
1780506588657204000,1.318203857421875,-0.022627003490924835,0.18464073538780212,0.2592592239379883
1780506588667196200,1.328196044921875,-0.04413988068699837,0.13591186702251434,0.3062198758125305
1780506588677188900,1.33818896484375,0.1104574203491211,-0.08063588291406631,0.3060246706008911
1780506588687181000,1.34818115234375,0.4663666784763336,-0.5560038089752197,0.20411188900470734
1780506588697173000,1.358173095703125,0.6825109720230103,-0.8241497874259949,0.17274118959903717
1780506588707166000,1.368166015625,0.6426113247871399,-1.1164556741714478,0.3789229691028595
1780506588717158000,1.378157958984375,0.4242419898509979,-1.6713995933532715,0.7367886900901794
1780506588727150000,1.388150146484375,0.28260281682014465,-2.204664468765259,1.0422372817993164
1780506588737141800,1.398141845703125,0.19554832577705383,-2.4015655517578125,1.2435309886932373
1780506588747135000,1.408135009765625,0.18994173407554626,-2.480949640274048,1.1890994310379028
1780506588757127000,1.418126953125,0.1483178585767746,-2.0543227195739746,1.0001285076141357
1780506588767118800,1.428118896484375,0.20334845781326294,-2.0899405479431152,0.5545440316200256
1780506588777110800,1.43811083984375,0.31016597151756287,-2.2022578716278076,0.13321197032928467
1780506588787104000,1.44810400390625,0.36701077222824097,-2.532973051071167,-0.08588135987520218
1780506588797096000,1.458095947265625,0.5048727989196777,-3.202965259552002,-0.09370412677526474
1780506588807087900,1.468087890625,0.6486397981643677,-3.8874449729919434,0.002716419054195285
1780506588817080000,1.478080078125,0.7640960812568665,-4.325937747955322,-0.18327182531356812
1780506588827072800,1.48807275390625,0.9525708556175232,-4.697916507720947,-0.8118874430656433
1780506588837065000,1.49806494140625,1.270758867263794,-5.014926433563232,-1.6427724361419678
1780506588847057000,1.508056884765625,1.6558363437652588,-5.164794921875,-2.407489538192749
1780506588857049900,1.5180498046875,1.8654377460479736,-4.154839038848877,-3.056535005569458
1780506588867041800,1.528041748046875,1.8357629776000977,-2.9799530506134033,-3.378176212310791
1780506588877034000,1.538033935546875,1.6028803586959839,-2.3049025535583496,-3.2917046546936035
1780506588887026000,1.54802587890625,1.6442753076553345,-3.1883747577667236,-2.966032028198242
1780506588897019000,1.558018798828125,1.8477743864059448,-4.594306945800781,-2.5366814136505127
1780506588907011000,1.568010986328125,1.831681728363037,-5.331521987915039,-2.0248918533325195
1780506588917003000,1.5780029296875,1.6181294918060303,-5.8680620193481445,-1.3595600128173828
1780506588926995000,1.587994873046875,1.2923110723495483,-6.444673538208008,-0.494577020406723
1780506588936988000,1.59798779296875,0.9891610145568848,-6.983832359313965,0.623289942741394
1780506588946980000,1.60797998046875,0.8775867223739624,-7.85955286026001,1.8384675979614258
1780506588956971800,1.6179716796875,0.8894507884979248,-8.728169441223145,2.688398838043213
1780506588966964000,1.6279638671875,0.894367516040802,-9.363368034362793,3.1329894065856934
1780506588976957000,1.63795703125,1.072147011756897,-9.80336856842041,3.304243803024292
1780506588986948900,1.647948974609375,1.4175305366516113,-9.845427513122559,3.3997066020965576
1780506588996940800,1.65794091796875,1.7382348775863647,-9.412139892578125,3.5132617950439453
1780506589006934000,1.66793408203125,2.3139920234680176,-9.460960388183594,3.4012820720672607
1780506589016925700,1.67792578125,2.991539239883423,-9.598745346069336,3.065988540649414
1780506589026918000,1.68791796875,3.360781669616699,-8.828022003173828,2.687681198120117
1780506589036909800,1.697909912109375,3.4791805744171143,-7.554451942443848,2.174799680709839
1780506589046902800,1.70790283203125,3.433422088623047,-5.596765041351318,1.6910496950149536
1780506589056895000,1.71789501953125,3.28350830078125,-2.4907259941101074,1.2430157661437988
1780506589066887000,1.727886962890625,3.0856435298919678,0.6798409223556519,0.41539549827575684
1780506589076879000,1.737879150390625,3.211771011352539,1.4404655694961548,-0.7445038557052612
1780506589086871800,1.747871826171875,3.2546184062957764,1.8185253143310547,-1.4821369647979736
1780506589096864000,1.757864013671875,3.2058846950531006,2.1468005180358887,-1.5998191833496094
1780506589106856000,1.76785595703125,2.9434990882873535,2.0237276554107666,-0.9865388870239258
1780506589116847900,1.777847900390625,2.5705583095550537,1.4185925722122192,-0.0558466762304306
1780506589126840800,1.7878408203125,1.986080527305603,0.6971194744110107,0.9437611103057861
1780506589136833000,1.7978330078125,1.6742318868637085,0.17490234971046448,1.7412407398223877
1780506589146825000,1.807824951171875,1.7171962261199951,0.20264270901679993,2.081368923187256
1780506589156818000,1.81781787109375,1.961592435836792,0.7999343276023865,1.932969093322754
1780506589166810000,1.82781005859375,1.552432894706726,1.6249241828918457,1.3254252672195435
1780506589176801800,1.8378017578125,-0.22870013117790222,1.629632592201233,0.0638461709022522
1780506589186794000,1.8477939453125,-0.1958388388156891,1.7710323333740234,0.13741573691368103
1780506589196787000,1.857786865234375,0.32195183634757996,1.017398476600647,0.4985973834991455
1780506589206779000,1.86777880859375,0.24192863702774048,0.8173866868019104,0.6934906244277954
1780506589216770800,1.877770751953125,-0.6498593091964722,0.08634231984615326,0.9113113284111023
1780506589226763000,1.887762939453125,-1.2033814191818237,-0.9410274624824524,1.4622681140899658
1780506589236756000,1.897755859375,0.7277435660362244,-0.09975484758615494,1.6581438779830933
1780506589246748000,1.907747802734375,3.549546718597412,4.076754093170166,1.2595213651657104
1780506589256739800,1.91773974609375,2.165705442428589,1.4143205881118774,2.6108009815216064
1780506589266732000,1.92773193359375,0.39777442812919617,-2.7187325954437256,3.578685998916626
1780506589276724700,1.937724853515625,-0.5295262336730957,-4.477503299713135,2.8423714637756348
1780506589286717000,1.947717041015625,-0.35153403878211975,-3.001021385192871,1.8513922691345215
1780506589296708900,1.957708984375,0.28698650002479553,-1.2933670282363892,1.0957990884780884
1780506589306701800,1.967701904296875,1.8432072401046753,0.0010587163269519806,0.9970777034759521
1780506589316694000,1.977694091796875,2.599998712539673,1.9267076253890991,-0.7276229858398438
1780506589326686000,1.98768603515625,2.0103249549865723,0.8591210246086121,0.8540564775466919
1780506589336678100,1.99767822265625,1.30709707736969,1.0034291744232178,0.8442419171333313
1780506589346670800,2.0076708984375,0.4808429479598999,-1.2544478178024292,1.7405507564544678
1780506589356663000,2.0176630859375,0.8567731380462646,-0.7105592489242554,1.567562460899353
1780506589366655000,2.027655029296875,2.1614556312561035,1.3438615798950195,0.4789419174194336
1780506589376647000,2.03764697265625,3.292367458343506,1.3853205442428589,1.4433726072311401
1780506589386640000,2.047639892578125,2.2407400608062744,-0.02612103521823883,1.7699408531188965
1780506589396632000,2.057632080078125,1.5572419166564941,-1.7950786352157593,1.4127720594406128
1780506589406623700,2.067623779296875,1.5001009702682495,-1.1774206161499023,0.7650959491729736
1780506589416617000,2.077616943359375,1.235287070274353,0.7167705297470093,0.26989632844924927
1780506589426609200,2.087609130859375,1.3605691194534302,1.371170997619629,1.1087727546691895
1780506589436600800,2.097600830078125,1.1550260782241821,0.6100445985794067,1.7419767379760742
1780506589446592800,2.1075927734375,0.7687581181526184,0.6503973603248596,1.6494505405426025
1780506589456586000,2.1175859375,0.21059228479862213,0.3592067360877991,0.5892234444618225
1780506589466578000,2.127577880859375,0.05986935645341873,0.13296549022197723,0.15105150640010834
1780506589476569900,2.13756982421875,-0.03738342970609665,-0.32108190655708313,0.15285126864910126
1780506589486562000,2.14756201171875,-0.0987546443939209,-0.7855772376060486,0.2383849322795868
1780506589496554800,2.1575546875,-0.03701724857091904,-1.1114834547042847,0.32356056571006775
1780506589506547000,2.167546875,0.05708910524845123,-1.2816864252090454,0.3281479477882385
1780506589516539000,2.177538818359375,0.1058819442987442,-1.4492900371551514,0.3668476641178131
1780506589526531000,2.187531005859375,0.12578701972961426,-1.9490493535995483,0.5769099593162537
1780506589536523800,2.197523681640625,0.07071895897388458,-2.7200512886047363,0.7947331070899963
1780506589546516000,2.207515869140625,-0.011291088536381721,-3.719393730163574,0.9892564415931702
1780506589556508000,2.2175078125,0.015871290117502213,-4.852909564971924,1.0917658805847168
1780506589566500900,2.2275009765625,-0.0419309101998806,-5.310286998748779,0.8398385047912598
1780506589576493000,2.2374931640625,-0.10902952402830124,-4.423228740692139,-0.06961024552583694
1780506589586485000,2.247485107421875,-0.032666970044374466,-2.8846099376678467,-1.0455801486968994
1780506589596477000,2.257476806640625,-0.014966268092393875,-1.6175169944763184,-1.7405275106430054
1780506589606470000,2.267469970703125,-0.1544615775346756,-0.8663772940635681,-1.9501045942306519
1780506589616462000,2.277462158203125,-0.1285085380077362,-0.3447785973548889,-1.8660086393356323
1780506589626450400,2.287450439453125,0.04127860441803932,0.07986484467983246,-1.8429814577102661
1780506589636442600,2.297442626953125,0.01625128462910652,-0.23172391951084137,-1.8937301635742188
1780506589646435600,2.307435546875,-0.04778400436043739,-0.039599161595106125,-1.6730941534042358
1780506589656427500,2.317427490234375,-0.1425454020500183,0.11245507746934891,-1.5077120065689087
1780506589666419500,2.32741943359375,-0.08665589988231659,0.20251673460006714,-1.1555877923965454
1780506589676411600,2.33741162109375,0.02490071952342987,0.22515574097633362,-0.9233434200286865
1780506589686404600,2.347404541015625,0.01251689251512289,0.35503149032592773,-0.9237164258956909
1780506589696396500,2.357396484375,0.001448262482881546,0.26221951842308044,-0.8026395440101624
1780506589706388500,2.367388427734375,0.09562988579273224,-0.02626178413629532,-0.6980172395706177
1780506589716381400,2.37738134765625,0.18740321695804596,-0.180008202791214,-0.683419942855835
1780506589726373600,2.38737353515625,0.3883570730686188,-0.09355933964252472,-0.5665032863616943
1780506589736365600,2.397365478515625,0.42915695905685425,0.2540529668331146,-0.3766374886035919
1780506589746357800,2.407357666015625,0.49047601222991943,0.3811918795108795,-0.048152290284633636
1780506589756350500,2.4173505859375,0.4610435664653778,0.307220995426178,0.3716074228286743
1780506589766342700,2.4273427734375,0.4154433012008667,0.08618433028459549,0.6166558861732483
1780506589776334600,2.43733447265625,0.5415945649147034,-0.17416229844093323,0.5412588715553284
1780506589786326500,2.447326416015625,0.7052526473999023,-0.12933138012886047,0.3535812497138977
1780506589796319500,2.457319580078125,0.6132164597511292,0.0659307986497879,0.1536332368850708
1780506589806311700,2.467311767578125,0.441455215215683,0.2147214114665985,-0.011084306053817272
1780506589816303600,2.4773037109375,0.2249351441860199,0.31076404452323914,-0.029497135430574417
1780506589826295600,2.487295654296875,0.04257013276219368,0.41667595505714417,0.06690728664398193
1780506589836288800,2.497288818359375,-0.25425541400909424,0.3748510181903839,0.12786756455898285
1780506589846280400,2.507280517578125,-0.5406392216682434,0.22935199737548828,0.15768283605575562
1780506589856272600,2.517272705078125,-0.6760793328285217,-0.006531624123454094,0.09840139746665955
1780506589866265600,2.527265625,-0.677402675151825,-0.3286155164241791,0.1575695276260376
1780506589876257500,2.537257568359375,-1.1499406099319458,-0.3916440010070801,-0.024594685062766075
1780506589886249500,2.54724951171875,-1.0733590126037598,-1.0043649673461914,-0.13822564482688904
1780506589896241700,2.55724169921875,-0.899675190448761,-1.019493818283081,-0.2328147292137146
1780506589906234600,2.567234619140625,-0.4040208160877228,-1.1037657260894775,-0.25771933794021606
1780506589916226600,2.5772265625,-0.24249689280986786,-1.4719163179397583,0.20276066660881042
1780506589926218500,2.587218505859375,-1.3799097537994385,-2.279094696044922,0.5511500239372253
1780506589936210700,2.597210693359375,-2.2758238315582275,-2.3660032749176025,0.7141932845115662
1780506589946203600,2.60720361328125,-2.3427340984344482,-0.04878620058298111,0.35566917061805725
1780506589956195600,2.617195556640625,-1.7023006677627563,0.23953694105148315,0.9049540758132935
1780506589966187500,2.6271875,-1.596908688545227,-0.9065577983856201,1.564096450805664
1780506589976180500,2.637180419921875,-1.521300196647644,-2.4905142784118652,1.9366356134414673
1780506589986172700,2.647172607421875,-0.8930107355117798,-2.6819517612457275,1.8436062335968018
1780506589996164600,2.65716455078125,-0.23804834485054016,0.2468252032995224,1.360311508178711
1780506590006156800,2.66715673828125,0.2807408571243286,0.871790885925293,1.1992781162261963
1780506590016149500,2.6771494140625,0.8570923805236816,0.842052161693573,1.1069543361663818
1780506590026141700,2.6871416015625,1.4374775886535645,1.0311925411224365,0.8606207370758057
1780506590036133600,2.697133544921875,1.7190959453582764,1.7364740371704102,0.5205438733100891
1780506590046125600,2.70712548828125,1.6071940660476685,1.88169264793396,0.41395124793052673
1780506590056118500,2.717118408203125,1.1733437776565552,2.4453420639038086,0.3910406231880188
1780506590066110700,2.72711083984375,0.7548529505729675,3.109006404876709,0.6892043352127075
1780506590076102400,2.737102294921875,0.38366395235061646,2.905848503112793,0.7370924949645996
1780506590086095600,2.747095703125,0.15645743906497955,2.817225456237793,0.7512273788452148
1780506590096087800,2.757087890625,0.606061577796936,2.560852527618408,0.5473309755325317
1780506590106079500,2.76707958984375,0.9676656126976013,2.4586193561553955,-0.02748788520693779
1780506590116071700,2.77707177734375,1.6876639127731323,2.9450254440307617,-0.26068010926246643
1780506590126064600,2.787064697265625,2.5715889930725098,3.2983150482177734,-0.6021150350570679
1780506590136056600,2.797056640625,3.38222599029541,3.3765313625335693,-0.8781655430793762
1780506590146048500,2.807048583984375,4.183720111846924,3.4491684436798096,-0.9973869323730469
1780506590156040700,2.817040771484375,4.383779525756836,3.7343907356262207,-0.9964354038238525
1780506590166033400,2.827033447265625,3.512408971786499,3.203043222427368,-0.9667961597442627
1780506590176025600,2.837025634765625,2.4054548740386963,1.9986119270324707,-0.7470342516899109
1780506590186017500,2.847017578125,1.512164831161499,1.7156336307525635,-0.48430681228637695
1780506590196010500,2.857010498046875,1.3955769538879395,1.736218810081482,-0.22441983222961426
1780506590206002400,2.86700244140625,1.5175280570983887,1.8644368648529053,-0.23902902007102966
1780506590215994600,2.87699462890625,1.4452762603759766,1.1886686086654663,-0.28432273864746094
1780506590225986600,2.886986572265625,0.9485945701599121,0.2187434434890747,-0.09514075517654419
1780506590235979500,2.8969794921875,0.11017739772796631,-0.3858308494091034,-0.16235308349132538
1780506590245971700,2.9069716796875,-0.19835899770259857,-0.6429846882820129,-0.3071250021457672
1780506590255963600,2.916963623046875,-0.18941637873649597,-0.9384275078773499,-0.4330645501613617
1780506590265955600,2.92695556640625,-0.07924792170524597,-0.8568139672279358,-0.4303279519081116
1780506590275948500,2.936948486328125,-0.061350416392087936,-0.7584019303321838,-0.36472657322883606
1780506590285940700,2.946940673828125,-0.018332645297050476,-0.21703891456127167,-0.29093503952026367
1780506590295932400,2.956932373046875,-0.03735294193029404,0.08350252360105515,-0.19161991775035858
1780506590305925600,2.966925537109375,-0.12535320222377777,0.058450907468795776,-0.04773275926709175
1780506590315917600,2.97691748046875,-0.1823110282421112,-0.09711951017379761,-0.05821549519896507
1780506590325909500,2.986909423828125,0.054301340132951736,-0.18485409021377563,-0.0534931980073452
1780506590335901400,2.9969013671875,-0.014300886541604996,-0.6469227075576782,-0.3757982552051544
1780506590345894700,3.006894775390625,-0.4085712134838104,-1.5309183597564697,-0.4142991602420807
1780506590355886600,3.016886474609375,-0.8242674469947815,-1.9117133617401123,-0.028221480548381805
1780506590365878500,3.02687841796875,-1.4020936489105225,-1.4511152505874634,0.21786756813526154
1780506590375870700,3.03687060546875,-1.7071236371994019,-1.3182085752487183,0.24528801441192627
1780506590385863400,3.046863525390625,-1.7577159404754639,-1.145346999168396,0.35543233156204224
1780506590395855600,3.056855712890625,-1.355268120765686,-1.1893222332000732,0.690624475479126
1780506590405847600,3.06684765625,-0.669405460357666,-1.6599924564361572,0.8579338192939758
1780506590415840500,3.076840576171875,-0.10003357380628586,-2.0175156593322754,0.8788931369781494
1780506590425832400,3.08683251953125,0.48057758808135986,-2.289196252822876,0.6988303065299988
1780506590435824600,3.09682470703125,0.546907901763916,-1.8014521598815918,0.4812183678150177
1780506590445816600,3.106816650390625,0.29223114252090454,-1.23507821559906,0.30673375725746155
1780506590455809500,3.1168095703125,0.18455928564071655,-0.8047893643379211,0.17769400775432587
1780506590465801500,3.126801513671875,0.3781265914440155,-0.4470020830631256,0.18246141076087952
1780506590475793700,3.136793701171875,0.7186894416809082,-0.2101900577545166,0.16958555579185486
1780506590485785600,3.14678564453125,0.49759483337402344,0.1320636123418808,0.0567108690738678
1780506590495778600,3.156778564453125,0.3051305413246155,0.39811474084854126,-0.12928402423858643
1780506590505770800,3.166770751953125,0.15620245039463043,0.33013707399368286,-0.023313598707318306
1780506590515762700,3.1767626953125,-0.07790139317512512,0.2287777066230774,0.05067407339811325
1780506590525755600,3.186755615234375,0.006968868896365166,0.5623349547386169,-0.28611406683921814
1780506590535747600,3.19674755859375,0.41684186458587646,0.839381217956543,-0.40760454535484314
1780506590545739800,3.20673974609375,0.7209516763687134,0.5751857757568359,0.058757320046424866
1780506590555731500,3.2167314453125,0.8499866724014282,0.36440590023994446,0.48018577694892883
1780506590565724700,3.226724609375,0.9573476314544678,0.4496161937713623,0.6106101870536804
1780506590575716600,3.236716552734375,0.9317303895950317,0.719293475151062,0.5373873710632324
1780506590585708500,3.24670849609375,0.9931634664535522,1.1164846420288086,0.35990598797798157
1780506590595701800,3.25670166015625,1.1500099897384644,1.365411639213562,0.21244381368160248
1780506590605693700,3.266693603515625,1.277461290359497,1.807082176208496,0.06426408141851425
1780506590615685600,3.276685546875,1.3339849710464478,2.156161069869995,0.06947056204080582
1780506590625682000,3.286681884765625,1.3135956525802612,2.4347620010375977,0.31581994891166687
1780506590635674600,3.296674560546875,1.589595079421997,2.2323899269104004,0.6216908693313599
1780506590645666800,3.306666748046875,1.9746474027633667,1.324791431427002,0.8850192427635193
1780506590655658800,3.31665869140625,2.4865729808807373,0.08919584006071091,0.9841082692146301
1780506590665651700,3.326651611328125,2.96587872505188,-0.9828951954841614,1.4219616651535034
1780506590675643600,3.3366435546875,3.2726359367370605,-1.4514696598052979,1.951525092124939
1780506590685635800,3.3466357421875,2.979487657546997,-1.5502238273620605,2.1425459384918213
1780506590695627800,3.356627685546875,2.413844108581543,-1.9525518417358398,2.363450765609741
1780506590705620700,3.366620849609375,1.6740199327468872,-2.0476129055023193,2.5059397220611572
1780506590715613000,3.376613037109375,0.8903745412826538,-2.1853573322296143,2.162804365158081
1780506590725604900,3.38660498046875,0.2242768406867981,-1.8906679153442383,1.5026459693908691
1780506590735596800,3.3965966796875,-0.3631746768951416,-0.9973576664924622,0.8377500176429749
1780506590745589800,3.40658984375,-1.2793105840682983,-1.0110872983932495,-0.29572737216949463
1780506590755582000,3.41658203125,-2.133131504058838,-1.2016538381576538,-1.5672932863235474
1780506590765573600,3.42657373046875,-2.1256155967712402,0.8215605616569519,-1.5928936004638672
1780506590775566800,3.43656689453125,-1.4987845420837402,2.4313735961914062,-1.1558231115341187
1780506590785558800,3.446558837890625,-0.411975622177124,2.5689897537231445,0.05555921420454979
1780506590795550700,3.45655078125,0.06327718496322632,0.7383341789245605,0.714419960975647
1780506590805542700,3.466542724609375,-0.11957997828722,-0.3566970229148865,0.8280052542686462
1780506590815535900,3.476535888671875,-0.2530040740966797,-0.13986217975616455,0.5491877198219299
1780506590825527800,3.48652783203125,-0.4460044205188751,0.5591057538986206,0.18479907512664795
1780506590835519700,3.496519775390625,-0.6176846027374268,0.7335382699966431,-0.3047352135181427
1780506590845513000,3.506512939453125,-0.48311200737953186,0.3996652662754059,-0.48143211007118225
1780506590855504600,3.516504638671875,-0.10897886753082275,-0.017368152737617493,-0.6346288919448853
1780506590865496800,3.526496826171875,0.3861115574836731,-0.03873283416032791,-1.2756267786026
1780506590875488800,3.53648876953125,-0.06704288721084595,0.5128392577171326,-1.9424282312393188
1780506590885481700,3.546481689453125,0.10229410231113434,0.36961811780929565,-2.2775521278381348
1780506590895473700,3.5564736328125,-0.3431057333946228,-0.4665665030479431,-1.9705077409744263
1780506590905465900,3.5664658203125,-0.42531725764274597,-0.6954331398010254,-1.6222809553146362
1780506590915458800,3.576458740234375,-0.42293238639831543,-0.77242511510849,-1.6661351919174194
1780506590925450800,3.58645068359375,-0.45391613245010376,-0.7877229452133179,-1.6277927160263062
1780506590935442700,3.596442626953125,-0.5986597537994385,-0.7451896071434021,-1.4472298622131348
1780506590945435000,3.606434814453125,-0.7401258945465088,-0.7860856056213379,-1.281808853149414
1780506590955427800,3.616427734375,-0.8447598814964294,-0.763667643070221,-1.241324782371521
1780506590965419800,3.626419677734375,-0.867267906665802,-0.9105530977249146,-1.2738385200500488
1780506590975412000,3.636411865234375,-0.9593954682350159,-0.8124369382858276,-1.3963537216186523
1780506590985404700,3.64640478515625,-0.9578770399093628,-0.5648892521858215,-1.4160524606704712
1780506590995396900,3.65639697265625,-1.1793955564498901,-0.20043058693408966,-1.3686434030532837
1780506591005388800,3.666388916015625,-1.3648203611373901,-0.13637709617614746,-1.2676045894622803
1780506591015380700,3.676380615234375,-1.4864411354064941,-0.16975395381450653,-1.1110565662384033
1780506591025373700,3.686373779296875,-1.5532145500183105,-0.59742671251297,-1.0617774724960327
1780506591035366000,3.696365966796875,-1.3773332834243774,-0.8997860550880432,-1.013258934020996
1780506591045357800,3.70635791015625,-1.1206287145614624,-1.0833266973495483,-0.9992756247520447
1780506591055350800,3.716350830078125,-0.7821707129478455,-1.0522931814193726,-0.962189257144928
1780506591065343000,3.726343017578125,-0.5525914430618286,-1.1784014701843262,-0.9379942417144775
1780506591075335000,3.7363349609375,-0.5235267877578735,-1.1920260190963745,-0.9712994694709778
1780506591085326800,3.746326904296875,-0.8124666810035706,-1.1125720739364624,-1.124972939491272
1780506591095319800,3.75631982421875,-1.0385428667068481,-0.976566731929779,-1.3386814594268799
1780506591105311700,3.766311767578125,-1.360780119895935,-0.8704051375389099,-1.376822829246521
1780506591115303700,3.7763037109375,-1.6259111166000366,-0.8763205409049988,-1.3367228507995605
1780506591125297000,3.786296875,-1.7807561159133911,-0.8421058654785156,-1.326607584953308
1780506591135288800,3.796288818359375,-1.8282133340835571,-0.9540358781814575,-1.3302127122879028
1780506591145280800,3.80628076171875,-1.7563248872756958,-1.3912869691848755,-1.4447413682937622
1780506591155272700,3.816272705078125,-1.6608556509017944,-1.7427294254302979,-1.5909545421600342
1780506591165266000,3.826265869140625,-1.5568102598190308,-1.8931740522384644,-1.6120365858078003
1780506591175257600,3.836257568359375,-1.373145580291748,-1.947061538696289,-1.5198873281478882
1780506591185249800,3.846249755859375,-1.161704659461975,-1.9093331098556519,-1.4411735534667969
1780506591195243000,3.856242919921875,-1.089304804801941,-1.7817498445510864,-1.3978816270828247
1780506591205234700,3.866234619140625,-1.087864875793457,-1.6788036823272705,-1.417294979095459
1780506591215227000,3.876226806640625,-1.0648343563079834,-1.7884321212768555,-1.472648024559021
1780506591225218800,3.88621875,-0.986325204372406,-2.04488468170166,-1.4386624097824097
1780506591235211800,3.896211669921875,-0.8477548360824585,-2.345609188079834,-1.303755760192871
1780506591245203700,3.90620361328125,-0.7040970325469971,-2.4845235347747803,-1.1123648881912231
1780506591255196000,3.91619580078125,-0.5853871703147888,-2.610609531402588,-0.8611111044883728
1780506591265188600,3.926188720703125,-0.44231656193733215,-2.521010398864746,-0.6627836227416992
1780506591275180800,3.936180908203125,-0.28556904196739197,-2.3078484535217285,-0.48162153363227844
1780506591285172700,3.9461728515625,-0.10838402807712555,-2.1060659885406494,-0.37759798765182495
1780506591295165000,3.9561650390625,0.027748238295316696,-1.8483624458312988,-0.23387517035007477
1780506591305158000,3.966157958984375,0.11168946325778961,-1.6135929822921753,-0.02290651947259903
1780506591315149800,3.97614990234375,0.19720062613487244,-1.3103582859039307,0.1712253987789154
1780506591325142000,3.98614208984375,0.26879239082336426,-0.9730198979377747,0.3479861617088318
1780506591335134700,3.996134765625,0.3359951376914978,-0.6210759878158569,0.48552989959716797
1780506591345127000,4.006126953125,0.38044461607933044,-0.2907537519931793,0.6081122756004333
1780506591355118800,4.016118896484375,0.40377604961395264,-0.038466110825538635,0.7357208132743835
1780506591365111800,4.02611181640625,0.3969234824180603,0.16848480701446533,0.8487045764923096
1780506591375103700,4.036103759765625,0.37624242901802063,0.40343552827835083,0.9491326212882996
1780506591385096000,4.046095947265625,0.347847580909729,0.6441035270690918,1.0354710817337036
1780506591395087600,4.056087646484375,0.3369067907333374,0.8539619445800781,1.1270244121551514
1780506591405080800,4.066080810546875,0.3884388208389282,1.002729058265686,1.2676875591278076
1780506591415073000,4.076072998046875,0.5194107294082642,1.1585568189620972,1.4345722198486328
1780506591425064700,4.086064697265625,0.7265914678573608,1.3321453332901,1.4509320259094238
1780506591435058000,4.096057861328125,0.9564152956008911,1.4280825853347778,1.4312174320220947
1780506591445049900,4.1060498046875,1.229467511177063,0.8426293730735779,1.085018277168274
1780506591455041800,4.116041748046875,1.1401528120040894,0.9655011892318726,0.9218700528144836
1780506591465033700,4.12603369140625,0.7446780204772949,1.8391222953796387,0.829746425151825
1780506591475027000,4.13602685546875,0.3740866482257843,2.5318334102630615,0.9145079255104065
1780506591485018600,4.1460185546875,0.17512410879135132,2.9401209354400635,1.210219144821167
1780506591495010800,4.1560107421875,0.2026904970407486,2.453066825866699,0.914334774017334
1780506591505003800,4.166003662109375,0.03841833770275116,2.03566575050354,0.7145865559577942
1780506591514995700,4.17599560546875,0.0405145138502121,1.911792278289795,0.6881323456764221
1780506591524987600,4.185987548828125,0.07625839114189148,1.880131483078003,0.7680217027664185
1780506591534980900,4.19598095703125,0.16749216616153717,1.886346459388733,0.7951156497001648
1780506591544972800,4.205972900390625,0.2833382189273834,1.8893096446990967,0.8142186999320984
1780506591554964700,4.21596484375,0.3819153904914856,1.813360571861267,0.7914907932281494
1780506591564957000,4.22595703125,0.4490732252597809,1.5303021669387817,0.6913896203041077
1780506591574949600,4.23594970703125,0.5541248321533203,1.2278105020523071,0.5406320691108704
1780506591584941800,4.24594189453125,0.7265011072158813,0.9625236392021179,0.48343944549560547
1780506591594933800,4.255933837890625,0.9046388864517212,0.6704400777816772,0.6003665924072266
1780506591604926700,4.2659267578125,1.0309585332870483,0.4147990345954895,0.7179459929466248
1780506591614918700,4.275918701171875,1.0727379322052002,0.2096211314201355,0.7452599406242371
1780506591624910000,4.28591015625,1.0692914724349976,0.14827540516853333,0.6913647651672363
1780506591634902300,4.29590234375,0.944762647151947,0.16183115541934967,0.7309238910675049
1780506591644895200,4.305895263671875,0.6634438633918762,0.4524601995944977,0.8111438155174255
1780506591654887200,4.31588720703125,0.33918139338493347,0.9347200393676758,0.7893482446670532
1780506591664879400,4.32587939453125,0.09034226834774017,1.2704107761383057,0.7538112998008728
1780506591674872000,4.3358720703125,-0.07466946542263031,1.4554029703140259,0.7272153496742249
1780506591684864300,4.3458642578125,-0.16060341894626617,1.4898324012756348,0.7077823281288147
1780506591694856200,4.355856201171875,-0.1785280853509903,1.447967290878296,0.7032131552696228
1780506591704849200,4.36584912109375,-0.16070421040058136,1.3796995878219604,0.7568398118019104
1780506591714841000,4.375841064453125,-0.11070814728736877,1.169539451599121,0.8655116558074951
1780506591724833300,4.385833251953125,-0.04685152694582939,0.8655415177345276,0.9624524712562561
1780506591734825200,4.3958251953125,0.0032571805641055107,0.5210009217262268,1.0296297073364258
1780506591744818200,4.405818115234375,0.01883692666888237,0.22593797743320465,1.037673830986023
1780506591754810400,4.415810302734375,0.03612883388996124,-0.04458459094166756,1.0177195072174072
1780506591764802300,4.42580224609375,0.04005191847681999,-0.23099347949028015,0.9712268710136414
1780506591774795300,4.435795166015625,0.027549441903829575,-0.3622066378593445,0.9261688590049744
1780506591784787200,4.445787109375,-0.02602534368634224,-0.39156705141067505,0.8943778872489929
1780506591794779400,4.455779296875,-0.11830546706914902,-0.441368967294693,0.8791131973266602
1780506591804772000,4.465772216796875,-0.1426812708377838,-0.3443280756473541,0.7217925190925598
1780506591814764300,4.475764404296875,-0.14786724746227264,-0.10267046838998795,0.5113042593002319
1780506591824756200,4.485756103515625,-0.21186739206314087,0.091523177921772,0.3501342535018921
1780506591834748200,4.495748046875,-0.30161911249160767,0.16743764281272888,0.2068772166967392
1780506591844741000,4.5057412109375,-0.32894062995910645,0.2639535963535309,0.08485738933086395
1780506591854733300,4.5157333984375,-0.23164495825767517,0.3005100190639496,0.0469086728990078
1780506591864725000,4.52572509765625,-0.15922148525714874,0.2655542194843292,0.042784057557582855
1780506591874718200,4.53571826171875,-0.13203966617584229,0.26378801465034485,0.0374007411301136
1780506591884710400,4.54571044921875,-0.1326688528060913,0.2892305850982666,0.024455638602375984
1780506591894702000,4.5557021484375,-0.12610682845115662,0.3578474819660187,0.0016954649472609162
1780506591904695300,4.5656953125,-0.11721611022949219,0.35417553782463074,0.023292971774935722
1780506591914687200,4.575687255859375,-0.10337059944868088,0.2765001654624939,0.08624077588319778
1780506591924679200,4.58567919921875,-0.07455798983573914,0.12863539159297943,0.12591104209423065
1780506591934671000,4.595671142578125,-0.020699556916952133,0.035883884876966476,0.17630364000797272
1780506591944664300,4.605664306640625,0.058440640568733215,0.01637456566095352,0.24442391097545624
1780506591954656000,4.615656005859375,0.14109531044960022,-0.01636713370680809,0.30316418409347534
1780506591964648200,4.625648193359375,0.17950943112373352,-0.04606291279196739,0.3377189636230469
1780506591974641400,4.635641357421875,0.19831854104995728,-0.03586274012923241,0.36608240008354187
1780506591984633000,4.645633056640625,0.194701686501503,-0.030987557023763657,0.3876112699508667
1780506591994625300,4.655625244140625,0.19435760378837585,-0.034218236804008484,0.40576496720314026
1780506592004618200,4.6656181640625,0.26259714365005493,-0.040728069841861725,0.4121508002281189
1780506592014610200,4.675610107421875,0.3355129063129425,-0.006114963907748461,0.4233587384223938
1780506592024602000,4.68560205078125,0.3895026445388794,-0.008403285406529903,0.4377996027469635
1780506592034594300,4.69559423828125,0.4614758789539337,-0.004614406265318394,0.4353660047054291
1780506592044587000,4.7055869140625,0.5266745090484619,0.01615259051322937,0.4235188364982605
1780506592054579200,4.7155791015625,0.5865247845649719,0.06431186199188232,0.3981652855873108
1780506592064571100,4.725571044921875,0.632936954498291,0.16759924590587616,0.35939058661460876
1780506592074564000,4.735564208984375,0.6629042029380798,0.24834495782852173,0.31212639808654785
1780506592084556000,4.74555615234375,0.6688985824584961,0.36785197257995605,0.27223870158195496
1780506592094548200,4.75554833984375,0.6782569289207458,0.4274069368839264,0.25969812273979187
1780506592104541200,4.765541259765625,0.669167160987854,0.4943244755268097,0.2899591326713562
1780506592114533000,4.775533203125,0.6787310838699341,0.4973929822444916,0.3442378044128418
1780506592124525300,4.785525390625,0.6948018074035645,0.5363234877586365,0.39980486035346985
1780506592134517200,4.795517333984375,0.6896520853042603,0.4691232144832611,0.4282458424568176
1780506592144510200,4.80551025390625,0.6315281391143799,0.3798457384109497,0.3954646587371826
1780506592154502100,4.815502197265625,0.5468358993530273,0.4117397367954254,0.33597469329833984
1780506592164494300,4.825494384765625,0.4743456244468689,0.3446403741836548,0.2693188488483429
1780506592174487000,4.835487060546875,0.38035494089126587,0.3552416265010834,0.2393830567598343
1780506592184479200,4.845479248046875,0.3351554870605469,0.12690380215644836,0.2726283371448517
1780506592194471200,4.85547119140625,0.3209392726421356,0.07195241004228592,0.30275002121925354
1780506592204464000,4.865464111328125,0.304554283618927,-0.07641103118658066,0.2617023289203644
1780506592214456300,4.875456298828125,0.31067928671836853,-0.19559946656227112,0.1788378208875656
1780506592224448300,4.8854482421875,0.26606374979019165,-0.2532307505607605,0.05751005560159683
1780506592234441200,4.895441162109375,0.19646017253398895,-0.45917779207229614,-0.09014624357223511
1780506592244433200,4.90543310546875,0.0921550840139389,-0.46985411643981934,-0.28616252541542053
1780506592254425300,4.91542529296875,-0.0020260056480765343,-0.41166752576828003,-0.48372116684913635
1780506592264417300,4.925417236328125,-0.0764140784740448,-0.247444286942482,-0.6944760680198669
1780506592274410200,4.93541015625,-0.11292602121829987,-0.3108421862125397,-0.831805944442749
1780506592284402200,4.945402099609375,-0.17509593069553375,-0.21152277290821075,-1.0160748958587646
1780506592294394400,4.955394287109375,-0.24665746092796326,-0.061227019876241684,-1.2379628419876099
1780506592304387300,4.96538720703125,-0.3263395130634308,0.031038597226142883,-1.4342646598815918
1780506592314379300,4.975379150390625,-0.4252708852291107,-0.00288155279122293,-1.5798121690750122
1780506592324371200,4.98537109375,-0.5335707068443298,-0.08351528644561768,-1.700336217880249
1780506592334364200,4.9953642578125,-0.6118913292884827,-0.15507389605045319,-1.7679935693740845
1780506592344356400,5.0053564453125,-0.6654845476150513,-0.16428536176681519,-1.737504005432129
1780506592354348300,5.015348388671875,-0.7419281601905823,-0.07815819978713989,-1.6727714538574219
1780506592364340200,5.02534033203125,-0.8293508887290955,0.01891595497727394,-1.6050007343292236
1780506592374333200,5.035333251953125,-0.8194883465766907,-0.020876998081803322,-1.562909483909607
1780506592384325400,5.045325439453125,-0.7276846170425415,-0.21642500162124634,-1.538317084312439
1780506592394317000,5.055317138671875,-0.7448526620864868,-0.3012844920158386,-1.5260316133499146
1780506592404310300,5.065310302734375,-0.7810510993003845,-0.3548940420150757,-1.531162142753601
1780506592414302200,5.07530224609375,-0.8543540835380554,-0.22466494143009186,-1.5552257299423218
1780506592424294100,5.085294189453125,-0.9888268113136292,-0.03579176589846611,-1.6333229541778564
1780506592434287400,5.095287353515625,-1.0651439428329468,-0.12147417664527893,-1.7657585144042969
1780506592444279300,5.105279296875,-1.0352153778076172,-0.22798344492912292,-1.8339756727218628
1780506592454271200,5.115271240234375,-0.915848433971405,-0.3056524097919464,-1.7983335256576538
1780506592464263200,5.12526318359375,-0.7831469774246216,-0.4947502315044403,-1.6749267578125
1780506592474256400,5.13525634765625,-0.7635237574577332,-0.5735869407653809,-1.5699609518051147
1780506592484248000,5.145248046875,-0.7740862369537354,-0.6230466365814209,-1.513471245765686
1780506592494240300,5.155240234375,-0.7734500169754028,-0.6684108972549438,-1.398713231086731
1780506592504233200,5.165233154296875,-0.7832810878753662,-0.6716119050979614,-1.374245285987854
1780506592514225200,5.17522509765625,-0.9311893582344055,-0.5910110473632812,-1.3904849290847778
1780506592524217000,5.185217041015625,-1.0614323616027832,-0.5503167510032654,-1.3875820636749268
1780506592534210300,5.195210205078125,-1.121848225593567,-0.6430280804634094,-1.3657175302505493
1780506592544202200,5.2052021484375,-1.2193337678909302,-0.819972038269043,-1.3465121984481812
1780506592554194200,5.215194091796875,-1.2906748056411743,-1.080601453781128,-1.3149993419647217
1780506592564186400,5.225186279296875,-1.2736585140228271,-1.300482988357544,-1.2526363134384155
1780506592574179000,5.235178955078125,-1.252084732055664,-1.41697096824646,-1.1753178834915161
1780506592584171300,5.245171142578125,-1.2213014364242554,-1.5060300827026367,-1.1057833433151245
1780506592594163200,5.2551630859375,-1.1348481178283691,-1.6401493549346924,-1.0463663339614868
1780506592604156200,5.26515625,-1.0435572862625122,-1.74853515625,-0.9986529350280762
1780506592614148000,5.275148193359375,-0.9430274367332458,-1.8932992219924927,-0.9527855515480042
1780506592624137700,5.2851376953125,-0.8330297470092773,-1.9945921897888184,-0.89329993724823
1780506592634130400,5.29513037109375,-0.705447793006897,-2.0963826179504395,-0.8129584789276123
1780506592644122600,5.30512255859375,-0.5804259777069092,-2.0116963386535645,-0.7221075296401978
1780506592654114600,5.315114501953125,-0.4594801068305969,-1.9813789129257202,-0.5882511734962463
1780506592664107500,5.325107421875,-0.37782174348831177,-1.899240493774414,-0.45294877886772156
1780506592674099700,5.335099609375,-0.3266408443450928,-1.790562391281128,-0.34302812814712524
1780506592684091600,5.345091552734375,-0.2557504177093506,-1.6379820108413696,-0.2443981170654297
1780506592694083600,5.35508349609375,-0.19579042494297028,-1.4965873956680298,-0.12052756547927856
1780506592704076500,5.36507666015625,-0.14379340410232544,-1.3425596952438354,0.004439730662852526
1780506592714068700,5.37506884765625,-0.0942077487707138,-1.1671104431152344,0.11730503290891647
1780506592724060400,5.385060302734375,-0.043901942670345306,-0.9897007346153259,0.19986073672771454
1780506592734053600,5.3950537109375,-0.015839681029319763,-0.82008957862854,0.27329501509666443
1780506592744045600,5.405045654296875,0.0056875841692090034,-0.6863074898719788,0.3508324921131134
1780506592754037500,5.41503759765625,0.013295437209308147,-0.5555750727653503,0.4140772521495819
1780506592764030700,5.42503076171875,0.013196616433560848,-0.44095686078071594,0.4888613522052765
1780506592774022700,5.435022705078125,0.04605443403124809,-0.3250909745693207,0.5868728756904602
1780506592784014600,5.4450146484375,0.09356989711523056,-0.1912011355161667,0.7075740098953247
1780506592794006500,5.455006591796875,0.12008406966924667,-0.0519055537879467,0.8357495665550232
1780506592803999700,5.464999755859375,0.11718388646841049,0.08284293860197067,0.9434739351272583
1780506592813991400,5.474991455078125,0.10718531906604767,0.21921490132808685,1.0174384117126465
1780506592823983600,5.484983642578125,0.09838861227035522,0.3433585464954376,1.0661015510559082
1780506592833976600,5.4949765625,0.09242846071720123,0.4040847420692444,1.1466917991638184
1780506592843968500,5.504968505859375,0.10897282510995865,0.5661360025405884,1.2508760690689087
1780506592853960400,5.51496044921875,0.1871163547039032,0.7012349367141724,1.3203848600387573
1780506592863953700,5.52495361328125,0.24611429870128632,0.8000288009643555,1.2513524293899536
1780506592873945600,5.534945556640625,0.2379506379365921,0.7890419363975525,1.0497937202453613
1780506592883937500,5.5449375,0.31209999322891235,-0.22073592245578766,0.1815599799156189
1780506592893929500,5.554929443359375,0.3786015212535858,-1.1541310548782349,-0.3055974245071411
1780506592903922400,5.56492236328125,0.5363780856132507,-0.839184582233429,-0.06429310142993927
1780506592913914600,5.57491455078125,0.773960530757904,-1.2003196477890015,0.060889843851327896
1780506592923906600,5.584906494140625,0.5762368440628052,-0.9208537936210632,0.4224016070365906
1780506592933899500,5.5948994140625,0.4874664843082428,0.009440825320780277,0.5909250974655151
1780506592943891500,5.604891357421875,0.4798431992530823,0.6420336365699768,0.7538859844207764
1780506592953883600,5.614883544921875,0.48554369807243347,1.2279095649719238,1.006255030632019
1780506592963876600,5.624876708984375,0.6012815833091736,1.6107087135314941,1.0622624158859253
1780506592973868500,5.63486865234375,0.7224266529083252,1.867433786392212,1.01633620262146
1780506592983860500,5.644860595703125,0.7489496469497681,1.9705510139465332,0.8884658217430115
1780506592993853700,5.654853759765625,0.7265159487724304,2.0540683269500732,0.8143771886825562
1780506593003845600,5.664845703125,0.7823973298072815,2.0612523555755615,0.8019143342971802
1780506593013837600,5.674837646484375,0.8973678350448608,2.0088891983032227,0.8424495458602905
1780506593023829800,5.684829833984375,0.9838849902153015,1.905846118927002,0.8978751301765442
1780506593033822500,5.694822509765625,0.9581066966056824,1.7606838941574097,0.8901125192642212
1780506593043814700,5.704814697265625,0.8386892080307007,1.649540901184082,0.8756258487701416
1780506593053806600,5.714806640625,0.6617093682289124,1.5871988534927368,0.8607837557792664
1780506593063799600,5.724799560546875,0.4638696610927582,1.594365119934082,0.8179822564125061
1780506593073791500,5.73479150390625,0.27705344557762146,1.621432900428772,0.7559438943862915
1780506593083783700,5.74478369140625,0.128683403134346,1.6247076988220215,0.7165215611457825
1780506593093776600,5.754776611328125,0.04639572277665138,1.5385589599609375,0.7167034149169922
1780506593103768600,5.7647685546875,0.048613760620355606,1.5216009616851807,0.6636263132095337
1780506593113760800,5.7747607421875,0.10660409182310104,1.5189865827560425,0.5863568186759949
1780506593123752700,5.784752685546875,0.18308553099632263,1.3500676155090332,0.6071056723594666
1780506593133745700,5.79474560546875,0.23085305094718933,1.2001920938491821,0.6658645868301392
1780506593143737600,5.804737548828125,0.28285741806030273,1.0635480880737305,0.7401437163352966
1780506593153729800,5.814729736328125,0.30800455808639526,0.9071254134178162,0.8412511348724365
1780506593163722500,5.824722412109375,0.27881819009780884,0.7996789216995239,0.9197801351547241
1780506593173714700,5.834714599609375,0.2139236032962799,0.7339227795600891,0.9361071586608887
1780506593183706600,5.84470654296875,0.13394929468631744,0.6742517948150635,0.927899956703186
1780506593193699600,5.854699462890625,0.08529893308877945,0.5230166912078857,0.941053569316864
1780506593203691500,5.86469140625,0.08101403713226318,0.3375055193901062,0.9601244926452637
1780506593213683700,5.87468359375,0.09914510697126389,0.19339361786842346,0.9434057474136353
1780506593223676700,5.8846767578125,0.08508959412574768,0.022776538506150246,0.9786085486412048
1780506593233668600,5.894668701171875,0.05421850085258484,-0.07818576693534851,1.00211763381958
1780506593243660800,5.904660888671875,-0.003802186343818903,-0.04506109654903412,1.0025863647460938
1780506593253652500,5.914652587890625,-0.05690961331129074,0.014603029005229473,0.9818281531333923
1780506593263645700,5.924645751953125,-0.10028838366270065,0.146241694688797,0.9329826831817627
1780506593273637600,5.9346376953125,-0.1430654227733612,0.2957156002521515,0.857416033744812
1780506593283629600,5.944629638671875,-0.19773824512958527,0.3322799801826477,0.8392565250396729
1780506593293622500,5.95462255859375,-0.2303108274936676,0.3268277049064636,0.8352437019348145
1780506593303614700,5.96461474609375,-0.2379196286201477,0.3629644811153412,0.7752743363380432
1780506593313606400,5.9746064453125,-0.2592369019985199,0.4656628966331482,0.6710518002510071
1780506593323599600,5.984599609375,-0.29389962553977966,0.578850507736206,0.6054266691207886
1780506593333591800,5.994591796875,-0.33405131101608276,0.6580923199653625,0.5286128520965576
1780506593343583500,6.00458349609375,-0.3241172134876251,0.7989387512207031,0.49409225583076477
1780506593353575700,6.01457568359375,-0.259575754404068,0.8625563979148865,0.5470273494720459
1780506593363568600,6.024568603515625,-0.16004544496536255,0.7286940217018127,0.571746289730072
1780506593373560600,6.034560546875,-0.06577512621879578,0.5790201425552368,0.5908376574516296
1780506593383552500,6.044552490234375,0.016113199293613434,0.49360716342926025,0.5837542414665222
1780506593393545700,6.054545654296875,0.06711938977241516,0.48825982213020325,0.5600060224533081
1780506593403537400,6.064537353515625,0.11102694272994995,0.46724066138267517,0.5792537331581116
1780506593413529600,6.074529541015625,0.17444053292274475,0.4032134711742401,0.6051061153411865
1780506593423522800,6.084522705078125,0.2369968295097351,0.3330838084220886,0.6501297354698181
1780506593433514500,6.094514404296875,0.30655673146247864,0.2381543666124344,0.6956636905670166
1780506593443506400,6.10450634765625,0.32909613847732544,0.23371075093746185,0.7256162166595459
1780506593453498600,6.11449853515625,0.34953537583351135,0.1578838974237442,0.7358790040016174
1780506593463491600,6.12449169921875,0.3810412287712097,0.1067347526550293,0.7170804738998413
1780506593473483500,6.1344833984375,0.3947703540325165,0.006747438106685877,0.6781562566757202
1780506593483475700,6.144475830078125,0.3969564139842987,-0.019679177552461624,0.6479781270027161
1780506593493468400,6.154468505859375,0.356366902589798,-0.0006048199720680714,0.6427032351493835
1780506593503460600,6.164460693359375,0.3416914641857147,-0.01645202934741974,0.6023313403129578
1780506593513452500,6.17445263671875,0.344692587852478,0.0582597590982914,0.5298755168914795
1780506593523445500,6.184445556640625,0.34597593545913696,0.14162948727607727,0.45305538177490234
1780506593533437400,6.1944375,0.34281954169273376,0.17151521146297455,0.395590215921402
1780506593543429600,6.2044296875,0.34386709332466125,0.1550750583410263,0.33291974663734436
1780506593553422600,6.214422607421875,0.36123543977737427,0.10867825895547867,0.2866358757019043
1780506593563414500,6.22441455078125,0.3825696110725403,0.10133399814367294,0.23771049082279205
1780506593573406700,6.23440673828125,0.36705005168914795,0.19332757592201233,0.1943632960319519
1780506593583398700,6.244398681640625,0.3525140881538391,0.2614672780036926,0.145532488822937
1780506593593391600,6.2543916015625,0.32034924626350403,0.3436119556427002,0.1159500852227211
1780506593603383600,6.264383544921875,0.3051864206790924,0.32804304361343384,0.06308048218488693
1780506593613375700,6.274375732421875,0.30328118801116943,0.38447755575180054,0.03455856442451477
1780506593623368000,6.284367919921875,0.3246237635612488,0.2731363773345947,0.016657304018735886
1780506593633360000,6.29435986328125,0.32486531138420105,0.2345714122056961,0.011651626788079739
1780506593643352000,6.30435205078125,0.3104369640350342,0.19601263105869293,0.007390701677650213
1780506593653344800,6.3143447265625,0.28374332189559937,0.20861151814460754,-0.010290291160345078
1780506593663337000,6.3243369140625,0.2381068468093872,0.2452745884656906,-0.002046887530013919
1780506593673329000,6.334328857421875,0.18571874499320984,0.24420267343521118,0.049302320927381516
1780506593683321000,6.344321044921875,0.14615574479103088,0.19395940005779266,0.10219024121761322
1780506593693313800,6.354313720703125,0.1439993977546692,0.07126384973526001,0.13844384253025055
1780506593703306000,6.364305908203125,0.20931793749332428,-0.06598082929849625,0.18678627908229828
1780506593713298000,6.3742978515625,0.31017184257507324,-0.32263949513435364,0.11829643696546555
1780506593723291000,6.384290771484375,0.36079031229019165,-0.32370465993881226,0.04844747856259346
1780506593733283000,6.394282958984375,0.3753785490989685,-0.3360212445259094,-0.029617225751280785
1780506593743275000,6.40427490234375,0.3738288879394531,-0.34868523478507996,-0.13351759314537048
1780506593753268000,6.41426806640625,0.33495524525642395,-0.3057268559932709,-0.2365150898694992
1780506593763260000,6.424260009765625,0.26781973242759705,-0.2441607564687729,-0.3445223569869995
1780506593773252000,6.434252197265625,0.2022537738084793,-0.22962388396263123,-0.4615461826324463
1780506593783244800,6.444244873046875,0.12418333441019058,-0.2285391241312027,-0.6147399544715881
1780506593793237000,6.454237060546875,0.031053394079208374,-0.2541256844997406,-0.7974991202354431
1780506593803229000,6.46422900390625,-0.06118530035018921,-0.28283557295799255,-1.003474473953247
1780506593813220900,6.474220947265625,-0.12899896502494812,-0.3413153886795044,-1.210771918296814
1780506593823213800,6.4842138671875,-0.18745164573192596,-0.4352629482746124,-1.4257687330245972
1780506593833206000,6.4942060546875,-0.2423228770494461,-0.546962559223175,-1.62369966506958
1780506593843197700,6.50419775390625,-0.3241029679775238,-0.6497719883918762,-1.7734670639038086
1780506593853191000,6.51419091796875,-0.44316115975379944,-0.6686311960220337,-1.9041696786880493
1780506593863183000,6.52418310546875,-0.5988882184028625,-0.563563346862793,-2.0407040119171143
1780506593873174800,6.5341748046875,-0.7483895421028137,-0.26516419649124146,-2.1603095531463623
1780506593883168000,6.54416796875,-0.8497442603111267,-0.048002224415540695,-2.175572633743286
1780506593893160000,6.554159912109375,-0.8672465085983276,0.11221594363451004,-2.0846011638641357
1780506593903151900,6.56415185546875,-0.8075404167175293,0.30363816022872925,-1.9727383852005005
1780506593913144800,6.574144775390625,-0.754068911075592,0.4713557958602905,-1.9158066511154175
1780506593923137000,6.584136962890625,-0.933368444442749,0.5918117761611938,-1.8828468322753906
1780506593933129000,6.59412890625,-1.1863833665847778,0.6038090586662292,-1.88423490524292
1780506593943121000,6.604120849609375,-1.303086519241333,0.5495150089263916,-1.9638607501983643
1780506593953114000,6.614114013671875,-1.2453877925872803,0.34407633543014526,-1.9724851846694946
1780506593963105800,6.624105712890625,-1.1350806951522827,0.18165919184684753,-1.9279701709747314
1780506593973098000,6.634097900390625,-1.044675350189209,-0.14731177687644958,-1.8627445697784424
1780506593983091000,6.644091064453125,-0.9018880128860474,-0.7267665266990662,-1.7550173997879028
1780506593993083000,6.654082763671875,-0.7663964629173279,-1.071275234222412,-1.608315110206604
1780506594003074800,6.66407470703125,-0.7711426615715027,-1.2665996551513672,-1.4350346326828003
1780506594013068000,6.674068115234375,-0.7042586803436279,-1.3142050504684448,-1.3300719261169434
1780506594023060000,6.68406005859375,-0.7004263997077942,-1.3877171277999878,-1.357398271560669
1780506594033052000,6.694052001953125,-0.7774889469146729,-1.4220292568206787,-1.4429187774658203
1780506594043043800,6.7040439453125,-0.8601362705230713,-1.406457781791687,-1.534895658493042
1780506594053037000,6.714037109375,-0.9417650699615479,-1.3534836769104004,-1.5804882049560547
1780506594063028700,6.72402880859375,-1.0177292823791504,-1.352561593055725,-1.5396597385406494
1780506594073021000,6.73402099609375,-1.090895175933838,-1.3309487104415894,-1.4888548851013184
1780506594083014000,6.744013916015625,-1.1540405750274658,-1.2550067901611328,-1.449060082435608
1780506594093005800,6.754005859375,-1.144974946975708,-1.199694037437439,-1.4031306505203247
1780506594102998000,6.763998046875,-1.1262245178222656,-1.1923151016235352,-1.3584489822387695
1780506594112991000,6.773990966796875,-1.108424186706543,-1.2855405807495117,-1.2604506015777588
1780506594122983000,6.78398291015625,-1.0581395626068115,-1.349675178527832,-1.1718883514404297
1780506594132974800,6.793974853515625,-0.9886152744293213,-1.3361066579818726,-1.088492512702942
1780506594142968000,6.803968017578125,-0.911368727684021,-1.2773728370666504,-1.0158498287200928
1780506594152959700,6.813959716796875,-0.7701758742332458,-1.2725986242294312,-0.9333035349845886
1780506594162952000,6.823951904296875,-0.6266677379608154,-1.1980078220367432,-0.8130066394805908
1780506594172944000,6.83394384765625,-0.4742875397205353,-1.1986981630325317,-0.7230445146560669
1780506594182936800,6.843936767578125,-0.3724250793457031,-1.2403733730316162,-0.5922971963882446
1780506594192929000,6.853928955078125,-0.27524393796920776,-1.261021375656128,-0.4526274502277374
1780506594202921000,6.8639208984375,-0.17206215858459473,-1.2533506155014038,-0.31734195351600647
1780506594212914000,6.873913818359375,-0.097719207406044,-1.1702951192855835,-0.1987370103597641
1780506594222905900,6.88390576171875,-0.032024085521698,-1.0395182371139526,-0.09701038151979446
1780506594232898000,6.89389794921875,0.023190535604953766,-0.8484554886817932,0.005156456958502531
1780506594242890800,6.903890869140625,0.09958519786596298,-0.6555857062339783,0.07817711681127548
1780506594252883000,6.913883056640625,0.1476597785949707,-0.46558302640914917,0.13626304268836975
1780506594262875000,6.923875,0.16055239737033844,-0.29099443554878235,0.21066775918006897
1780506594272867800,6.933867919921875,0.1331455409526825,-0.16819556057453156,0.3124449849128723
1780506594282860000,6.943860107421875,0.10185514390468597,-0.12088841944932938,0.4415282607078552
1780506594292852000,6.95385205078125,0.08346068859100342,-0.09603846818208694,0.5723538994789124
1780506594302844000,6.963843994140625,0.07201549410820007,-0.10513263195753098,0.724037766456604
1780506594312836900,6.9738369140625,0.06175992265343666,-0.12515133619308472,0.8612459301948547
1780506594322829000,6.9838291015625,0.05133350193500519,-0.14202798902988434,0.9882208704948425
1780506594332821000,6.993821044921875,0.05202752351760864,-0.11741718649864197,1.1296157836914062
1780506594342814000,7.00381396484375,0.10797788202762604,-0.08623184263706207,1.3021479845046997
1780506594352806000,7.013805908203125,0.2682783305644989,-0.04581224545836449,1.4716390371322632
1780506594362798000,7.023798095703125,0.47826725244522095,-0.06636372953653336,1.5731557607650757
1780506594372790800,7.033790771484375,0.7224063873291016,-0.29948511719703674,1.422569751739502
1780506594382783000,7.043782958984375,1.000767469406128,-1.182355284690857,0.6723430752754211
1780506594392775000,7.05377490234375,1.0640606880187988,-1.5676380395889282,0.28709205985069275
1780506594402768000,7.063767822265625,0.681472659111023,-0.3161110579967499,0.5044974684715271
1780506594412760000,7.073760009765625,0.5913004279136658,0.217509463429451,0.9233301877975464
1780506594422752000,7.083751953125,0.43774423003196716,0.4729990065097809,1.0087814331054688
1780506594432744000,7.093743896484375,0.2678268253803253,0.58973628282547,0.8059682250022888
1780506594442737000,7.10373681640625,0.22239047288894653,0.8685650825500488,0.7225627899169922
1780506594452729000,7.11372900390625,0.23258104920387268,1.1493700742721558,0.7708399891853333
1780506594462720800,7.123720703125,0.34894174337387085,1.2725547552108765,0.8185825943946838
1780506594472714000,7.1337138671875,0.48202285170555115,1.4046767950057983,0.8082244992256165
1780506594482706000,7.143705810546875,0.5191826224327087,1.6572496891021729,0.8520270586013794
1780506594492697900,7.15369775390625,0.5417289137840271,1.7847050428390503,0.8864423036575317
1780506594502691000,7.163691162109375,0.6391047835350037,1.7417181730270386,0.9085343480110168
1780506594512683000,7.17368310546875,0.7964475154876709,1.6807507276535034,0.9247865676879883
1780506594522675000,7.183675048828125,0.9384114146232605,1.618478775024414,0.951124906539917
1780506594532667000,7.1936669921875,0.9998154640197754,1.4807566404342651,0.9683710336685181
1780506594542660000,7.20366015625,0.9257532358169556,1.3497234582901,0.9574736952781677
1780506594552651800,7.21365185546875,0.7267528176307678,1.2872315645217896,0.9213881492614746
1780506594562644000,7.22364404296875,0.4729674160480499,1.3036943674087524,0.8682359457015991
1780506594572637000,7.233636962890625,0.24187161028385162,1.3900213241577148,0.8191751837730408
1780506594582628900,7.24362890625,0.05041951686143875,1.5229986906051636,0.798891007900238
1780506594592620800,7.253620849609375,-0.07240946590900421,1.6072434186935425,0.8088600039482117
1780506594602614000,7.263614013671875,-0.11782116442918777,1.695376992225647,0.8020221590995789
1780506594612605700,7.273605712890625,-0.1020645722746849,1.7365750074386597,0.7894837260246277
1780506594622598000,7.283597900390625,-0.058493245393037796,1.579793095588684,0.8049759268760681
1780506594632594200,7.29359423828125,0.017732014879584312,1.2924264669418335,0.8643137812614441
1780506594642586000,7.303586181640625,0.10584614425897598,0.9428321719169617,0.9461149573326111
1780506594652578000,7.313578125,0.19019724428653717,0.6007131934165955,0.9847515225410461
1780506594662570000,7.323570068359375,0.24311290681362152,0.23074577748775482,0.998591959476471
1780506594672563200,7.333563232421875,0.2534915506839752,-0.06321633607149124,1.0262805223464966
1780506594682555000,7.343554931640625,0.21415330469608307,-0.2261924147605896,1.0455259084701538
1780506594692547000,7.353547119140625,0.15780267119407654,-0.31456461548805237,1.0631382465362549
1780506594702540000,7.3635400390625,0.1043863445520401,-0.3897174298763275,1.094024658203125
1780506594712532000,7.373531982421875,0.05635703355073929,-0.4925234317779541,1.1404269933700562
1780506594722524200,7.383524169921875,0.020466379821300507,-0.5149408578872681,1.1803449392318726
1780506594732517000,7.39351708984375,-0.04984959214925766,-0.5663859248161316,1.2636902332305908
1780506594742509000,7.403509033203125,-0.07328350841999054,-0.5131080746650696,1.2460250854492188
1780506594752501000,7.4135009765625,-0.0671348050236702,-0.3456285297870636,1.1665716171264648
1780506594762494200,7.423494140625,-0.08020321279764175,-0.15514245629310608,1.0859514474868774
1780506594772486000,7.43348583984375,-0.12778857350349426,0.11764618754386902,1.0255845785140991
1780506594782478000,7.44347802734375,-0.17748436331748962,0.3334275484085083,0.9588119387626648
1780506594792470000,7.453469970703125,-0.19116635620594025,0.36609095335006714,0.9000615477561951
1780506594802463000,7.463462890625,-0.18162664771080017,0.39809122681617737,0.8019198179244995
1780506594812455000,7.473454833984375,-0.18960148096084595,0.4654521644115448,0.7096484899520874
1780506594822447000,7.483447021484375,-0.17871446907520294,0.4592464566230774,0.6452605128288269
1780506594832440000,7.493440185546875,-0.1829528957605362,0.4207451343536377,0.5755807161331177
1780506594842432000,7.503431884765625,-0.19836100935935974,0.3839898705482483,0.5447565913200378
1780506594852424200,7.513424072265625,-0.1723291426897049,0.2688688635826111,0.5553706288337708
1780506594862417000,7.5234169921875,-0.14719291031360626,0.24345910549163818,0.5383832454681396
1780506594872409000,7.5334091796875,-0.13314953446388245,0.33725377917289734,0.4748985469341278
1780506594882401000,7.543401123046875,-0.09046755731105804,0.3231727182865143,0.41699454188346863
1780506594892394000,7.55339404296875,-0.06167878583073616,0.22799745202064514,0.3735935389995575
1780506594902386000,7.563385986328125,-0.02721630036830902,0.18061724305152893,0.3760095238685608
1780506594912378000,7.573378173828125,-0.003973028156906366,0.1830337941646576,0.41767147183418274
1780506594922370000,7.5833701171875,0.033571816980838776,0.1924985945224762,0.44337332248687744
1780506594932363000,7.593363037109375,0.11701611429452896,0.10889796912670135,0.4663524031639099
1780506594942355200,7.603355224609375,0.20369307696819305,0.07516377419233322,0.520136833190918
1780506594952347100,7.61334716796875,0.24750952422618866,0.05741221457719803,0.5721483826637268
1780506594962340000,7.623340087890625,0.28520870208740234,0.006378456950187683,0.5707015991210938
1780506594972332000,7.63333203125,0.2924836575984955,0.03242363780736923,0.5575711131095886
1780506594982324200,7.64332421875,0.3277003765106201,0.03053845278918743,0.5643122792243958
1780506594992317000,7.65331689453125,0.35778316855430603,0.02456524781882763,0.5852188467979431
1780506595002309000,7.66330908203125,0.3531809449195862,0.09439519792795181,0.6248090267181396
1780506595012301000,7.673301025390625,0.3651236295700073,0.019205905497074127,0.6530311107635498
1780506595022293000,7.68329296875,0.39697518944740295,0.06469329446554184,0.660996675491333
1780506595032286200,7.6932861328125,0.41827356815338135,0.10278448462486267,0.6537355780601501
1780506595042278100,7.703278076171875,0.42502495646476746,0.20509514212608337,0.610380232334137
1780506595052269800,7.713269775390625,0.44959792494773865,0.2305043637752533,0.5294944047927856
1780506595062263000,7.723262939453125,0.4628571569919586,0.2020525485277176,0.4157083034515381
1780506595072255200,7.733255126953125,0.4850657880306244,0.2547666132450104,0.2962239980697632
1780506595082247000,7.743246826171875,0.48948928713798523,0.36664149165153503,0.21000520884990692
1780506595092240100,7.753240234375,0.49135535955429077,0.4155336618423462,0.1499602496623993
1780506595102232000,7.763232177734375,0.4993842542171478,0.4887363910675049,0.11202068626880646
1780506595112224000,7.77322412109375,0.5169845819473267,0.5503624677658081,0.07373055070638657
1780506595122217000,7.783217041015625,0.5118119716644287,0.5869107246398926,0.033994268625974655
1780506595132209200,7.793209228515625,0.4907541573047638,0.5341806411743164,0.05040306970477104
1780506595142200800,7.803200927734375,0.4566231966018677,0.38666045665740967,0.14398755133152008
1780506595152193000,7.813193115234375,0.4283532202243805,0.11347075551748276,0.25301870703697205
1780506595162186200,7.823186279296875,0.36078283190727234,-0.06392620503902435,0.3694911301136017
1780506595172178000,7.833177978515625,0.2975524663925171,-0.0738624557852745,0.4145081639289856
1780506595182170000,7.843170166015625,0.2614006996154785,-0.09220504015684128,0.3997671604156494
1780506595192163000,7.8531630859375,0.2230631709098816,-0.2891782820224762,0.3016624450683594
1780506595202155000,7.863155029296875,0.17729462683200836,-0.38378217816352844,0.19580413401126862
1780506595212147000,7.87314697265625,0.15421408414840698,-0.39649584889411926,0.09700965881347656
1780506595222140200,7.88314013671875,0.14280295372009277,-0.38292860984802246,-0.012779207900166512
1780506595232131800,7.8931318359375,0.1671554297208786,-0.3403891324996948,-0.1667107194662094
1780506595242124000,7.9031240234375,0.17379136383533478,-0.28800004720687866,-0.34968438744544983
1780506595252116000,7.913115966796875,0.13655424118041992,-0.2042500227689743,-0.5716410279273987
1780506595262109000,7.92310888671875,0.0888528898358345,-0.09940529614686966,-0.8256788849830627
1780506595272101000,7.93310107421875,0.019491925835609436,-0.018066231161355972,-1.0759356021881104
1780506595282093000,7.943093017578125,-0.046505704522132874,0.021728849038481712,-1.2971352338790894
1780506595292086000,7.9530859375,-0.11067962646484375,0.010353689081966877,-1.5019325017929077
1780506595302078000,7.963077880859375,-0.20132125914096832,-0.08485252410173416,-1.669829249382019
1780506595312070100,7.973070068359375,-0.31101444363594055,-0.21368293464183807,-1.806405782699585
1780506595322062800,7.983062744140625,-0.4186581075191498,-0.2713587284088135,-1.9128592014312744
1780506595332055000,7.993054931640625,-0.5215054154396057,-0.2421577274799347,-1.9833738803863525
1780506595342047000,8.003046875,-0.6400535106658936,-0.1569463610649109,-2.009150743484497
1780506595352040000,8.0130400390625,-0.7833121418952942,0.0536191388964653,-2.069789171218872
1780506595362031900,8.023031982421875,-0.8303419351577759,0.12006660550832748,-2.070992946624756
1780506595372024000,8.033024169921875,-0.7987762689590454,0.1940356343984604,-2.0503411293029785
1780506595382016000,8.04301611328125,-0.8209797143936157,0.3294776678085327,-2.012608051300049
1780506595392009000,8.053009033203125,-0.8648297190666199,0.28324148058891296,-1.904565691947937
1780506595402001200,8.063001220703125,-0.8763937950134277,0.15375599265098572,-1.8002192974090576
1780506595411993000,8.0729931640625,-0.9095062017440796,0.24262835085391998,-1.7729085683822632
1780506595421986000,8.082986083984375,-0.9267039895057678,0.40827688574790955,-1.816847324371338
1780506595431978000,8.09297802734375,-0.8858303427696228,0.4890691936016083,-1.8467646837234497
1780506595441970200,8.10297021484375,-0.858663022518158,0.3712538480758667,-1.7380952835083008
1780506595451963000,8.112962890625,-0.7783964276313782,0.10698062926530838,-1.6251813173294067
1780506595461955000,8.122955078125,-0.7596437931060791,-0.10868921130895615,-1.544508934020996
1780506595471947000,8.132947021484375,-0.8587623834609985,-0.3310610055923462,-1.4894728660583496
1780506595481939200,8.142939208984375,-1.0204533338546753,-0.5391857624053955,-1.4470436573028564
1780506595491932200,8.15293212890625,-1.1304237842559814,-0.5947928428649902,-1.4918357133865356
1780506595501924000,8.162924072265625,-1.1649956703186035,-0.6504015326499939,-1.5132944583892822
1780506595511916300,8.172916259765625,-1.086623191833496,-0.7335920333862305,-1.4829708337783813
1780506595521909000,8.182908935546875,-1.0123636722564697,-0.7537015080451965,-1.4544552564620972
1780506595531901200,8.192901123046875,-1.0603746175765991,-0.8544326424598694,-1.3508272171020508
1780506595541893000,8.20289306640625,-1.1599617004394531,-0.8956024646759033,-1.2724664211273193
1780506595551886000,8.212885986328125,-1.2537262439727783,-0.8373021483421326,-1.258968472480774
1780506595561878000,8.2228779296875,-1.3595691919326782,-0.7741997838020325,-1.2244278192520142
1780506595571870200,8.2328701171875,-1.4184106588363647,-0.894390881061554,-1.1705310344696045
1780506595581862000,8.24286181640625,-1.3998701572418213,-1.0394036769866943,-1.1308261156082153
1780506595591855000,8.252855224609375,-1.3120659589767456,-1.1905609369277954,-1.0469725131988525
1780506595601847000,8.262846923828125,-1.204725980758667,-1.402766466140747,-0.9029963612556458
1780506595611839000,8.2728388671875,-1.077698826789856,-1.6047285795211792,-0.7937145829200745
1780506595621832200,8.282832275390625,-0.9559588432312012,-1.6762560606002808,-0.7010501027107239
1780506595631821600,8.292821533203124,-0.8460329174995422,-1.5994131565093994,-0.6377062797546387
1780506595641813800,8.302813720703124,-0.7218247652053833,-1.5950582027435303,-0.5483380556106567
1780506595651806700,8.312806640625,-0.6143582463264465,-1.5342936515808105,-0.5022557973861694
1780506595661798700,8.322798583984374,-0.531040608882904,-1.5000158548355103,-0.4715000092983246
1780506595671790600,8.33279052734375,-0.4813297390937805,-1.4583463668823242,-0.4450441598892212
1780506595681783600,8.342783447265624,-0.44758403301239014,-1.3432937860488892,-0.38932889699935913
1780506595691775500,8.352775390625,-0.4080424904823303,-1.1821839809417725,-0.3129124343395233
1780506595701767700,8.362767578125,-0.3507371246814728,-0.9802722930908203,-0.22544078528881073
1780506595711759600,8.372759521484374,-0.28937309980392456,-0.8276004195213318,-0.14487111568450928
1780506595721752600,8.382752685546874,-0.24338416755199432,-0.727001965045929,-0.08271589875221252
1780506595731744800,8.392744873046874,-0.21359938383102417,-0.6445944309234619,-0.010764209553599358
1780506595741736700,8.40273681640625,-0.19299104809761047,-0.5745887160301208,0.07851986587047577
1780506595751729700,8.412729736328124,-0.17222371697425842,-0.5055755972862244,0.18051573634147644
1780506595761721600,8.4227216796875,-0.14860093593597412,-0.43614497780799866,0.2885134816169739
1780506595771713800,8.4327138671875,-0.10906390100717545,-0.3774377107620239,0.3948574960231781
1780506595781706500,8.44270654296875,-0.05556446313858032,-0.28293636441230774,0.4965032935142517
1780506595791698700,8.45269873046875,-0.007142333313822746,-0.1898897886276245,0.6043592095375061
1780506595801690600,8.462690673828124,0.049367159605026245,-0.16327528655529022,0.6975051164627075
1780506595811682800,8.472682861328124,0.09395007789134979,-0.1698591560125351,0.7793248891830444
1780506595821675800,8.48267578125,0.14931930601596832,-0.20033983886241913,0.869841456413269
1780506595831667700,8.492667724609374,0.19558827579021454,-0.18366526067256927,0.9688149094581604
1780506595841660000,8.502659912109374,0.24838410317897797,-0.17790043354034424,1.0445257425308228
1780506595851652600,8.512652587890624,0.27746155858039856,-0.22872686386108398,0.9967485070228577
1780506595861644800,8.522644775390624,0.1869400441646576,-0.23594357073307037,0.852733850479126
1780506595871636700,8.53263671875,0.07245022058486938,-0.2991337180137634,0.6532875895500183
1780506595881629700,8.542629638671874,0.10121048986911774,-0.7919596433639526,0.23726235330104828
1780506595891621600,8.55262158203125,0.15020039677619934,-1.1978455781936646,0.03184527903795242
1780506595901613800,8.56261376953125,0.3146986961364746,-1.1661303043365479,0.19094279408454895
1780506595911605500,8.57260546875,0.6255934834480286,-1.2739993333816528,0.3135978877544403
1780506595921598700,8.5825986328125,0.8243165016174316,-1.4617043733596802,0.3130776882171631
1780506595931590700,8.592590576171874,0.7602477669715881,-0.8121619820594788,0.5702101588249207
1780506595941582600,8.60258251953125,0.6265712380409241,-0.07468010485172272,0.6596099138259888
1780506595951575800,8.612575927734374,0.4322022795677185,0.7783199548721313,0.9177623391151428
1780506595961567700,8.622567626953124,0.33496108651161194,1.5659453868865967,1.1542128324508667
1780506595971559700,8.6325595703125,0.5507711172103882,1.8390637636184692,1.0925707817077637
1780506595981552600,8.642552734375,0.8156031966209412,1.600935697555542,0.8224050402641296
1780506595991544800,8.652544921875,0.8656455874443054,1.4755271673202515,0.6150398850440979
1780506596001536500,8.66253662109375,0.8094820380210876,1.513018012046814,0.649939239025116
1780506596011528700,8.67252880859375,0.804749071598053,1.5602600574493408,0.7685684561729431
1780506596021521700,8.682521728515624,0.8067842721939087,1.5850905179977417,0.8600160479545593
1780506596031513600,8.692513671875,0.7861011028289795,1.5722548961639404,0.8911496996879578
1780506596041505500,8.702505615234376,0.7536419630050659,1.5824121236801147,0.8853335380554199
1780506596051498800,8.712498779296874,0.6997449398040771,1.6189078092575073,0.8665491938591003
1780506596061490700,8.72249072265625,0.6533713936805725,1.6434123516082764,0.8185588717460632
1780506596071482600,8.732482666015626,0.6092396378517151,1.6329569816589355,0.7565929889678955
1780506596081475800,8.742475830078124,0.5514249205589294,1.605103611946106,0.7009679079055786
1780506596091467500,8.752467529296876,0.5087030529975891,1.5629674196243286,0.6582635641098022
1780506596101459700,8.762459716796876,0.49020829796791077,1.4997215270996094,0.6428297758102417
1780506596111451600,8.77245166015625,0.48502233624458313,1.4173473119735718,0.6355452537536621
1780506596121444600,8.782444580078124,0.48830801248550415,1.354640007019043,0.6376451253890991
1780506596131436500,8.7924365234375,0.49158453941345215,1.3409985303878784,0.6390395164489746
1780506596141428700,8.8024287109375,0.4836706817150116,1.326484203338623,0.6494070887565613
1780506596151421700,8.812421630859374,0.4553000330924988,1.2674161195755005,0.6735907196998596
1780506596161413600,8.82241357421875,0.4087826907634735,1.1586310863494873,0.7015841603279114
1780506596171405800,8.83240576171875,0.3454034626483917,1.0422998666763306,0.7102319598197937
1780506596181398500,8.8423984375,0.26725685596466064,0.9220185279846191,0.7248100638389587
1780506596191390700,8.852390625,0.21339121460914612,0.8049702048301697,0.7311345338821411
1780506596201382700,8.862382568359376,0.17715613543987274,0.7202877402305603,0.7305449843406677
1780506596211374800,8.872374755859376,0.15548387169837952,0.58702552318573,0.7539616227149963
1780506596221367600,8.882367431640626,0.15160229802131653,0.3985094130039215,0.8033941388130188
1780506596231359700,8.89235986328125,0.17668555676937103,0.20968890190124512,0.8949421644210815
1780506596241351700,8.9023515625,0.20732228457927704,0.030729537829756737,1.0091639757156372
1780506596251344600,8.9123447265625,0.23551024496555328,-0.16765838861465454,1.0958243608474731
1780506596261336600,8.922336669921876,0.2408262938261032,-0.33670687675476074,1.1234487295150757
1780506596271328800,8.932328857421876,0.20353485643863678,-0.4287411868572235,1.101915717124939
1780506596281321700,8.94232177734375,0.11164837330579758,-0.491323322057724,1.0988566875457764
1780506596291313700,8.952313720703126,0.01971631497144699,-0.49175822734832764,1.0680795907974243
1780506596301305900,8.962305908203126,-0.040833450853824615,-0.46199560165405273,1.0533995628356934
1780506596311297500,8.972297607421876,-0.08099977672100067,-0.3265243172645569,0.9932680726051331
1780506596321290800,8.982290771484376,-0.13745161890983582,-0.00815780833363533,0.8858914375305176
1780506596331282700,8.99228271484375,-0.20022206008434296,0.25171875953674316,0.8494439721107483
1780506596341274600,9.002274658203126,-0.2532205581665039,0.392305463552475,0.8439904451370239
1780506596351267600,9.012267578125,-0.2650300860404968,0.4358997941017151,0.8286492824554443
1780506596361259800,9.022259765625,-0.25452083349227905,0.483894944190979,0.7790654301643372
1780506596371251500,9.03225146484375,-0.22988925874233246,0.5898754596710205,0.6903201341629028
1780506596381243600,9.04224365234375,-0.22320154309272766,0.6098953485488892,0.6475526690483093
1780506596391236900,9.05223681640625,-0.21897165477275848,0.6348169445991516,0.6367013454437256
1780506596401228500,9.062228515625,-0.22715327143669128,0.5891975164413452,0.6088558435440063
1780506596411220700,9.072220703125,-0.20313608646392822,0.48094797134399414,0.5943440198898315
1780506596421213700,9.082213623046876,-0.10407846421003342,0.3358875811100006,0.5705379843711853
1780506596431205600,9.09220556640625,0.00898923072963953,0.25140199065208435,0.5686633586883545
1780506596441197600,9.102197509765626,0.09650307893753052,0.18633165955543518,0.591660737991333
1780506596451190800,9.112190673828126,0.15115833282470703,0.13541653752326965,0.6000920534133911
1780506596461182700,9.1221826171875,0.16080044209957123,0.11289437860250473,0.6116322875022888
1780506596471174700,9.132174560546876,0.2323254942893982,0.10701757669448853,0.6234990358352661
1780506596481166600,9.14216650390625,0.31281208992004395,0.15962180495262146,0.6084267497062683
1780506596491159600,9.15215966796875,0.3394642174243927,0.27539607882499695,0.5826292634010315
1780506596501151500,9.1621513671875,0.32718876004219055,0.2883894443511963,0.5779209136962891
1780506596511143700,9.172143798828126,0.302122563123703,0.21501988172531128,0.5687931776046753
1780506596521136600,9.18213671875,0.2897565960884094,0.15567512810230255,0.5420019030570984
1780506596531128600,9.192128662109376,0.3563007414340973,0.1534055769443512,0.4823066294193268
1780506596541120800,9.202120849609376,0.4208008944988251,0.23265127837657928,0.4060060381889343
1780506596551113700,9.21211376953125,0.4630407691001892,0.1890404224395752,0.3230475187301636
1780506596561105700,9.222105712890626,0.44087937474250793,0.2058650106191635,0.28826260566711426
1780506596571097600,9.23209765625,0.4383411109447479,0.23161856830120087,0.2554556727409363
1780506596581089800,9.24208984375,0.45468804240226746,0.29259395599365234,0.26412758231163025
1780506596591082500,9.25208251953125,0.46378883719444275,0.37429574131965637,0.27840346097946167
1780506596601074700,9.26207470703125,0.49858367443084717,0.3677365779876709,0.2891853153705597
1780506596611066600,9.272066650390625,0.5190370082855225,0.3971245586872101,0.3131340444087982
1780506596621059600,9.2820595703125,0.538600742816925,0.46412739157676697,0.34511980414390564
1780506596631051300,9.29205126953125,0.5623471140861511,0.4540555775165558,0.34448063373565674
1780506596641043200,9.302043212890625,0.5835040211677551,0.37452784180641174,0.3228393793106079
1780506596651036200,9.3120361328125,0.6022723913192749,0.3554888963699341,0.28789442777633667
1780506596661028000,9.322028076171875,0.5958430171012878,0.34681352972984314,0.21456845104694366
1780506596671020300,9.332020263671875,0.5646914839744568,0.3475855886936188,0.11811994761228561
1780506596681012200,9.34201220703125,0.5060418248176575,0.3254784941673279,0.05261440575122833
1780506596691005200,9.352005126953125,0.44413694739341736,0.2871367037296295,0.024413924664258957
1780506596700997000,9.3619970703125,0.3674721419811249,0.22168079018592834,0.05623267963528633
1780506596710989300,9.3719892578125,0.29538995027542114,0.10079963505268097,0.1098271980881691
1780506596720982300,9.381982177734375,0.2527928352355957,-0.04132974147796631,0.13239333033561707
1780506596730974200,9.39197412109375,0.20989756286144257,-0.1335235983133316,0.12246134132146835
1780506596740966400,9.40196630859375,0.18955539166927338,-0.13465003669261932,0.08359361439943314
1780506596750959000,9.411958984375,0.1760513037443161,-0.13412486016750336,-0.013137458823621273
1780506596760951300,9.421951416015625,0.14121662080287933,-0.25156253576278687,-0.18910077214241028
1780506596770943200,9.431943115234375,0.09488508105278015,-0.22314848005771637,-0.40431106090545654
1780506596780935200,9.44193505859375,0.07110174745321274,-0.20384296774864197,-0.6691186428070068
1780506596790928100,9.45192822265625,0.04947687312960625,-0.18856653571128845,-0.9273653626441956
1780506596800920300,9.46192041015625,0.014869614504277706,-0.14016397297382355,-1.1356064081192017
1780506596810912300,9.471912353515625,-0.04506722092628479,-0.04859118536114693,-1.293789029121399
1780506596820905200,9.4819052734375,-0.11763783544301987,0.03061135858297348,-1.4488544464111328
1780506596830897400,9.4918974609375,-0.19783200323581696,0.06874196976423264,-1.6015363931655884
1780506596840889000,9.50188916015625,-0.28661805391311646,0.04206867516040802,-1.7396265268325806
1780506596850881000,9.511881103515625,-0.39687931537628174,-0.0352998822927475,-1.8312618732452393
1780506596860874200,9.521874267578125,-0.529288649559021,-0.029772022739052773,-1.8914045095443726
1780506596870866200,9.5318662109375,-0.6475660800933838,-0.12516112625598907,-1.8455537557601929
1780506596880858000,9.541858154296875,-0.7213923931121826,-0.22084403038024902,-1.7606158256530762
1780506596890851300,9.551851318359375,-0.7947601079940796,-0.15345913171768188,-1.7054328918457031
1780506596900843300,9.56184326171875,-0.8560290932655334,-0.10654423385858536,-1.6505670547485352
1780506596910835200,9.571835205078125,-0.8798385262489319,-0.1753097027540207,-1.5914685726165771
1780506596920828200,9.581828125,-0.9078352451324463,-0.2637145519256592,-1.5493437051773071
1780506596930820400,9.5918203125,-0.8921476006507874,-0.3524244427680969,-1.5168962478637695
1780506596940812000,9.60181201171875,-0.8157398104667664,-0.3879971504211426,-1.4816532135009766
1780506596950804200,9.61180419921875,-0.7098490595817566,-0.4150415360927582,-1.4632524251937866
1780506596960797200,9.621797119140625,-0.5876694917678833,-0.4731319546699524,-1.4423402547836304
1780506596970789000,9.6317890625,-0.5571824312210083,-0.4336252808570862,-1.4449878931045532
1780506596980781300,9.64178125,-0.5921846032142639,-0.44292160868644714,-1.453439712524414
1780506596990774300,9.651774169921875,-0.6749240159988403,-0.549527108669281,-1.4357943534851074
1780506597000766200,9.66176611328125,-0.8190538287162781,-0.7171578407287598,-1.4582021236419678
1780506597010758100,9.671758056640625,-1.0625402927398682,-0.8742949962615967,-1.4979276657104492
1780506597020751400,9.68175146484375,-1.2092198133468628,-0.9848676323890686,-1.4784125089645386
1780506597030743000,9.691742919921875,-1.2353155612945557,-0.9718778133392334,-1.421933889389038
1780506597040735200,9.7017353515625,-1.2719908952713013,-0.8727138042449951,-1.3353707790374756
1780506597050727200,9.71172705078125,-1.3059723377227783,-0.8769000172615051,-1.2396405935287476
1780506597060720000,9.72172021484375,-1.3178443908691406,-0.9542285799980164,-1.1645030975341797
1780506597070712300,9.73171240234375,-1.3635122776031494,-0.8932256698608398,-1.0594264268875122
1780506597080704300,9.741704345703125,-1.411760926246643,-0.8170918822288513,-1.082794427871704
1780506597090697200,9.751697265625,-1.4078612327575684,-0.9733286499977112,-1.1639294624328613
1780506597100689200,9.761689208984375,-1.3637703657150269,-1.161109209060669,-1.1858009099960327
1780506597110681300,9.771681396484375,-1.3009541034698486,-1.2963069677352905,-1.1441106796264648
1780506597120674000,9.781674072265625,-1.2760272026062012,-1.3845129013061523,-1.062575101852417
1780506597130666200,9.791666259765625,-1.2511941194534302,-1.413514494895935,-0.9718660116195679
1780506597140658200,9.801658203125,-1.2064990997314453,-1.4461085796356201,-0.8656908869743347
1780506597150650400,9.811650390625,-1.1303491592407227,-1.515672206878662,-0.7519757747650146
1780506597160643000,9.82164306640625,-1.0242186784744263,-1.5654551982879639,-0.6281160712242126
1780506597170635300,9.83163525390625,-0.8964522480964661,-1.6117947101593018,-0.536038339138031
1780506597180627200,9.841627197265625,-0.7872553467750549,-1.5525060892105103,-0.4659569561481476
1780506597190620200,9.8516201171875,-0.7015042304992676,-1.4874756336212158,-0.3770393431186676
1780506597200612400,9.8616123046875,-0.6130154728889465,-1.4260430335998535,-0.30704718828201294
1780506597210604300,9.871604248046875,-0.49688196182250977,-1.4268254041671753,-0.24570180475711823
1780506597220596200,9.88159619140625,-0.3869416117668152,-1.3772600889205933,-0.16931207478046417
1780506597230589200,9.891589111328125,-0.2963653802871704,-1.2389488220214844,-0.09336244314908981
1780506597240581400,9.901581298828125,-0.22391274571418762,-1.1030223369598389,-0.02412676438689232
1780506597250573000,9.911572998046875,-0.17227591574192047,-0.9715572595596313,0.07057444006204605
1780506597260566300,9.921566162109375,-0.1195981577038765,-0.8150607943534851,0.18175415694713593
1780506597270558200,9.93155810546875,-0.0594799630343914,-0.6638894081115723,0.26578807830810547
1780506597280550100,9.941550048828125,-0.014756988734006882,-0.5580103397369385,0.35528427362442017
1780506597290542000,9.9515419921875,0.020307786762714386,-0.44012153148651123,0.43331941962242126
1780506597300535300,9.961535400390625,0.05832439661026001,-0.31691184639930725,0.5092496275901794
1780506597310527200,9.97152734375,0.08145901560783386,-0.2387307584285736,0.558893620967865
1780506597320519200,9.981519287109375,0.10702617466449738,-0.16543643176555634,0.6229159832000732
1780506597330512400,9.991512451171875,0.13179250061511993,-0.0868590772151947,0.7135489583015442
1780506597340504000,10.001504150390625,0.14976683259010315,-0.011865993030369282,0.817785918712616
1780506597350496300,10.011496337890625,0.1528923213481903,0.05418732762336731,0.9257677793502808
1780506597360489200,10.0214892578125,0.16133907437324524,0.12946289777755737,0.9971005916595459
1780506597370481200,10.031481201171875,0.19155849516391754,0.1926242858171463,0.9899901747703552
1780506597380473000,10.04147314453125,0.21971024572849274,0.24353274703025818,1.0078786611557007
1780506597390465300,10.05146533203125,0.2581314146518707,0.09666980803012848,0.9259611964225769
1780506597400458200,10.061458251953125,0.2270340472459793,-0.619308352470398,0.47654932737350464
1780506597410450200,10.0714501953125,0.04199308529496193,-0.8024728298187256,0.36582839488983154
1780506597420442000,10.081442138671875,0.011339585296809673,-0.21248850226402283,0.5309669375419617
1780506597430435000,10.09143505859375,0.1873582899570465,-0.16985341906547546,0.5867369771003723
1780506597440427300,10.10142724609375,0.2191922515630722,0.3028160333633423,0.9180939197540283
1780506597450419200,10.111419189453125,0.28853511810302734,0.755104124546051,1.038124918937683
1780506597460412200,10.121412109375,0.34654727578163147,0.9664753675460815,1.0615215301513672
1780506597470404000,10.131404052734375,0.3849652409553528,1.0810132026672363,1.0325043201446533
1780506597480396300,10.141396240234375,0.3647182881832123,1.3141976594924927,1.045204758644104
1780506597490388200,10.15138818359375,0.38238170742988586,1.5268577337265015,1.129549264907837
1780506597500381200,10.161381103515625,0.49891361594200134,1.6246798038482666,1.1627166271209717
1780506597510373000,10.171373046875,0.6274175643920898,1.6442241668701172,1.159830093383789
1780506597520365300,10.181365234375,0.7471345067024231,1.6210198402404785,1.1596485376358032
1780506597530358300,10.191358154296875,0.8380071520805359,1.5539315938949585,1.115796685218811
1780506597540350200,10.20135009765625,0.8720194697380066,1.4613901376724243,1.0310111045837402
1780506597550342400,10.21134228515625,0.8739705085754395,1.3380218744277954,0.9174197316169739
1780506597560334000,10.221333984375,0.8496472835540771,1.2647918462753296,0.8336121439933777
1780506597570327300,10.231327392578125,0.7850131988525391,1.1643949747085571,0.7995955944061279
1780506597580319200,10.2413193359375,0.6852251887321472,1.092414379119873,0.791744589805603
1780506597590311200,10.251311279296875,0.5741758942604065,1.075148105621338,0.7774567008018494
1780506597600304000,10.26130419921875,0.4880712628364563,1.093253493309021,0.7308545112609863
1780506597610296300,10.27129638671875,0.4314013123512268,1.118086338043213,0.6657479405403137
1780506597620288300,10.281288330078125,0.3975309729576111,1.1846909523010254,0.5970351696014404
1780506597630281200,10.29128125,0.37263283133506775,1.1970605850219727,0.5665904879570007
1780506597640273400,10.3012734375,0.34689444303512573,1.1512112617492676,0.5802119970321655
1780506597650265300,10.311265380859375,0.3402085602283478,1.096545934677124,0.6308671832084656
1780506597660257300,10.32125732421875,0.3642430901527405,1.076512098312378,0.6778526306152344
1780506597670250500,10.33125048828125,0.403920441865921,1.06427001953125,0.6964441537857056
1780506597680242200,10.3412421875,0.4219745397567749,0.9772697687149048,0.723446249961853
1780506597690234000,10.351234130859375,0.38557523488998413,0.8778731226921082,0.7847229242324829
1780506597700227300,10.361227294921875,0.33263543248176575,0.7885156273841858,0.8297120332717896
1780506597710219300,10.37121923828125,0.2486819624900818,0.7134299278259277,0.8803784251213074
1780506597720211200,10.381211181640625,0.17500068247318268,0.5397599935531616,0.9305976629257202
1780506597730203400,10.391203369140625,0.14395354688167572,0.29376909136772156,0.9896660447120667
1780506597740196400,10.4011962890625,0.15424039959907532,0.06621255725622177,1.0397403240203857
1780506597750188300,10.411188232421875,0.18507927656173706,-0.11296278238296509,1.0225173234939575
1780506597760180200,10.42118017578125,0.1828366369009018,-0.23804627358913422,0.9959437251091003
1780506597770173200,10.431173095703125,0.12431101500988007,-0.3038005232810974,0.9628131985664368
1780506597780165000,10.4411650390625,0.01717270538210869,-0.26663509011268616,0.9246290326118469
1780506597790157300,10.4511572265625,-0.0763668343424797,-0.1751887947320938,0.9025503396987915
1780506597800150300,10.461150390625,-0.12149063497781754,-0.13978461921215057,0.9227838516235352
1780506597810142200,10.47114208984375,-0.1358535885810852,-0.03486218675971031,0.8858048319816589
1780506597820134400,10.481134521484375,-0.13514399528503418,0.16259542107582092,0.789142906665802
1780506597830126300,10.491126220703125,-0.16671177744865417,0.24288839101791382,0.68581622838974
1780506597840119300,10.501119384765625,-0.17344677448272705,0.2698507010936737,0.6296027302742004
1780506597850111200,10.511111328125,-0.12874162197113037,0.4009706377983093,0.5974751114845276
1780506597860103400,10.521103515625,-0.08996174484491348,0.48412638902664185,0.5469567179679871
1780506597870096100,10.53109619140625,-0.0827174186706543,0.5417537093162537,0.48451539874076843
1780506597880088300,10.54108837890625,-0.0609709694981575,0.567450225353241,0.4050048291683197
1780506597890080300,10.551080322265625,-0.05730832368135452,0.5918146967887878,0.3292924761772156
1780506597900072400,10.561072509765625,-0.07967489957809448,0.46982699632644653,0.33351007103919983
1780506597910065400,10.5710654296875,-0.05122461915016174,0.37446239590644836,0.32623353600502014
1780506597920057300,10.581057373046875,0.03747890517115593,0.29508623480796814,0.30904993414878845
1780506597930049500,10.591049560546875,0.16620652377605438,0.21465475857257843,0.2740589380264282
1780506597940042200,10.601042236328125,0.2458181232213974,0.13268646597862244,0.24823904037475586
1780506597950034400,10.611034423828125,0.24451477825641632,0.11410664767026901,0.20380046963691711
1780506597960026400,10.6210263671875,0.19927872717380524,0.05378785356879234,0.17244181036949158
1780506597970019300,10.631019287109375,0.17009927332401276,0.027499787509441376,0.16487257182598114
1780506597980011300,10.64101123046875,0.18818172812461853,0.08310386538505554,0.1726115494966507
1780506597990003500,10.65100341796875,0.20185066759586334,0.13936473429203033,0.18632549047470093
1780506597999995100,10.6609951171875,0.22882714867591858,0.19952167570590973,0.18782471120357513
1780506598009988400,10.67098828125,0.2527923882007599,0.2558339834213257,0.1824411302804947
1780506598019980300,10.680980224609375,0.30717936158180237,0.2748667001724243,0.18678079545497894
1780506598029972200,10.69097216796875,0.37239351868629456,0.28319334983825684,0.18566226959228516
1780506598039965400,10.70096533203125,0.4478509724140167,0.25642910599708557,0.17937898635864258
1780506598049957400,10.710957275390625,0.48868468403816223,0.3410819470882416,0.1890989989042282
1780506598059949300,10.72094921875,0.5278797745704651,0.38319888710975647,0.20732718706130981
1780506598069941200,10.730941162109374,0.5615258812904358,0.4934806823730469,0.22107070684432983
1780506598079934500,10.7409345703125,0.5964850783348083,0.5571815967559814,0.2206391841173172
1780506598089926100,10.750926025390624,0.6101564168930054,0.6793386340141296,0.24014364182949066
1780506598099918300,10.76091845703125,0.6430718302726746,0.675301194190979,0.24355553090572357
1780506598109911300,10.770911376953125,0.6608406901359558,0.6494210958480835,0.24067504703998566
1780506598119903200,10.7809033203125,0.6693779230117798,0.5377693772315979,0.25693362951278687
1780506598129895200,10.790895263671874,0.6539286375045776,0.38670504093170166,0.2911919951438904
1780506598139888400,10.800888427734375,0.6130347847938538,0.19199837744235992,0.323806494474411
1780506598149880300,10.81088037109375,0.5120511651039124,0.03291792422533035,0.3516996502876282
1780506598159872300,10.820872314453124,0.4149377644062042,-0.0968535915017128,0.3324662744998932
1780506598169864400,10.830864501953124,0.3075260818004608,-0.2061459869146347,0.258434921503067
1780506598179857200,10.840857177734375,0.22869227826595306,-0.23321835696697235,0.1463766098022461
1780506598189849300,10.850849365234374,0.18249201774597168,-0.41309890151023865,-0.027051106095314026
1780506598199841300,10.86084130859375,0.09731801599264145,-0.47889524698257446,-0.25417235493659973
1780506598209834200,10.870834228515625,-0.0042794495820999146,-0.41028207540512085,-0.49818819761276245
1780506598219826200,10.880826171875,-0.09869610518217087,-0.28196626901626587,-0.7791124582290649
1780506598229818400,10.890818359375,-0.1962708681821823,-0.1575140655040741,-1.0721937417984009
1780506598239810300,10.900810302734374,-0.25848084688186646,0.01501329056918621,-1.3462780714035034
1780506598249803300,10.91080322265625,-0.32925915718078613,0.1966256946325302,-1.5815603733062744
1780506598259795200,10.920795166015624,-0.42177775502204895,0.390793114900589,-1.7907227277755737
1780506598269787400,10.930787353515624,-0.5555291771888733,0.6022757887840271,-2.0174713134765625
1780506598279780400,10.9407802734375,-0.7415359020233154,0.8137223720550537,-2.2244997024536133
1780506598289772300,10.950772216796874,-0.9211735725402832,0.9262866973876953,-2.3442418575286865
1780506598299764500,10.960764404296874,-1.079012393951416,1.0197162628173828,-2.354936122894287
1780506598309756200,10.970756103515624,-1.186016321182251,1.0585973262786865,-2.290860652923584
1780506598319749400,10.980749267578124,-1.1558260917663574,0.8039547801017761,-2.163428783416748
1780506598329741300,10.9907412109375,-1.0931775569915771,0.474007785320282,-1.9767484664916992
1780506598339733200,11.000733154296874,-1.0148390531539917,0.09855325520038605,-1.7271220684051514
1780506598349726200,11.010726318359374,-0.8110014200210571,-0.4152520000934601,-1.487400770187378
1780506598359718400,11.020718505859374,-0.6786103248596191,-0.599660336971283,-1.3868573904037476
1780506598369710000,11.0307099609375,-0.6764854192733765,-0.477044939994812,-1.4162358045578003
1780506598379702300,11.040702392578124,-0.6598839163780212,-0.46794313192367554,-1.5011714696884155
1780506598389695500,11.050695556640624,-0.7020300626754761,-0.5272074937820435,-1.5842173099517822
1780506598399687200,11.060687255859374,-0.711112916469574,-0.5898845791816711,-1.5685316324234009
1780506598409679400,11.070679443359374,-0.7244295477867126,-0.6186770796775818,-1.4851281642913818
1780506598419672300,11.08067236328125,-0.8379778265953064,-0.3853628933429718,-1.3935271501541138
1780506598429664300,11.090664306640624,-0.9625484943389893,-0.2547247111797333,-1.3230148553848267
1780506598439656200,11.10065625,-1.079586148262024,-0.48109951615333557,-1.361014485359192
1780506598449649400,11.1106494140625,-1.1635242700576782,-0.7406986355781555,-1.4021939039230347
1780506598459641300,11.120641357421874,-1.1617504358291626,-0.9412481188774109,-1.3814481496810913
1780506598469633300,11.13063330078125,-1.1587839126586914,-1.254988193511963,-1.32353937625885
1780506598479625200,11.140625244140624,-1.2470251321792603,-1.3241597414016724,-1.3301652669906616
1780506598489618200,11.1506181640625,-1.3286702632904053,-1.3871040344238281,-1.2810946702957153
1780506598499610000,11.160610107421874,-1.3200589418411255,-1.4271371364593506,-1.2418997287750244
1780506598509602300,11.170602294921874,-1.2256672382354736,-1.4792786836624146,-1.2417019605636597
1780506598519595300,11.18059521484375,-1.1876294612884521,-1.5587669610977173,-1.2303707599639893
1780506598529587200,11.190587158203124,-1.1376211643218994,-1.66538405418396,-1.1773778200149536
1780506598539579400,11.200579345703124,-1.0967416763305664,-1.7207281589508057,-1.08832585811615
1780506598549571300,11.2105712890625,-1.0594075918197632,-1.7530503273010254,-0.9833607077598572
1780506598559564300,11.220564208984374,-0.9930052161216736,-1.7776644229888916,-0.8575608134269714
1780506598569556200,11.23055615234375,-0.879176914691925,-1.7725588083267212,-0.7510319352149963
1780506598579548400,11.24054833984375,-0.7215926051139832,-1.7451000213623047,-0.6483262777328491
1780506598589541000,11.250541015625,-0.5382166504859924,-1.6478805541992188,-0.5618323683738708
1780506598599533300,11.260533203125,-0.3820890486240387,-1.462660789489746,-0.4931396543979645
1780506598609525200,11.270525146484376,-0.3020711839199066,-1.2528854608535767,-0.3873644769191742
1780506598619517400,11.280517333984376,-0.2248653769493103,-1.0689393281936646,-0.2714651823043823
1780506598629511000,11.290510986328124,-0.14194118976593018,-0.8761746287345886,-0.15970481932163239
1780506598639502800,11.3005029296875,-0.0655626505613327,-0.7095569968223572,-0.03596556559205055
1780506598649494800,11.310494873046874,-0.0016603721305727959,-0.522179126739502,0.06467742472887039
1780506598659487700,11.32048779296875,0.04927775263786316,-0.36809203028678894,0.1246216893196106
1780506598669480000,11.33047998046875,0.08768266439437866,-0.27185043692588806,0.17249520123004913
1780506598679471600,11.3404716796875,0.12858480215072632,-0.25480207800865173,0.2245667278766632
1780506598689463800,11.3504638671875,0.1524219661951065,-0.2975940406322479,0.29947081208229065
1780506598699456800,11.360456787109374,0.1630856692790985,-0.3608044683933258,0.41609910130500793
1780506598709448700,11.37044873046875,0.16610436141490936,-0.3504389226436615,0.537836492061615
1780506598719440600,11.380440673828126,0.17715753614902496,-0.3515578508377075,0.6757259964942932
1780506598729433900,11.390433837890624,0.20175449550151825,-0.3387256860733032,0.8151989579200745
1780506598739425800,11.40042578125,0.21963725984096527,-0.28242185711860657,0.9589259624481201
1780506598749417700,11.410417724609376,0.2173866182565689,-0.1777380406856537,1.0653074979782104
1780506598759411000,11.420410888671874,0.19157402217388153,-0.0709681361913681,1.0978920459747314
1780506598769402600,11.430402587890624,0.14077769219875336,0.08871926367282867,1.0876500606536865
1780506598779394800,11.440394775390626,0.1387353390455246,0.18309636414051056,1.163673758506775
1780506598789386800,11.45038671875,0.22730088233947754,0.11767049133777618,1.118994951248169
1780506598799379700,11.460379638671874,0.37959080934524536,-0.3415733873844147,0.871320903301239
1780506598809371600,11.47037158203125,0.3909292221069336,-0.43235281109809875,0.8546838760375977
1780506598819363800,11.48036376953125,0.4214991331100464,-0.23731502890586853,0.7707291841506958
1780506598829356800,11.490356689453124,0.5098018050193787,-0.26500579714775085,0.6334642767906189
1780506598839348700,11.5003486328125,0.35940685868263245,0.3674527108669281,0.829582691192627
1780506598849341000,11.5103408203125,0.2763569951057434,0.830383837223053,0.9534926414489746
1780506598859332900,11.520332763671876,0.317332923412323,0.9488735795021057,0.9452415704727173
1780506598869325800,11.530325927734374,0.37511205673217773,0.9374513030052185,0.9584223628044128
1780506598879317800,11.54031787109375,0.44577983021736145,1.0598055124282837,0.9301598072052002
1780506598889310000,11.55031005859375,0.5171890258789062,1.2821338176727295,0.9424034357070923
1780506598899302700,11.560302734375,0.5995046496391296,1.4021726846694946,0.9289740920066833
1780506598909294800,11.570294921875,0.6399487257003784,1.5124962329864502,0.9451266527175903
1780506598919286800,11.580286865234376,0.6852134466171265,1.560752511024475,0.9967891573905945
1780506598929279000,11.590279052734376,0.7857040762901306,1.5437580347061157,1.0049282312393188
1780506598939271700,11.600271728515626,0.8980591297149658,1.5447375774383545,0.9684221744537354
1780506598949264000,11.610263916015626,0.9894148707389832,1.503515362739563,0.9199169874191284
1780506598959255800,11.620255859375,1.0259405374526978,1.4258263111114502,0.8974646925926208
1780506598969248800,11.630248779296876,1.0120590925216675,1.3368666172027588,0.8797131180763245
1780506598979241000,11.640240966796876,0.9397826194763184,1.2375998497009277,0.8607447743415833
1780506598989233000,11.65023291015625,0.8108419179916382,1.1448581218719482,0.846202552318573
1780506598999224800,11.660224853515626,0.6535430550575256,1.1030101776123047,0.8263459205627441
1780506599009217800,11.6702177734375,0.49853208661079407,1.0291870832443237,0.8079229593276978
1780506599019210000,11.6802099609375,0.3773852586746216,0.9378289580345154,0.7570728063583374
1780506599029201700,11.69020166015625,0.30102258920669556,0.9255363345146179,0.6739600300788879
1780506599039195000,11.70019482421875,0.25538700819015503,0.9289842844009399,0.6110513210296631
1780506599049186800,11.710186767578126,0.2337924838066101,0.8929144740104675,0.6113908886909485
1780506599059178800,11.7201787109375,0.24923424422740936,0.7895699739456177,0.6522223353385925
1780506599069170700,11.730170654296876,0.267244428396225,0.6806895732879639,0.6854785680770874
1780506599079164000,11.740163818359376,0.27471673488616943,0.631068766117096,0.6743658185005188
1780506599089155800,11.75015576171875,0.28930845856666565,0.5708573460578918,0.7156253457069397
1780506599099147800,11.760147705078126,0.29351332783699036,0.4900090992450714,0.795030951499939
1780506599109141000,11.77014111328125,0.25439441204071045,0.4590274691581726,0.8576596975326538
1780506599119132700,11.780132568359376,0.18909013271331787,0.39143678545951843,0.8991575241088867
1780506599129124900,11.790124755859376,0.09924812614917755,0.254025399684906,0.9482669830322266
1780506599139116800,11.80011669921875,0.03236107900738716,0.05915132164955139,0.961776614189148
1780506599149109800,11.81010986328125,0.018286537379026413,-0.1250009387731552,0.9276162385940552
1780506599159101700,11.820101806640626,0.01879735291004181,-0.26579228043556213,0.9293273091316223
1780506599169094000,11.830093994140626,-0.011870810762047768,-0.30333513021469116,0.924187421798706
1780506599179086600,11.840086669921876,-0.06711823493242264,-0.2991371154785156,0.9115179181098938
1780506599189078800,11.850078857421876,-0.11463222652673721,-0.27177393436431885,0.8997579216957092
1780506599199070700,11.86007080078125,-0.10844156891107559,-0.17922915518283844,0.8857499361038208
1780506599209063000,11.87006298828125,-0.12051580846309662,0.05335162207484245,0.8051954507827759
1780506599219055900,11.880055908203126,-0.10892598330974579,0.13552293181419373,0.7481114268302917
1780506599229047800,11.8900478515625,-0.10128217935562134,0.15380659699440002,0.6954730153083801
1780506599239040000,11.9000400390625,-0.13642285764217377,0.32335394620895386,0.6211376190185547
1780506599249032700,11.91003271484375,-0.16647130250930786,0.5502225160598755,0.5485289096832275
1780506599259025000,11.92002490234375,-0.1621726006269455,0.6856074333190918,0.5087639689445496
1780506599269016800,11.930016845703125,-0.20884157717227936,0.8180347084999084,0.5141182541847229
1780506599279008800,11.9400087890625,-0.20275980234146118,0.8520025014877319,0.5131476521492004
1780506599289001700,11.950001708984376,-0.11778127402067184,0.8697540760040283,0.5021570324897766
1780506599298994000,11.959993896484375,0.01506237592548132,0.8110405802726746,0.4851328730583191
1780506599308985600,11.969985595703125,0.17222510278224945,0.6188386082649231,0.486633837223053
1780506599318978800,11.979978759765626,0.3331817388534546,0.443689227104187,0.47081461548805237
1780506599328971000,11.989970947265626,0.389893501996994,0.33941739797592163,0.38846009969711304
1780506599338962700,11.999962646484375,0.3628745675086975,0.23800961673259735,0.3218916356563568
1780506599348955000,12.009954833984375,0.3480450212955475,0.17211395502090454,0.30580267310142517
1780506599358947800,12.01994775390625,0.35553687810897827,0.18582184612751007,0.30021753907203674
1780506599368939800,12.029939697265625,0.3473191559314728,0.2233780026435852,0.30395954847335815
1780506599378931700,12.039931640625,0.3331262469291687,0.22635923326015472,0.3038640320301056
1780506599388925000,12.049925048828126,0.2974116802215576,0.23987875878810883,0.33132869005203247
1780506599398916600,12.05991650390625,0.2946295738220215,0.2064456343650818,0.3396986424922943
1780506599408908800,12.06990869140625,0.33020859956741333,0.18296213448047638,0.34839946031570435
1780506599418900700,12.079900634765625,0.3853239417076111,0.2224784642457962,0.35358765721321106
1780506599428893700,12.089893798828125,0.45132800936698914,0.22690916061401367,0.34239810705184937
1780506599438885600,12.0998857421875,0.46945372223854065,0.23397226631641388,0.34393221139907837
1780506599448877800,12.1098779296875,0.49799349904060364,0.16834452748298645,0.35702458024024963
1780506599458869800,12.119869873046875,0.5204978585243225,0.14249540865421295,0.39179641008377075
1780506599468862700,12.12986279296875,0.5274388790130615,0.13734672963619232,0.44287052750587463
1780506599478855000,12.13985498046875,0.553844153881073,0.08458031713962555,0.4563036859035492
1780506599488846800,12.149846923828125,0.5620914101600647,0.13559716939926147,0.4629293382167816
1780506599498839800,12.15983984375,0.5789213180541992,0.14350895583629608,0.41190722584724426
1780506599508831700,12.169831787109375,0.5911921262741089,0.13836266100406647,0.31304240226745605
1780506599518824000,12.179823974609375,0.5938211679458618,0.052578240633010864,0.22937548160552979
1780506599528815900,12.18981591796875,0.5599439144134521,-0.14114966988563538,0.18277469277381897
1780506599538808800,12.199808837890625,0.4720684289932251,-0.25444427132606506,0.21452492475509644
1780506599548800800,12.20980078125,0.35706648230552673,-0.3920961320400238,0.2768290340900421
1780506599558792700,12.219792724609375,0.22403587400913239,-0.5092869997024536,0.2644437849521637
1780506599568786000,12.229785888671875,0.10078264027833939,-0.5354166030883789,0.15209992229938507
1780506599578777900,12.23977783203125,-0.010927412658929825,-0.5684608817100525,-0.04295705631375313
1780506599588769800,12.249769775390625,-0.09498263895511627,-0.5883104801177979,-0.27294018864631653
1780506599598761700,12.25976171875,-0.1589144766330719,-0.6489832997322083,-0.440170556306839
1780506599608755000,12.2697548828125,-0.20297300815582275,-0.7063475251197815,-0.5698230862617493
1780506599618747000,12.279746826171875,-0.23226407170295715,-0.7639287710189819,-0.7366401553153992
1780506599628738800,12.28973876953125,-0.2566988468170166,-0.8239254951477051,-0.93300861120224
1780506599638730500,12.29973046875,-0.2851752042770386,-0.8405056595802307,-1.1411476135253906
1780506599648722700,12.30972265625,-0.3415050506591797,-0.7845161557197571,-1.3566527366638184
1780506599658714600,12.319714599609375,-0.4085846543312073,-0.6255308985710144,-1.5621557235717773
1780506599668706600,12.32970654296875,-0.4963240623474121,-0.40895116329193115,-1.7179147005081177
1780506599678699500,12.339699462890625,-0.6251737475395203,-0.11311251670122147,-1.8283820152282715
1780506599688691700,12.349691650390625,-0.7845562100410461,0.19453264772891998,-1.905015230178833
1780506599698683400,12.359683349609375,-0.9303777813911438,0.359959214925766,-1.914708137512207
1780506599708676600,12.369676513671875,-0.9516218304634094,0.21757571399211884,-1.8336001634597778
1780506599718668800,12.379668701171875,-0.8687065839767456,-0.094085693359375,-1.7057448625564575
1780506599728660500,12.389660400390625,-0.7701104879379272,-0.39758750796318054,-1.5561127662658691
1780506599738652700,12.399652587890625,-0.708429217338562,-0.6525594592094421,-1.4431883096694946
1780506599748645600,12.409645751953125,-0.6997268199920654,-0.8238577246665955,-1.386067509651184
1780506599758637600,12.419637451171875,-0.7016173005104065,-0.9827768802642822,-1.396732211112976
1780506599768629500,12.42962939453125,-0.6910924911499023,-1.0112366676330566,-1.4656308889389038
1780506599778621700,12.43962158203125,-0.6518978476524353,-0.9405867457389832,-1.5008360147476196
1780506599788614400,12.449614501953125,-0.6035082340240479,-0.8856289982795715,-1.4997448921203613
1780506599798606600,12.459606689453125,-0.5458011031150818,-0.8414316177368164,-1.4866374731063843
1780506599808598500,12.4695986328125,-0.5369791388511658,-0.7379345297813416,-1.4942072629928589
1780506599818591500,12.479591552734375,-0.5713539719581604,-0.6609677672386169,-1.5095863342285156
1780506599828583400,12.48958349609375,-0.6307677626609802,-0.5964643955230713,-1.5103389024734497
1780506599838575600,12.49957568359375,-0.7564876079559326,-0.503112256526947,-1.516083836555481
