time,seconds_elapsed,z,y,x
1780100477411767300,0.063767333984375,0.06135375562906265,-0.09765168819576502,0.18984922090517356
1780100477421759500,0.073759521484375,0.10509294411242008,-0.06725888801962136,0.09246817547748797
1780100477431751200,0.083751220703125,0.17836627011597156,-0.08413067397400736,0.05917292272495105
1780100477441743400,0.093743408203125,0.15988018083274363,-0.07115896419808268,0.013767116203624754
1780100477451735300,0.1037353515625,0.0033440497308969497,-0.011244301461428402,-0.07243760583177208
1780100477461727500,0.1137275390625,-0.24709903008043765,0.0886952054105699,-0.062047647044202306
1780100477471719200,0.12371923828125,-0.34929742179512974,0.16034049182087182,-0.07105485993621405
1780100477481712400,0.13371240234375,-0.2519295189768076,0.15747107386440037,0.00006993256420828402
1780100477491704300,0.143704345703125,-0.0001578209102153778,0.13074410271942616,0.04448348577832803
1780100477501696300,0.1536962890625,0.18402970270514488,-0.006624386575818061,-0.06484410936231724
1780100477511688200,0.163688232421875,0.23959727614820003,-0.16380509919151662,-0.18266162922233342
1780100477521680400,0.173680419921875,0.11951426817476749,-0.15695260294824837,-0.19840221918970347
1780100477531672300,0.18367236328125,-0.08666530701816082,-0.09980959688201546,-0.25885013028653336
1780100477541664300,0.193664306640625,-0.23742110115289686,-0.0262893103800714,-0.28819303781725464
1780100477551656200,0.20365625,-0.26480653620660305,0.024749387461692092,-0.2662872214847244
1780100477561648400,0.2136484375,-0.2806090854942798,0.10995499719083308,-0.2755555284317583
1780100477571640300,0.223640380859375,-0.36678631673455236,0.1579889602586627,-0.203558688637428
1780100477581632300,0.23363232421875,-0.29079613298773765,0.21678440970703958,-0.24225663155056534
1780100477591624200,0.243624267578125,-0.18228432034254072,0.2401782909065485,-0.22706311753932384
1780100477601616400,0.253616455078125,-0.0553127218991518,0.15274945216998456,-0.08163491163551807
1780100477611608300,0.2636083984375,0.1499965002000332,0.0002367313653230667,0.04993033474106341
1780100477621600500,0.2736005859375,0.34089141249954696,-0.1884679774135351,0.06466262444872409
1780100477631592200,0.28359228515625,0.4134399313598871,-0.3007680764257908,0.09758194742780178
1780100477641584400,0.29358447265625,0.44499008487761016,-0.3029685090795159,0.16539083401300012
1780100477651576300,0.303576416015625,0.47879415480196474,-0.2262871281981468,0.36247320277579126
1780100477661568500,0.313568603515625,0.48635552996695036,-0.11576339120864867,0.4823815848346799
1780100477671560200,0.323560302734375,0.43023324525058265,-0.009562193593382834,0.45807303647566583
1780100477681552400,0.333552490234375,0.32702012353539467,0.05440042935982346,0.297974792445451
1780100477691544300,0.34354443359375,0.1739467001080513,0.09876973244026303,0.13100483601484447
1780100477701536500,0.35353662109375,-0.025725392886996268,0.14571955353319643,0.007941643186844885
1780100477711528200,0.363528076171875,-0.2487994042575359,0.1897830055348575,-0.048088761994987725
1780100477721520400,0.373520263671875,-0.3479980296343565,0.19903774061426519,-0.08970635521449148
1780100477731512300,0.38351220703125,-0.36581191874444485,0.16842004564106464,-0.08732198082860558
1780100477741504300,0.393504150390625,-0.3148696670144796,0.11181377680003643,-0.1113073616478592
1780100477751496200,0.40349609375,-0.2098871975392103,0.05253799648880958,-0.1547513300443068
1780100477761488100,0.413488037109375,-0.11700608474612235,-0.04236147038936615,-0.17528138277791439
1780100477771480300,0.423480224609375,-0.01507365049123764,-0.2165475322112441,0.18342954485490917
1780100477781472300,0.43347216796875,0.22423837897479532,-0.3874119022645056,1.0830173547804356
1780100477791464400,0.44346435546875,0.35290158376693725,-0.38523821148723364,1.4414954235054551
1780100477801456000,0.4534560546875,0.22562311133146284,-0.22770050212740897,0.940156332483515
1780100477811448300,0.4634482421875,-0.04136602961122989,-0.09079816903918982,0.24143391699083147
1780100477821440300,0.473440185546875,-0.18641805914640425,-0.017612375188618898,-0.30700171011835337
1780100477831432400,0.483432373046875,-0.26055530850291253,0.014413871408253908,-0.8162653835944831
1780100477841424100,0.493424072265625,-0.3138157740473747,0.09170900027379393,-1.2898068785652517
1780100477851416300,0.503416259765625,-0.36876024715602396,0.1773909953430295,-1.180902121079713
1780100477861408300,0.513408203125,-0.3861281460642814,0.3233439192406833,-0.5742721156878396
1780100477871400400,0.523400390625,-0.26032617592215535,0.38996465548723935,-0.25533925435505805
1780100477881392000,0.53339208984375,-0.09349661434292793,0.316158683911711,-0.07040993592906743
1780100477891384300,0.54338427734375,0.06388590445518494,0.17195158076807857,-0.03275909091606736
1780100477901376300,0.553376220703125,0.15083295102417468,0.04656432890668511,-0.1635119614638388
1780100477911368400,0.563368408203125,0.1783387975871563,-0.07702668718770146,-0.22928495830725878
1780100477921360100,0.573360107421875,0.14370529110133648,-0.17530936676338313,-0.16468677739687262
1780100477931352300,0.583352294921875,0.054443537849187845,-0.20366905367672442,0.0038962037209421393
1780100477941344300,0.59334423828125,-0.004843932899832725,-0.19830095077231524,0.24975590126477182
1780100477951336400,0.60333642578125,-0.0370697937220335,-0.13044278168529272,0.5155652213057503
1780100477961328400,0.613328369140625,0.009048983374238014,-0.07302315063476562,0.6539105562765151
1780100477971321300,0.6233212890625,0.04816811084151268,-0.03284589241668582,0.6380609529767185
1780100477981313300,0.633313232421875,0.09667875151038169,-0.06450637444108724,0.3665568918928504
1780100477991305500,0.643305419921875,0.09525076453387736,-0.008816782053560018,0.06975706151090562
1780100478001297200,0.653297119140625,0.09767360776662826,0.05863908984288573,-0.08308478165026753
1780100478011289300,0.663289306640625,0.0292009600430727,0.14633461669161915,-0.20079039296787232
1780100478021281300,0.67328125,-0.070099956664443,0.22028116578161716,-0.20222174094524234
1780100478031273500,0.6832734375,-0.18604805679023265,0.23447847182974219,-0.14675945450756697
1780100478041265200,0.69326513671875,-0.2535451374799013,0.2182785937875509,-0.11643749107792972
1780100478051257300,0.70325732421875,-0.22912848910391329,0.15337240637391805,-0.10174684855490922
1780100478061249300,0.713249267578125,-0.15903320861458778,0.08087064926475286,-0.12137600692603737
1780100478071241500,0.723241455078125,-0.048993455749750135,0.013124562250077723,-0.12953041608072816
1780100478081233200,0.733233154296875,0.04751286180317402,-0.04138356526792049,-0.06935618909243493
1780100478091225300,0.743225341796875,0.13787526977360248,-0.13854001729264853,-0.05451784519441426
1780100478101217300,0.75321728515625,0.2297860762298107,-0.1860248220451176,-0.12620054100565611
1780100478111209500,0.76320947265625,0.23188450981378553,-0.20723434494286774,-0.10393997468501329
1780100478121201000,0.773200927734375,0.23251287084519862,-0.20603841315656898,0.008039441005513072
1780100478131192800,0.78319287109375,0.2283002215862274,-0.17888123390078545,0.08041070360280572
1780100478141184800,0.793184814453125,0.12693886521756648,-0.13353972478732465,0.11642152632381766
1780100478151176700,0.8031767578125,0.05828501570820808,-0.06644932520240544,0.12248685424476861
1780100478161169000,0.8131689453125,-0.01916530371904373,-0.020246815345436334,0.11731836556568741
1780100478171160600,0.82316064453125,-0.05457680884003639,0.008390665595978498,0.12139427323509007
1780100478181152800,0.83315283203125,-0.044700726991891856,0.03714373574107885,0.13732804768700152
1780100478191144700,0.843144775390625,-0.006698036333918571,0.006813625537604093,0.1279509283369407
1780100478201137000,0.853136962890625,0.06849485955536365,-0.031498131069540976,0.1206552549034357
1780100478211128800,0.86312890625,0.10677402906715869,-0.03374284125640988,0.07433299112431704
1780100478221120800,0.873120849609375,0.09674129535257815,-0.039446021334081885,0.06373710710164159
1780100478231112700,0.88311279296875,0.016393500918149947,-0.06531243012696504,0.049595659426599735
1780100478241105000,0.89310498046875,-0.07068389403223992,-0.054811348248273134,0.0553532365726307
1780100478251096800,0.903096923828125,-0.1270563541173935,-0.0008199380807578563,0.09528521479275077
1780100478261088800,0.9130888671875,-0.12258183905184268,0.01356003105789423,0.12377126803211867
1780100478271080700,0.923080810546875,-0.05974865851998329,0.037688948533684014,0.12300528862830251
1780100478281073000,0.933072998046875,-0.03512567391693592,0.07719327592626214,0.09679792091064154
1780100478291064800,0.94306494140625,-0.024103344643115997,0.08706526612117886,0.026159875314123927
1780100478301056800,0.953056884765625,-0.02003273420333862,0.1058471234805882,-0.06704319944232702
1780100478311048700,0.963048583984375,-0.07412497439682483,0.09447247363775968,-0.08533372962083667
1780100478321041000,0.973041015625,-0.1175619650632143,0.058580199262499806,-0.10369750769864768
1780100478331032800,0.98303271484375,-0.09822656547427176,0.0048683366887271404,-0.12058854634277522
1780100478341024800,0.993024658203125,-0.04954115276038647,-0.05549129333645105,-0.130787722665444
1780100478351016700,1.0030166015625,0.02323299154937267,-0.09284443404451012,-0.15604831105228512
1780100478361009000,1.0130087890625,0.10435352392196655,-0.08560030813515186,-0.17986341333854944
1780100478371000800,1.023000732421875,0.12343348744511604,-0.042522067778557535,-0.09298344065640121
1780100478380992800,1.03299267578125,0.07993921363353729,-0.0013935001850128173,0.03996478451117873
1780100478390984700,1.042984619140625,0.05882686749994755,0.050289633040130136,0.17022457431238144
1780100478400977000,1.052976806640625,0.06705693570673465,0.06711757985278964,0.23592439632173626
1780100478410968800,1.06296875,0.07778700403571129,0.07001447033807635,0.20049162921700625
1780100478420961000,1.0729609375,0.07212123335897921,0.044091801313310856,0.09694313806761055
1780100478430952700,1.08295263671875,0.06446750373542308,-0.015791151110827923,0.005898739182390272
1780100478440945000,1.09294482421875,-0.0018184475988149641,-0.07151303833276033,-0.09487952006869017
1780100478450936800,1.102936767578125,-0.06778817259073257,-0.11768062300682067,-0.13936693310346454
1780100478460929000,1.112928955078125,-0.09696516723632811,-0.11216478219479321,-0.15331442910898477
1780100478470920700,1.122920654296875,-0.10270692575871944,-0.06025719256401062,-0.15183113174866883
1780100478480913000,1.132912841796875,-0.08804653224349021,-0.0019115327097475527,-0.1106112691424787
1780100478490904800,1.14290478515625,-0.035059038421511646,0.019085954872518778,-0.06920834158696233
1780100478500896800,1.152896728515625,0.024528292056918144,0.03776946642398834,-0.0036629794869571923
1780100478510888700,1.162888671875,0.09118599931299685,0.00013107903376221656,0.05331537406947463
1780100478520880600,1.172880615234375,0.1311947690963745,-0.0673489043906331,0.06754278299491852
1780100478530872800,1.182872802734375,0.15941957758367062,-0.12066095399186015,0.06210230897404253
1780100478540864800,1.19286474609375,0.17404431526362896,-0.14109934638664126,0.0370961337396875
1780100478550856700,1.202856689453125,0.1392249308168888,-0.11564517165645956,0.03472107517141849
1780100478560848600,1.2128486328125,0.08117664647400379,-0.049828299138695,0.041487610164284705
1780100478570840800,1.2228408203125,-0.0017886369824409484,0.019255173959583042,0.031394634162448344
1780100478580832800,1.232832763671875,-0.09563596445918082,0.07579992187172174,0.029235775628127156
1780100478590825000,1.242824951171875,-0.1606406438112259,0.12941343863755464,0.00954392728433013
1780100478600816600,1.252816650390625,-0.18242811272740364,0.1333361650392413,0.008097308672592044
1780100478610808800,1.262808837890625,-0.17857669799625872,0.08444806936010718,0.00866604847125709
1780100478620800800,1.27280078125,-0.09819909294545649,0.03472439963966608,-0.0057446811318397515
1780100478630793000,1.28279296875,-0.010459434694051742,-0.01538447000607848,-0.02660060481894761
1780100478640785700,1.29278564453125,0.034606033957004546,-0.056645870199054475,-0.020008330414444206
1780100478650777900,1.30277783203125,0.07401216167211531,-0.09719693016558885,0.004297331867739558
1780100478660769800,1.312769775390625,0.10121113424301147,-0.1090457733914256,0.040773945469595486
1780100478670761700,1.32276171875,0.10991641874611377,-0.07429258604869246,0.06547576746251434
1780100478680753700,1.332753662109375,0.12765139740109444,-0.02762099737524986,0.043066330723091954
1780100478690745900,1.342745849609375,0.1067038864403963,-0.003430997361987829,0.02725578079205006
1780100478700737800,1.35273779296875,0.0467249262958765,-0.01575549527555704,0.0009845540579408406
1780100478710729700,1.362729736328125,-0.011551906105875968,0.011422142246365546,-0.022875227620266378
1780100478720721700,1.3727216796875,-0.07443009482324123,0.03897241247296333,-0.012400193498283625
1780100478730713900,1.3827138671875,-0.09892097747921944,0.06525821572169661,0.0011615545926615596
1780100478740705800,1.392705810546875,-0.07760989390313625,0.08422112873643636,0.017218224771879613
1780100478750697700,1.40269775390625,-0.045483986324071884,0.08383870529010891,0.027417218431457877
1780100478760689700,1.412689697265625,0.009378653720021248,0.0476147147424519,0.011019662392698228
1780100478770681900,1.422681884765625,0.0340285263299942,-0.0133924194060266,-0.0023564269330352545
1780100478780673800,1.432673828125,0.03933890769779682,-0.05255377857983112,-0.0005212839277461171
1780100478790666000,1.442666015625,0.061870472979545586,-0.0753716134570539,-0.005114749197848141
1780100478800657700,1.45265771484375,0.05894786353111267,-0.10617372508645057,0.010858772742561995
1780100478810649900,1.46264990234375,0.06719371382892131,-0.11779840416759252,0.001223112054169178
1780100478820641800,1.472641845703125,0.06669570117890834,-0.11400602614730596,-0.013606062156707047
1780100478830634000,1.482634033203125,0.033164602977037425,-0.08930150074064731,-0.024079488843493164
1780100478840625700,1.492625732421875,0.012862988704442977,-0.07614888143986463,-0.033801512641087175
1780100478850617900,1.502617919921875,0.0187613990932703,-0.03028217940852046,-0.03837444657981395
1780100478860609800,1.51260986328125,-0.018165771287679672,0.0021548399463295937,-0.031810302291251716
1780100478870602000,1.52260205078125,-0.03228957370817661,0.0036935938209295273,-0.028773747606948015
1780100478880593700,1.53259375,-0.03729892630279064,0.03457081651315093,0.013414375509507954
1780100478890585900,1.5425859375,-0.057555532389879226,0.054135348682850595,0.028556488127075133
1780100478900577800,1.552577880859375,-0.0346732539743185,0.0518738334916532,0.03549173075035214
1780100478910570000,1.562570068359375,-0.021733692902326584,0.05361921585425734,0.011566153826937079
1780100478920561700,1.572561767578125,-0.05718903716504573,0.10531842343136667,-0.13916983962878585
1780100478930553900,1.582553955078125,-0.28173019847869873,0.06318067879527807,-0.2865975853193551
1780100478940545800,1.5925458984375,-0.3833341314315796,0.018141952020674944,-0.2047624384040013
1780100478950538000,1.6025380859375,-0.06994272027611732,-0.06993526762202382,0.02347951365634799
1780100478960530000,1.612530029296875,0.3888192848443985,-0.12322627443522215,0.24564181700944898
1780100478970521600,1.622521484375,0.6627537148803472,-0.13928352913632988,0.4346105104867369
1780100478980513800,1.632513671875,0.6985843221962451,-0.21098186090812085,0.5607242865243927
1780100478990505700,1.642505615234375,0.5340682982563972,-0.13168576748371125,0.3993654845064506
1780100479000498000,1.652497802734375,0.21902619728446004,0.07227949266061186,0.0687058354249224
1780100479010489600,1.662489501953125,-0.10000818819403648,0.11292787552177905,-0.0440974638691172
1780100479020481800,1.672481689453125,-0.4297948538333177,0.15074410369694233,-0.1654031272389926
1780100479030473700,1.6824736328125,-0.6404869380146264,0.21690540573820472,-0.3105325145930052
1780100479040466000,1.6924658203125,-0.726399380838871,0.237897340362519,-0.3922798736270517
1780100479050457600,1.70245751953125,-0.61672027797997,0.16183350685760378,-0.37338454595580695
1780100479060449800,1.71244970703125,-0.3806149356007576,0.043398119960725304,-0.2881900786751881
1780100479070441700,1.722441650390625,-0.12406360204219817,-0.07678235703781247,-0.17044990750085562
1780100479080434000,1.732433837890625,0.1768792464286089,-0.16784648353680967,-0.02662058816105127
1780100479090425900,1.74242578125,0.4762725273698568,-0.2108396759584546,0.10105050032120197
1780100479100417800,1.752417724609375,0.6505050586819648,-0.1988128458172083,0.19576058210711925
1780100479110409700,1.76240966796875,0.6403583431988954,-0.1465652105771005,0.2389868160996586
1780100479120402000,1.77240185546875,0.43991585035324093,-0.08703326354771852,0.23615539206601677
1780100479130393300,1.782393310546875,0.2071428672671318,0.004605155707895756,0.19988094997275618
1780100479140385300,1.79238525390625,-0.03855447932183742,0.07001490872949362,0.1203723463088274
1780100479150377200,1.802377197265625,-0.2428179917603731,0.10914134272038936,0.02511884182859212
1780100479160369400,1.812369384765625,-0.3796142341256141,0.11018223007544875,-0.08617335878275334
1780100479170361300,1.822361328125,-0.3893511997640133,0.09944105583056807,-0.1961255429619923
1780100479180353300,1.832353271484375,-0.32021804230511186,0.0696495825484395,-0.2663616566941142
1780100479190345200,1.84234521484375,-0.19263912561833857,0.051421851940453046,-0.2897653651678935
1780100479200337400,1.85233740234375,-0.05048690917789936,0.014775690457969903,-0.30601540249474346
1780100479210329300,1.862329345703125,0.06295300751924514,-0.011190087056159972,-0.2729758506694808
1780100479220321500,1.872321533203125,0.12042904493212699,-0.07208893852457404,-0.16071396477576344
1780100479230313200,1.882313232421875,0.14259586855471135,-0.0861925749398768,-0.04794672317579388
1780100479240305400,1.892305419921875,0.18925942005217075,-0.10379866651818155,0.012142821203730999
1780100479250297300,1.90229736328125,0.21709084530770778,-0.13669219746887684,0.1100388030167669
1780100479260289300,1.912289306640625,0.21658991004824638,-0.14711159241348504,0.2329596282320097
1780100479270281200,1.92228125,0.23335224427878856,-0.09140577954351901,0.32901286825519055
1780100479280273200,1.932273193359375,0.2578454650223255,0.040159576430916784,0.38340295888409015
1780100479290265300,1.942265380859375,0.3100438542932272,0.21096710173040628,0.3030989670587703
1780100479300257300,1.95225732421875,0.2985708586424589,0.3412342345878482,0.17591628314796834
1780100479310249200,1.962249267578125,0.1614981374233961,0.42872810138463974,0.03729899936802685
1780100479320241200,1.9722412109375,0.003847907599806785,0.4586958080165088,-0.09098116092327982
1780100479330233300,1.9822333984375,-0.1528320158869028,0.4074728396490216,-0.18653967623207718
1780100479340225300,1.992225341796875,-0.2704769830584526,0.3065728171817958,-0.22595183182917533
1780100479350217200,2.00221728515625,-0.33993981086313724,0.13879896048977972,-0.2766986705848947
1780100479360209200,2.012209228515625,-0.34774668522179125,-0.14898454667851327,-0.2630334986520931
1780100479370201300,2.022201416015625,-0.27394202882051466,-0.3978736750461161,-0.22734113076310603
1780100479380193300,2.032193359375,-0.1694634172141552,-0.5131637496545911,-0.17058467632904648
1780100479390185500,2.042185546875,-0.03380173183679581,-0.5639779910907149,-0.09353420640695839
1780100479400177200,2.05217724609375,0.0346124636977911,-0.5716419498473405,0.0011552344497293232
1780100479410169300,2.06216943359375,0.075929977992177,-0.5087142228998244,0.13755926262699067
1780100479420161300,2.072161376953125,0.053099137502908705,-0.37463922219201923,0.2594026313364506
1780100479430153500,2.082153564453125,0.011510989573597908,-0.1916881085038185,0.3159410225730389
1780100479440145200,2.092145263671875,-0.06947977893948555,-0.01726633822992444,0.29840452563222497
1780100479450137300,2.102137451171875,-0.15892448754310606,0.1250583121679723,0.2580939233580604
1780100479460129300,2.11212939453125,-0.2584387547403574,0.2322925060927868,0.1991716326596215
1780100479470121500,2.12212158203125,-0.2933949173092842,0.3084348116613924,0.12224190304037183
1780100479480113200,2.132113037109375,-0.29529344440698624,0.31759251610711214,0.07222494946178049
1780100479490105300,2.142105224609375,-0.252725053268671,0.2643843652717769,0.029704964042454957
1780100479500098300,2.152098388671875,-0.12917232335805892,0.19574439815729855,-0.008609532511048018
1780100479510090200,2.16209033203125,-0.016288871499896048,0.0785027510896325,-0.006498422108590603
1780100479520082200,2.172082275390625,0.08496610188484191,-0.03147884184718132,0.003601239362359047
1780100479530074400,2.182074462890625,0.24285364759564398,-0.09813128840625286,0.31159904784597453
1780100479540066300,2.19206640625,0.4352203860133886,-0.1450967454597354,0.6538279194943607
1780100479550058200,2.202058349609375,0.4734633151680231,-0.19443930690810082,0.32932357817217706
1780100479560050200,2.21205029296875,0.3617430618703365,-0.21651538350731134,-0.1010270463803783
1780100479570042400,2.22204248046875,0.18101006262302397,-0.09610051323100924,-0.2904940082360059
1780100479580034300,2.232034423828125,0.039784313377737995,0.08743059230223298,-0.19014730880260466
1780100479590026500,2.242026611328125,-0.04651742102503776,0.20459566700235007,0.02499200057853013
1780100479600018200,2.25201806640625,-0.02879705541729927,0.23074849152117966,0.11004976280219853
1780100479610010400,2.26201025390625,0.01229950960278511,0.16587766768187284,0.04738086945395916
1780100479620002300,2.272002197265625,-0.010280570995807647,-0.018619068013131616,-0.19308862295150755
1780100479629994500,2.281994384765625,-0.03731178578436375,-0.15681611708700657,-0.25906989225074645
1780100479639986200,2.291986083984375,-0.020610241830348968,-0.08769669589251279,-0.1297102661596611
1780100479649978400,2.301978271484375,-0.0012128829210996627,-0.06980681893676519,-0.04566836644764989
1780100479659970300,2.31197021484375,0.04687281033396721,-0.036667204270511865,0.02268467348422855
1780100479669962500,2.32196240234375,0.07626315546929836,0.007900982382893561,0.06318977541718632
1780100479679954200,2.3319541015625,0.13135960426926613,0.038909430239349604,0.047610002034716305
1780100479689946400,2.3419462890625,0.34043548542559143,0.16358721865713596,0.05479176676496863
1780100479699938300,2.351938232421875,1.107065754365921,0.2776356226414442,0.2482875092126429
1780100479709930500,2.361930419921875,1.0155822334110736,-0.07408741886541247,0.23866005009701474
1780100479719922400,2.37192236328125,0.007836684975028037,0.09263941299170256,0.3532901081604883
1780100479729914000,2.3819140625,-0.4585691128969192,0.21672142747342585,0.5756440981607884
1780100479739906300,2.39190625,-0.2502723994195461,-0.1555465355426073,0.4532863136557862
1780100479749898200,2.401898193359375,-0.12919628875553607,-0.6625510319150983,-0.004858101847436046
1780100479759890400,2.411890380859375,-0.21858254517018794,-0.8957057077951729,-0.43369774302337316
1780100479769882000,2.421882080078125,-0.3610106559425592,-0.8225605382159352,-0.6341391764231026
1780100479779874300,2.431874267578125,-0.5124269598126411,-0.4769670855052769,-0.498311413763836
1780100479789866200,2.4418662109375,-0.4153530715048313,-0.04969415136501193,-0.20228075938979162
1780100479799858400,2.4518583984375,-0.19010522322654724,0.173199388872087,0.018094496149756015
1780100479809850000,2.46185009765625,-0.10193827947378158,0.21756460029929875,0.0937253450648859
1780100479819842300,2.47184228515625,-0.06894669497609138,0.18011545187085864,-0.015979842083342372
1780100479829834200,2.481834228515625,-0.011283610558509826,0.17207959106191992,-0.3080510730408132
1780100479839826400,2.491826416015625,0.06601297961175441,0.2211442123517394,-0.5329709314737469
1780100479849818000,2.501818115234375,-0.012967618122696875,0.2773576824828982,-0.3891625453241169
1780100479859810300,2.511810302734375,-0.24078151749670504,0.24765666396319866,-0.15286803704835475
1780100479869802200,2.52180224609375,-0.20800912870764732,0.26161007825285193,0.17434249449260533
1780100479879794400,2.53179443359375,0.029104513931274414,0.05930515253618359,0.3402995110210031
1780100479889786400,2.541786376953125,-0.09876841726601124,0.043514439816772936,0.0951807680375874
1780100479899778300,2.5517783203125,-0.15713818864822388,0.04644508644118905,-0.18363580801673232
1780100479909770200,2.561770263671875,-0.15099544810950755,-0.05822378704026341,-0.17827987047415225
1780100479919762400,2.571762451171875,-0.29101942034959793,-0.17671967195272445,-0.3576742049962282
1780100479929754400,2.58175439453125,-0.43846857415437696,-0.24951412839815018,-0.6849211230248212
1780100479939746300,2.591746337890625,-0.22318565505146978,-0.19159385434910653,-0.4368831315938383
1780100479949738200,2.60173828125,0.5826712933838367,0.00007394201904535293,0.38360070994589474
1780100479959730400,2.61173046875,0.7609715125262737,0.6547323209881782,0.526972494776547
1780100479969722400,2.621722412109375,0.6189081434130669,0.8742943787150085,0.2048891152572818
1780100479979714300,2.63171435546875,0.19714462034404276,0.6410296665892005,0.5521826316177845
1780100479989706200,2.641706298828125,-0.171101247549057,0.3239708189673722,0.8107139600124209
1780100479999698400,2.651698486328125,-0.24894611925184726,-0.0400455946624279,0.5869364765476435
1780100480009690400,2.6616904296875,-0.2818786670386791,-0.29087314374670387,0.28696777033861726
1780100480019682300,2.671682373046875,-0.2240606843203306,-0.4583164533101022,0.13477966011213138
1780100480029674200,2.68167431640625,-0.1433037245631218,-0.5494524760015308,0.038556698678387326
1780100480039666400,2.69166650390625,-0.15038228464722633,-0.6903358415499329,-0.20367712738532573
1780100480049658400,2.701658447265625,-0.3409428504258394,-0.6297261822864413,-0.5406108517676591
1780100480059650300,2.711650390625,-0.16605039390027523,-0.30619433925822376,-0.612119908045046
1780100480069642200,2.721642333984375,0.44730069990754123,-0.15260975143834948,-0.5659066941309719
1780100480079634200,2.73163427734375,0.8964327068954706,-0.13085910740122197,-0.48643009304050355
1780100480089626400,2.74162646484375,1.1769967842042446,-0.05405994535908103,0.04203994681742042
1780100480099618300,2.751618408203125,1.0020353540956974,0.16074439644664526,0.34767394877914337
1780100480109610200,2.7616103515625,0.24677754304111002,0.5235885514266788,0.3117409040020779
1780100480119602200,2.771602294921875,-0.33810850378274915,0.6200521988816559,0.3914604104703292
1780100480129595100,2.78159521484375,-0.7701894227266312,0.36103681329712267,0.18912994845360517
1780100480139587000,2.791587158203125,-1.0412398217588663,0.08139131213799118,-0.04954915340375155
1780100480149579000,2.8015791015625,-0.9602765257745981,0.10415580939278006,-0.25024375784695146
1780100480159571200,2.8115712890625,-0.686283059027791,0.27120515120252964,-0.537103464701213
1780100480169563100,2.821563232421875,-0.24956045175790786,0.21713483057990668,-0.5381735050855204
1780100480179554800,2.831554931640625,0.038652094477415085,0.054438715543597936,-0.41857630786765365
1780100480189547000,2.841547119140625,0.2685416310817003,0.005140285497903824,-0.14131989380214363
1780100480199539000,2.8515390625,0.30838030499517916,-0.050340486444532866,0.38607802331224084
1780100480209531100,2.86153125,0.3222743903130293,-0.06216814075186848,0.5779814185345545
1780100480219523000,2.871523193359375,0.5767652842104435,-0.16690438038110733,0.7365139476180076
1780100480229515000,2.881514892578125,0.642977585786581,-0.3857688112325966,0.8264457090862095
1780100480239507000,2.8915068359375,0.6593892068833113,-0.6098156131580471,0.5097031243393197
1780100480249499100,2.9014990234375,0.5051794729024172,-0.7441958804227411,0.09116053607817738
1780100480259491000,2.911490966796875,0.16383856306970118,-0.6856846547432244,-0.4821281945955008
1780100480269483000,2.92148291015625,0.1196183130711317,-0.3673495035752654,-0.7676327970463782
1780100480279475000,2.931474853515625,-0.47935120416283605,0.3543615733169019,-0.8959019610196352
1780100480289467100,2.941467041015625,-0.841850637358427,0.6090989893212914,-0.8497435825653373
1780100480299459000,2.951458984375,-1.0012158544063567,0.6725166917428373,-0.358024516271241
1780100480309451000,2.961450927734375,-0.8958931931912898,0.7612954837836324,0.2411676124711521
1780100480319443000,2.97144287109375,-0.23274667960107326,0.62026364967525,0.5302026723368093
1780100480329435100,2.98143505859375,0.32443945939242835,0.3840587924443185,0.6408681924171745
1780100480339427000,2.991427001953125,0.5836895305156707,0.009167056795954703,0.5691050883134827
1780100480349419000,3.0014189453125,-0.30949323467314244,-0.10691562949493527,0.33018169283885507
1780100480359411000,3.011410888671875,-0.8726192851096392,0.14646481894254684,0.23407020155610514
1780100480369403100,3.021403076171875,-1.1373147621572017,0.31955037217661736,0.08799324028682895
1780100480379395000,3.03139501953125,-1.195746492859721,-0.08564633923396468,-0.44308198623396455
1780100480389387000,3.041386962890625,-0.44185821659266944,-0.3158624774441123,-0.7645256248112767
1780100480399379000,3.05137890625,0.4139882128924131,-0.29801366315111516,-0.7535907546252012
1780100480409371100,3.06137109375,0.9745645788460969,-0.33447789219543334,-0.5480454222152009
1780100480419363000,3.071363037109375,1.2247370250225067,-0.4052664156459272,-0.30467597058452667
1780100480429356000,3.08135595703125,1.2798966021865605,-0.43083194179609413,-0.022781740650534628
1780100480439348000,3.091347900390625,1.1361667611658572,-0.37662498918175696,0.2503628907145932
1780100480449340200,3.101340087890625,0.7749684736967086,-0.2163011562347412,0.4838379941880703
1780100480459332000,3.11133203125,0.32208091356754304,0.010011544796079396,0.679721800816059
1780100480469324000,3.121323974609375,-0.07922901953756809,0.20520079328864813,0.7656981026567519
1780100480479316000,3.13131591796875,-0.3845148656487465,0.2908851264454424,0.6365056132934988
1780100480489308200,3.14130810546875,-0.5465554393857717,0.24610256638899444,0.2891518181131221
1780100480499300000,3.151300048828125,-0.5495031832754612,0.15577172260060906,-0.0723070930535905
1780100480509292000,3.1612919921875,-0.418318935573101,0.06706248866468667,-0.3200812641829252
1780100480519284000,3.171283935546875,-0.23519407275319099,-0.021921324428915975,-0.4295713472757488
1780100480529276200,3.181276123046875,-0.024678514182567595,-0.08851809527799487,-0.4053718122491613
1780100480539268000,3.19126806640625,0.11760463516116142,-0.09946677479371428,-0.2441830330358818
1780100480549260000,3.201260009765625,0.21099311295449732,-0.1031907637529075,-0.03431969129629433
1780100480559252000,3.211251953125,0.22959259948432445,-0.1007097605921328,0.13556100148186087
1780100480569244200,3.221244140625,0.18390519954264162,-0.07014554937183856,0.21755228880699723
1780100480579236000,3.231236083984375,0.12583762597739695,-0.04531257527992129,0.21959311045221983
1780100480589228000,3.24122802734375,0.06627718350589275,-0.011620002906024456,0.17037775558009743
1780100480599220000,3.251219970703125,-0.012398293802142142,0.02688157718479633,0.07166925180777907
1780100480609212200,3.261212158203125,-0.06305646789371967,0.03815086695700884,0.008834135047160088
1780100480619204000,3.2712041015625,-0.08711188174188136,0.06157543555572629,-0.0747026646869257
1780100480629196300,3.2811962890625,-0.14040858764350414,0.06311696590930223,-0.14090842692442238
1780100480639188000,3.29118798828125,-0.18603402826488016,0.0676972794368863,-0.20062848040442913
1780100480649180200,3.30118017578125,-0.1947071640640497,0.04317658616453409,-0.2172826415527612
1780100480659172000,3.311172119140625,-0.1992781252413988,0.023853023143857715,-0.15707608319744468
1780100480669164000,3.3211640625,-0.14858020366132257,-0.0024422785855829714,-0.11848404834419488
1780100480679156000,3.331156005859375,-0.05331950225532055,-0.02237359824106097,-0.05565291363894939
1780100480689148000,3.34114794921875,0.05741758522391319,-0.0500983482517302,0.005784465152956545
1780100480699140000,3.35114013671875,0.14836743769347666,-0.05577420193105936,0.040157640202157195
1780100480709132000,3.361132080078125,0.22425649915337562,-0.08207154948711395,0.058358007879182695
1780100480719124000,3.3711240234375,0.2289233219206333,-0.0847175339512527,0.06961695892047137
1780100480729116000,3.381115966796875,0.19994214210808275,-0.0710261315986514,0.047101467990688976
1780100480739108000,3.391108154296875,0.1363794782578945,-0.07336436528787016,0.04270966277252883
1780100480749100000,3.40110009765625,0.04804126959145069,-0.0415213663034141,0.03198671830408275
1780100480759092000,3.411092041015625,-0.011040449452400207,-0.015960077936947346,0.017743271559290587
1780100480769084000,3.421083984375,-0.06519464896619319,0.0027114509157836436,0.025069924652948973
1780100480779076000,3.431076171875,-0.0876022956073284,0.025008476789295672,0.027964988507330417
1780100480789068000,3.441068115234375,-0.05472235479056835,0.02940437366068363,0.021814722249284386
1780100480799060200,3.451060302734375,-0.03166647337377071,0.029973259589821097,0.019596388612687587
1780100480809052000,3.461052001953125,-0.022374913415312767,0.01042816277295351,0.008529964468814433
1780100480819044000,3.471044189453125,0.02422024902105331,-0.015692366911470888,0.006044650459103286
1780100480829036000,3.4810361328125,0.04356909261345863,-0.022962650175392625,0.017508257227018476
1780100480839028200,3.4910283203125,0.043753801530599594,-0.06043298752233386,0.015087788614444434
1780100480849020000,3.50102001953125,0.039487376257777214,-0.049535599802434445,0.0188937202360481
1780100480859012000,3.51101220703125,0.018130699974298475,-0.017894260869920253,0.018539390373043713
1780100480869004000,3.521004150390625,-0.01316869365274906,0.0017002280466258525,0.014810140716843306
1780100480878996200,3.530996337890625,-0.039081718066334724,0.026512743872404095,-0.001492101721279323
1780100480888988000,3.54098779296875,-0.09005261136889457,0.023256226294487713,0.002117247882299125
1780100480898980000,3.55097998046875,-0.1366372524112463,0.03874795606732368,0.02131451764218509
1780100480908972000,3.560971923828125,-0.15705051036477088,0.012409984239935874,0.02513977501876652
1780100480918964200,3.570964111328125,-0.14667875395417213,-0.005480769498646259,0.03895286752227694
1780100480928956000,3.580955810546875,-0.1108165824562311,-0.022286066088080404,0.05469071754328906
1780100480938948000,3.590947998046875,-0.045645898887515066,-0.034320056622475385,0.05644329683165997
1780100480948940000,3.60093994140625,0.019464578926563263,-0.04747311431467533,0.05131126770544797
1780100480958932200,3.61093212890625,0.049689621320366854,-0.034477293010801074,0.04086662872172892
1780100480968924200,3.620924072265625,0.09176292241811752,-0.0350479325056076,0.02818758174944669
1780100480978916000,3.630916015625,0.11738251684308051,-0.005299275451898574,0.01000299616344273
1780100480988908000,3.640907958984375,0.11282675323486327,0.007242226213216781,0.002692855813167989
1780100480998900200,3.650900146484375,0.10762392389476298,0.016651421201974152,-0.014754684202559291
1780100481008892200,3.66089208984375,0.08732289414405822,0.031552199344336986,-0.03686974110528826
1780100481018883800,3.6708837890625,0.05530161598324775,0.020904986993223428,-0.04104790357276797
1780100481028876000,3.6808759765625,0.039461072772741315,0.009689911626279354,-0.041925015200860796
1780100481038868000,3.690867919921875,0.0473480266302824,-0.008286328438669442,-0.053236828940548
1780100481048860200,3.700860107421875,0.06645254007279873,-0.015330693992227315,-0.025112740881368518
1780100481058851800,3.710851806640625,0.07201368133127689,-0.031120822189748286,-0.03316087664999068
1780100481068844000,3.720843994140625,0.09489946687817573,-0.02702799991816282,-0.022062486465275286
1780100481078836000,3.7308359375,0.09260112680792808,-0.0279493525467813,-0.02099858356080949
1780100481088828200,3.740828125,0.07903846540153026,-0.03125482383295893,-0.016154760258831082
1780100481098820000,3.750820068359375,0.06089081429243087,-0.010803279695659876,-0.01685724597238004
1780100481108812000,3.76081201171875,0.018367431339621543,0.009238806857913732,-0.02611439220458269
1780100481118804000,3.770803955078125,-0.009557517418265342,0.034855770934373136,-0.012430515571311116
1780100481128795000,3.780794921875,-0.046537879291176795,0.036759412598609924,0.0016545257413759827
1780100481138786800,3.790786865234375,-0.06850304286181927,0.03455664185732603,-0.0027573358841240406
1780100481148779000,3.800779052734375,-0.09251403304636478,0.026819617864489553,0.005153400707803666
1780100481158770700,3.810770751953125,-0.07261340079009533,0.008454670742899179,0.00010766162555664777
1780100481168763000,3.820762939453125,-0.07472235576808452,-0.0038237960718572137,0.008275149457529187
1780100481178754800,3.8307548828125,-0.06215513513982296,-0.01267491878643632,0.016808474927209317
1780100481188746800,3.840746826171875,-0.049852702927589414,-0.016735007832199333,0.0066178837697952984
1780100481198738700,3.85073876953125,-0.04065642003715038,0.0044321372285485265,0.030085780053585767
1780100481208730600,3.860730712890625,-0.04520341581702232,0.007349047588557004,0.05893076626583933
1780100481218722800,3.870722900390625,-0.042127077111601824,0.02314224452599883,0.048277270304411646
1780100481228714800,3.88071484375,-0.03906125980019569,0.008019932587444783,0.05754625310488045
1780100481238707000,3.89070703125,-0.03224865717589855,-0.008160656232386827,0.06676167908720672
1780100481248698600,3.90069873046875,-0.01538870778977871,-0.017970833237469196,0.04013045993428677
1780100481258690800,3.91069091796875,0.016628478717803954,-0.036518297319114205,0.044074630982801316
1780100481268682800,3.920682861328125,0.03345803296566009,-0.052727235450595614,0.04617182245776057
1780100481278675000,3.930675048828125,0.044534722775220865,-0.06767346016988157,0.04018525886144489
1780100481288666600,3.94066650390625,0.05762099884152412,-0.05044876912459731,0.03189198922533542
1780100481298658800,3.950658935546875,0.03603811258673668,-0.030407997745275497,0.04810662644524127
1780100481308650800,3.960650634765625,0.024618892949819563,-0.01690773405060172,0.052316681888327
1780100481318643000,3.970642822265625,0.018411270481348038,-0.003134352502971887,0.057378276126831766
1780100481328634600,3.980634521484375,-0.0017564882785081862,-0.012051672321557998,0.07719364125244318
1780100481338626800,3.990626708984375,0.006759411132335662,-0.004270224665105343,0.07595438178107142
1780100481348618800,4.00061865234375,0.005350128856301308,0.003657645724713802,0.05522416683286428
1780100481358611000,4.01061083984375,0.03129121032059193,0.007187281155586242,0.03907441154271364
1780100481368603000,4.020602783203125,0.030738837134838104,-0.022251579296588896,0.014271978719532489
1780100481378594800,4.0305947265625,0.06017652854323387,-0.027873364701122044,0.018988339716941117
1780100481388586800,4.040586669921875,0.06857786166369914,-0.019085078089684248,-0.0005353124530985951
1780100481398579000,4.050578857421875,0.06564414629936217,-0.03187660899311304,-0.03065254709087312
1780100481408571000,4.06057080078125,0.05315700516998768,-0.0032237843520939347,-0.053757272618077695
1780100481418562800,4.070562744140625,0.029735797572135923,0.0029933365970849987,-0.04597030853629112
1780100481428554800,4.0805546875,0.0005734159737825394,0.013457593596726655,-0.061275904619880014
1780100481438547000,4.090546875,-0.01504091726541519,0.030168197640031574,-0.07265669194255024
1780100481448539600,4.10053955078125,-0.028923896667361258,0.038408056588470935,-0.06638378568552435
1780100481458531800,4.11053173828125,-0.03449614384174347,0.0404506683319807,-0.06502031531259417
1780100481468523800,4.120523681640625,-0.030382863304018973,0.03437704750671983,-0.061421998559683555
1780100481478516000,4.130515869140625,-0.018514146333932877,0.021810849791765213,-0.061319414968043565
1780100481488507600,4.140507568359375,-0.02731996860206127,0.01608838049173355,-0.04720675499606877
1780100481498499800,4.150499755859375,-0.02148936275243759,0.00918444632217288,-0.036690585146099325
1780100481508491800,4.16049169921875,-0.0036801498174667355,0.004079670529067516,-0.029102212376333772
1780100481518484000,4.17048388671875,-0.017107202145457266,0.0035943712301552294,-0.024554887802898884
1780100481528475600,4.1804755859375,0.0033119010269641873,0.0041238019317388535,-0.009592661796882748
1780100481538467800,4.1904677734375,0.009251227948069572,0.01583732834011316,-0.00443020099978894
1780100481548459800,4.200459716796875,0.006512158372998237,0.02275879816636443,0.00984981489572674
1780100481558452000,4.210451904296875,-0.018707623079419134,0.0154500825881958,0.0026816037667915225
1780100481568443600,4.220443603515625,-0.017774726143479348,-0.00010009937360882758,0.016018603191152215
1780100481578435800,4.230435791015625,-0.005821253499388695,-0.02032294932156801,0.013827669018134474
1780100481588427800,4.240427734375,-0.009586158990859985,-0.03612213760837912,0.03897464096266776
1780100481598420000,4.250419921875,-0.015594459494948386,-0.04803483985066414,0.033631051445007325
1780100481608412000,4.260411865234375,-0.02161620400249958,-0.0500983482517302,0.04355992292631417
1780100481618403800,4.27040380859375,-0.0010696750581264496,-0.046077568303048606,0.07820084553360938
1780100481628395800,4.280395751953125,0.032334581893682476,-0.030353491079062222,0.0826585921274498
1780100481638388000,4.290387939453125,0.08775427129864692,-0.026705197704583405,0.06608611791320144
1780100481648380000,4.3003798828125,0.10149053570628165,-0.013199088791012763,0.04191160773001611
1780100481658371800,4.310371826171875,0.08006897749304771,-0.00530599745362997,0.016126666675508022
1780100481668363800,4.32036376953125,0.04873158994317055,0.013755992021411657,-0.01634283017683774
1780100481678355700,4.330355712890625,-0.018380290821194648,0.0169717391975224,-0.0083677231118083
1780100481688348000,4.340347900390625,-0.053934419283270835,0.020702888549864292,-0.006722403590194881
1780100481698339600,4.350339599609375,-0.08075988236665725,0.0480764870353043,0.03162541071102023
1780100481708331800,4.360331787109375,-0.09366787925660609,0.04408317961543798,0.04415127641558647
1780100481718323700,4.37032373046875,-0.06808452518880367,0.032955051879584786,0.06499448675159364
1780100481728316000,4.38031591796875,-0.0396884517878294,0.02294686808437109,0.06180628516953438
1780100481738307800,4.390307861328125,0.010759878945350645,-0.019313772279024123,0.062310983288660644
1780100481748299800,4.4002998046875,0.023617022430896757,-0.042738340877741574,0.09526822712533176
1780100481758291700,4.410291748046875,0.046203532770276064,-0.06440130663141608,0.09296119229197501
1780100481768284000,4.420283935546875,0.05277881950736046,-0.08324965335577726,0.09125453450456261
1780100481778275800,4.43027587890625,0.04244564154148102,-0.08785217871516943,0.07969784262571483
1780100481788267800,4.440267822265625,0.025670447829365728,-0.06810775993391871,0.052784701258875424
1780100481798259700,4.450259765625,-0.005575169783830642,-0.06666326021403074,0.03264978532269597
1780100481808252000,4.460251953125,-0.05105915610790252,-0.06546440581828356,0.02351279487144202
1780100481818243800,4.470243896484375,-0.08389058160781859,-0.03703998310565948,0.010750307399407029
1780100481828235800,4.48023583984375,-0.11396832448542117,-0.017421674922108648,0.00038140053302049634
1780100481838227700,4.490227783203125,-0.08881751661598682,0.011984013912826776,-0.03456248707622289
1780100481848220000,4.500219970703125,-0.0402893402904272,0.01631561337634921,-0.03545527119748294
1780100481858211800,4.5102119140625,-0.006506313154101371,0.03717135440036654,-0.04126845098827034
1780100481868203800,4.520203857421875,0.004059504523873329,0.05259133411124348,-0.045263804234750564
1780100481878195700,4.53019580078125,-0.005848726028203964,0.05110343364104628,-0.05029036369249224
1780100481888188000,4.54018798828125,-0.010338438662886619,0.05681801189556718,-0.04080543658640235
1780100481898179800,4.550179931640625,-0.014709493353962898,0.037243396723270414,-0.05155103127807378
1780100481908171800,4.560171875,-0.021647768184542653,0.02106163885965943,-0.026884317131154238
1780100481918163700,4.570163818359375,0.003044190001487732,0.007234042906761169,-0.009645743690989911
1780100481928156000,4.580156005859375,0.03934241482913494,-0.02050561241209507,-0.01793068389017135
1780100481938147800,4.59014794921875,0.06273848798573017,-0.035832360881567,-0.03558543691579252
1780100481948140000,4.60014013671875,0.06355097341239452,-0.037355040404200554,-0.06069799513407051
1780100481958131700,4.610131591796875,0.11408405981957911,-0.03956877093091607,-0.05998864128831773
1780100481968124000,4.6201240234375,0.1007610523879528,-0.0357560807749629,-0.07309764064308255
1780100481978115800,4.63011572265625,0.09669394907951355,-0.00630114597082138,-0.0660331821495667
1780100481988108000,4.64010791015625,0.10333294870257377,0.005102291575074196,-0.062367170455306764
1780100481998099700,4.650099609375,0.07745733368992805,0.013027970007807015,-0.044394766315259036
1780100482008091600,4.660091552734375,0.07562544208765029,0.021646160749346017,-0.04556830360665917
1780100482018083800,4.670083740234375,0.07436462837159633,0.005725245779007673,-0.041686895596049725
1780100482028075800,4.68007568359375,0.07314063953459263,0.0003359539560973644,-0.04496332345083356
1780100482038067700,4.690067626953125,0.07901859165728092,-0.010104776037484407,-0.016840879359468815
1780100482048059600,4.7000595703125,0.03728489777743816,-0.02015577606111765,0.004358524003066122
1780100482058051800,4.7100517578125,0.04176175093054771,-0.02802826300188899,0.013046126719005405
1780100482068043800,4.720043701171875,0.014605448457598685,-0.031338264332711696,0.021377317212708292
1780100482078035700,4.73003564453125,-0.034328970581293104,-0.019177286417782307,0.026039609935320913
1780100482088027600,4.740027587890625,-0.08716858036518096,-0.004449234493821859,0.026731172396056352
1780100482098019800,4.750019775390625,-0.1364665720194578,0.006254530350118875,0.021146905990317464
1780100482108011800,4.76001171875,-0.16835282562375067,0.001228811142593622,0.010085852141305803
1780100482118004000,4.77000390625,-0.1832967122554779,0.0013015841178596018,0.006319266149401664
1780100482127996200,4.77999609375,-0.1891997988194227,-0.012454700164496898,0.02741170200612396
1780100482137988400,4.78998828125,-0.1435474701911211,-0.02510784551054239,0.041812677400186654
1780100482147980300,4.799980224609375,-0.10359598355293273,-0.04165127629339695,0.07036335684098304
1780100482157972200,4.80997216796875,-0.06553834783732891,-0.03533580953627825,0.10512019744552671
1780100482167964200,4.819964111328125,0.0016939444363117217,-0.03684592183828354,0.11383245967868715
1780100482177956400,4.829956298828125,0.018086276310682294,-0.015774638367444277,0.10589615025408565
1780100482187948300,4.8399482421875,0.07668985644876956,0.009592442601174115,0.10393442172706127
1780100482197940200,4.849940185546875,0.09020750966966151,0.043318917244672774,0.08181790351960808
1780100482207932200,4.85993212890625,0.08921849863231182,0.05296382068544626,0.06718827046882361
1780100482217924400,4.86992431640625,0.09816577519774436,0.07192673370018601,0.044852264291793106
1780100482227916300,4.879916259765625,0.09124912767708301,0.02265504553094506,0.04934347476381808
1780100482237908500,4.889908447265625,0.08416238428652285,0.008140051835775375,0.027987602197937667
1780100482247901200,4.899901123046875,0.07229834349155426,0.016151070464402437,0.02428140462376177
1780100482257893400,4.909893310546875,0.08189151674509047,0.0009222294114530086,0.009348222049139439
1780100482267885300,4.91988525390625,0.09204349292516707,0.022268530431389807,0.003319865137711167
1780100482277877200,4.929877197265625,0.11074702435135841,0.026847821045666933,-0.005141125748120248
1780100482287869200,4.939869140625,0.11606968067884445,0.03912658012136817,-0.020342713467963038
1780100482297861400,4.949861328125,0.12119886026084423,0.06331336526423692,-0.024912578666768968
1780100482307853300,4.959853271484375,0.1068260515153408,0.07685323031693697,-0.04064326829463243
1780100482317845200,4.96984521484375,0.06557400367259979,0.051881286145746705,-0.07123761892486363
1780100482327837200,4.979837158203125,0.011725509107112883,0.007744038255512714,-0.07924896634705364
1780100482337829400,4.989829345703125,-0.043213118782639504,-0.042144758898764845,-0.07648341062385589
1780100482347821300,4.9998212890625,-0.06322130306661129,-0.08889423511400818,-0.08955748479571193
1780100482357813200,5.009813232421875,-0.07860884181261062,-0.1356353818923235,-0.05516359575204551
1780100482367805200,5.01980517578125,-0.06655424688160419,-0.13619929938539863,-0.007844429890066385
1780100482377797400,5.02979736328125,-0.07578034038841724,-0.11903262213766574,0.014256013965420424
1780100482387789300,5.039789306640625,-0.09049392539560794,-0.07720306666791439,0.043526568645983935
1780100482397781200,5.04978125,-0.09205869049429893,-0.03222249982133508,0.06898914587832987
1780100482407773200,5.059773193359375,-0.13309621880352496,0.031219314128160473,0.05265387795343995
1780100482417765400,5.069765380859375,-0.16649170792698859,0.06522957414910197,0.058723260995000595
1780100482427757300,5.07975732421875,-0.1919102268218994,0.10258023063912987,0.03347779711205512
1780100482437749500,5.08974951171875,-0.18697861563861368,0.1086852695159614,-0.002539199621416628
1780100482447741200,5.0997412109375,-0.1516986279428005,0.09744798231720923,0.00467383702993393
1780100482457733400,5.1097333984375,-0.12277648484110831,0.057967474191635844,0.012224142811633646
1780100482467725300,5.119725341796875,-0.06399287196099758,-0.014483867904543877,0.0220220813896507
1780100482477717500,5.129717529296875,0.004652794241905212,-0.09609189153313637,0.0394015611378476
1780100482487709200,5.139709228515625,0.06234627379775047,-0.16173121552690864,0.07720642766878008
1780100482497701400,5.149701416015625,0.10335925218760966,-0.19649141713231802,0.11459500501640141
1780100482507693300,5.159693359375,0.13443009775578976,-0.21791268308460712,0.1444102975655347
1780100482517685500,5.169685546875,0.13385492821633815,-0.21913711031302807,0.1575206486271694
1780100482527677200,5.17967724609375,0.13116612752377987,-0.1718356993034482,0.1538324616337195
1780100482537669400,5.18966943359375,0.09196165986061096,-0.10407178437113761,0.1259154769865796
1780100482547661300,5.199661376953125,0.06520633940398693,-0.02843421345427632,0.10271730102226137
1780100482557653200,5.2096533203125,0.03519230941236019,0.07075345213711261,0.0525293382583186
1780100482567645200,5.219645263671875,-0.03736556179821491,0.14324965628832578,0.002768039941228926
1780100482577637000,5.22963720703125,-0.027724457749724388,0.17902327271997928,-0.03672744655776769
1780100482587629300,5.23962939453125,-0.022374913415312767,0.17330796381309627,-0.0562767446257174
1780100482597621200,5.249621337890625,-0.021688100194931028,0.152586370562762,-0.06206774911731481
1780100482607613400,5.259613525390625,0.0017798691540956495,0.08980696604475379,-0.07111731701344251
1780100482617605000,5.269605224609375,0.021669980016350746,0.022862989193201063,-0.048113019653409715
1780100482627597300,5.279597412109375,0.04841828621029853,-0.03465440314337611,-0.05453611150346696
1780100482637589200,5.28958935546875,0.07938742496967315,-0.04387830469310283,-0.05030669377278536
1780100482647581400,5.29958154296875,0.09123451462984085,-0.05243731259331107,-0.05593194977603853
1780100482657573000,5.309572998046875,0.08817161992788314,-0.04083776795342564,-0.07801953414995223
1780100482667565300,5.3195654296875,0.06981354093849658,0.00013765490502119063,-0.0991503292556852
1780100482677557200,5.32955712890625,0.023934417816996574,0.05833133906796574,-0.12395952061321586
1780100482687549400,5.339549560546875,-0.02314998944103718,0.09245791894495486,-0.1480198298322037
1780100482697541000,5.349541015625,-0.02717792978286743,0.12119053082391619,-0.18014160922542213
1780100482707533300,5.359533203125,-0.05422551118433475,0.11513254595920443,-0.1593691443043761
1780100482717525200,5.369525146484375,-0.007342179456353187,0.09858677708879113,-0.14226130283810198
1780100482727517400,5.379517333984375,0.039921091499924656,0.04631006188467145,-0.13917327369488774
1780100482737509400,5.38950927734375,0.09551321486234664,-0.021796821266412733,-0.11267583698946981
1780100482747501300,5.399501220703125,0.14346329903900623,-0.08147972107380629,-0.08790489528309553
1780100482757494300,5.409494384765625,0.15477204403877257,-0.11658829772546887,-0.063682490837574
1780100482767486200,5.419486328125,0.13510872766971588,-0.12069763274043797,-0.04744571485109627
1780100482777478100,5.42947802734375,0.11683540435433387,-0.10710472232624887,-0.03188004305921495
1780100482787470300,5.43947021484375,0.04498422010838985,-0.06448591617494821,-0.004543817442096769
1780100482797462300,5.449462158203125,-0.05032324304878712,-0.026277327681332827,0.011270458815991877
1780100482807454500,5.459454345703125,-0.17281565025150775,-0.012479396214336157,0.0373182155251503
1780100482817446100,5.469446044921875,-0.25552082146704197,-0.003833148422092199,0.060247621018067
1780100482827438300,5.479438232421875,-0.2786626276016235,-0.011156330917030572,0.07406904295850544
1780100482837430300,5.48943017578125,-0.27400866431593895,-0.020578823778778312,0.09906911724563687
1780100482847422500,5.49942236328125,-0.20901041470468043,-0.06845891145914793,0.12204743991419673
1780100482857414100,5.5094140625,-0.14849427894353864,-0.1008285646662116,0.16107841417398303
1780100482867406300,5.51940625,-0.0636608635276556,-0.10942425131499767,0.2058993334794417
1780100482877398300,5.529398193359375,0.02593056007027626,-0.12078984106853603,0.2324156575484201
1780100482887390500,5.539390380859375,0.0821300016760826,-0.12660729517564176,0.2590404469605535
1780100482897382100,5.549382080078125,0.11576748286187648,-0.08466931089535355,0.2519850850889459
1780100482907374300,5.559374267578125,0.10553425813913345,-0.04300941290408373,0.2593288354478776
1780100482917366300,5.5693662109375,0.08685293854475021,0.003460661847889423,0.2138963601153344
1780100482927358500,5.5793583984375,0.018042437168955802,0.048286184263229365,0.17758929439410567
1780100482937350400,5.589350341796875,-0.02000701524019241,0.09685191612020135,0.12205905728675424
1780100482947342300,5.59934228515625,-0.05194821390211582,0.10314487878456712,0.07375745625868439
1780100482957334300,5.609334228515625,-0.0523585482686758,0.11393515286818146,0.0189747130503878
1780100482967326500,5.619326416015625,-0.009492635488510131,0.1212554127536714,-0.026180443178117272
1780100482977318400,5.629318359375,0.041330373775959016,0.10481383491009473,-0.05386405746079981
1780100482987310300,5.639310302734375,0.1085907231003046,0.07740750319883227,-0.08496405605822802
1780100482997302300,5.64930224609375,0.1470586931824684,0.052304626124352216,-0.08904796437099576
1780100483007294500,5.65929443359375,0.17371698300540447,0.03856032454073429,-0.09836896961964667
1780100483017286400,5.669286376953125,0.17285890487134456,0.019896394472569225,-0.10077672488112002
1780100483027278300,5.6792783203125,0.1423842716306448,0.01487125978693366,-0.11391443887371569
1780100483037270300,5.689270263671875,0.12636194211244584,0.0031251462832093237,-0.12086743634939193
1780100483047262200,5.69926220703125,0.0942559082776308,-0.023928134206682442,-0.11325608456283807
1780100483057254400,5.70925439453125,0.04702478602528572,-0.02295417460799217,-0.10055599480252712
1780100483067246000,5.71924609375,-0.02119827085137367,-0.031387071910500525,-0.07926065678484738
1780100483077238300,5.72923828125,-0.05583294638097286,-0.017374036388099194,-0.07551109499298035
1780100483087230200,5.739230224609375,-0.0775420893639326,0.006529986290633678,-0.07178133388012647
1780100483097222400,5.749222412109375,-0.09487199434936046,0.028681027822196482,-0.054854639400728045
1780100483107214300,5.75921435546875,-0.13908756817281245,0.04484539615958929,-0.05553085816185921
1780100483117206300,5.769206298828125,-0.15227379748225212,0.040922962018847465,-0.029710553533025083
1780100483127198700,5.77919873046875,-0.15623276424109936,0.04337546973749995,-0.04255889265760779
1780100483137190700,5.789190673828125,-0.14510405198335646,0.022847353232651947,-0.02615881586819887
1780100483147183600,5.79918359375,-0.12907938437759875,-0.013892916274070738,-0.03337123146504164
1780100483157175800,5.80917578125,-0.09466390455663204,-0.03877864346653223,-0.024568989393487572
1780100483167167700,5.819167724609375,-0.07090835043787956,-0.07494359730333089,-0.013881554629839955
1780100483177159700,5.82915966796875,-0.029676760861277577,-0.07983794521614909,0.0030992081243544816
1780100483187151600,5.839151611328125,0.03396481344401836,-0.08352686286196112,0.00961637146603316
1780100483197143800,5.849143798828125,0.08918576540648937,-0.05541325966417789,0.020789872713573274
1780100483207135700,5.8591357421875,0.1572708751171827,-0.013704700225591658,0.01784099631272256
1780100483217127700,5.869127685546875,0.17314415155351162,0.03862506034001708,-0.020562639828957615
1780100483227119600,5.87911962890625,0.17170973483622073,0.057919543396681546,-0.0499660636415705
1780100483237111600,5.889111572265625,0.15776538063585757,0.05871902321130037,-0.10159333849363028
1780100483247103700,5.899103759765625,0.09567278933823108,0.028244828362017867,-0.12198748988788574
1780100483257095700,5.909095703125,0.03015899142026901,-0.04314531424343586,-0.11417199383135884
1780100483267087600,5.919087646484375,-0.020321488016843796,-0.131654495562613,-0.08621102391202003
1780100483277079600,5.92907958984375,-0.04914835405051708,-0.20315949671939015,-0.031856004596501585
1780100483287071700,5.93907177734375,-0.0882785874336958,-0.2456749886266887,0.028266747932881114
1780100483297063700,5.949063720703125,-0.08110007410645484,-0.27508769172430036,0.09535053511392325
1780100483307055600,5.9590556640625,-0.11142506974339485,-0.2376015722863376,0.1315977969393134
1780100483317047600,5.969047607421875,-0.13189035014510153,-0.18610460928305983,0.18996428038589655
1780100483327039700,5.979039794921875,-0.12761574156582356,-0.08436945116594434,0.22983393395952878
1780100483337031700,5.98903173828125,-0.13746318184137343,0.009792056826502084,0.224574442528747
1780100483347023600,5.999023681640625,-0.15779811386168002,0.1024865610063076,0.214714142771624
1780100483357015600,6.009015625,-0.1331990946561098,0.17127426602840423,0.18597528381496667
1780100483367007700,6.0190078125,-0.13449673325121403,0.21631576928198337,0.1459925983209163
1780100483376999700,6.028999755859375,-0.10076397499740124,0.23979513680785894,0.07339202047977596
1780100483386991600,6.03899169921875,-0.04177577945590019,0.23985344286635515,0.017175627739168704
1780100483396983600,6.048983642578125,0.040163083562254905,0.20160700658038258,-0.012768917212821543
1780100483406975700,6.058975830078125,0.13008476202785968,0.16191972383633255,-0.04141629849374294
1780100483416967700,6.0689677734375,0.20754560284912585,0.11464549309462309,-0.043209355922974646
1780100483426960000,6.0789599609375,0.24983400800228117,0.06405950745642185,-0.02374883211702108
1780100483436951600,6.08895166015625,0.28391221869289873,0.021578794601559637,-0.02504654377736151
1780100483446943700,6.09894384765625,0.2727595410376787,-0.021940759781748056,-0.006953070540912449
1780100483456935700,6.108935791015625,0.25812019031047817,-0.04795096095949411,-0.014909107579290867
1780100483466927900,6.118927978515625,0.23339666794240474,-0.06338891471847892,-0.031989677446149285
1780100483476919600,6.12891943359375,0.17021861949563025,-0.08356485678479075,-0.0499761466441676
1780100483486912800,6.138912841796875,0.11914017416536807,-0.08954553862959146,-0.0515281618591398
1780100483496904700,6.14890478515625,0.07145254031717777,-0.08861717173829674,-0.03797477973774075
1780100483506896600,6.158896728515625,0.025029227316379545,-0.08724500660225748,-0.023367760377563534
1780100483516888600,6.168888671875,0.014321955341100692,-0.052622313771396874,0.0036001799164339897
1780100483526880800,6.178880859375,0.006316928061842918,-0.04721650920510292,0.01593991193175316
1780100483536872700,6.188872802734375,-0.02587035431563854,-0.061028323066979646,0.014110431482270359
1780100483546864600,6.19886474609375,-0.044649873587489126,-0.05417290421426296,-0.021345131976157426
1780100483556856600,6.208856689453125,-0.07381225518584252,-0.07820069940313697,-0.06192877903804183
1780100483566848800,6.218848876953125,-0.12152502347528933,-0.09441022205650806,-0.09390497594811022
1780100483576840700,6.2288408203125,-0.17908581656217573,-0.10675883149802684,-0.1125460731299594
1780100483586832600,6.23883251953125,-0.23173545673191545,-0.11004866682365536,-0.11248166612423956
1780100483596824600,6.248824462890625,-0.24208500131070612,-0.08481471071541309,-0.12290146292764693
1780100483606816800,6.258816650390625,-0.24705928259193896,-0.07754238162487745,-0.10866334994509816
1780100483616808700,6.26880859375,-0.2175426807284355,-0.03546761922240257,-0.10888199766445904
1780100483626801000,6.27880078125,-0.18669336895644664,0.01261822016313672,-0.08920885402113199
1780100483636792600,6.28879248046875,-0.1455126327842474,0.06656126114428043,-0.054639827606268225
1780100483646784800,6.29878466796875,-0.11295359448492526,0.11865692069306968,-0.016932978089712558
1780100483656776700,6.308776611328125,-0.07434358558356761,0.13795885640382766,0.05250153693594038
1780100483666769000,6.318768798828125,-0.04907470429241657,0.15745631468668578,0.09607088527772575
1780100483676760600,6.328760498046875,-0.04374269561469555,0.13136734918430445,0.14386424452271313
1780100483686752800,6.338752685546875,-0.026520927178859708,0.10067278958261013,0.1682557219248265
1780100483696744700,6.34874462890625,-0.00466857633292675,0.07200958967804909,0.1971232852950692
1780100483706736600,6.358736572265625,0.008470306703448295,0.020857640720158815,0.20572700911983846
1780100483716728600,6.368728515625,0.03444762852489948,-0.01737286734431982,0.20117073405496774
1780100483726720500,6.378720458984375,0.07482932327389717,-0.04182034924998879,0.20049813202302902
1780100483736712700,6.388712646484375,0.12861819660663604,-0.07146072362363338,0.1908084395924583
1780100483746704600,6.39870458984375,0.16281155810952186,-0.06510828585699201,0.18007837126348167
1780100483756696600,6.408696533203125,0.20449322954118251,-0.059614364615827795,0.15870204043146222
1780100483766688500,6.4186884765625,0.23464169956743716,-0.054700581350177524,0.12198800134453922
1780100483776680700,6.4286806640625,0.23608722220063208,-0.02814721320644021,0.07845620853416621
1780100483786672600,6.438672607421875,0.23032149828076362,-0.01011734325811267,0.049716911186091596
1780100483796665600,6.44866552734375,0.2153250046789646,-0.009598872341960668,0.008001191354356705
1780100483806657800,6.45865771484375,0.20023849470615385,-0.01672755517810583,-0.04108169624451548
1780100483816649700,6.468649658203125,0.19618249731361864,-0.01564428998604417,-0.08421312809307127
1780100483826642000,6.478641845703125,0.18598785103559493,-0.03733253631144762,-0.10517327933963387
1780100483836633600,6.488633544921875,0.17763912488520145,-0.04029533163979649,-0.1247179012324661
1780100483846625500,6.49862548828125,0.15743103411495685,-0.04795797522217035,-0.14373338468465954
1780100483856617700,6.50861767578125,0.1263759706377983,-0.05400806904137134,-0.15232881560511885
1780100483866609700,6.518609619140625,0.05691431187689304,-0.04973769824579358,-0.15019015960860996
1780100483876601600,6.5286015625,-0.007118307572603225,-0.0286737212985754,-0.1593054131520912
1780100483886593500,6.538593505859375,-0.09078560181856155,-0.009865706584602594,-0.14433730539456008
1780100483896585700,6.548585693359375,-0.1571755980491638,-0.022110124999284744,-0.13190540158376096
1780100483906577700,6.55857763671875,-0.19733634352385995,0.00537701686322689,-0.10669405916612594
1780100483916569600,6.568569580078125,-0.2382031914412975,0.004240852440148592,-0.0790509230243042
1780100483926561500,6.5785615234375,-0.24958733976483344,0.05218728335499763,-0.059794543488323686
1780100483936553700,6.5885537109375,-0.2593500243663788,0.08127762263044715,-0.03911368410717696
1780100483946545700,6.598545654296875,-0.27077859635353085,0.0984374317459762,-0.03659757310040295
1780100483956537600,6.60853759765625,-0.27385493505895137,0.11322700459882616,-0.03680599168669432
1780100483966529500,6.618529541015625,-0.2600128721892834,0.0966774363361299,-0.043975408392027016
1780100483976521700,6.628521728515625,-0.20466566349864004,0.039292438207566734,-0.04266976915355772
1780100483986513700,6.638513671875,-0.14152677801847457,0.012262684723734854,-0.008343867312185466
1780100483996505900,6.648505859375,-0.047184945023059845,-0.02470189505815506,0.03130096452962607
1780100484006497500,6.65849755859375,0.027548516660928724,-0.03636281449645758,0.06714468705542385
1780100484016489700,6.66848974609375,0.05839490582346916,-0.0584998275026679,0.09941588485669343
1780100484026481700,6.678481689453125,0.08531798406243324,-0.07802855770662427,0.12092566934265196
1780100484036473900,6.688473876953125,0.09317921895682811,-0.07466814136281609,0.13961400319971143
1780100484046465500,6.698465576171875,0.10216682753264904,-0.06876943871304392,0.13313910809718071
1780100484056457700,6.708457763671875,0.1270955170840025,-0.06490224189087748,0.141983362679556
1780100484066449700,6.71844970703125,0.17232640542984007,-0.04329743606522679,0.14209117043558508
1780100484076441900,6.72844189453125,0.21275252384245394,-0.03448635310009122,0.11710417482573539
1780100484086434600,6.7384345703125,0.24569559302330016,-0.014465747725963592,0.10593304819837213
1780100484096426800,6.7484267578125,0.23269407263100145,-0.004862637600302696,0.10667951918412
1780100484106418700,6.758418701171875,0.22669337091147898,-0.005965922667086124,0.09299184315856546
1780100484116410600,6.76841064453125,0.18140286133289335,-0.008576835817843674,0.06386427714526653
1780100484126402600,6.778402587890625,0.1383937406897545,-0.004055705131590366,0.04358892982508987
1780100484136394500,6.78839453125,0.10137363132834434,0.0017602876707911491,0.03325582492444664
1780100484146386700,6.79838671875,0.04862169982790947,0.02187470880821347,0.023301819001883266
1780100484156378600,6.808378662109375,0.04610884022414684,0.028270108933746815,0.017818126893788575
1780100484166370600,6.81837060546875,0.020203999117016792,0.04376432292461395,0.023792671258747577
1780100484176362500,6.828362548828125,-0.009322539618611335,0.027535072657465933,0.02151946562975645
1780100484186354700,6.838354736328125,-0.021387071421742437,0.035626901437342165,0.03639795887507498
1780100484196346600,6.8483466796875,-0.02882569698989391,0.030937866838276384,0.022541063762456178
1780100484206338600,6.858338623046875,-0.043891748696565626,0.018163287069648502,0.007914207190647721
1780100484216330500,6.86833056640625,-0.07860650372505187,0.007588847693800926,-0.01351750709041953
1780100484226322700,6.87832275390625,-0.10542378350198268,-0.008173661844432353,-0.06385627650190144
1780100484236314600,6.888314697265625,-0.14369593875110148,-0.011984452304244041,-0.0813671275448054
1780100484246306600,6.898306640625,-0.17578677501678466,-0.01993848004862666,-0.09610175534002482
1780100484256298500,6.908298583984375,-0.17747721232175825,-0.022081775687634943,-0.12643840488214045
1780100484266290700,6.918290771484375,-0.17465455611646175,-0.030881022084504363,-0.13925846776030956
1780100484276282600,6.92828271484375,-0.1746557251602411,-0.029861908169835805,-0.13033161292839796
1780100484286274600,6.938274658203125,-0.15575696342289447,-0.025420856982469556,-0.11604918588008731
1780100484296266500,6.9482666015625,-0.14591010766923426,-0.03309665230736136,-0.09710322400014847
1780100484306258400,6.958258544921875,-0.09150339469909667,-0.023146190048754213,-0.08069079918581992
1780100484316250600,6.968250732421875,-0.058037762948870655,-0.024143530523031947,-0.05669007466696203
1780100484326242600,6.97824267578125,-0.02709726576209068,-0.02323079959228635,-0.02945906298998743
1780100484336234500,6.988234375,-0.000002922609448432922,-0.0236652454867959,-0.015172946147248147
1780100484346226400,6.998226318359375,0.040298108118772505,-0.017637655760347842,-0.00745203303899616
1780100484356218600,7.008218505859375,0.04786532850265503,-0.013136544948816298,0.008632657658308744
1780100484366210600,7.01821044921875,0.0648632250547409,0.01765606819987297,0.016953472888469694
1780100484376203500,7.02820361328125,0.060462944269180294,0.018729834911227226,0.008619907774589956
1780100484386195700,7.03819580078125,0.058442252096533774,0.015563041443377732,0.0021325550492852924
1780100484396187600,7.048187744140625,0.0707978758007288,0.01640153809413314,0.009085662122815847
1780100484406179600,7.0581796875,0.09136603205502032,0.014813830511271952,-0.0019996859172359107
1780100484416171500,7.068171630859375,0.11001987912058829,-0.012440087117254733,0.002044365309178829
1780100484426163700,7.078163818359375,0.09715981302559375,-0.017427520141005515,0.02185114526953548
1780100484436155600,7.08815576171875,0.09662965167164803,-0.019636428362131118,0.042545156393200154
1780100484446147300,7.098147216796875,0.07731237226128577,-0.026249270630627868,0.06286591375768184
1780100484456139500,7.108139404296875,0.060167760714888566,-0.02381064530685544,0.0870702710898593
1780100484466131500,7.11813134765625,0.04908464116454124,0.0068497197642922395,0.09272036927342414
1780100484476123600,7.12812353515625,0.026212299621105193,0.04080298890098929,0.078208334720321
1780100484486115300,7.138115234375,-0.013112579551339149,0.04901245271116495,0.0723890905149281
1780100484496107500,7.148107421875,-0.04457447026371956,0.05995017244145274,0.07492094708010553
1780100484506099500,7.158099365234375,-0.09499065229296684,0.06263911926448344,0.04566036580428481
1780100484516091600,7.168091552734375,-0.08838555493950843,0.04441811065822839,0.026791670411638914
1780100484526083600,7.17808349609375,-0.07577507969141006,0.04455591169372201,0.024160225929506122
1780100484536075500,7.188075439453125,-0.037978725260496136,0.0354468686953187,0.028877025318332014
1780100484546067500,7.1980673828125,-0.015512041908502578,0.02900032290443778,0.023681758230179546
1780100484556059600,7.2080595703125,-0.0033878888726234435,0.0023407179072499275,0.010609072297811507
1780100484566051600,7.218051513671875,0.03480184879004955,-0.020913608691096305,0.0029279797432944176
1780100484576043500,7.22804345703125,0.0414659828543663,-0.04651449841558933,-0.0006423895567655563
1780100484586035500,7.238035400390625,0.03663900108933449,-0.059591276001185176,-0.006265745863877237
1780100484596027600,7.248027587890625,0.04873509707450866,-0.05785261564031243,-0.012248217806965112
1780100484606019600,7.25801953125,0.023140052568912505,-0.06490311867371201,-0.015451215099357068
1780100484616011500,7.268011474609375,0.04108662814795971,-0.06985197325274348,-0.010313450352102517
1780100484626003500,7.27800341796875,0.032278467792272565,-0.042754561360180375,-0.018566534108296034
1780100484635995600,7.28799560546875,0.028432898280024526,-0.029524492909014224,-0.003632840077020228
1780100484645987600,7.297987548828125,0.032839024284482,-0.041056525270640847,-0.000576850039884448
1780100484655979500,7.3079794921875,0.014516601130366324,-0.0218330616235733,0.013953670017980039
1780100484665972500,7.317972412109375,0.005457680884003639,-0.04099617338553071,0.02665229847356677
1780100484675964700,7.327964599609375,-0.005984919628500938,-0.034789866091310975,0.04394150612242519
1780100484685956400,7.337956298828125,-0.010676876837015152,-0.022390695506334303,0.054932600007764995
1780100484695948500,7.347948486328125,0.01280278294980526,-0.0012852175049483776,0.0715054030155763
1780100484705940500,7.3579404296875,0.006033434945344925,0.0037165363050997253,0.08211491370480507
1780100484715932700,7.3679326171875,0.002626256850361824,0.03439735964238643,0.08823650185763836
1780100484725924600,7.377924560546875,-0.01902034229040146,0.047803369182348246,0.08879077473953366
1780100484735916500,7.38791650390625,-0.034114451047778126,0.05485547965094447,0.08967332972772418
1780100484745908500,7.397908447265625,-0.05078793795108795,0.07343538469746709,0.06467851613759994
1780100484755900700,7.407900634765625,-0.04702770863473415,0.04470803351551294,0.0413539007820189
1780100484765892600,7.417892578125,-0.02748597281873226,0.020635376271605492,0.019794797261618077
1780100484775884500,7.427884521484375,-0.02069207489490509,0.008406886078417301,-0.0017056348741054533
1780100484785876500,7.43787646484375,-0.012260931158065796,-0.015001608168333768,-0.03521945314761251
1780100484795868700,7.44786865234375,0.004427168792486191,-0.012220891408622264,-0.0561964093985036
1780100484805860600,7.457860595703125,-0.009319032487273216,-0.018049597562104464,-0.07973101424295455
1780100484815852500,7.4678525390625,-0.0021796821266412735,-0.014682459216564893,-0.06165876645762473
1780100484825844500,7.477844482421875,0.002633271113038063,-0.0063525838971138,-0.03201320445220917
1780100484835836700,7.487836669921875,-0.010895488023757933,-0.018224661868065595,-0.021531630991585553
1780100484845828600,7.49782861328125,-0.011514496704936027,-0.03904606223106384,-0.008663783448934554
1780100484855820500,7.507820556640625,0.009306757527589797,-0.04093903637081384,-0.01858304685167968
1780100484865812500,7.5178125,0.007555529946088791,-0.01851195437684655,-0.023334990619122982
1780100484875804700,7.5278046875,0.009096329647302627,-0.00029649872854351997,-0.06511782087031752
1780100484885796600,7.537796630859375,-0.003759644794464111,0.01414689103513956,-0.11468502138741314
1780100484895788500,7.54778857421875,-0.009965513697266578,0.058303428147733205,-0.1465084023559466
1780100484905780500,7.557780517578125,-0.03545709782838821,0.09070727588534355,-0.16478965324945746
1780100484915772400,7.5677724609375,-0.06716916390955448,0.09819748551025986,-0.17850783401113002
1780100484925764600,7.5777646484375,-0.08058978649675845,0.06488295266851782,-0.17524510588813572
1780100484935756500,7.587756591796875,-0.08972995528578757,0.042865328258275985,-0.13501418125405906
1780100484945748500,7.59774853515625,-0.0467377857774496,0.023311317482590674,-0.06955277111046015
1780100484955740400,7.607740478515625,0.023054712373018264,-0.013738456364721058,-0.02250792867783457
1780100484965733600,7.617733642578125,0.06948270154893398,-0.0378016151279211,0.009332074631936848
1780100484975725600,7.6277255859375,0.09864508314728736,-0.08545446992367506,0.049380957229994235
1780100484985717500,7.637717529296875,0.10342238055169582,-0.14715470090284943,0.04703307892959565
1780100484995709700,7.647709716796875,0.08339549156725407,-0.17214885690584777,0.04326247434969991
1780100485005701600,7.65770166015625,0.030533085429668424,-0.16707126138061285,0.07896357353441416
1780100485015693600,7.667693603515625,0.006474164450168609,-0.11206672864779829,0.12836926334686577
1780100485025685500,7.677685546875,-0.027013094609975814,-0.04205547318011522,0.1517375717137009
1780100485035677700,7.687677734375,-0.02387012040913105,0.011717910322546958,0.16918310243543236
1780100485045669600,7.697669677734375,-0.0042132337808609005,0.0793897630572319,0.18381974974889306
1780100485055661300,7.707661376953125,0.0003337619990110397,0.08513093705773353,0.17428141195513308
1780100485065653500,7.717653564453125,0.04384732503294945,0.08567030463144183,0.16855992903579026
1780100485075645400,7.7276455078125,0.03103869686424732,0.06649521017074585,0.16115677663981914
1780100485085637600,7.7376376953125,0.0364554612159729,0.049748658031225204,0.15934106898736208
1780100485095629600,7.747629638671875,0.05170739088356495,0.005429769963771105,0.1518260537147522
1780100485105621500,7.75762158203125,0.048231823727488514,-0.0109546708650887,0.13105612781066447
1780100485115613400,7.767613525390625,0.03676642686128616,-0.021007424454391,0.12512629937026648
1780100485125605600,7.777605712890625,0.018194997382164,-0.023515754013508555,0.07771057779863476
1780100485135597800,7.787597900390625,-0.017725041782855985,-0.017174568293243646,0.029534904705174267
1780100485145589500,7.797589599609375,-0.04665829080045223,-0.0038217502452433105,-0.006337276730127632
1780100485155581700,7.807581787109375,-0.050256023031473154,-0.0035622225262224674,-0.062449478443898254
1780100485165573600,7.81757373046875,-0.05005670106709003,0.040401276232302184,-0.11178937301114202
1780100485175565800,7.82756591796875,-0.053721653315424917,0.036938714688271285,-0.12037855685390532
1780100485185557500,7.8375576171875,-0.049418987685441965,0.052002136046439405,-0.12537724192403257
1780100485195549700,7.8475498046875,-0.035333179187774656,0.05442307958304882,-0.1258615183096379
1780100485205541600,7.857541748046875,-0.004971358671784401,0.025542145274579525,-0.1135067713882774
1780100485215533800,7.867533935546875,0.0030588030487298965,0.009893325243890284,-0.09179101600144057
1780100485225525500,7.877525390625,0.009155366358160971,-0.007311930448561907,-0.07870576284844427
1780100485235517700,7.887517578125,0.011223989325761794,-0.03797390295490622,-0.04640365845225751
1780100485245509600,7.897509521484375,0.011223989325761794,-0.05716346433237195,-0.03442771824803203
1780100485255501800,7.907501708984375,0.041966333591938014,-0.06835121330097317,-0.004849083998985588
1780100485265493500,7.917493408203125,0.04883154318630695,-0.05779226375520229,0.004051357750035822
1780100485275486700,7.92748681640625,0.04484335033297539,-0.05461918667703867,0.003838664847426116
1780100485285478700,7.937478759765625,0.051989130434393876,-0.05865282610729337,-0.006325915085896849
1780100485295470600,7.947470703125,0.035550621330738066,-0.05274813210815191,-0.015162643948942421
1780100485305462500,7.957462646484375,0.0014513678520917891,-0.04369534934163093,-0.03332772111687809
1780100485315454700,7.967454833984375,-0.0046820203363895415,-0.00915785057619214,-0.04545187415275723
1780100485325446700,7.97744677734375,-0.031802082452178,0.02963248332813382,-0.052350730288401245
1780100485335438800,7.98743896484375,-0.060033320680260654,0.05670666047558188,-0.05750285235457122
1780100485345430500,7.997430419921875,-0.08909633355736732,0.07727057894617319,-0.05110368936937302
1780100485355422700,8.007422607421875,-0.10061141478419303,0.07449936066716908,-0.008827047719247638
1780100485365414700,8.01741455078125,-0.08166706033945083,0.06723170775175094,0.0034460488006472587
1780100485375406800,8.02740673828125,-0.07893442050516605,0.033983518144488335,0.033955570691637696
1780100485385398500,8.0373984375,-0.04043897789418697,0.008803191919624805,0.06596172434855252
1780100485395390700,8.047390625,-0.007415829214453697,-0.04119286500141024,0.07712693269178271
1780100485405382700,8.057382568359374,0.009851531928777694,-0.0670126581735909,0.09901143224164843
1780100485415374800,8.067374755859374,0.03815174373984337,-0.07470365106761455,0.07773461626134813
1780100485425366500,8.077366455078124,0.04874269585907459,-0.05103621362373233,0.08545103585757315
1780100485435358700,8.087358642578126,0.03362286813855171,-0.011685907749086618,0.0943753699388355
1780100485445350700,8.0973505859375,0.028646833291649815,0.007458791573345661,0.08148494523819536
1780100485455342800,8.1073427734375,0.02539630706310272,0.014683774390816688,0.05794241281561553
1780100485465334500,8.11733447265625,0.014155366602540015,0.032068039911985396,0.026397739190608262
1780100485475326700,8.12732666015625,0.022629764959216116,0.01617459747046232,0.019768128450401126
1780100485485318700,8.137318603515626,0.02797171050906181,0.0017484511025249957,-0.012008490766957402
1780100485495310800,8.147310791015625,0.046187166157364845,0.010133856001496314,-0.0198071087539196
1780100485505302800,8.157302734375,0.05303074844181537,0.008780395565927027,-0.008346424595452845
1780100485515294700,8.167294677734375,0.060035074245929715,0.01113660330325365,0.008186850119568406
1780100485525286700,8.17728662109375,0.06436930405795574,0.012197948924452065,0.02307502450868487
1780100485535278800,8.18727880859375,0.05123977337181568,0.013057196102291346,0.04818977468404918
1780100485545270800,8.197270751953125,0.029653964507579803,0.013117401856929063,0.05304053918346762
1780100485555262500,8.207262451171875,0.012455576947331428,0.023940701427310702,0.04703114270083606
1780100485565254700,8.217254638671875,0.012462591210007666,0.05216404860988259,0.042617892835848034
1780100485575246600,8.22724658203125,-0.004741057047247886,0.05974544364959001,0.03502097143344581
1780100485585239600,8.237239501953125,-0.027680034086108207,0.04977803025618195,0.018852547975443303
1780100485595231700,8.247231689453125,-0.05303951627016067,0.05197451738715172,-0.0002028656283393502
1780100485605223700,8.2572236328125,-0.04282791885733604,0.05123714302331209,-0.031329825297929347
1780100485615215900,8.2672158203125,-0.05973462999463081,0.04148775629475712,-0.04288392336089164
1780100485625207600,8.27720751953125,-0.06006839199364185,0.013831249214708805,-0.06611881460640578
1780100485635199700,8.28719970703125,-0.07003858186602592,-0.020669570802152155,-0.07329941029287874
1780100485645191700,8.297191650390625,-0.049694882017374035,-0.026854396916925906,-0.061679151658527546
1780100485655184000,8.307183837890625,-0.04512099823057651,-0.03483355910256505,-0.03954761854503303
1780100485665175600,8.317175537109375,-0.009012158495187758,-0.05124824893921613,-0.014117409212328492
1780100485675167700,8.327167724609374,0.009433598777651786,-0.04570288977175951,-0.005204473307915031
1780100485685159700,8.33715966796875,0.02927110266983509,-0.03336772433370352,0.01839380788989365
1780100485695151600,8.347151611328124,0.06893149740695953,-0.03467135427817702,0.03307195625752211
1780100485705143800,8.357143798828124,0.08445522975325584,-0.04170300648063421,0.044428924313187595
1780100485715135500,8.367135498046874,0.07329612235724925,-0.04217179303616285,0.051180152139067646
1780100485725127700,8.377127685546874,0.055959203109145164,-0.03533507888391614,0.05280629203617573
1780100485735119600,8.38711962890625,0.0615910715162754,-0.03637465106472373,0.05270564467329532
1780100485745111800,8.39711181640625,0.050209845802187916,-0.03437646298483014,0.052637730536237354
1780100485755103500,8.407103515625,0.03405307624936103,-0.0314632058866322,0.022513043244369327
1780100485765095700,8.417095703125,-0.004134323325753211,-0.04646043014079332,-0.021009872139804063
1780100485775087600,8.427087646484376,-0.029109190106391906,-0.030017537122964857,-0.038009083866141734
1780100485785079800,8.437079833984376,-0.05450958882272243,-0.01912804044857621,-0.057436216859146946
1780100485795071500,8.447071533203125,-0.08050736891031265,-0.020515987675637004,-0.06252831583376973
1780100485805063700,8.457063720703125,-0.07506547011733054,-0.02332505374699831,-0.062341926416195924
1780100485815055600,8.4670556640625,-0.05040449159145355,-0.022952713303267955,-0.037942119577154515
1780100485825047800,8.4770478515625,-0.023668460357189176,-0.014166034127026796,-0.004280965254828333
1780100485835039500,8.48703955078125,0.03440086677372455,-0.0005811608888208866,0.03813428114838898
1780100485845031700,8.49703173828125,0.04754267241954803,0.008162994319945573,0.07582812505289911
1780100485855023600,8.507023681640625,0.06177811852097511,0.013382482533901929,0.1050134856680408
1780100485865015800,8.517015869140625,0.07158113513290881,0.01806552578359842,0.08559800658021122
1780100485875007700,8.5270078125,0.03827624690234661,0.011487608698010444,0.05682542801704257
1780100485884999700,8.536999755859375,0.019251812958717345,0.02163067091926932,0.034048546204715965
1780100485894991600,8.54699169921875,-0.016205869391560553,0.041423751147836446,0.013699329930730163
1780100485904983800,8.55698388671875,-0.03570551963150501,0.06143894969448447,0.0005107625337317586
1780100485914975700,8.566975830078125,-0.04835632688999176,0.062014119233936064,-0.012893201179616152
1780100485924967700,8.5769677734375,-0.04423310948014259,0.06877732975855469,-0.0317913053298369
1780100485934960600,8.586960693359375,-0.022362053933739662,0.03636749067157507,-0.01931943483483046
1780100485944952800,8.596952880859375,-0.006748305216431617,0.0026344401568174363,-0.02167655588760972
1780100485954944500,8.606944580078125,0.011648936739563942,-0.022673896361887453,-0.012171535841561854
1780100485964936700,8.616936767578125,0.03778992469012737,-0.033826720147579904,-0.0024973332410678267
1780100485974928600,8.6269287109375,0.043969490107893944,-0.050041211237013335,0.012073738022893667
1780100485984920800,8.6369208984375,0.049909401550889014,-0.04868409753963351,0.0226863539846614
1780100485994912500,8.64691259765625,0.04240940118432045,-0.031207185298949478,0.0261482214089483
1780100486004904700,8.65690478515625,0.029223756396770474,-0.0069156246073544024,0.011540252200700343
1780100486014896600,8.666896728515624,0.011990882045030593,-0.006365151117742061,-0.006433576711453497
1780100486024888800,8.676888916015624,-0.0016799159109592437,0.014874328526854514,-0.006405410062894225
1780100486034880500,8.686880615234376,-0.02678396202921867,0.018176584942638872,-0.026920009499043225
1780100486044872700,8.696872802734376,-0.04687631746530532,0.02202639223858714,-0.04750577447526157
1780100486054864600,8.70686474609375,-0.0595826543033123,-0.015883505569398403,-0.02341317042186856
1780100486064856800,8.71685693359375,-0.053332946258783334,-0.04104600387662649,-0.014123510159552096
1780100486074848800,8.726848876953126,-0.030759295400977132,-0.05779883962646126,0.0021670783733949064
1780100486084840700,8.7368408203125,0.00476443792283535,-0.05966083410605788,0.03431282316409051
1780100486094832600,8.74683251953125,0.018446341794729232,-0.05438362435549497,0.04231167643088847
1780100486104824800,8.756824951171875,0.046049803513288495,-0.038973581516742704,0.0352808279460296
1780100486114816800,8.766816650390625,0.02946984011232853,-0.03748319682851434,0.04303429161701351
1780100486124808700,8.77680859375,-0.015056699356436729,-0.01545183615386486,0.026009397460147736
1780100486134800400,8.78680029296875,-0.0279459915459156,0.0026585516847670077,-0.0026959245530888435
1780100486144792300,8.796792236328125,-0.042300095590949056,-0.006677870328724384,-0.014913491493463516
1780100486154784500,8.806784423828125,-0.040077158844470974,-0.016801058805733918,-0.04154153230860829
1780100486164776400,8.8167763671875,-0.02544774498939514,-0.014894932923465967,-0.04198182342201471
1780100486174768400,8.826768310546875,-0.021416882038116453,-0.025363719967752694,-0.035478980866633356
1780100486184760300,8.83676025390625,0.009098667734861373,-0.0705455084748566,-0.03671246818434447
1780100486194752500,8.84675244140625,0.03118891898989677,-0.0674710694655776,-0.010086400130577385
1780100486204744400,8.856744384765625,0.04779460135400295,-0.0610793226018548,0.01856163873746991
1780100486214736400,8.866736328125,0.06942775649130344,-0.030502251899987457,0.041199988861940796
1780100486224728300,8.876728271484374,0.07971475722789764,0.027598201021552086,0.04994140412434935
1780100486234720500,8.886720458984374,0.0672252780109644,0.07461918765455484,0.029153065780736506
1780100486244712400,8.89671240234375,0.021817279532551765,0.12413681340888141,0.0009592734862118959
1780100486254704400,8.906704345703124,-0.04150397677719593,0.15552257014513016,-0.030861367535963653
1780100486264696300,8.9166962890625,-0.12870002967119215,0.16962430686429142,-0.027978395978175103
1780100486274688500,8.9266884765625,-0.15664134504199026,0.1838489393107593,-0.01820146365556866
1780100486284680400,8.936680419921874,-0.12218202607929705,0.16134192394837737,0.009837686066515743
1780100486294672400,8.94667236328125,-0.07448445535898209,0.09537892095819116,0.020319040331430734
1780100486304664300,8.956664306640626,-0.011883914539217949,-0.007841215019673109,0.03474989940710366
1780100486314656500,8.966656494140626,0.041558921834826464,-0.10508286110982298,0.03540123945530504
1780100486324649200,8.976649169921876,0.07521627676486968,-0.16922230193465948,0.053159416322782635
1780100486334641400,8.986641357421876,0.0826923117339611,-0.2032759627059102,0.06470102023035287
1780100486344633300,8.99663330078125,0.10442483559250831,-0.22023820342272518,0.04332626030091196
1780100486354625500,9.00662548828125,0.08810907608568667,-0.19650296143963933,0.04305339817628264
1780100486364617500,9.016617431640626,0.06692775636911392,-0.13657237048149107,0.0553782248834148
1780100486374609400,9.026609375,0.05476034871339798,-0.07388999659717083,0.041613793827220795
1780100486384601300,9.036601318359375,0.04600830245912075,0.023264701861888167,0.06485942566245793
1780100486394593500,9.046593505859375,0.01613455772101879,0.09846490427479147,0.06599730711858719
1780100486404585500,9.05658544921875,0.004017418947815895,0.12118585464879869,0.04503423326257616
1780100486414577400,9.066577392578125,-0.017278467059135435,0.13919409728720783,0.01106423218678683
1780100486424569300,9.0765693359375,-0.04403846369087696,0.10322700411006808,-0.020341982815600932
1780100486434561500,9.0865615234375,-0.06916764425039292,0.023830957442522047,-0.03781995450221002
1780100486444553500,9.096553466796875,-0.07650222492218017,-0.0478773112013936,-0.08696958719436079
1780100486454545400,9.10654541015625,-0.06352174731791019,-0.09515957911908626,-0.07963599290326237
1780100486464537300,9.116537353515625,-0.022914427119493482,-0.06896291545853019,-0.02071063346490264
1780100486474529500,9.126529541015625,0.02987316021621227,-0.03033449411764741,-0.0013362901050597428
1780100486484521500,9.136521484375,0.06245148773789405,0.023086714946478605,0.03193082339838147
1780100486494513400,9.146513427734375,0.09583528642356395,0.05893748826757073,0.03733070968054235
1780100486504505300,9.15650537109375,0.11596622030436991,0.09574483166113495,0.012131130765937269
1780100486514497500,9.16649755859375,0.08658405847549439,0.07560220734253525,-0.053516413066908713
1780100486524489500,9.176489501953125,0.026010055047273634,0.04646276822835207,-0.11426135261524469
1780100486534481400,9.1864814453125,-0.04320961165130138,-0.00904065393730998,-0.15281528394781052
1780100486544473300,9.196473388671874,-0.09474106144607067,-0.047702539156377316,-0.14361801467668264
1780100486554465500,9.206465576171874,-0.1255389352917671,-0.06560586011558771,-0.09960417397040873
1780100486564457500,9.21645751953125,-0.08177928854227065,-0.06124912621080875,-0.04116093549318611
1780100486574449700,9.22644970703125,-0.016068506747484206,-0.03732625270113349,0.01087689292114228
1780100486584441300,9.23644140625,0.03963116864264011,-0.011971446692198514,0.052615518704429265
1780100486594433500,9.24643359375,0.06272036780714989,0.009088730862736701,0.07477266118321567
1780100486604425500,9.256425537109376,0.08222820135354995,0.012032383099198341,0.12595829321499913
1780100486614417400,9.26641748046875,0.055525487866997715,0.008188128761202097,0.13302308050207792
1780100486624409300,9.276409423828126,0.04593465270102024,0.016043372306227682,0.11054006706979125
1780100486634401300,9.2864013671875,0.03710486503541469,0.0033795594356954097,0.0780510983319953
1780100486644393500,9.2963935546875,-0.010948679515719413,-0.017388503304868935,0.035494982153363525
1780100486654385400,9.306385498046875,-0.06476034920215606,-0.05857683826163411,0.00006298223361372948
1780100486664377300,9.31637744140625,-0.09686521399319171,-0.077925535723567,-0.015208346254192292
1780100486674369300,9.326369384765625,-0.1273866089850664,-0.05753244377523661,-0.01622548740748316
1780100486684361500,9.336361572265625,-0.11743453929126262,-0.03472016185596585,0.003788834356330335
1780100486694353400,9.346353515625,-0.08307692713737487,-0.015754326231777666,0.034879553668759763
1780100486704345300,9.356345458984375,-0.016540800434350966,0.010700988364964723,0.05788980584554374
1780100486714337300,9.366337158203125,0.04716682484447956,0.03186521081626415,0.06756349698938428
1780100486724329500,9.37632958984375,0.09687631990909576,0.043496758029609915,0.07037069989722222
1780100486734321400,9.3863212890625,0.12176292388439178,0.04454831290915608,0.04773614916503429
1780100486744314400,9.396314453125,0.12564999445080757,0.004542319604754447,0.037180122228711844
1780100486754306300,9.406306396484375,0.1124725329697132,-0.020317980885505675,0.009734335289895533
1780100486764298500,9.416298583984375,0.08305646887123584,-0.019746318477392194,-0.001113477667234838
1780100486774290400,9.42629052734375,0.06494798072874546,-0.03532061196714639,-0.022050394168682395
1780100486784282400,9.436282470703125,0.0366121130824089,-0.02051554928421974,-0.014159421723149716
1780100486794274300,9.4462744140625,0.020381693771481513,-0.004423077139258384,-0.015712131057865918
1780100486804266500,9.4562666015625,0.0049193362236022945,0.0058270987182855605,0.004850801032036543
1780100486814258400,9.466258544921875,0.008386720073223114,0.02539250767081976,0.035431305800005794
1780100486824250400,9.47625048828125,0.011029343536496162,0.02454480480030179,0.04108169624451548
1780100486834242300,9.4862421875,-0.01035538979768753,0.011920301026850938,0.030737156634405252
1780100486844234500,9.496234375,-0.01676291875243187,-0.015723638832569123,-0.007727525512129068
1780100486854226400,9.506226318359374,-0.059879591423273086,-0.04450535055026412,-0.035772995377145705
1780100486864218400,9.51621826171875,-0.07604863593578338,-0.06162365861162543,-0.03730294489078224
1780100486874210300,9.526210205078126,-0.08338263208568096,-0.055205169871449467,-0.02675115573816001
1780100486884202500,9.536202392578126,-0.0646808542251587,-0.04151493656262755,0.004060162110999226
1780100486894194400,9.5461943359375,-0.0032020109117031096,0.012650807258486748,0.023256628153286874
1780100486904186400,9.556186279296876,0.026640754166245458,0.04131225359737873,0.024928726083971557
1780100486914178300,9.56617822265625,0.042913259053230284,0.07325710552111267,0.04653035357184708
1780100486924170500,9.57617041015625,0.03771744397580623,0.0760338767580688,0.04959196963217109
1780100486934162400,9.586162353515626,0.0030155484288930893,0.050944735947996374,0.009831658184528351
1780100486944154600,9.596154541015625,0.0005862754553556442,0.030462796672433613,-0.03785164654841646
1780100486954146300,9.606146240234375,-0.025347791746258733,0.022976824831217525,-0.0559530473629944
1780100486964138500,9.616138427734375,-0.05700608181357383,0.031727994302660226,-0.08020219368496909
1780100486974130400,9.62613037109375,-0.053178047958016395,0.0578571456849575,-0.05137662455923855
1780100486984122600,9.63612255859375,-0.08997194734811782,0.06479936603829264,-0.01685048743803054
1780100486994114300,9.6461142578125,-0.11225625987052917,0.06006050094813108,-0.0104544297253713
1780100487004106500,9.6561064453125,-0.10765724164247512,-0.003933101665228605,-0.010338584793359041
1780100487014098400,9.666098388671875,-0.08478665366470814,-0.11154504286125301,-0.0067885276289656755
1780100487024090600,9.676090576171875,-0.015385200658440588,-0.18535963613465428,0.006858195331692695
1780100487034082300,9.686082275390625,0.10093874704241752,-0.22327537916153667,0.025629385166615247
1780100487044074500,9.696074462890625,0.23013562031984328,-0.20204349830150603,0.04709156765118241
1780100487054066400,9.70606640625,0.26603520121872426,-0.16588175933510063,0.054992294305749236
1780100487064058600,9.71605859375,0.2615150934457779,-0.07316489719301461,0.08219020743072032
1780100487074050300,9.72605029296875,0.2017874777138233,0.03618336627632379,0.11847593810297548
1780100487084042500,9.73604248046875,0.05875497130751609,0.10673033605590462,0.09612888080896809
1780100487094034400,9.746034423828124,-0.08359305996596812,0.10831307520270347,-0.017169983449671418
1780100487104026400,9.7560263671875,-0.17229542576968668,0.09896306305527687,-0.12190947448192163
1780100487114018600,9.7660185546875,-0.21507132217884062,0.09772416891008615,-0.17669941461598498
1780100487124010200,9.77601025390625,-0.19438333893716334,0.09190802997723221,-0.17952384265325963
1780100487134002000,9.786001953125,-0.13927403065562247,0.08530614749416708,-0.11122823199704289
1780100487143993900,9.795993896484376,-0.08802665849924086,0.08312281210571527,-0.03127436878364533
1780100487153986000,9.805986083984376,-0.03370236311554908,0.041843583995103836,0.04386464149393141
1780100487163978000,9.81597802734375,0.031053309911489486,0.029631898806244134,0.09800167067721485
1780100487173970000,9.825969970703126,0.11137830799221991,-0.006545476120710373,0.12144607648756355
1780100487183961900,9.8359619140625,0.17952654606699942,0.03005523878484964,0.20180198116321116
1780100487193954000,9.8459541015625,0.17315525746941565,0.020827245581895113,0.21934750166069714
1780100487203946000,9.855946044921875,0.09827274270355701,-0.06839227596372366,0.0851306813294068
1780100487213938000,9.86593798828125,-0.001301145726442337,-0.12627251026332378,-0.07292016518432647
1780100487223929900,9.875929931640625,-0.10861001232266425,-0.14080007117912172,-0.14660567045165224
1780100487233922000,9.885922119140625,-0.15651976448893545,-0.07117474628910422,-0.14075564751550554
1780100487243914000,9.8959140625,-0.1675841793388128,0.021175766758620738,-0.11001896580513566
1780100487253906000,9.905906005859375,-0.11580196965336799,0.04228767450079322,-0.056592094185203314
1780100487263899000,9.91589892578125,-0.030260698229074477,0.04116276212409138,-0.017608868057280777
1780100487273891000,9.92589111328125,0.07574877620637416,0.029924159751087424,0.042681386526115236
1780100487283882800,9.9358828125,0.1519260069578886,-0.009889818112552165,0.10582198903933167
1780100487293875000,9.945875,0.23016192380487918,-0.05525090870931744,0.1276039415301755
1780100487303867000,9.955866943359375,0.23032091375887392,-0.0839776753693819,0.10312511463817209
1780100487313859000,9.965859130859375,0.1540869843840599,-0.13657149369865654,0.04082118214480579
1780100487323850800,9.975850830078125,0.06449497626423835,-0.12114449972510337,0.024579474254883823
1780100487333843000,9.985843017578125,-0.043614100798964495,-0.0554302107989788,-0.006282295139878988
1780100487343835000,9.9958349609375,-0.13568857338428497,0.03698912970125675,-0.02696520034763962
1780100487353827000,10.0058271484375,-0.18213994343578815,0.11778174529373645,-0.03359155968483537
1780100487363819000,10.015819091796875,-0.1884761607199907,0.17668036285564304,-0.021131050834059716
1780100487373811000,10.02581103515625,-0.16820903323888778,0.17801584924310446,-0.013320742409303784
1780100487383803000,10.035802978515624,-0.09530220246016978,0.16552622389569877,-0.0025991496477276083
1780100487393795000,10.045795166015624,-0.0495481670230627,0.09149594204500316,-0.0017841069377958773
1780100487403787000,10.055787109375,-0.015740005445480345,0.02206102516055107,-0.020924020487256348
1780100487413779000,10.065779052734374,0.019068857607245443,-0.04922843354940414,-0.05106412454396486
1780100487423771000,10.07577099609375,0.021810265269875524,-0.10499489056542514,-0.08623232242837547
1780100487433763000,10.08576318359375,0.06578501607477664,-0.11015417302474378,-0.09321454599853604
1780100487443755000,10.095755126953126,0.09988017790019511,-0.06575286737084389,-0.050657626102305946
1780100487453747000,10.105746826171876,0.15002455725073813,0.044696927599608895,-0.010899068220332264
1780100487463739000,10.11573876953125,0.16101356877684592,0.1194954173438251,0.014983889848552643
1780100487473731000,10.12573095703125,0.0785100576132536,0.08640241829827427,0.009786065477132797
1780100487483723000,10.135722900390626,-0.023864275190234183,0.006053600950539112,-0.029737441539950667
1780100487493715000,10.14571484375,-0.06875321823060512,-0.0660924745887518,-0.03976195541545748
1780100487503707000,10.155706787109375,-0.11714929260909557,-0.05910217730998993,0.0133984838206321
1780100487513698800,10.16569873046875,-0.041218730095028876,-0.01753697186484933,0.054373249091953034
1780100487523691000,10.17569091796875,0.06335515857934951,0.02459536594375968,0.08441160980723798
1780100487533683000,10.185682861328125,0.11632920839786529,0.0426095999315381,0.09785126588847487
1780100487543675000,10.1956748046875,0.14445932433903216,-0.00562996871098876,0.06137136435098946
1780100487553666800,10.205666748046875,0.10478723916411399,-0.07736819410175085,0.02430062078088522
1780100487563659000,10.215658935546875,0.011439677903056144,-0.10999649824500084,0.022916765207052228
1780100487573651000,10.22565087890625,-0.07478957578539848,-0.12255962722003459,0.03963884049244225
1780100487583643000,10.235642822265625,-0.11139876625835896,-0.09465367542356252,0.03746430946495384
1780100487593634800,10.245634765625,-0.12473580221533774,-0.021928923213481902,0.043135085110366345
1780100487603627000,10.255626953125,-0.09739186821579933,0.011297054561972617,0.030963878062367438
1780100487613619000,10.265618896484375,-0.04597849184274673,0.045516281158477064,0.007470664674229919
1780100487623611000,10.27561083984375,0.012205986100435256,0.08781476931422948,-0.0021660554600879548
1780100487633602800,10.285602783203124,0.04233399786055088,0.09410656293481588,-0.042831937445327636
1780100487643595000,10.295594970703124,0.026924831804633138,0.06779737881049513,-0.07222202685233205
1780100487653587000,10.3055869140625,-0.010758125379681587,0.009090922819823027,-0.10091759465653449
1780100487663579000,10.315578857421874,-0.06134206519126892,-0.017201894691586492,-0.09107968939431012
1780100487673570800,10.32557080078125,-0.08417173663675785,-0.022887246851623057,-0.056372313954681154
1780100487683563000,10.33556298828125,-0.06452712496817112,-0.019742080693691967,-0.002590747145563364
1780100487693555000,10.345554931640624,-0.014324877950549125,0.04137698939666152,0.027043343617767095
1780100487703547000,10.355546875,0.0702571930527687,0.04860591773688793,0.047269408436119556
1780100487713538800,10.365538818359376,0.09868775324523449,0.02428819969072938,0.05353029546178877
1780100487723531000,10.375531005859376,0.09865151288807392,-0.01120762271285057,0.016638817448727784
1780100487733523000,10.38552294921875,0.07383095988631248,-0.021098317608237264,-0.0035186025802046057
1780100487743515100,10.39551513671875,0.04807166472971439,-0.03578749882653355,0.007919650550745427
1780100487753506800,10.4055068359375,0.0054506666213274,-0.028786826284229752,0.0022440525997430086
1780100487763499000,10.4154990234375,-0.03431611109972,-0.02829991955012083,-0.015491766305454074
1780100487773491000,10.425490966796875,-0.032203648990392686,0.009822013573348522,-0.0032886297492310404
1780100487783483100,10.435483154296875,-0.012105448335409164,0.04324950527027249,-0.01394720374457538
1780100487793474800,10.445474853515625,0.00937806919813156,0.031043519169837233,-0.012103950498066842
1780100487803467000,10.455467041015625,0.054601358759403223,0.01953442929238081,-0.010961502464674413
1780100487813459000,10.465458984375,0.03690028237402439,0.010055383937805891,-0.012976057157479225
1780100487823451100,10.475451171875,0.009283961173892021,-0.035687107191979886,0.011675715148635208
1780100487833442800,10.48544287109375,-0.01158931550681591,-0.06258432033732533,0.029725349243357777
1780100487843435000,10.49543505859375,-0.042623920717835426,-0.09396350120231509,0.046987303559109565
1780100487853427000,10.505427001953125,-0.04027998794019222,-0.09013955899998545,0.03427555989362299
1780100487863419000,10.5154189453125,-0.02150456032156944,-0.08447817223742604,0.03132405314426869
1780100487873410800,10.525410888671875,0.003300210589170456,-0.055036535306274885,0.02198500078227371
1780100487883402800,10.53540283203125,0.03199088302254677,-0.03152881846874952,0.012080606155097484
1780100487893395000,10.54539501953125,0.054341246518492696,0.008821604359149932,0.022505955916456877
1780100487903387000,10.555386962890625,0.029855040037631987,0.03828106920793652,0.007835497664939612
1780100487913379000,10.565379150390624,-0.00947919148504734,0.017664543767273427,0.006774553902540356
1780100487923370800,10.575370849609374,-0.04444879805743694,0.035411505120992656,0.0021554427345283327
1780100487933363000,10.585363037109374,-0.058870706641674035,0.0265168355256319,-0.0027910920232534406
1780100487943355000,10.59535498046875,-0.06056757368743419,0.033731589210033414,-0.005431943654548376
1780100487953347800,10.605347900390624,-0.03325812647938728,0.03225494078621268,-0.012262136734463273
1780100487963340000,10.615340087890624,0.00879120922088623,0.031177666943520307,0.005262669768556952
1780100487973332000,10.62533203125,0.061496378970146176,0.03343947439566254,0.0008466068919748067
1780100487983324200,10.63532421875,0.07916647569537162,0.04466653246134519,-0.016456738880090416
1780100487993315800,10.64531591796875,0.0899602569103241,0.04623991925790906,-0.021222455444559453
1780100488003307800,10.655307861328126,0.03682487905025482,0.02000862267538905,-0.04188398907072842
1780100488013300000,10.665300048828126,-0.013610592201352118,0.007290157008171081,-0.04577281320281326
1780100488023292000,10.6752919921875,-0.07731763295829296,-0.0018349603421986102,-0.044478115483466536
1780100488033283800,10.685283935546876,-0.09123334558606147,-0.023847470185905693,-0.039719504513219
1780100488043275800,10.69527587890625,-0.09123977532684803,-0.025163228959590195,-0.0037008090130053457
1780100488053268000,10.70526806640625,-0.05599193633496761,-0.018544833733141423,0.040434082523360844
1780100488063260000,10.715260009765625,0.007446808874607086,-0.018747370567917823,0.04864299834426492
1780100488073251800,10.725251953125,0.05595218884646892,-0.009918605815619229,0.054771801689174025
1780100488083243800,10.735243896484375,0.07204115386009216,0.018382775039225814,0.04174195025153458
1780100488093236000,10.745236083984375,0.048337622189521784,0.02698430690690875,0.027331622507236895
1780100488103228000,10.755227783203125,-0.004355857121944427,0.042243981489539145,0.028764157794695346
1780100488113220000,10.76522021484375,-0.06042378130257129,0.04456161078214645,0.014598781254794448
1780100488123211800,10.775211669921875,-0.08535714702904224,0.039549627839028836,0.0027167298790998756
1780100488133204000,10.785203857421875,-0.07215455110669136,0.03407587260305881,0.00775055932784453
1780100488143196200,10.795196044921875,-0.05040799872279167,0.029254005404561755,0.008167633962444961
1780100488153188000,10.80518798828125,-0.019900047734379766,0.00014466916769742964,0.011883713609818368
1780100488163180000,10.815179931640625,0.014063012143969536,-0.00410042105615139,0.01461918472200632
1780100488173172000,10.825171875,0.027433365848660466,-0.03073956778720021,0.03732146692816168
1780100488183164200,10.8351640625,0.05940145251750946,-0.03503141976222396,0.051605793672613795
1780100488193156000,10.845156005859375,0.07555880659222602,-0.04431742676272988,0.05115604061111807
1780100488203148000,10.85514794921875,0.09507423892319201,-0.03763298056274652,0.03528605211041867
1780100488213140000,10.865139892578124,0.07594809817075729,-0.03773673319816589,0.018856164704635737
1780100488223132200,10.875132080078124,0.06022036768496036,-0.05647738176435232,0.003409223921597004
1780100488233124000,10.8851240234375,0.009686696755886078,-0.06659180241301656,-0.01329493211461231
1780100488243116000,10.895115966796874,-0.029165304207801817,-0.05327990089729428,-0.024178930629976093
1780100488253108000,10.90510791015625,-0.027675357910990715,-0.01961640848740935,0.004231043432187289
1780100488263100200,10.91510009765625,-0.03575169686079025,0.0036830724269151685,0.02036837763218209
1780100488273092000,10.925092041015626,-0.022996844705939292,0.04145151593759656,0.04381634537279606
1780100488283084000,10.935083984375,-0.004021510601043701,0.055210576698929065,0.06256711347419769
1780100488293076000,10.945075927734376,0.026832477346062658,0.058401773955672975,0.05158314344938844
1780100488303068200,10.955068115234376,0.03221066325306892,0.04293780897259712,0.02940612722635269
1780100488313060000,10.96506005859375,0.019310265147686002,0.0360078635789454,0.017474848147761075
1780100488323052300,10.97505224609375,0.0006768763482570648,0.02196501744017005,0.0006570391366258263
1780100488333044000,10.9850439453125,-0.04131809881627559,0.01625730731785297,-0.016827106562443076
1780100488343036200,10.9950361328125,-0.0489817653119564,0.006882745251059532,-0.026939097792003302
1780100488353028000,11.005028076171875,-0.045825347107648844,0.018757015179097652,-0.041719574022945016
1780100488363020300,11.015020263671875,-0.03350479471683502,0.018067863871157167,-0.03931220235396176
1780100488373012000,11.025011962890625,-0.007930208477377892,0.03399170145094395,-0.038733397819008676
1780100488383004200,11.035004150390625,0.01431552560031414,0.020863632069528102,-0.05806490668412297
1780100488392996000,11.04499609375,0.023369185149669645,0.021122575266659258,-0.05788659097515046
1780100488402988300,11.05498828125,0.026588147196173667,-0.00793196204304695,-0.0687908833598718
1780100488412980000,11.06497998046875,0.02011807439923286,-0.055541416088491675,-0.05510059525212273
1780100488422972200,11.07497216796875,0.034494390276074406,-0.06676204441338777,-0.05239276106553152
1780100488432964000,11.084964111328125,0.019713585251569746,-0.06258505098968743,-0.012666589349508284
1780100488442956300,11.094956298828125,0.02201660149693489,-0.054486646338552235,0.007327073218766599
1780100488452948000,11.104947998046875,0.04873334350883961,-0.052986909300088876,0.031157281742617487
1780100488462940200,11.114940185546875,0.04629530270695686,-0.02983925794661045,0.06632882236158474
1780100488472932000,11.12493212890625,0.0346340910077095,-0.04226049423292279,0.10084036470185964
1780100488482924000,11.134924072265624,0.031308161455392836,-0.016849866383522746,0.10393414773242547
1780100488492916200,11.144916259765624,0.02208791316747665,0.007902005296200514,0.11235414902074262
1780100488502908000,11.154907958984374,0.006781622964143753,0.0007063947036862373,0.10386279952926561
1780100488512900000,11.164900146484374,-0.038135961648821826,0.01938829881995916,0.06027576940031722
1780100488522892000,11.17489208984375,-0.05841127243638038,-0.0025295184776186943,0.04179132408490404
1780100488532884200,11.18488427734375,-0.08749474357962608,0.010992226396501064,0.023193536321818826
1780100488542876000,11.1948759765625,-0.08167524364590645,0.0022283435739576815,0.02035595654202625
1780100488552868000,11.2048681640625,-0.08207856374979018,-0.002825724945217371,0.002701477511040866
1780100488562860000,11.214860107421876,-0.05455108987689018,-0.001107815111428499,-0.014950626899767666
1780100488572852200,11.224852294921876,-0.009351181191205978,-0.02209916521385312,-0.019174382074642924
1780100488582844000,11.234843994140626,0.024630583387613297,-0.037171500530838966,-0.03498283138014376
1780100488592836000,11.244836181640625,0.044834582504630086,-0.021410013905912635,-0.04977788412570953
1780100488602828000,11.254828125,0.04781622866392135,-0.02752411287203431,-0.033920682041347024
1780100488612820200,11.2648203125,0.06370119553804397,-0.01463964298814535,-0.041652390538249165
1780100488622812200,11.274812255859375,0.06542670415639877,-0.023228023113310337,-0.0349199770106934
1780100488632804000,11.28480419921875,0.05092120894193649,-0.02839168948680162,-0.02594069787180051
1780100488642796000,11.294796142578125,0.013147066342830657,-0.025667379089444876,-0.0014160773430019616
1780100488652788200,11.304788330078125,0.014908815318346022,-0.013762860153615475,0.015385730381403118
1780100488662780200,11.3147802734375,0.020555296772718428,0.004453618407994508,0.0412870826235041
1780100488672772000,11.324772216796875,0.012260931158065796,0.0129752169072628,0.06264458089089021
1780100488682764000,11.334763916015625,0.02462298460304737,0.00701046328395605,0.06732539565088227
1780100488692756200,11.344756103515625,0.006033434945344925,-0.00759630034789443,0.04760317043513059
1780100488702748200,11.354748046875,0.00452303038239479,-0.027749592190980908,0.04359879363197833
1780100488712740000,11.364739990234375,-0.03842705354988575,-0.04536269803196191,0.03154414390204474
1780100488722732000,11.37473193359375,-0.023777765950560567,-0.050881169192492956,0.012819387024734168
1780100488732724200,11.38472412109375,-0.020095278045535087,-0.04571224212199449,0.00186446043131873
1780100488742716200,11.394716064453124,-0.010455927562713623,-0.014905746578425168,0.004609722285158932
1780100488752708000,11.4047080078125,-0.004695464339852333,0.014424100541323422,0.005322857256885617
1780100488762700000,11.414699951171874,-0.001460135680437088,0.029231062920391557,-0.009869706906285136
1780100488772692200,11.424692138671874,0.010006430229544639,0.04620367890074849,-0.03132898504771292
1780100488782684200,11.43468408203125,0.0009638765960931778,0.06021379181370139,-0.028196532240882515
1780100488792676000,11.444676025390624,0.001592237627506256,0.054504620386660096,-0.02732517450014129
1780100488802668000,11.45466796875,-0.022361469411849973,0.05179843016788363,-0.027630970779992638
1780100488812660200,11.46466015625,-0.0383159943908453,0.029232524225115776,-0.02290615248149261
1780100488822652200,11.474652099609376,-0.03830898012816906,0.008270400217175483,-0.011936978167016058
1780100488832644000,11.48464404296875,-0.022916765207052228,-0.01106383032798767,-0.003023640403803438
1780100488842636000,11.494635986328126,0.001034019222855568,-0.0028643033899366853,0.04027715666228905
1780100488852628000,11.5046279296875,0.00783610045313835,-0.009493366140872239,0.06950758026186377
1780100488862620200,11.5146201171875,0.020442484048008917,-0.004025163862854242,0.06414689347892999
1780100488872612000,11.524612060546875,0.04396072227954864,-0.0005630407102406024,0.0680657839557156
1780100488882604000,11.53460400390625,0.04109656502008438,0.0021317513316869733,0.03942322498038411
1780100488892596000,11.544595947265625,0.027506431084871292,0.012416121719777583,0.042284112570527936
1780100488902588200,11.554588134765625,0.009997077879309653,-0.004099398142844438,0.0007451923441141843
1780100488912580000,11.564580078125,-0.017948329144716262,0.008541326113045216,-0.025489812299143523
1780100488922572000,11.574572021484375,-0.0066927756369113914,0.02622778945118189,-0.038108489120006556
1780100488932564000,11.58456396484375,-0.000029226094484329223,0.01930354314595461,-0.04157859464967623
1780100488942556200,11.59455615234375,0.0008884732723236083,0.014641981075704098,-0.0367869216600433
1780100488952548000,11.604548095703125,0.006913140389323234,-0.0043988194808363915,-0.037236583389993756
1780100488962540000,11.6145400390625,-0.008986439532041549,0.002398293313384056,-0.026383838529419154
1780100488972532000,11.624531982421875,-0.003853752818703651,-0.005851648637652397,-0.005424892859254032
1780100488982524200,11.634524169921875,0.009995324313640594,-0.010141016394644976,0.010646207704115658
1780100488992516000,11.64451611328125,-0.003982932156324386,-0.0033729835644364355,0.02950955106820911
1780100489002508300,11.65450830078125,0.00263034850358963,-0.0011110299818217753,0.018145934076048434
1780100489012500000,11.6645,0.00573299069404602,0.0036814649917185304,0.018359138435311614
1780100489022492200,11.6744921875,0.015230886879563331,0.009555471591651439,0.011046294671297073
1780100489032484000,11.684484130859374,0.007638532054424285,0.01159033842012286,0.005475253073312342
1780100489042476300,11.694476318359374,0.004430091401934623,-0.012202040577679872,0.0026670089858584103
1780100489052468000,11.704468017578124,0.003362169909477234,-0.042553047438710925,-0.004675663660839199
1780100489062460200,11.714460205078124,-0.016382395002245902,-0.06131313135772943,-0.01372738698143512
1780100489072452000,11.7244521484375,-0.0011047463715076445,-0.07455708220377565,0.025122988280747084
1780100489082444300,11.7344443359375,-0.0031821371674537655,-0.07209317630827426,0.03919109672494232
1780100489092436000,11.74443603515625,0.022258593559265134,-0.04066504173502326,0.03555398233160376
1780100489102428200,11.75442822265625,0.03636369127929211,-0.014408902972191572,0.02088995382087305
1780100489112420000,11.764420166015626,0.037656069177389145,0.03787424197271466,0.016499664706364273
1780100489122412300,11.774412353515626,0.02420037527680397,0.07344985161423682,0.0034641689792275425
1780100489132404000,11.784404052734375,-0.005793780970573425,0.09082885643839836,-0.026056707200594244
1780100489142396000,11.79439599609375,-0.0616693974494934,0.1030016709215939,-0.04300060854312032
1780100489152387800,11.804387939453125,-0.12410042692124842,0.0934505832441151,-0.057993887274526056
1780100489162380000,11.814380126953125,-0.11758359237313269,0.07859832041859627,-0.04403280113507062
1780100489172372000,11.8243720703125,-0.08162146763205527,0.052143005821853876,-0.017431867522560058
1780100489182364000,11.834364013671875,-0.03475742512643337,0.020517595110833644,0.027201054930128154
1780100489192355800,11.84435595703125,0.022253917384147642,0.004265986881405115,0.02894011714980006
1780100489202348000,11.85434814453125,0.0494569816082716,-0.03323138460293412,0.035551571178808805
1780100489212340000,11.864340087890625,0.07327566409111022,-0.05377952098250389,0.026709508553519844
1780100489222332000,11.874331787109375,0.06558510958850383,-0.07841521893665195,0.0034851021694019433
1780100489232323800,11.88432373046875,0.03091536274552345,-0.07836085840091109,-0.01271523253051564
1780100489242316000,11.89431591796875,-0.014235446101427077,-0.08091331936269998,-0.01339019091632217
1780100489252308000,11.904307861328125,-0.04154138617813587,-0.06030804596841335,-0.035457243958860636
1780100489262300000,11.9142998046875,-0.04087503122389316,-0.031389117737114426,-0.016663586563803255
1780100489272291800,11.924291748046874,-0.00696866996884346,-0.005545213036984205,-0.005651632553525268
1780100489282284000,11.934283935546874,0.007406476864218712,0.0035547698721289634,0.017376812867075205
1780100489292276000,11.94427587890625,0.05012216751873493,0.02067088597640395,0.035320429304055864
1780100489302268000,11.954267822265624,0.08576222069859504,0.02380976852402091,0.04830952860619873
1780100489312259800,11.964259765625,0.09987608624696731,0.02489303371608257,0.023770295030158012
1780100489322252000,11.974251953125,0.080282912504673,0.010018851319700478,0.01868915584096685
1780100489332244000,11.984243896484376,0.03995207116007805,-0.0027836393691599366,0.003204586461279541
1780100489342236200,11.994236083984376,0.010961538997292518,-0.015163959123194216,-0.02795793771203607
1780100489352227800,12.004227783203126,-0.024137831434607505,-0.015571224749833345,-0.03029989772830158
1780100489362220000,12.014219970703126,-0.05341127219200134,-0.009970482133328915,-0.050579318435396994
1780100489372212000,12.0242119140625,-0.053961307290196416,-0.012357085008919239,-0.041737219277489926
1780100489382204200,12.0342041015625,-0.03454349011480808,-0.008599632171541452,0.00016202216129750012
1780100489392195800,12.04419580078125,-0.00763093326985836,-0.00945522608757019,0.01816361586321145
1780100489402188000,12.05418798828125,0.025526070922613144,-0.0049428632296621795,0.037409693200886246
1780100489412180000,12.064179931640625,0.04640986899733543,0.01047170965373516,0.045255474797822534
1780100489422172200,12.074172119140625,0.05381342325210571,0.008812836530804634,0.02011177252260968
1780100489432163800,12.084163818359375,0.012820903128385543,0.010084463901817798,0.02577772586243227
1780100489442156000,12.094156005859375,-0.005396306085586547,0.010714578498899936,0.029259083438478408
1780100489452148000,12.10414794921875,-0.03310673530995845,0.017095365577191112,0.015652107966318725
1780100489462140200,12.11414013671875,-0.043542789128422736,0.0012852175049483776,0.026696831735037264
1780100489472131800,12.1241318359375,-0.0435965651422739,0.02726575419679284,0.033219474969431756
