time,seconds_elapsed,z,y,x
1780100477411767300,0.063767333984375,0.00037428364157676697,-0.02524181827902794,0.005668433383107185
1780100477421759500,0.073759521484375,0.0049934471026062965,-0.06828829646110535,-0.007997491396963596
1780100477431751200,0.083751220703125,0.012577063404023647,-0.1263478696346283,-0.028617816045880318
1780100477441743400,0.093743408203125,0.021037839353084564,-0.13887688517570496,-0.03680960834026337
1780100477451735300,0.1037353515625,0.021045029163360596,-0.07194844633340836,-0.022482600063085556
1780100477461727500,0.1137275390625,0.021017510443925858,0.02348334901034832,0.0017519854009151459
1780100477471719200,0.12371923828125,0.03102034330368042,0.10878226906061172,0.025509513914585114
1780100477481712400,0.13371240234375,0.0470816008746624,0.11731477826833725,0.03823649510741234
1780100477491704300,0.143704345703125,0.05195305496454239,0.057671692222356796,0.02915671467781067
1780100477501696300,0.1536962890625,0.04884985461831093,-0.014225847087800503,0.00696361530572176
1780100477511688200,0.163688232421875,0.046544354408979416,-0.05174153298139572,-0.006013435777276754
1780100477521680400,0.173680419921875,0.048926904797554016,-0.025402676314115524,0.003781583160161972
1780100477531672300,0.18367236328125,0.05220738425850868,0.047886982560157776,0.030917063355445862
1780100477541664300,0.193664306640625,0.065564826130867,0.1294211894273758,0.05877763405442238
1780100477551656200,0.20365625,0.07869873940944672,0.23017016053199768,0.08365023136138916
1780100477561648400,0.2136484375,0.08098648488521576,0.40985459089279175,0.11497343331575394
1780100477571640300,0.223640380859375,0.073768250644207,0.5611988306045532,0.14669941365718842
1780100477581632300,0.23363232421875,0.05887195095419884,0.6617426872253418,0.17730969190597534
1780100477591624200,0.243624267578125,0.047442726790905,0.6895341277122498,0.1930878609418869
1780100477601616400,0.253616455078125,0.042084891349077225,0.6134452819824219,0.17778488993644714
1780100477611608300,0.2636083984375,0.02574186772108078,0.4996904730796814,0.1308104544878006
1780100477621600500,0.2736005859375,0.0018783481791615486,0.40261560678482056,0.07243210077285767
1780100477631592200,0.28359228515625,-0.030003951862454414,0.2911873459815979,0.029231639578938484
1780100477641584400,0.29358447265625,-0.047015246003866196,0.11289330571889877,0.010441524907946587
1780100477651576300,0.303576416015625,-0.04584398865699768,-0.09513659030199051,0.004634769167751074
1780100477661568500,0.313568603515625,-0.02425951138138771,-0.27668431401252747,-0.006089600268751383
1780100477671560200,0.323560302734375,-0.011963430792093277,-0.39584028720855713,-0.02531948685646057
1780100477681552400,0.333552490234375,-0.013214761391282082,-0.42980504035949707,-0.05304787680506706
1780100477691544300,0.34354443359375,-0.020578403025865555,-0.38353925943374634,-0.07574733346700668
1780100477701536500,0.35353662109375,-0.031207699328660965,-0.27992090582847595,-0.078888438642025
1780100477711528200,0.363528076171875,-0.04395465552806854,-0.1421089470386505,-0.06141597405076027
1780100477721520400,0.373520263671875,-0.0493905171751976,-0.007598457392305136,-0.03203402832150459
1780100477731512300,0.38351220703125,-0.04462532699108124,0.0863882303237915,0.0011958320392295718
1780100477741504300,0.393504150390625,-0.027983408421278,0.13761909306049347,0.03209187462925911
1780100477751496200,0.40349609375,-0.006971868220716715,0.151231050491333,0.050422679632902145
1780100477761488100,0.413488037109375,0.019446156919002533,0.10965856909751892,0.04784127324819565
1780100477771480300,0.423480224609375,0.09168173372745514,-0.01663944683969021,0.00986007135361433
1780100477781472300,0.43347216796875,0.19381697475910187,-0.09024159610271454,-0.05669960007071495
1780100477791464400,0.44346435546875,0.28005945682525635,-0.022896641865372658,-0.11777015030384064
1780100477801456000,0.4534560546875,0.3059737980365753,0.0584542341530323,-0.13328616321086884
1780100477811448300,0.4634482421875,0.2749503552913666,0.062494777143001556,-0.09492013603448868
1780100477821440300,0.473440185546875,0.18771052360534668,0.007452595978975296,-0.03705950081348419
1780100477831432400,0.483432373046875,0.037453122437000275,-0.03158854693174362,0.013640427961945534
1780100477841424100,0.493424072265625,-0.11030864715576172,0.0007712352671660483,0.044267576187849045
1780100477851416300,0.503416259765625,-0.17515501379966736,0.07689822465181351,0.06418775767087936
1780100477861408300,0.513408203125,-0.17732647061347961,0.12491012364625931,0.0847717747092247
1780100477871400400,0.523400390625,-0.14286570250988007,0.12584754824638367,0.10564562678337097
1780100477881392000,0.53339208984375,-0.10463744401931763,0.09379864484071732,0.11992213129997253
1780100477891384300,0.54338427734375,-0.09230540692806244,0.05033399537205696,0.1226702481508255
1780100477901376300,0.553376220703125,-0.10720960795879364,0.019593210890889168,0.1143447607755661
1780100477911368400,0.563368408203125,-0.13863518834114075,-0.001447624759748578,0.10438080877065659
1780100477921360100,0.573360107421875,-0.17332693934440613,-0.014917302876710892,0.09160783886909485
1780100477931352300,0.583352294921875,-0.19867196679115295,-0.012101275846362114,0.07523525506258011
1780100477941344300,0.59334423828125,-0.18059664964675903,-0.0030797142535448074,0.06587833166122437
1780100477951336400,0.60333642578125,-0.12387611716985703,-0.005933557637035847,0.06044068932533264
1780100477961328400,0.613328369140625,-0.04173499718308449,-0.03454195335507393,0.06216011196374893
1780100477971321300,0.6233212890625,0.021056480705738068,-0.08629836142063141,0.05775577574968338
1780100477981313300,0.633313232421875,0.03364533558487892,-0.15108567476272583,0.041037432849407196
1780100477991305500,0.643305419921875,0.008850771002471447,-0.21219271421432495,0.016249528154730797
1780100478001297200,0.653297119140625,-0.025678090751171112,-0.24649028480052948,-0.002086691791191697
1780100478011289300,0.663289306640625,-0.05041246488690376,-0.2309345006942749,-0.0047533148899674416
1780100478021281300,0.67328125,-0.05723210796713829,-0.17116431891918182,0.010511213913559914
1780100478031273500,0.6832734375,-0.04856058955192566,-0.08269330114126205,0.03469591215252876
1780100478041265200,0.69326513671875,-0.03928560018539429,0.015339004807174206,0.05940711870789528
1780100478051257300,0.70325732421875,-0.033076971769332886,0.10493546724319458,0.08022131770849228
1780100478061249300,0.713249267578125,-0.033385276794433594,0.16477127373218536,0.09093273431062698
1780100478071241500,0.723241455078125,-0.027150018140673637,0.20338071882724762,0.09144140034914017
1780100478081233200,0.733233154296875,-0.019719354808330536,0.18720287084579468,0.08954983949661255
1780100478091225300,0.743225341796875,-0.01721039041876793,0.12465295195579529,0.08818390220403671
1780100478101217300,0.75321728515625,-0.024595867842435837,0.044386349618434906,0.07845750451087952
1780100478111209500,0.76320947265625,-0.03153153881430626,-0.028644448146224022,0.0609126016497612
1780100478121201000,0.773200927734375,-0.033671922981739044,-0.07689747214317322,0.03792925551533699
1780100478131192800,0.78319287109375,-0.036098331212997437,-0.09128919988870621,0.018337178975343704
1780100478141184800,0.793184814453125,-0.03362496197223663,-0.07496808469295502,0.009319627657532692
1780100478151176700,0.8031767578125,-0.027936715632677078,-0.03454076871275902,0.011537241749465466
1780100478161169000,0.8131689453125,-0.022283092141151428,0.013138323090970516,0.018197273835539818
1780100478171160600,0.82316064453125,-0.01784626394510269,0.05724559351801872,0.025264505296945572
1780100478181152800,0.83315283203125,-0.011960412375628948,0.07404986023902893,0.027136703953146935
1780100478191144700,0.843144775390625,-0.004334450699388981,0.0569787360727787,0.0235062837600708
1780100478201137000,0.853136962890625,-0.002482311800122261,0.01045394316315651,0.017082031816244125
1780100478211128800,0.86312890625,-0.0010745646432042122,-0.03986888378858566,0.008400924503803253
1780100478221120800,0.873120849609375,-0.005152840632945299,-0.07447674125432968,0.001969035714864731
1780100478231112700,0.88311279296875,-0.009161430411040783,-0.08351738005876541,-0.0015617830213159323
1780100478241105000,0.89310498046875,-0.011140692047774792,-0.0679173618555069,-0.00024937657872214913
1780100478251096800,0.903096923828125,-0.012171601876616478,-0.05446413904428482,0.0036287186667323112
1780100478261088800,0.9130888671875,-0.00880980584770441,-0.05979800224304199,0.004017450846731663
1780100478271080700,0.923080810546875,-0.006814565509557724,-0.07020696997642517,0.006570091471076012
1780100478281073000,0.933072998046875,-0.002770998515188694,-0.07450565695762634,0.011686467565596104
1780100478291064800,0.94306494140625,-0.0005563143640756607,-0.06149904429912567,0.019411232322454453
1780100478301056800,0.953056884765625,0.00022976193577051163,-0.03149472549557686,0.02640930935740471
1780100478311048700,0.963048583984375,0.0023895855993032455,0.006087536457926035,0.033654969185590744
1780100478321041000,0.973041015625,0.0017049768939614296,0.035854924470186234,0.04022117331624031
1780100478331032800,0.98303271484375,0.00276065431535244,0.048570986837148666,0.048673246055841446
1780100478341024800,0.993024658203125,0.0007077120244503021,0.0464014858007431,0.052606113255023956
1780100478351016700,1.0030166015625,-0.006500932853668928,0.034913141280412674,0.05146761238574982
1780100478361009000,1.0130087890625,-0.018724575638771057,0.02684880420565605,0.04391542077064514
1780100478371000800,1.023000732421875,-0.030261658132076263,0.02094297856092453,0.031229451298713684
1780100478380992800,1.03299267578125,-0.0376785583794117,0.0030891557689756155,0.02169506996870041
1780100478390984700,1.042984619140625,-0.03223292529582977,-0.0350387878715992,0.017834817990660667
1780100478400977000,1.052976806640625,-0.02135169692337513,-0.08775666356086731,0.02106807380914688
1780100478410968800,1.06296875,-0.010396250523626804,-0.14057114720344543,0.025530999526381493
1780100478420961000,1.0729609375,-0.0015170052647590637,-0.16718676686286926,0.0265941321849823
1780100478430952700,1.08295263671875,0.001337902620434761,-0.1487869918346405,0.02833397500216961
1780100478440945000,1.09294482421875,0.00462113693356514,-0.09696010500192642,0.025213195011019707
1780100478450936800,1.102936767578125,0.0007049590349197388,-0.02827717922627926,0.023399582132697105
1780100478460929000,1.112928955078125,-0.000746995210647583,0.04354533553123474,0.020706593990325928
1780100478470920700,1.122920654296875,-0.0039001782424747944,0.10515622794628143,0.02426271326839924
1780100478480913000,1.132912841796875,-0.009128851816058159,0.13666899502277374,0.028548095375299454
1780100478490904800,1.14290478515625,-0.014431471936404705,0.12589970231056213,0.03389465808868408
1780100478500896800,1.152896728515625,-0.014608128927648067,0.08916546404361725,0.03281855955719948
1780100478510888700,1.162888671875,-0.010645877569913864,0.04100167006254196,0.028780676424503326
1780100478520880600,1.172880615234375,-0.0055456566624343395,0.003977590706199408,0.018175968900322914
1780100478530872800,1.182872802734375,-0.002578629180788994,-0.020209770649671555,0.005429281387478113
1780100478540864800,1.19286474609375,-0.000856718048453331,-0.03064100816845894,-0.006730356719344854
1780100478550856700,1.202856689453125,-0.0030871150083839893,-0.02993553690612316,-0.016626663506031036
1780100478560848600,1.2128486328125,-0.0070685409009456635,-0.0246875137090683,-0.019432302564382553
1780100478570840800,1.2228408203125,-0.008027012459933758,-0.01608363911509514,-0.011121110059320927
1780100478580832800,1.232832763671875,-0.01019473746418953,-0.004700833931565285,0.00258129695430398
1780100478590825000,1.242824951171875,-0.008324133232235909,0.012780687771737576,0.017588475719094276
1780100478600816600,1.252816650390625,-0.006655041128396988,0.026272429153323174,0.029683932662010193
1780100478610808800,1.262808837890625,-0.004064051900058985,0.031137758865952492,0.03813840448856354
1780100478620800800,1.27280078125,-0.002657368779182434,0.03489227592945099,0.03868568316102028
1780100478630793000,1.28279296875,-0.003903196193277836,0.0418764166533947,0.03260941430926323
1780100478640785700,1.29278564453125,-0.005310321692377329,0.04700930789113045,0.024544475600123405
1780100478650777900,1.30277783203125,-0.0080680251121521,0.04736777022480965,0.01436773780733347
1780100478660769800,1.312769775390625,-0.01084357313811779,0.033395782113075256,0.006482384167611599
1780100478670761700,1.32276171875,-0.008699994534254074,0.00892345979809761,0.00022954796440899372
1780100478680753700,1.332753662109375,-0.005931993015110493,-0.01855737902224064,-0.004398138727992773
1780100478690745900,1.342745849609375,-0.0038182418793439865,-0.03955134376883507,-0.01170745026320219
1780100478700737800,1.35273779296875,-0.004592512734234333,-0.04552628844976425,-0.018215328454971313
1780100478710729700,1.362729736328125,-0.008177660405635834,-0.03631361573934555,-0.018992705270648003
1780100478720721700,1.3727216796875,-0.009013625793159008,-0.013450921513140202,-0.014499419368803501
1780100478730713900,1.3827138671875,-0.0073691243305802345,0.0074652801267802715,-0.005305388011038303
1780100478740705800,1.392705810546875,-0.00033527053892612457,0.026302965357899666,0.006992646027356386
1780100478750697700,1.40269775390625,0.006125026382505894,0.039836350828409195,0.015052703209221363
1780100478760689700,1.412689697265625,0.003739098086953163,0.05236973240971565,0.016602396965026855
1780100478770681900,1.422681884765625,0.0054557714611291885,0.059310998767614365,0.011265422217547894
1780100478780673800,1.432673828125,0.004780217073857784,0.05710500478744507,0.00468972185626626
1780100478790666000,1.442666015625,0.005562386475503445,0.05169985443353653,-0.0028872378170490265
1780100478800657700,1.45265771484375,0.005093047395348549,0.03740038350224495,-0.005713030230253935
1780100478810649900,1.46264990234375,0.005439259111881256,0.015072441659867764,-0.004555088002234697
1780100478820641800,1.472641845703125,0.004855139181017876,-0.005960861220955849,-0.004253794439136982
1780100478830634000,1.482634033203125,-0.0019843904301524162,-0.018285172060132027,-0.004165377467870712
1780100478840625700,1.492625732421875,-0.007842013612389565,-0.02132037654519081,-0.006159020122140646
1780100478850617900,1.502617919921875,-0.01238510012626648,-0.020008768886327744,-0.007134269457310438
1780100478860609800,1.51260986328125,-0.013033578172326088,-0.010915420018136501,-0.005989376455545425
1780100478870602000,1.52260205078125,-0.011354722082614899,0.0007881078054197133,-0.0017940988764166832
1780100478880593700,1.53259375,-0.004087401553988457,0.009578606113791466,0.0034269383177161217
1780100478890585900,1.5425859375,-0.0013597914949059486,0.020042432472109795,0.008159109391272068
1780100478900577800,1.552577880859375,0.005873179063200951,0.03112773597240448,0.011421127244830132
1780100478910570000,1.562570068359375,0.008673226460814476,0.10415640473365784,0.025171028450131416
1780100478920561700,1.572561767578125,0.012108082883059978,0.37345772981643677,0.07226299494504929
1780100478930553900,1.582553955078125,-0.001276431605219841,0.5618166923522949,0.09802082180976868
1780100478940545800,1.5925458984375,-0.006998499855399132,0.5016236901283264,0.0826605036854744
1780100478950538000,1.6025380859375,0.0038742944598197937,0.2444620430469513,0.03772241622209549
1780100478960530000,1.612530029296875,0.008846687152981758,-0.08555556833744049,-0.020488956943154335
1780100478970521600,1.622521484375,0.005342500284314156,-0.4090268611907959,-0.0764494240283966
1780100478980513800,1.632513671875,0.003438694402575493,-0.663935124874115,-0.11835435777902603
1780100478990505700,1.642505615234375,0.009825487621128559,-0.7854061722755432,-0.13277669250965118
1780100479000498000,1.652497802734375,0.007863892242312431,-0.7218906879425049,-0.11856163293123245
1780100479010489600,1.662489501953125,-0.00026141293346881866,-0.49839070439338684,-0.08512485027313232
1780100479020481800,1.672481689453125,-0.010826708748936653,-0.18202553689479828,-0.03947880491614342
1780100479030473700,1.6824736328125,-0.013134603388607502,0.15027624368667603,0.013071221299469471
1780100479040466000,1.6924658203125,-0.003410603851079941,0.42114341259002686,0.06493202596902847
1780100479050457600,1.70245751953125,0.011040865443646908,0.5724135637283325,0.10291926562786102
1780100479060449800,1.71244970703125,0.02139168232679367,0.5858628749847412,0.11728204786777496
1780100479070441700,1.722441650390625,0.025204531848430634,0.4817356765270233,0.1081404834985733
1780100479080434000,1.732433837890625,0.021285422146320343,0.282416969537735,0.07687976956367493
1780100479090425900,1.74242578125,0.017155125737190247,0.04359479621052742,0.029190802946686745
1780100479100417800,1.752417724609375,0.006635286845266819,-0.16297908127307892,-0.018368370831012726
1780100479110409700,1.76240966796875,-0.0090323556214571,-0.2993137240409851,-0.05556687340140343
1780100479120402000,1.77240185546875,-0.019439280033111572,-0.35537052154541016,-0.07534874230623245
1780100479130393300,1.782393310546875,-0.025050293654203415,-0.32977914810180664,-0.07511358708143234
1780100479140385300,1.79238525390625,-0.016749929636716843,-0.24091249704360962,-0.05803748592734337
1780100479150377200,1.802377197265625,-0.008073884062469006,-0.1111675500869751,-0.029670558869838715
1780100479160369400,1.812369384765625,0.0030952338129281998,0.02525627426803112,0.001330143422819674
1780100479170361300,1.822361328125,0.010209867730736732,0.1479332000017166,0.028829678893089294
1780100479180353300,1.832353271484375,0.020368847995996475,0.2333473414182663,0.054418571293354034
1780100479190345200,1.84234521484375,0.0328657329082489,0.2794003486633301,0.06582701951265335
1780100479200337400,1.85233740234375,0.04904017597436905,0.2935353219509125,0.07382529228925705
1780100479210329300,1.862329345703125,0.067218117415905,0.276310533285141,0.07307668030261993
1780100479220321500,1.872321533203125,0.08138790726661682,0.22073891758918762,0.06574295461177826
1780100479230313200,1.882313232421875,0.08478078246116638,0.14244703948497772,0.055663157254457474
1780100479240305400,1.892305419921875,0.06804076582193375,0.07206575572490692,0.04338003695011139
1780100479250297300,1.90229736328125,0.03774251788854599,-0.008351053111255169,0.029462357982993126
1780100479260289300,1.912289306640625,0.007819595746695995,-0.09900011867284775,0.016052717342972755
1780100479270281200,1.92228125,-0.013088615611195564,-0.1901145875453949,0.008099453523755074
1780100479280273200,1.932273193359375,-0.02430824749171734,-0.26976627111434937,-0.00268528307788074
1780100479290265300,1.942265380859375,-0.02145955339074135,-0.32124587893486023,-0.015055576339364052
1780100479300257300,1.95225732421875,-0.01682645082473755,-0.32765504717826843,-0.02232201024889946
1780100479310249200,1.962249267578125,-0.0157015323638916,-0.27664539217948914,-0.027354318648576736
1780100479320241200,1.9722412109375,-0.023890487849712372,-0.16925926506519318,-0.018445778638124466
1780100479330233300,1.9822333984375,-0.02382177859544754,-0.024817653000354767,0.0063186888583004475
1780100479340225300,1.992225341796875,-0.015129756182432175,0.09795223921537399,0.02689693123102188
1780100479350217200,2.00221728515625,-0.00878504104912281,0.19107818603515625,0.04475688934326172
1780100479360209200,2.012209228515625,-0.006921712309122086,0.23970143496990204,0.05775853246450424
1780100479370201300,2.022201416015625,-0.004151758272200823,0.2544953227043152,0.0647812932729721
1780100479380193300,2.032193359375,0.0003410829231142998,0.2295190393924713,0.053234267979860306
1780100479390185500,2.042185546875,-0.0043993438594043255,0.17191380262374878,0.02809295989573002
1780100479400177200,2.05217724609375,-0.007910632528364658,0.09078634530305862,0.0008221016614697874
1780100479410169300,2.06216943359375,-0.0067886426113545895,0.005353203509002924,-0.02278202772140503
1780100479420161300,2.072161376953125,-0.002808726392686367,-0.06819619238376617,-0.040658850222826004
1780100479430153500,2.082153564453125,0.0006251540035009384,-0.11918880045413971,-0.04990987107157707
1780100479440145200,2.092145263671875,0.0027535520493984222,-0.14561963081359863,-0.04954395443201065
1780100479450137300,2.102137451171875,0.0029650069773197174,-0.1462039351463318,-0.039585329592227936
1780100479460129300,2.11212939453125,0.005915076471865177,-0.11893347650766373,-0.024156663566827774
1780100479470121500,2.12212158203125,0.0068045733496546745,-0.07708882540464401,-0.002178127644583583
1780100479480113200,2.132113037109375,0.009545499458909035,-0.027793455868959427,0.018919434398412704
1780100479490105300,2.142105224609375,0.01204008236527443,0.019590305164456367,0.034570034593343735
1780100479500098300,2.152098388671875,0.01047654077410698,0.059219472110271454,0.04186922311782837
1780100479510090200,2.16209033203125,0.004631700925529003,0.07762084901332855,0.04192621633410454
1780100479520082200,2.172082275390625,0.017029425129294395,0.04413648694753647,0.03817737102508545
1780100479530074400,2.182074462890625,0.04858388751745224,-0.08330801874399185,0.023462876677513123
1780100479540066300,2.19206640625,0.05264689400792122,-0.1605837196111679,-0.013518134132027626
1780100479550058200,2.202058349609375,0.02069801837205887,-0.14450089633464813,-0.052085764706134796
1780100479560050200,2.21205029296875,-0.026566699147224426,-0.10462301969528198,-0.06674593687057495
1780100479570042400,2.22204248046875,-0.05794592574238777,-0.07524249702692032,-0.04993632808327675
1780100479580034300,2.232034423828125,-0.05515768751502037,-0.05810093879699707,-0.01950829289853573
1780100479590026500,2.242026611328125,-0.032439056783914566,-0.04715507850050926,0.0012675594771280885
1780100479600018200,2.25201806640625,-0.011577894911170006,-0.028869377449154854,0.002400113269686699
1780100479610010400,2.26201025390625,-0.0016709351912140846,0.018539417535066605,-0.012144207954406738
1780100479620002300,2.272002197265625,0.008645351976156235,0.08699489384889603,-0.022051965817809105
1780100479629994500,2.281994384765625,0.014021210372447968,0.1282014548778534,-0.018735265359282494
1780100479639986200,2.291986083984375,0.013505176641047001,0.13090208172798157,-0.005661097355186939
1780100479649978400,2.301978271484375,0.014742215164005756,0.10180570185184479,0.010694972239434719
1780100479659970300,2.31197021484375,0.01341098640114069,0.052451420575380325,0.012534594163298607
1780100479669962500,2.32196240234375,0.013258920051157475,-0.004016117658466101,-0.00013406344805844128
1780100479679954200,2.3319541015625,0.021016443148255348,-0.0997580960392952,-0.012964639812707901
1780100479689946400,2.3419462890625,0.04449806362390518,-0.4745359718799591,-0.013522039167582989
1780100479699938300,2.351938232421875,0.01894858479499817,-0.8693270683288574,-0.06216716393828392
1780100479709930500,2.361930419921875,0.01242357399314642,-0.9074925780296326,-0.14253711700439453
1780100479719922400,2.37192236328125,0.04129677265882492,-0.6555966138839722,-0.19174113869667053
1780100479729914000,2.3819140625,0.08734176307916641,-0.4510344862937927,-0.17364975810050964
1780100479739906300,2.39190625,0.11288005113601685,-0.36943164467811584,-0.12754422426223755
1780100479749898200,2.401898193359375,0.1095801293849945,-0.3573313057422638,-0.08765965700149536
1780100479759890400,2.411890380859375,0.09736989438533783,-0.3841547667980194,-0.07396923005580902
1780100479769882000,2.421882080078125,0.10276039689779282,-0.36678749322891235,-0.07901192456483841
1780100479779874300,2.431874267578125,0.11184213310480118,-0.3089842200279236,-0.07928098738193512
1780100479789866200,2.4418662109375,0.11027006804943085,-0.2737588584423065,-0.06572975963354111
1780100479799858400,2.4518583984375,0.11184417456388474,-0.22988182306289673,-0.045768748968839645
1780100479809850000,2.46185009765625,0.11322901397943497,-0.18826912343502045,-0.0309985913336277
1780100479819842300,2.47184228515625,0.07657699286937714,-0.1480434238910675,-0.030853448435664177
1780100479829834200,2.481834228515625,-0.01534147560596466,-0.16009530425071716,-0.04084376245737076
1780100479839826400,2.491826416015625,-0.10268765687942505,-0.17370715737342834,-0.05398131534457207
1780100479849818000,2.501818115234375,-0.12748408317565918,-0.14641214907169342,-0.054148562252521515
1780100479859810300,2.511810302734375,-0.12440164387226105,-0.09613816440105438,-0.03284922242164612
1780100479869802200,2.52180224609375,-0.08722631633281708,-0.15221847593784332,-0.025184908881783485
1780100479879794400,2.53179443359375,-0.10029986500740051,-0.07297389209270477,-0.03504517301917076
1780100479889786400,2.541786376953125,-0.1465485841035843,0.0714235007762909,-0.015082918107509613
1780100479899778300,2.5517783203125,-0.170687735080719,0.13256540894508362,0.03141214698553085
1780100479909770200,2.561770263671875,-0.16892099380493164,0.2327657788991928,0.06257884949445724
1780100479919762400,2.571762451171875,-0.14352625608444214,0.4495106637477875,0.07867961376905441
1780100479929754400,2.58175439453125,-0.1161673292517662,0.6560564041137695,0.1036057397723198
1780100479939746300,2.591746337890625,-0.030177854001522064,0.4820289611816406,0.09758113324642181
1780100479949738200,2.60173828125,-0.040124762803316116,0.27225229144096375,0.06843549758195877
1780100479959730400,2.61173046875,-0.10246909409761429,0.07946125417947769,0.058415621519088745
1780100479969722400,2.621722412109375,-0.12182974815368652,-0.025629213079810143,0.0392584390938282
1780100479979714300,2.63171435546875,-0.0717988908290863,0.054343488067388535,0.017305560410022736
1780100479989706200,2.641706298828125,0.00948930811136961,0.22935286164283752,0.0028672318439930677
1780100479999698400,2.651698486328125,0.07501629739999771,0.40346187353134155,0.007340632379055023
1780100480009690400,2.6616904296875,0.11697866767644882,0.508487343788147,0.029424894601106644
1780100480019682300,2.671682373046875,0.1441669762134552,0.5482602119445801,0.04928719624876976
1780100480029674200,2.68167431640625,0.1454404890537262,0.5852044224739075,0.05384572967886925
1780100480039666400,2.69166650390625,0.13511833548545837,0.7327172160148621,0.04995511472225189
1780100480049658400,2.701658447265625,0.11631694436073303,0.8254729509353638,0.054558124393224716
1780100480059650300,2.711650390625,0.05866723507642746,0.7133933305740356,0.06185251846909523
1780100480069642200,2.721642333984375,-0.03341288864612579,0.47141051292419434,0.038661979138851166
1780100480079634200,2.73163427734375,-0.06872622668743134,0.09227202832698822,-0.040660448372364044
1780100480089626400,2.74162646484375,-0.060887742787599564,-0.245130255818367,-0.15763820707798004
1780100480099618300,2.751618408203125,-0.014247980900108814,-0.32983455061912537,-0.20786044001579285
1780100480109610200,2.7616103515625,0.03852122277021408,-0.334757924079895,-0.1729421317577362
1780100480119602200,2.771602294921875,0.042875491082668304,-0.24478434026241302,-0.09516079723834991
1780100480129595100,2.78159521484375,0.010521545074880123,-0.04649228975176811,-0.008351603522896767
1780100480139587000,2.791587158203125,-0.014654288999736309,0.12717604637145996,0.04117218777537346
1780100480149579000,2.8015791015625,-0.06234937161207199,0.2515483498573303,0.05755941569805145
1780100480159571200,2.8115712890625,-0.12773343920707703,0.2656274139881134,0.05815143883228302
1780100480169563100,2.821563232421875,-0.2170305699110031,0.19785690307617188,0.05548721179366112
1780100480179554800,2.831554931640625,-0.28903722763061523,0.08451417088508606,0.05227233096957207
1780100480189547000,2.841547119140625,-0.28164002299308777,0.01002582348883152,0.04820755124092102
1780100480199539000,2.8515390625,-0.21589428186416626,-0.008870098739862442,0.03930353373289108
1780100480209531100,2.86153125,-0.11840420961380005,-0.11074399948120117,0.017591049894690514
1780100480219523000,2.871523193359375,-0.016791565343737602,-0.2308482974767685,-0.01624680683016777
1780100480229515000,2.881514892578125,0.062075287103652954,-0.36098501086235046,-0.05365383252501488
1780100480239507000,2.8915068359375,0.11293420195579529,-0.4657987356185913,-0.08963979780673981
1780100480249499100,2.9014990234375,0.1442902684211731,-0.5556687116622925,-0.10011853277683258
1780100480259491000,2.911490966796875,0.22928833961486816,-0.8217476606369019,-0.15241459012031555
1780100480269483000,2.92148291015625,0.2886057198047638,-0.8144247531890869,-0.1695062220096588
1780100480279475000,2.931474853515625,0.30116865038871765,-0.6571371555328369,-0.10751129686832428
1780100480289467100,2.941467041015625,0.2825363576412201,-0.4363536238670349,-0.004958023317158222
1780100480299459000,2.951458984375,0.2344854176044464,-0.20435839891433716,0.091489776968956
1780100480309451000,2.961450927734375,0.1390819251537323,-0.12105152010917664,0.13679413497447968
1780100480319443000,2.97144287109375,0.018955957144498825,-0.15644454956054688,0.1248459592461586
1780100480329435100,2.98143505859375,-0.08908076584339142,-0.24496136605739594,0.06942104548215866
1780100480339427000,2.991427001953125,-0.12949466705322266,-0.09651527553796768,0.0021178184542804956
1780100480349419000,3.0014189453125,-0.11703135073184967,0.10744983702898026,-0.0037411360535770655
1780100480359411000,3.011410888671875,-0.12053854763507843,0.34819597005844116,0.04155905917286873
1780100480369403100,3.021403076171875,-0.11482846736907959,0.8632574081420898,0.09399136900901794
1780100480379395000,3.03139501953125,-0.07922805100679398,1.3204176425933838,0.15758970379829407
1780100480389387000,3.041386962890625,-0.01773885264992714,1.4567790031433105,0.22831979393959045
1780100480399379000,3.05137890625,0.043492723256349564,1.2707817554473877,0.2641846835613251
1780100480409371100,3.06137109375,0.06752615422010422,0.8867254853248596,0.2262444794178009
1780100480419363000,3.071363037109375,0.04867097735404968,0.417514830827713,0.11349556595087051
1780100480429356000,3.08135595703125,0.004676354117691517,-0.04316222667694092,-0.028204578906297684
1780100480439348000,3.091347900390625,-0.044719867408275604,-0.4154583811759949,-0.14256826043128967
1780100480449340200,3.101340087890625,-0.06872346997261047,-0.655433177947998,-0.191372811794281
1780100480459332000,3.11133203125,-0.05748804286122322,-0.7360151410102844,-0.1701941192150116
1780100480469324000,3.121323974609375,-0.023155633360147476,-0.6543727517127991,-0.10612139105796814
1780100480479316000,3.13131591796875,0.00887296348810196,-0.4446779489517212,-0.034169524908065796
1780100480489308200,3.14130810546875,0.018121588975191116,-0.156788632273674,0.02225087210536003
1780100480499300000,3.151300048828125,0.0160065945237875,0.1295412927865982,0.04989412799477577
1780100480509292000,3.1612919921875,0.007872235029935837,0.3417488932609558,0.05378101021051407
1780100480519284000,3.171283935546875,0.0007225368171930313,0.43806013464927673,0.04007735848426819
1780100480529276200,3.181276123046875,0.0006218692287802696,0.4140956699848175,0.024042466655373573
1780100480539268000,3.19126806640625,0.009153305552899837,0.2985198199748993,0.006980661768466234
1780100480549260000,3.201260009765625,0.018755067139863968,0.13651256263256073,-0.00753409881144762
1780100480559252000,3.211251953125,0.01957203447818756,-0.02442481927573681,-0.020663129165768623
1780100480569244200,3.221244140625,0.016889698803424835,-0.15102750062942505,-0.026878947392106056
1780100480579236000,3.231236083984375,0.005648230202496052,-0.2262740582227707,-0.030358098447322845
1780100480589228000,3.24122802734375,-0.005730658303946257,-0.2455127239227295,-0.028604939579963684
1780100480599220000,3.251219970703125,-0.012457181699573994,-0.21855446696281433,-0.02483479119837284
1780100480609212200,3.261212158203125,-0.01035834476351738,-0.15767966210842133,-0.02260359562933445
1780100480619204000,3.2712041015625,-0.004793137311935425,-0.07483481615781784,-0.018920710310339928
1780100480629196300,3.2811962890625,-0.0002844054251909256,0.009074727073311806,-0.012929930351674557
1780100480639188000,3.29118798828125,0.0033495640382170677,0.08298136293888092,-0.0022374275140464306
1780100480649180200,3.30118017578125,0.00601086113601923,0.12919838726520538,0.011601954698562622
1780100480659172000,3.311172119140625,0.006930186413228512,0.14506655931472778,0.025882091373205185
1780100480669164000,3.3211640625,0.008176811970770359,0.1323547512292862,0.033638548105955124
1780100480679156000,3.331156005859375,0.006802266463637352,0.09326843172311783,0.034891385585069656
1780100480689148000,3.34114794921875,0.0037063416093587875,0.0460849404335022,0.02830752171576023
1780100480699140000,3.35114013671875,0.001403062604367733,-0.0038749880623072386,0.011821666732430458
1780100480709132000,3.361132080078125,-0.0016561103984713554,-0.04329456388950348,-0.0044611659832298756
1780100480719124000,3.3711240234375,-0.005149112083017826,-0.06892936676740646,-0.02090911567211151
1780100480729116000,3.381115966796875,-0.007922261953353882,-0.07312224805355072,-0.03273861110210419
1780100480739108000,3.391108154296875,-0.007638812996447086,-0.06015380471944809,-0.03621971607208252
1780100480749100000,3.40110009765625,-0.0073242937214672565,-0.035761378705501556,-0.0323040708899498
1780100480759092000,3.411092041015625,-0.005406640004366636,-0.007281703408807516,-0.023233788087964058
1780100480769084000,3.421083984375,-0.00014849472790956497,0.021309195086359978,-0.012050109915435314
1780100480779076000,3.431076171875,0.004216337576508522,0.043491534888744354,-0.0027505289763212204
1780100480789068000,3.441068115234375,0.00598361250013113,0.05666086822748184,0.0035443848464637995
1780100480799060200,3.451060302734375,0.008845710195600986,0.05649469420313835,0.004300722852349281
1780100480809052000,3.461052001953125,0.007860873825848103,0.04575043544173241,0.005271977744996548
1780100480819044000,3.471044189453125,0.007002714090049267,0.02993961051106453,0.003727699164301157
1780100480829036000,3.4810361328125,0.004997885785996914,0.0053618298843503,0.0006096702418290079
1780100480839028200,3.4910283203125,0.003952237777411938,-0.015195272862911224,-0.003842514706775546
1780100480849020000,3.50102001953125,-0.00006114598363637924,-0.03272712975740433,-0.007432456128299236
1780100480859012000,3.51101220703125,-0.0019666366279125214,-0.04327671602368355,-0.012424018234014511
1780100480869004000,3.521004150390625,-0.004012210760265589,-0.03770804405212402,-0.015434455126523972
1780100480878996200,3.530996337890625,-0.006449089385569096,-0.02331867255270481,-0.01599416509270668
1780100480888988000,3.54098779296875,-0.005094605498015881,0.003972602542489767,-0.016810156404972076
1780100480898980000,3.55097998046875,-0.003076463006436825,0.03123408369719982,-0.014831160195171833
1780100480908972000,3.560971923828125,-0.0015121223405003548,0.05076117813587189,-0.009358097799122334
1780100480918964200,3.570964111328125,-0.0017571328207850456,0.060242824256420135,-0.002445064252242446
1780100480928956000,3.580955810546875,-0.0021590031683444977,0.04927166551351547,0.00197604950517416
1780100480938948000,3.590947998046875,-0.0011113183572888374,0.024553023278713226,0.005867193453013897
1780100480948940000,3.60093994140625,-0.0013105235993862152,-0.0035819411277770996,0.004674629773944616
1780100480958932200,3.61093212890625,-0.0022981110960245132,-0.024848531931638718,0.0005787773989140987
1780100480968924200,3.620924072265625,-0.00044188741594552994,-0.038142234086990356,-0.006036514416337013
1780100480978916000,3.630916015625,-0.0008603576570749283,-0.03919782489538193,-0.01130043063312769
1780100480988908000,3.640907958984375,0.0036885878071188927,-0.030768120661377907,-0.013389147818088531
1780100480998900200,3.650900146484375,0.004150020889937878,-0.01775687001645565,-0.011706741526722908
1780100481008892200,3.66089208984375,0.0036916909739375114,0.0008716764859855175,-0.005587862804532051
1780100481018883800,3.6708837890625,0.0012087393552064896,0.018326640129089355,0.000045878434320911765
1780100481028876000,3.6808759765625,-0.0007878318428993225,0.03140382468700409,0.0031159704085439444
1780100481038868000,3.690867919921875,-0.0021612225100398064,0.038174085319042206,0.002615563105791807
1780100481048860200,3.700860107421875,-0.003376422915607691,0.03507602959871292,0.0015119491145014763
1780100481058851800,3.710851806640625,-0.0023480039089918137,0.02109057456254959,-0.0010086469119414687
1780100481068844000,3.720843994140625,-0.001611640676856041,0.007287145592272282,-0.004807646386325359
1780100481078836000,3.7308359375,-0.0014530885964632034,-0.006951295305043459,-0.006463685538619757
1780100481088828200,3.740828125,-0.0034118439070880413,-0.01746412366628647,-0.00817796215415001
1780100481098820000,3.750820068359375,-0.004396327771246433,-0.017077242955565453,-0.009853179566562176
1780100481108812000,3.76081201171875,-0.002962482161819935,-0.012040939182043076,-0.010744007304310799
1780100481118804000,3.770803955078125,-0.0006727837026119232,-0.004023145418614149,-0.008700474165380001
1780100481128795000,3.780794921875,0.0018130112439393997,0.0034883003681898117,-0.00458615692332387
1780100481138786800,3.790786865234375,0.0055044181644916534,0.008524870499968529,-0.0010220487602055073
1780100481148779000,3.800779052734375,0.006682600826025009,0.008879071101546288,0.004471519961953163
1780100481158770700,3.810770751953125,0.007363834418356419,0.005629765801131725,0.006708573084324598
1780100481168763000,3.820762939453125,0.006239182315766811,0.003841985482722521,0.006893662735819817
1780100481178754800,3.8307548828125,0.006021694280207157,0.001980048371478915,0.006740977521985769
1780100481188746800,3.840746826171875,0.0044794585555791855,0.001741429092362523,0.005183294415473938
1780100481198738700,3.85073876953125,0.00429924950003624,0.004346461500972509,0.0027322981040924788
1780100481208730600,3.860730712890625,0.002869664691388607,0.005272442474961281,0.002533093560487032
1780100481218722800,3.870722900390625,0.0026796935126185417,0.005754546727985144,0.002339304657652974
1780100481228714800,3.88071484375,0.0004636775702238083,0.0047212401404976845,0.0028825895860791206
1780100481238707000,3.89070703125,-0.0018184734508395195,0.002180403796955943,0.003950606100261211
1780100481248698600,3.90069873046875,-0.003108508884906769,0.0006168619729578495,0.0011737277964130044
1780100481258690800,3.91069091796875,-0.00529638584703207,-0.0012264787219464779,-0.0019202439580112696
1780100481268682800,3.920682861328125,-0.005340061616152525,-0.0023849536664783955,-0.005337612237781286
1780100481278675000,3.930675048828125,-0.006156943738460541,-0.004024554044008255,-0.009250774048268795
1780100481288666600,3.94066650390625,-0.0059353685937821865,-0.004962252918630838,-0.011622851714491844
1780100481298658800,3.950658935546875,-0.0038006692193448544,-0.007004270330071449,-0.012031291611492634
1780100481308650800,3.960650634765625,-0.005872874986380339,-0.006781630218029022,-0.011362305842339993
1780100481318643000,3.970642822265625,-0.0038054599426686764,-0.006035971455276012,-0.010058687068521976
1780100481328634600,3.980634521484375,-0.0026973187923431396,-0.0049805608578026295,-0.007705783471465111
1780100481338626800,3.990626708984375,-0.0014816736802458763,-0.0058699664659798145,-0.005388212390244007
1780100481348618800,4.00061865234375,-0.0006723394617438316,-0.010319576598703861,-0.0042169541120529175
1780100481358611000,4.01061083984375,-0.0014000926166772842,-0.01418363768607378,-0.0006928819930180907
1780100481368603000,4.020602783203125,0.00021884310990571976,-0.016880087554454803,-0.002425801008939743
1780100481378594800,4.0305947265625,0.001712963916361332,-0.020282357931137085,-0.005650445353239775
1780100481388586800,4.040586669921875,0.003010721877217293,-0.02301342971622944,-0.0075844330713152885
1780100481398579000,4.050578857421875,0.002586565911769867,-0.02024780586361885,-0.0091414088383317
1780100481408571000,4.06057080078125,0.00401854794472456,-0.016776641830801964,-0.0086324792355299
1780100481418562800,4.070562744140625,0.003387914039194584,-0.014291658066213131,-0.008129671216011047
1780100481428554800,4.0805546875,0.003371668979525566,-0.01004844345152378,-0.004815900698304176
1780100481438547000,4.090546875,0.0038652438670396805,-0.004048183560371399,-0.0026843936648219824
1780100481448539600,4.10053955078125,0.0031134337186813354,0.0008456411305814981,0.0001342960022157058
1780100481458531800,4.11053173828125,-0.00028937868773937225,0.00748154753819108,0.0011402590898796916
1780100481468523800,4.120523681640625,-0.000649171881377697,0.010832603089511395,0.0026579946279525757
1780100481478516000,4.130515869140625,-0.0007277373224496841,0.011898941360414028,0.004445507191121578
1780100481488507600,4.140507568359375,-0.0032340381294488907,0.010987874120473862,0.004632993601262569
1780100481498499800,4.150499755859375,-0.004831929691135883,0.01032283902168274,0.006849811412394047
1780100481508491800,4.16049169921875,-0.004835658241063356,0.008267144672572613,0.005487604532390833
1780100481518484000,4.17048388671875,-0.005338996648788452,0.00772813381627202,0.004331793170422316
1780100481528475600,4.1804755859375,-0.005143520422279835,0.010681578889489174,0.002617782447487116
1780100481538467800,4.1904677734375,-0.00389502989128232,0.010195024311542511,-0.00002407345164101571
1780100481548459800,4.200459716796875,-0.002322167158126831,0.01262595783919096,0.0035434970632195473
1780100481558452000,4.210451904296875,-0.0022032149136066437,0.015104670077562332,0.0027265262324362993
1780100481568443600,4.220443603515625,-0.0030498337000608444,0.014856463298201561,0.004564373753964901
1780100481578435800,4.230435791015625,-0.0013145152479410172,0.012960265390574932,0.006334312725812197
1780100481588427800,4.240427734375,-0.0022604698315262794,0.00834287703037262,0.008183877915143967
1780100481598420000,4.250419921875,-0.002994617447257042,-0.002710907021537423,0.010163848288357258
1780100481608412000,4.260411865234375,-0.00001720339059829712,-0.013751307502388954,0.011945502832531929
1780100481618403800,4.27040380859375,0.0022542960941791534,-0.02491004392504692,0.007057448383420706
1780100481628395800,4.280395751953125,0.002316613681614399,-0.02671859599649906,-0.000006319874955806881
1780100481638388000,4.290387939453125,0.000058521516621112823,-0.02260669693350792,-0.008884498849511147
1780100481648380000,4.3003798828125,-0.00042590778321027756,-0.012340211309492588,-0.011662175878882408
1780100481658371800,4.310371826171875,-0.002377915196120739,0.00009213804150931537,-0.014067897573113441
1780100481668363800,4.32036376953125,-0.0006282180547714233,0.010326665826141834,-0.013871356844902039
1780100481678355700,4.330355712890625,-0.0016949055716395378,0.02107902057468891,-0.01660021021962166
1780100481688348000,4.340347900390625,-0.0017345873638987541,0.026339562609791756,-0.015536011196672916
1780100481698339600,4.350339599609375,0.0007651429623365402,0.025915510952472687,-0.007442221976816654
1780100481708331800,4.360331787109375,0.0020911311730742455,0.021588671952486038,0.0013094577006995678
1780100481718323700,4.37032373046875,0.002273821271955967,0.01716117560863495,0.006198220886290073
1780100481728316000,4.38031591796875,0.0022658314555883408,0.015576062723994255,0.005730569828301668
1780100481738307800,4.390307861328125,0.0023329462856054306,0.012377863749861717,0.0019411594839766622
1780100481748299800,4.4002998046875,-0.0014775041490793228,0.004296501632779837,-0.003400342771783471
1780100481758291700,4.410291748046875,-0.002279733307659626,-0.002368275308981538,-0.010773212648928165
1780100481768284000,4.420283935546875,-0.0037617823109030724,-0.010457361117005348,-0.016517916694283485
1780100481778275800,4.43027587890625,-0.0031699403189122677,-0.02214871346950531,-0.022696273401379585
1780100481788267800,4.440267822265625,-0.0005571134388446808,-0.032239966094493866,-0.025684339925646782
1780100481798259700,4.450259765625,0.0004198215901851654,-0.0408918522298336,-0.024248985573649406
1780100481808252000,4.460251953125,0.0016131848096847534,-0.041992805898189545,-0.02149554342031479
1780100481818243800,4.470243896484375,0.0040673753246665,-0.03691716864705086,-0.01943967305123806
1780100481828235800,4.48023583984375,0.005053277127444744,-0.0286864060908556,-0.015426288358867168
1780100481838227700,4.490227783203125,0.006307627074420452,-0.017584219574928284,-0.009794235229492188
1780100481848220000,4.500219970703125,0.005267396569252014,-0.005216237157583237,-0.006958501413464546
1780100481858211800,4.5102119140625,0.002919822931289673,0.004302943125367165,-0.006268742028623819
1780100481868203800,4.520203857421875,0.00470733642578125,0.012799492105841637,-0.008159587159752846
1780100481878195700,4.53019580078125,0.0027589667588472366,0.02204732410609722,-0.011595064774155617
1780100481888188000,4.54018798828125,0.002635662443935871,0.024179182946681976,-0.011657915078103542
1780100481898179800,4.550179931640625,0.000665721483528614,0.02220446802675724,-0.009744434617459774
1780100481908171800,4.560171875,-0.0011838441714644432,0.009803724475204945,-0.0044932132586836815
1780100481918163700,4.570163818359375,0.00006899703294038773,-0.004809409845620394,0.00337474187836051
1780100481928156000,4.580156005859375,0.0022724969312548637,-0.016919070854783058,0.007739396765828133
1780100481938147800,4.59014794921875,0.00015972089022397995,-0.01911422237753868,0.009338979609310627
1780100481948140000,4.60014013671875,0.0009498801082372665,-0.010722070001065731,0.005950639955699444
1780100481958131700,4.610131591796875,0.00024849362671375275,-0.000049560185289010406,0.0008964035077951849
1780100481968124000,4.6201240234375,-0.000616767443716526,0.013648409396409988,-0.0003781854175031185
1780100481978115800,4.63011572265625,0.0009601796045899391,0.02149772271513939,-0.001092800055630505
1780100481988108000,4.64010791015625,0.0007436648011207581,0.02781660482287407,0.0007583631668239832
1780100481998099700,4.650099609375,-0.00031343381851911545,0.03084736503660679,0.0039585055783391
1780100482008091600,4.660091552734375,-0.004552120808511972,0.027526935562491417,0.004561445210129023
1780100482018083800,4.670083740234375,-0.006771687418222427,0.025800494477152824,0.006300578359514475
1780100482028075800,4.68007568359375,-0.004173507448285818,0.02060812897980213,0.003229953348636627
1780100482038067700,4.690067626953125,-0.0025094756856560707,0.01722637377679348,-0.0005558178527280688
1780100482048059600,4.7000595703125,0.0014889948070049286,0.012881694361567497,-0.007004396058619022
1780100482058051800,4.7100517578125,0.004651674069464207,0.00908387266099453,-0.011955390684306622
1780100482068043800,4.720043701171875,0.004404266364872456,0.0027383584529161453,-0.01462441124022007
1780100482078035700,4.73003564453125,0.006922997534275055,-0.0024089450016617775,-0.014968136325478554
1780100482088027600,4.740027587890625,0.004437735304236412,-0.00825618114322424,-0.01235397718846798
1780100482098019800,4.750019775390625,0.0036079837009310722,-0.009914079681038857,-0.007512438576668501
1780100482108011800,4.76001171875,0.001055610366165638,-0.0046807024627923965,-0.004503599368035793
1780100482118004000,4.77000390625,0.0012305788695812225,0.0031450053211301565,0.0005774461315013468
1780100482127996200,4.77999609375,0.0025531044229865074,0.013831204734742641,0.0028339424170553684
1780100482137988400,4.78998828125,0.002906505949795246,0.020280582830309868,0.004015054553747177
1780100482147980300,4.799980224609375,0.004550741985440254,0.020910685881972313,0.002823556074872613
1780100482157972200,4.80997216796875,0.001944572664797306,0.010864697396755219,-0.00014773316797800362
1780100482167964200,4.819964111328125,0.0022423136979341507,-0.0025203507393598557,-0.0065592932514846325
1780100482177956400,4.829956298828125,0.003377707675099373,-0.02068588137626648,-0.013009294867515564
1780100482187948300,4.8399482421875,0.002723102457821369,-0.03644167631864548,-0.01677526906132698
1780100482197940200,4.849940185546875,0.0032423315569758415,-0.04341505095362663,-0.018913164734840393
1780100482207932200,4.85993212890625,0.004900416359305382,-0.04163312911987305,-0.01619381085038185
1780100482217924400,4.86992431640625,0.00945220049470663,-0.029731929302215576,-0.012257572263479233
1780100482227916300,4.879916259765625,0.01047485414892435,-0.010484466329216957,-0.007407689932733774
1780100482237908500,4.889908447265625,0.009710350073873997,0.007822825573384762,-0.003363767173141241
1780100482247901200,4.899901123046875,0.009411276318132877,0.023046253249049187,-0.00008248639642260969
1780100482257893400,4.909893310546875,0.007156201638281345,0.02795599214732647,0.0018412935314700007
1780100482267885300,4.91988525390625,0.00694155041128397,0.020778506994247437,0.004203517455607653
1780100482277877200,4.929877197265625,0.005336284637451172,0.0029554874636232853,0.006167243700474501
1780100482287869200,4.939869140625,0.005249999463558197,-0.015310335904359818,0.0038060848601162434
1780100482297861400,4.949861328125,0.00516122579574585,-0.031097758561372757,0.0007177054067142308
1780100482307853300,4.959853271484375,0.004644840024411678,-0.034994494169950485,-0.0022738236002624035
1780100482317845200,4.96984521484375,0.004713994450867176,-0.024150807410478592,-0.0065782018937170506
1780100482327837200,4.979837158203125,0.0018391115590929985,-0.0037635096814483404,-0.007391531020402908
1780100482337829400,4.989829345703125,-0.0007983939722180367,0.020209629088640213,-0.009781008586287498
1780100482347821300,4.9998212890625,-0.0032258653081953526,0.04027601704001427,-0.00858365185558796
1780100482357813200,5.009813232421875,-0.003280194941908121,0.044182080775499344,-0.010647334158420563
1780100482367805200,5.01980517578125,0.0014375951141119003,0.03206629678606987,-0.012759220786392689
1780100482377797400,5.02979736328125,0.004840138368308544,0.006754441186785698,-0.017307192087173462
1780100482387789300,5.039789306640625,0.008311568759381771,-0.019931497052311897,-0.020994072780013084
1780100482397781200,5.04978125,0.01061919890344143,-0.04572073370218277,-0.021249467507004738
1780100482407773200,5.059773193359375,0.009929705411195755,-0.05987516790628433,-0.01591169461607933
1780100482417765400,5.069765380859375,0.009154992178082466,-0.05722106993198395,-0.006788237951695919
1780100482427757300,5.07975732421875,0.008980022743344307,-0.04109536111354828,0.007441830821335316
1780100482437749500,5.08974951171875,0.00569590087980032,-0.012651300057768822,0.0186627060174942
1780100482447741200,5.0997412109375,0.0018015606328845024,0.023688331246376038,0.02899204194545746
1780100482457733400,5.1097333984375,-0.0021879440173506737,0.05549456179141998,0.03084089793264866
1780100482467725300,5.119725341796875,-0.003979718778282404,0.07617880403995514,0.02423972077667713
1780100482477717500,5.129717529296875,-0.009950259700417519,0.07758204638957977,0.012695715762674809
1780100482487709200,5.139709228515625,-0.010545742698013783,0.058945249766111374,-0.002102936850860715
1780100482497701400,5.149701416015625,-0.012023352086544037,0.024800918996334076,-0.014718509279191494
1780100482507693300,5.159693359375,-0.01225185114890337,-0.018294619396328926,-0.027571458369493484
1780100482517685500,5.169685546875,-0.01310308650135994,-0.06181245297193527,-0.03623250126838684
1780100482527677200,5.17967724609375,-0.009931794367730618,-0.09416986256837845,-0.04139823466539383
1780100482537669400,5.18966943359375,-0.005324880592525005,-0.10887414962053299,-0.04450206086039543
1780100482547661300,5.199661376953125,-0.0013312045484781265,-0.10775934904813766,-0.042725998908281326
1780100482557653200,5.2096533203125,0.003261861391365528,-0.08831338584423065,-0.03831731155514717
1780100482567645200,5.219645263671875,0.009680346585810184,-0.05905802547931671,-0.03185515105724335
1780100482577637000,5.22963720703125,0.010255321860313416,-0.02290589176118374,-0.02508166991174221
1780100482587629300,5.23962939453125,0.012675069272518158,0.00909518450498581,-0.018147330731153488
1780100482597621200,5.249621337890625,0.010427983477711678,0.0328742191195488,-0.015173731371760368
1780100482607613400,5.259613525390625,0.01351219043135643,0.0436730720102787,-0.013486884534358978
1780100482617605000,5.269605224609375,0.010963455773890018,0.03806878998875618,-0.01695876196026802
1780100482627597300,5.279597412109375,0.00953227374702692,0.01856885477900505,-0.021790001541376114
1780100482637589200,5.28958935546875,0.0108110336586833,-0.010418771766126156,-0.025982793420553207
1780100482647581400,5.29958154296875,0.009877596981823444,-0.043611347675323486,-0.031097393482923508
1780100482657573000,5.309572998046875,0.013361722230911255,-0.07223860919475555,-0.03628993779420853
1780100482667565300,5.3195654296875,0.014144957065582275,-0.08719785511493683,-0.038867875933647156
1780100482677557200,5.32955712890625,0.016923874616622925,-0.08594638109207153,-0.03441178798675537
1780100482687549400,5.339549560546875,0.019614465534687042,-0.06773009896278381,-0.02369789220392704
1780100482697541000,5.349541015625,0.02164725586771965,-0.0357910692691803,-0.008294967003166676
1780100482707533300,5.359533203125,0.02182595431804657,0.010721039958298206,0.00828693900257349
1780100482717525200,5.369525146484375,0.02419475093483925,0.06521845608949661,0.022634807974100113
1780100482727517400,5.379517333984375,0.023623768240213394,0.11134999990463257,0.02972068078815937
1780100482737509400,5.38950927734375,0.02098262310028076,0.14248248934745789,0.029995610937476158
1780100482747501300,5.399501220703125,0.011473272927105427,0.15013347566127777,0.022437026724219322
1780100482757494300,5.409494384765625,0.0026659322902560234,0.12669628858566284,0.012093838304281235
1780100482767486200,5.419486328125,-0.006429827772080898,0.07938922196626663,0.002470239996910095
1780100482777478100,5.42947802734375,-0.014473194256424904,0.022281844168901443,-0.0038003474473953247
1780100482787470300,5.43947021484375,-0.01812039315700531,-0.02749689854681492,-0.00774209201335907
1780100482797462300,5.449462158203125,-0.019945282489061356,-0.05647282674908638,-0.009899432770907879
1780100482807454500,5.459454345703125,-0.02460528165102005,-0.054632581770420074,-0.006910035386681557
1780100482817446100,5.469446044921875,-0.02516232430934906,-0.023781530559062958,0.0013339599827304482
1780100482827438300,5.479438232421875,-0.024755392223596573,0.020761169493198395,0.01082120556384325
1780100482837430300,5.48943017578125,-0.020493624731898308,0.06577293574810028,0.01726774126291275
1780100482847422500,5.49942236328125,-0.014865299686789513,0.09809811413288116,0.024206606671214104
1780100482857414100,5.5094140625,-0.010091142728924751,0.11136259138584137,0.02234860323369503
1780100482867406300,5.51940625,-0.007182970643043518,0.1015901267528534,0.013087993487715721
1780100482877398300,5.529398193359375,-0.005003259051591158,0.06783440709114075,0.0014950812328606844
1780100482887390500,5.539390380859375,-0.0016000056639313698,0.01767137087881565,-0.012956296093761921
1780100482897382100,5.549382080078125,0.0011467775329947472,-0.04206039384007454,-0.027288362383842468
1780100482907374300,5.559374267578125,0.0024791574105620384,-0.09184366464614868,-0.03445040434598923
1780100482917366300,5.5693662109375,0.005074053071439266,-0.12104115635156631,-0.03546178340911865
1780100482927358500,5.5793583984375,0.008417119272053242,-0.12570782005786896,-0.02875833958387375
1780100482937350400,5.589350341796875,0.010009598918259144,-0.10674817115068436,-0.016632085666060448
1780100482947342300,5.59934228515625,0.010144353844225407,-0.07183625549077988,-0.0060675907880067825
1780100482957334300,5.609334228515625,0.011580241844058037,-0.03182936832308769,0.0041715526022017
1780100482967326500,5.619326416015625,0.010173561051487923,-0.0002727746032178402,0.008577486500144005
1780100482977318400,5.629318359375,0.008731105364859104,0.017592092975974083,0.009930732659995556
1780100482987310300,5.639310302734375,0.008817126043140888,0.01804962381720543,0.007187676150351763
1780100482997302300,5.64930224609375,0.005205164663493633,0.00912896916270256,0.0017123856814578176
1780100483007294500,5.65929443359375,0.0013827299699187279,-0.007781838066875935,-0.005458974279463291
1780100483017286400,5.669286376953125,-0.0017479006201028824,-0.023074379190802574,-0.010334858670830727
1780100483027278300,5.6792783203125,-0.004312524572014809,-0.0376029871404171,-0.014651843346655369
1780100483037270300,5.689270263671875,-0.0064879716373980045,-0.04330116882920265,-0.01845519244670868
1780100483047262200,5.69926220703125,-0.009016376920044422,-0.04547244310379028,-0.019826186820864677
1780100483057254400,5.70925439453125,-0.007924926467239857,-0.04537507891654968,-0.018696829676628113
1780100483067246000,5.71924609375,-0.0074572754092514515,-0.03913502395153046,-0.01578359864652157
1780100483077238300,5.72923828125,-0.0029026465490460396,-0.03016851283609867,-0.012513059191405773
1780100483087230200,5.739230224609375,0.0001386832445859909,-0.018111851066350937,-0.008557732217013836
1780100483097222400,5.749222412109375,0.00479362066835165,-0.0025227798614650965,-0.00795825570821762
1780100483107214300,5.75921435546875,0.00785811897367239,0.011552291922271252,-0.0038351500406861305
1780100483117206300,5.769206298828125,0.010855063796043396,0.025192376226186752,-0.0015390627086162567
1780100483127198700,5.77919873046875,0.009458236396312714,0.03239329531788826,-0.0013608972076326609
1780100483137190700,5.789190673828125,0.0091819753870368,0.03274117782711983,0.000297004880849272
1780100483147183600,5.79918359375,0.008655468933284283,0.0279456228017807,0.0022717388346791267
1780100483157175800,5.80917578125,0.005641837604343891,0.018711930140852928,0.005128249991685152
1780100483167167700,5.819167724609375,0.0021110186353325844,0.0032360348850488663,0.010112622752785683
1780100483177159700,5.82915966796875,0.0017684483900666237,-0.013348439708352089,0.016666484996676445
1780100483187151600,5.839151611328125,-0.001515229232609272,-0.026881825178861618,0.020518748089671135
1780100483197143800,5.849143798828125,-0.0018014321103692055,-0.031461481004953384,0.02219458669424057
1780100483207135700,5.8591357421875,-0.0002559991553425789,-0.02415217086672783,0.02015700191259384
1780100483217127700,5.869127685546875,-0.00038986653089523315,-0.002578791929408908,0.015566689893603325
1780100483227119600,5.87911962890625,-0.0012306272983551025,0.026565777137875557,0.006989712361246347
1780100483237111600,5.889111572265625,-0.00040247105062007904,0.05856109410524368,-0.0023054282646626234
1780100483247103700,5.899103759765625,-0.002971889451146126,0.08628326654434204,-0.009264800697565079
1780100483257095700,5.909095703125,-0.0022723693400621414,0.09943187981843948,-0.014820605516433716
1780100483267087600,5.919087646484375,-0.004345906898379326,0.09609946608543396,-0.01809815876185894
1780100483277079600,5.92907958984375,-0.0035639116540551186,0.07380608469247818,-0.021339042112231255
1780100483287071700,5.93907177734375,-0.004681640304625034,0.03548239544034004,-0.02497478947043419
1780100483297063700,5.949063720703125,-0.006853268947452307,-0.006730451714247465,-0.028526555746793747
1780100483307055600,5.9590556640625,-0.005464430432766676,-0.04396596923470497,-0.030449623242020607
1780100483317047600,5.969047607421875,-0.0045210518874228,-0.07211010903120041,-0.030655045062303543
1780100483327039700,5.979039794921875,-0.0007153945043683052,-0.08582884818315506,-0.02805553376674652
1780100483337031700,5.98903173828125,0.004043407738208771,-0.08274731040000916,-0.023295933380723
1780100483347023600,5.999023681640625,0.008328699506819248,-0.06419625878334045,-0.015500593930482864
1780100483357015600,6.009015625,0.009207810275256634,-0.036470890045166016,-0.004414919763803482
1780100483367007700,6.0190078125,0.012036352418363094,-0.006630701012909412,0.007786086294800043
1780100483376999700,6.028999755859375,0.009201952256262302,0.015197109431028366,0.015261048451066017
1780100483386991600,6.03899169921875,0.009785185568034649,0.02460738830268383,0.02160416729748249
1780100483396983600,6.048983642578125,0.005166728049516678,0.020845117047429085,0.023613516241312027
1780100483406975700,6.058975830078125,0.0037504592910408974,0.0034687905572354794,0.021848639473319054
1780100483416967700,6.0689677734375,0.0014840224757790565,-0.014992143027484417,0.018223369494080544
1780100483426960000,6.0789599609375,-0.000023593194782733917,-0.029209161177277565,0.01245789136737585
1780100483436951600,6.08895166015625,0.0013125138357281685,-0.033842533826828,0.006274563726037741
1780100483446943700,6.09894384765625,-0.0019527878612279892,-0.028119666501879692,0.0004603504203259945
1780100483456935700,6.108935791015625,-0.001949148252606392,-0.013655691407620907,-0.00881348829716444
1780100483466927900,6.118927978515625,-0.002780853770673275,0.009419533424079418,-0.015527050942182541
1780100483476919600,6.12891943359375,-0.0025737499818205833,0.030592549592256546,-0.01884499564766884
1780100483486912800,6.138912841796875,-0.002608903683722019,0.04072028398513794,-0.018819162622094154
1780100483496904700,6.14890478515625,-0.00387417059391737,0.03822943568229675,-0.015078485012054443
1780100483506896600,6.158896728515625,-0.0038203750737011433,0.021926360204815865,-0.008672251366078854
1780100483516888600,6.168888671875,-0.0011349329724907875,-0.0017882082611322403,-0.0029743316117674112
1780100483526880800,6.178880859375,0.005303526297211647,-0.02627703920006752,-0.00107896002009511
1780100483536872700,6.188872802734375,0.009410210885107517,-0.0431399866938591,-0.0018654773011803627
1780100483546864600,6.19886474609375,0.013771136291325092,-0.04740024358034134,-0.007814979180693626
1780100483556856600,6.208856689453125,0.014257962815463543,-0.04072822630405426,-0.012323177419602871
1780100483566848800,6.218848876953125,0.013965015299618244,-0.02194228768348694,-0.011758054606616497
1780100483576840700,6.2288408203125,0.010513732209801674,0.001652320148423314,-0.007708902005106211
1780100483586832600,6.23883251953125,0.005691280588507652,0.021643871441483498,-0.0004906702670268714
1780100483596824600,6.248824462890625,0.0033516045659780502,0.038526006042957306,0.007480792701244354
1780100483606816800,6.258816650390625,-0.0036615636199712753,0.049529388546943665,0.011953571811318398
1780100483616808700,6.26880859375,-0.00832236185669899,0.05426475405693054,0.012681147083640099
1780100483626801000,6.27880078125,-0.014903033152222633,0.05056722089648247,0.014105139300227165
1780100483636792600,6.28879248046875,-0.022050246596336365,0.04418424889445305,0.012511060573160648
1780100483646784800,6.29878466796875,-0.024332042783498764,0.03774019703269005,0.011683616787195206
1780100483656776700,6.308776611328125,-0.02755526453256607,0.03987951576709747,0.004444345831871033
1780100483666769000,6.318768798828125,-0.02706817537546158,0.0414329394698143,-0.0026673595421016216
1780100483676760600,6.328760498046875,-0.02734958380460739,0.04613519459962845,-0.009366363286972046
1780100483686752800,6.338752685546875,-0.026829466223716736,0.04709313437342644,-0.009191660210490227
1780100483696744700,6.34874462890625,-0.0223550908267498,0.04116173833608627,-0.0080060213804245
1780100483706736600,6.358736572265625,-0.014803696423768997,0.026783863082528114,-0.0016293488442897797
1780100483716728600,6.368728515625,-0.007574012968689203,0.008571844547986984,0.002785109682008624
1780100483726720500,6.378720458984375,-0.002605886198580265,-0.009566945023834705,0.002112395130097866
1780100483736712700,6.388712646484375,0.0015728799626231194,-0.025133388116955757,-0.0022211004979908466
1780100483746704600,6.39870458984375,0.0077247824519872665,-0.03943030163645744,-0.0076366388238966465
1780100483756696600,6.408696533203125,0.011624272912740707,-0.050300877541303635,-0.01550104096531868
1780100483766688500,6.4186884765625,0.015398504212498665,-0.05737236887216568,-0.018702693283557892
1780100483776680700,6.4286806640625,0.0185763631016016,-0.06093480810523033,-0.017175819724798203
1780100483786672600,6.438672607421875,0.019552677869796753,-0.05774487182497978,-0.0148466182872653
1780100483796665600,6.44866552734375,0.022783270105719566,-0.050456784665584564,-0.01134500652551651
1780100483806657800,6.45865771484375,0.021089764311909676,-0.039141543209552765,-0.00926987174898386
1780100483816649700,6.468649658203125,0.021318089216947556,-0.027145415544509888,-0.011063863523304462
1780100483826642000,6.478641845703125,0.020303156226873398,-0.01669756881892681,-0.013711844570934772
1780100483836633600,6.488633544921875,0.018347956240177155,-0.010649587959051132,-0.0198286734521389
1780100483846625500,6.49862548828125,0.019783666357398033,-0.0078032007440924644,-0.02564847841858864
1780100483856617700,6.50861767578125,0.016615387052297592,-0.004664797801524401,-0.029805241152644157
1780100483866609700,6.518609619140625,0.012387885712087154,-0.004478376358747482,-0.033639926463365555
1780100483876601600,6.5286015625,0.010488079860806465,-0.0036475276574492455,-0.03346050903201103
1780100483886593500,6.538593505859375,0.005141783505678177,-0.0001116489147534594,-0.03030972369015217
1780100483896585700,6.548585693359375,0.0027076546102762222,0.0028963913209736347,-0.02574506588280201
1780100483906577700,6.55857763671875,0.0002351757138967514,0.004827982280403376,-0.020225398242473602
1780100483916569600,6.568569580078125,-0.00013535935431718826,0.005019002594053745,-0.013117870315909386
1780100483926561500,6.5785615234375,-0.00485394848510623,0.00614818325266242,-0.004720656666904688
1780100483936553700,6.5885537109375,-0.0068920673802495,0.010531474836170673,0.0031662932597100735
1780100483946545700,6.598545654296875,-0.009844182059168816,0.01793639548122883,0.014210954308509827
1780100483956537600,6.60853759765625,-0.010644103400409222,0.02817218378186226,0.019768353551626205
1780100483966529500,6.618529541015625,-0.01159644965082407,0.039343345910310745,0.025238487869501114
1780100483976521700,6.628521728515625,-0.01158890314400196,0.047140467911958694,0.02621418423950672
1780100483986513700,6.638513671875,-0.010902873240411282,0.04896233603358269,0.02253342978656292
1780100483996505900,6.648505859375,-0.009655626490712166,0.04059752821922302,0.017121264711022377
1780100484006497500,6.65849755859375,-0.007941349409520626,0.028879089280962944,0.012276709079742432
1780100484016489700,6.66848974609375,-0.0038431906141340733,0.014885933138430119,0.009445142932236195
1780100484026481700,6.678481689453125,-0.0019635315984487534,0.004164047073572874,0.006932982709258795
1780100484036473900,6.688473876953125,-0.0008707493543624878,-0.002764271106570959,0.002580751897767186
1780100484046465500,6.698465576171875,0.0010981252416968346,-0.007680200040340424,-0.000016629070159979165
1780100484056457700,6.708457763671875,0.002527891658246517,-0.007236408069729805,-0.006067502778023481
1780100484066449700,6.71844970703125,0.0054919905960559845,-0.009271596558392048,-0.012562952935695648
1780100484076441900,6.72844189453125,0.008271261118352413,-0.009130191057920456,-0.019704755395650864
1780100484086434600,6.7384345703125,0.012018063105642796,-0.013433593325316906,-0.02827613800764084
1780100484096426800,6.7484267578125,0.01711171492934227,-0.017823904752731323,-0.035044651478528976
1780100484106418700,6.758418701171875,0.019779670983552933,-0.022062059491872787,-0.03940131515264511
1780100484116410600,6.76841064453125,0.021959997713565826,-0.022771533578634262,-0.04294412210583687
1780100484126402600,6.778402587890625,0.022718466818332672,-0.021329432725906372,-0.043218694627285004
1780100484136394500,6.78839453125,0.02341790497303009,-0.02127835340797901,-0.04436926171183586
1780100484146386700,6.79838671875,0.02174091339111328,-0.021123090758919716,-0.04121767729520798
1780100484156378600,6.808378662109375,0.02406780794262886,-0.02013673260807991,-0.04018498584628105
1780100484166370600,6.81837060546875,0.024402566254138947,-0.021192675456404686,-0.03668506070971489
1780100484176362500,6.828362548828125,0.024904925376176834,-0.02043299749493599,-0.03544173017144203
1780100484186354700,6.838354736328125,0.027195241302251816,-0.01959170587360859,-0.03342997655272484
1780100484196346600,6.8483466796875,0.02949044480919838,-0.02050924114882946,-0.03334750235080719
1780100484206338600,6.858338623046875,0.027900803834199905,-0.022465599700808525,-0.03124680183827877
1780100484216330500,6.86833056640625,0.026745079085230827,-0.023477159440517426,-0.02923966571688652
1780100484226322700,6.87832275390625,0.02346726320683956,-0.026125406846404076,-0.026080358773469925
1780100484236314600,6.888314697265625,0.020260196179151535,-0.022223250940442085,-0.019825302064418793
1780100484246306600,6.898306640625,0.01805110275745392,-0.01864476129412651,-0.01502362359315157
1780100484256298500,6.908298583984375,0.011670525185763836,-0.010900376364588737,-0.009184198454022408
1780100484266290700,6.918290771484375,0.00765767227858305,-0.0018754558404907584,-0.004574532620608807
1780100484276282600,6.92828271484375,0.0030760541558265686,0.0061250897124409676,0.0023213583044707775
1780100484286274600,6.938274658203125,-0.0005351919680833817,0.013220550492405891,0.007064714562147856
1780100484296266500,6.9482666015625,-0.0031906268559396267,0.018091490492224693,0.006984559353441
1780100484306258400,6.958258544921875,-0.002616715617477894,0.01873650774359703,0.009536400437355042
1780100484316250600,6.968250732421875,-0.005827067885547876,0.015752611681818962,0.007947469130158424
1780100484326242600,6.97824267578125,-0.0036283619701862335,0.01140926219522953,0.007672897074371576
1780100484336234500,6.988234375,-0.0037276064977049828,0.0047070798464119434,0.005346541292965412
1780100484346226400,6.998226318359375,-0.001796814613044262,0.002917967736721039,0.0030767288990318775
1780100484356218600,7.008218505859375,-0.004215322434902191,0.00326745118945837,0.0033375383354723454
1780100484366210600,7.01821044921875,-0.0025982512161135674,0.005464292597025633,0.0021324579138308764
1780100484376203500,7.02820361328125,-0.001391756348311901,0.012529801577329636,0.0017166389152407646
1780100484386195700,7.03819580078125,-0.0007267650216817856,0.019388772547245026,-0.0008791442378424108
1780100484396187600,7.048187744140625,-0.0001792190596461296,0.026485830545425415,-0.000986735918559134
1780100484406179600,7.0581796875,0.0003475584089756012,0.032917119562625885,-0.0009638263145461679
1780100484416171500,7.068171630859375,-0.0018856748938560486,0.032947685569524765,-0.005991955287754536
1780100484426163700,7.078163818359375,-0.0037405667826533318,0.03009331040084362,-0.009065776132047176
1780100484436155600,7.08815576171875,-0.002727063372731209,0.021020501852035522,-0.009919507429003716
1780100484446147300,7.098147216796875,-0.0005432711914181709,0.011701568029820919,-0.012216217815876007
1780100484456139500,7.108139404296875,-0.0004742015153169632,0.0013340909499675035,-0.014960152097046375
1780100484466131500,7.11813134765625,0.0011303527280688286,-0.00916648656129837,-0.015654437243938446
1780100484476123600,7.12812353515625,0.004182601347565651,-0.016115743666887283,-0.015381465665996075
1780100484486115300,7.138115234375,0.0040228115394711494,-0.012207289226353168,-0.016686413437128067
1780100484496107500,7.148107421875,0.006568612530827522,0.001006142352707684,-0.013354627415537834
1780100484506099500,7.158099365234375,0.004777103662490845,0.01763039268553257,-0.009215010330080986
1780100484516091600,7.168091552734375,0.0031959880143404007,0.02977416105568409,-0.0044332994148135185
1780100484526083600,7.17808349609375,0.004538221284747124,0.03301389515399933,0.0021186096128076315
1780100484536075500,7.188075439453125,0.007200407795608044,0.023772649466991425,0.00963369756937027
1780100484546067500,7.1980673828125,0.005980680696666241,0.01297672651708126,0.014998901635408401
1780100484556059600,7.2080595703125,0.0067528169602155685,0.005389010533690453,0.01601800136268139
1780100484566051600,7.218051513671875,0.005965054035186768,0.002285362919792533,0.015286697074770927
1780100484576043500,7.22804345703125,0.004168041981756687,0.0008048259769566357,0.01068972796201706
1780100484586035500,7.238035400390625,0.0014071427285671234,0.005025137215852737,0.010577608831226826
1780100484596027600,7.248027587890625,-0.0023651374503970146,0.006141163408756256,0.008889337070286274
1780100484606019600,7.25801953125,-0.002276986837387085,0.006100417114794254,0.007969215512275696
1780100484616011500,7.268011474609375,-0.003586193546652794,0.00516007374972105,0.009042740799486637
1780100484626003500,7.27800341796875,-0.005450140219181776,0.00223246100358665,0.006347354967147112
1780100484635995600,7.28799560546875,-0.0062803360633552074,0.00045037310337647796,0.005220928695052862
1780100484645987600,7.297987548828125,-0.006416955962777138,-0.0009698906796984375,0.004230232909321785
1780100484655979500,7.3079794921875,-0.006222722120583057,-0.0019830474629998207,0.0036804676055908203
1780100484665972500,7.317972412109375,-0.00716947577893734,-0.0004125814011786133,0.00322719756513834
1780100484675964700,7.327964599609375,-0.005420312751084566,-0.0001635805529076606,0.002972864778712392
1780100484685956400,7.337956298828125,-0.006587576121091843,-0.002192643005400896,0.00025430991081520915
1780100484695948500,7.347948486328125,-0.007155717816203833,-0.006987311877310276,-0.00380905345082283
1780100484705940500,7.3579404296875,-0.006263558752834797,-0.018095890060067177,-0.006178201641887426
1780100484715932700,7.3679326171875,-0.003419568296521902,-0.027256350964307785,-0.0065377252176404
1780100484725924600,7.377924560546875,-0.0007721204310655594,-0.03300265595316887,-0.0045470125041902065
1780100484735916500,7.38791650390625,0.0029019713401794434,-0.03508049622178078,-0.0012966367648914456
1780100484745908500,7.397908447265625,0.004305456764996052,-0.032959289848804474,0.0021428356412798166
1780100484755900700,7.407900634765625,0.007341465912759304,-0.025933824479579926,0.0056198714300990105
1780100484765892600,7.417892578125,0.009139101020991802,-0.01880534179508686,0.008393820375204086
1780100484775884500,7.427884521484375,0.012183892540633678,-0.012643586844205856,0.0074276248924434185
1780100484785876500,7.43787646484375,0.012510661967098713,-0.0019262272398918867,0.005758355837315321
1780100484795868700,7.44786865234375,0.012406975030899048,0.006424980238080025,0.0020052469335496426
1780100484805860600,7.457860595703125,0.006349083036184311,0.013426430523395538,-0.0062359049916267395
1780100484815852500,7.4678525390625,0.003073573112487793,0.012351145967841148,-0.009240125305950642
1780100484825844500,7.477844482421875,0.0013869935646653175,0.0022660214453935623,-0.012136845849454403
1780100484835836700,7.487836669921875,-0.0004150783643126488,-0.00951508991420269,-0.012561442330479622
1780100484845828600,7.49782861328125,-0.0001820521429181099,-0.025140920653939247,-0.012141994200646877
1780100484855820500,7.507820556640625,0.003052622079849243,-0.04012734070420265,-0.011402970179915428
1780100484865812500,7.5178125,0.005880100652575493,-0.045613184571266174,-0.01107753161340952
1780100484875804700,7.5278046875,0.003857875242829323,-0.039892081171274185,-0.010180220939218998
1780100484885796600,7.537796630859375,0.008525597862899303,-0.022544248029589653,-0.011924324557185173
1780100484895788500,7.54778857421875,0.015293039381504059,0.002122092293575406,-0.011855446733534336
1780100484905780500,7.557780517578125,0.016576683148741722,0.03557965159416199,-0.006176256109029055
1780100484915772400,7.5677724609375,0.008574329316616058,0.0712413340806961,0.00265967077575624
1780100484925764600,7.5777646484375,-0.003949452191591263,0.1006104052066803,0.010203074663877487
1780100484935756500,7.587756591796875,-0.01423368975520134,0.11322201043367386,0.016553832218050957
1780100484945748500,7.59774853515625,-0.01555807888507843,0.10323116183280945,0.019621793180704117
1780100484955740400,7.607740478515625,-0.006979682017117739,0.07053038477897644,0.021569807082414627
1780100484965733600,7.617733642578125,0.004210388287901878,0.024642525240778923,0.021842515096068382
1780100484975725600,7.6277255859375,0.012271421030163765,-0.015319463796913624,0.012975339777767658
1780100484985717500,7.637717529296875,0.012805117294192314,-0.03552486374974251,0.003267318941652775
1780100484995709700,7.647709716796875,0.006911540403962135,-0.03772012144327164,-0.006154148373752832
1780100485005701600,7.65770166015625,0.00022034812718629837,-0.026150282472372055,-0.007728875614702702
1780100485015693600,7.667693603515625,-0.0021500438451766968,-0.008983108215034008,-0.005182984285056591
1780100485025685500,7.677685546875,0.0010422877967357635,0.00869388971477747,0.0012964863562956452
1780100485035677700,7.687677734375,0.005312402732670307,0.024449702352285385,0.007512043230235577
1780100485045669600,7.697669677734375,0.0115841468796134,0.03474121913313866,0.006578339263796806
1780100485055661300,7.707661376953125,0.013058027252554893,0.036051925271749496,0.004510301165282726
1780100485065653500,7.717653564453125,0.016686050221323967,0.0277607049793005,0.0004694869858212769
1780100485075645400,7.7276455078125,0.014750028029084206,0.011651732958853245,-0.002118119038641453
1780100485085637600,7.7376376953125,0.011956105008721352,-0.009942241944372654,-0.0036132177338004112
1780100485095629600,7.747629638671875,0.0062833912670612335,-0.030535515397787094,-0.006279135122895241
1780100485105621500,7.75762158203125,0.003934217616915703,-0.04837469756603241,-0.008223242126405239
1780100485115613400,7.767613525390625,0.0008933311328291893,-0.05605144053697586,-0.011343580670654774
1780100485125605600,7.777605712890625,0.0038054976612329483,-0.05533185601234436,-0.013704206794500351
1780100485135597800,7.787597900390625,0.007626158185303211,-0.04941491782665253,-0.014552773907780647
1780100485145589500,7.797589599609375,0.013420398347079754,-0.04142676666378975,-0.011384411714971066
1780100485155581700,7.807581787109375,0.014212953858077526,-0.02886144258081913,-0.007752660196274519
1780100485165573600,7.81757373046875,0.013728792779147625,-0.019221065565943718,-0.003813045797869563
1780100485175565800,7.82756591796875,0.01151996199041605,-0.006959634367376566,-0.0006393640069290996
1780100485185557500,7.8375576171875,0.008495143614709377,0.0024948539212346077,0.004157521761953831
1780100485195549700,7.8475498046875,0.004340526647865772,0.007817015051841736,0.006143799051642418
1780100485205541600,7.857541748046875,0.002538631670176983,0.007710754871368408,0.008524931967258453
1780100485215533800,7.867533935546875,-0.0004639076068997383,0.006745168473571539,0.009968983009457588
1780100485225525500,7.877525390625,-0.007478407118469477,0.007647447753697634,0.007975873537361622
1780100485235517700,7.887517578125,-0.016241982579231262,0.011381641961634159,0.007704141549766064
1780100485245509600,7.897509521484375,-0.02218962088227272,0.013207239098846912,0.0051032984629273415
1780100485255501800,7.907501708984375,-0.022163692861795425,0.010174919851124287,0.0006930249510332942
1780100485265493500,7.917493408203125,-0.016637101769447327,0.0028256606310606003,-0.000007652728527318686
1780100485275486700,7.92748681640625,-0.007040846161544323,-0.0071352035738527775,-0.003388095647096634
1780100485285478700,7.937478759765625,-0.00007668044418096542,-0.011328617110848427,-0.006028619594871998
1780100485295470600,7.947470703125,0.005409608595073223,-0.012571433559060097,-0.007261310238391161
1780100485305462500,7.957462646484375,0.007163566537201405,-0.0075236777774989605,-0.007708720862865448
1780100485315454700,7.967454833984375,0.006752992980182171,0.005050870589911938,-0.009442796930670738
1780100485325446700,7.97744677734375,0.0025531891733407974,0.022558491677045822,-0.010095537640154362
1780100485335438800,7.98743896484375,-0.0023639826104044914,0.04458833858370781,-0.010962750762701035
1780100485345430500,7.997430419921875,-0.006737159099429846,0.06022801622748375,-0.006818872410804033
1780100485355422700,8.007422607421875,-0.011396978981792927,0.06803304702043533,-0.004947643727064133
1780100485365414700,8.01741455078125,-0.012182344682514668,0.06457813084125519,0.0005397996865212917
1780100485375406800,8.02740673828125,-0.013100158423185349,0.04582504555583,0.005510680843144655
1780100485385398500,8.0373984375,-0.01178562268614769,0.020812636241316795,0.00892591942101717
1780100485395390700,8.047390625,-0.015693988651037216,-0.0024400411639362574,0.010075783357024193
1780100485405382700,8.057382568359374,-0.022432319819927216,-0.018562551587820053,0.006013131234794855
1780100485415374800,8.067374755859374,-0.02555389702320099,-0.022558264434337616,0.0013952997978776693
1780100485425366500,8.077366455078124,-0.023170899599790573,-0.020335590466856956,-0.003386938478797674
1780100485435358700,8.087358642578126,-0.017730243504047394,-0.019768450409173965,-0.0022685048170387745
1780100485445350700,8.0973505859375,-0.009241950698196888,-0.015113777481019497,-0.001038390793837607
1780100485455342800,8.1073427734375,-0.0012506917119026184,-0.0138399014249444,0.002738592214882374
1780100485465334500,8.11733447265625,0.005924130789935589,-0.008955397643148899,0.0037375439424067736
1780100485475326700,8.12732666015625,0.008748237043619156,-0.0012679934734478593,0.0015653842128813267
1780100485485318700,8.137318603515626,0.009061956778168678,0.0032330150716006756,0.0012852195650339127
1780100485495310800,8.147310791015625,0.007083048112690449,0.003942110575735569,0.0005516923265531659
1780100485505302800,8.157302734375,0.007000756449997425,0.003178582526743412,0.0007650115294381976
1780100485515294700,8.167294677734375,0.0014650244265794754,0.001970952609553933,-0.00032386055681854486
1780100485525286700,8.17728662109375,-0.0011158445850014687,-0.002281050430610776,-0.0004476975300349295
1780100485535278800,8.18727880859375,-0.0028113005682826042,-0.0031962839420884848,-0.0037440683227032423
1780100485545270800,8.197270751953125,-0.004176436923444271,-0.007148148957639933,-0.006255429238080978
1780100485555262500,8.207262451171875,-0.002351284958422184,-0.01367165707051754,-0.006978833582252264
1780100485565254700,8.217254638671875,0.0025135111063718796,-0.021781515330076218,-0.004629925824701786
1780100485575246600,8.22724658203125,0.005608812905848026,-0.027948258444666862,-0.002533400198444724
1780100485585239600,8.237239501953125,0.013282445259392262,-0.03275659680366516,0.002372408751398325
1780100485595231700,8.247231689453125,0.016795333474874496,-0.03398207575082779,0.0036124696489423513
1780100485605223700,8.2572236328125,0.01987421326339245,-0.030557781457901,0.00515923323109746
1780100485615215900,8.2672158203125,0.021302731707692146,-0.025921251624822617,0.005027133505791426
1780100485625207600,8.27720751953125,0.021886227652430534,-0.015119202435016632,0.007019976619631052
1780100485635199700,8.28719970703125,0.018197841942310333,-0.010596423409879208,0.008822587318718433
1780100485645191700,8.297191650390625,0.015207911841571331,-0.00028333242516964674,0.011105981655418873
1780100485655184000,8.307183837890625,0.010461891070008278,0.007336233276873827,0.013074057176709175
1780100485665175600,8.317175537109375,0.006397109478712082,0.011542162857949734,0.012609601020812988
1780100485675167700,8.327167724609374,0.0018042223528027534,0.012546978890895844,0.011621835641562939
1780100485685159700,8.33715966796875,-0.00017530564218759537,0.008741587400436401,0.009213806129992008
1780100485695151600,8.347151611328124,-0.00588068226352334,0.006364031229168177,0.004168805666267872
1780100485705143800,8.357143798828124,-0.010618978179991245,-0.0008318301988765597,-0.0006613692385144532
1780100485715135500,8.367135498046874,-0.012592915445566177,-0.005631925538182259,-0.005853204056620598
1780100485725127700,8.377127685546874,-0.014718383550643921,-0.01250367984175682,-0.00917017087340355
1780100485735119600,8.38711962890625,-0.01215970516204834,-0.02181372418999672,-0.011977851390838623
1780100485745111800,8.39711181640625,-0.006171854212880135,-0.02753552608191967,-0.011564528569579124
1780100485755103500,8.407103515625,0.000604911707341671,-0.030900277197360992,-0.01204292569309473
1780100485765095700,8.417095703125,0.0063999490812420845,-0.02816973812878132,-0.009102529846131802
1780100485775087600,8.427087646484376,0.012258107773959637,-0.015998806804418564,-0.002782045630738139
1780100485785079800,8.437079833984376,0.011224000714719296,0.0014222603058442473,0.0013703551376238465
1780100485795071500,8.447071533203125,0.00852169282734394,0.022203456610441208,0.004489983897656202
1780100485805063700,8.457063720703125,0.001802271232008934,0.038623176515102386,0.009119623340666294
1780100485815055600,8.4670556640625,-0.004343773704022169,0.047411851584911346,0.010242409072816372
1780100485825047800,8.4770478515625,-0.009585141204297543,0.0439891554415226,0.010104190558195114
1780100485835039500,8.48703955078125,-0.008267054334282875,0.027840718626976013,0.007609517779201269
1780100485845031700,8.49703173828125,-0.004802814219146967,0.0007763440371491015,0.004686698783189058
1780100485855023600,8.507023681640625,0.001306389458477497,-0.025985395535826683,-0.0030129416845738888
1780100485865015800,8.517015869140625,0.0035658152773976326,-0.044543635100126266,-0.0095286313444376
1780100485875007700,8.5270078125,0.0028636278584599495,-0.05215877667069435,-0.01394157949835062
1780100485884999700,8.536999755859375,0.003852992318570614,-0.04850145801901817,-0.013224923051893711
1780100485894991600,8.54699169921875,0.0051672616973519325,-0.037602201104164124,-0.0059036267921328545
1780100485904983800,8.55698388671875,0.005424522794783115,-0.01934356614947319,0.0030262188520282507
1780100485914975700,8.566975830078125,0.004752163775265217,0.005280728917568922,0.00777028501033783
1780100485924967700,8.5769677734375,0.00444350391626358,0.022895142436027527,0.010304016061127186
1780100485934960600,8.586960693359375,0.006324670277535915,0.03716816008090973,0.009620468132197857
1780100485944952800,8.596952880859375,0.005547559820115566,0.03709359094500542,0.003740740939974785
1780100485954944500,8.606944580078125,0.0023525673896074295,0.02600126899778843,0.0005223129410296679
1780100485964936700,8.616936767578125,0.0017538880929350853,0.008453433401882648,-0.0013224587310105562
1780100485974928600,8.6269287109375,0.0009383372962474823,-0.012585733085870743,-0.0010203716810792685
1780100485984920800,8.6369208984375,0.0006461888551712036,-0.03151175379753113,-0.000471227802336216
1780100485994912500,8.64691259765625,0.003791739232838154,-0.04179295524954796,0.001857090275734663
1780100486004904700,8.65690478515625,0.004590154625475407,-0.03892632946372032,0.0007129962905310094
1780100486014896600,8.666896728515624,0.00503730121999979,-0.02773943915963173,-0.0008691853145137429
1780100486024888800,8.676888916015624,0.0027584340423345566,-0.01189229916781187,-0.0021589542739093304
1780100486034880500,8.686880615234376,0.0016835806891322136,0.0060406094416975975,-0.002597313839942217
1780100486044872700,8.696872802734376,0.00039008352905511856,0.021686948835849762,-0.00007103932148311287
1780100486054864600,8.70686474609375,-0.006572218611836433,0.03101521171629429,0.002654707757756114
1780100486064856800,8.71685693359375,-0.010427144356071949,0.02759278379380703,0.004198009613901377
1780100486074848800,8.726848876953126,-0.012249010615050793,0.019277598708868027,0.003569238353520632
1780100486084840700,8.7368408203125,-0.012333699502050877,0.002967602340504527,0.0005532082868739963
1780100486094832600,8.74683251953125,-0.008581481873989105,-0.01621788740158081,-0.005551909562200308
1780100486104824800,8.756824951171875,0.0015973858535289764,-0.03492312878370285,-0.009432666935026646
1780100486114816800,8.766816650390625,0.008658132515847683,-0.045553337782621384,-0.011438474990427494
1780100486124808700,8.77680859375,0.012322376482188702,-0.04107736423611641,-0.012080296874046326
1780100486134800400,8.78680029296875,0.01008958462625742,-0.025495197623968124,-0.008936700411140919
1780100486144792300,8.796792236328125,0.006217614747583866,0.0016908830730244517,-0.006545979995280504
1780100486154784500,8.806784423828125,0.0011732317507266998,0.023939553648233414,0.0007695460226386786
1780100486164776400,8.8167763671875,-0.00549266068264842,0.038438066840171814,0.00511609110981226
1780100486174768400,8.826768310546875,-0.01102280430495739,0.042285073548555374,0.008357509039342403
1780100486184760300,8.83676025390625,-0.014721136540174484,0.03758379444479942,0.00806855596601963
1780100486194752500,8.84675244140625,-0.015788353979587555,0.020810771733522415,0.0026019765064120293
1780100486204744400,8.856744384765625,-0.011128886602818966,-0.0035763264168053865,-0.006106826942414045
1780100486214736400,8.866736328125,-0.0057359859347343445,-0.03096187859773636,-0.012946357019245625
1780100486224728300,8.876728271484374,0.0046921540051698685,-0.05497613549232483,-0.017202354967594147
1780100486234720500,8.886720458984374,0.010761055164039135,-0.06614631414413452,-0.018478630110621452
1780100486244712400,8.89671240234375,0.008955164812505245,-0.05337752029299736,-0.018616048619151115
1780100486254704400,8.906704345703124,0.0058892471715807915,-0.01699678599834442,-0.01582709699869156
1780100486264696300,8.9166962890625,-0.0014898404479026794,0.030512411147356033,-0.008793155662715435
1780100486274688500,8.9266884765625,-0.006350643467158079,0.06726720929145813,0.0007414911524392664
1780100486284680400,8.936680419921874,-0.008336296305060387,0.0828901156783104,0.016258133575320244
1780100486294672400,8.94667236328125,-0.009325303137302399,0.07936056703329086,0.024160178378224373
1780100486304664300,8.956664306640626,-0.009637425653636456,0.06625648587942123,0.025327708572149277
1780100486314656500,8.966656494140626,-0.0083036283031106,0.04215370491147041,0.018495280295610428
1780100486324649200,8.976649169921876,-0.004907831083983183,0.019256379455327988,0.005517428740859032
1780100486334641400,8.986641357421876,-0.002483644522726536,-0.006451032590121031,-0.0027433433569967747
1780100486344633300,8.99663330078125,-0.005223504267632961,-0.028396544978022575,-0.006184946279972792
1780100486354625500,9.00662548828125,-0.01305115781724453,-0.04075193032622337,-0.00867731124162674
1780100486364617500,9.016617431640626,-0.01401788555085659,-0.04090240225195885,-0.012941564433276653
1780100486374609400,9.026609375,-0.01253183837980032,-0.03694972023367882,-0.015028681606054306
1780100486384601300,9.036601318359375,-0.005257680546492338,-0.03240077197551727,-0.015155181288719177
1780100486394593500,9.046593505859375,0.0013524619862437248,-0.02634919248521328,-0.014697296544909477
1780100486404585500,9.05658544921875,0.010076978243887424,-0.02255551889538765,-0.014939910732209682
1780100486414577400,9.066577392578125,0.017793841660022736,-0.017625024542212486,-0.012514657340943813
1780100486424569300,9.0765693359375,0.02028709277510643,-0.00886349007487297,-0.0067499782890081406
1780100486434561500,9.0865615234375,0.01339483167976141,0.0010240133851766586,0.0013606760185211897
1780100486444553500,9.096553466796875,0.00391797348856926,0.014096671715378761,0.009334180504083633
1780100486454545400,9.10654541015625,-0.003345796838402748,0.024523498490452766,0.01761981099843979
1780100486464537300,9.116537353515625,-0.006868626456707716,0.026462014764547348,0.017176128923892975
1780100486474529500,9.126529541015625,-0.0076295798644423485,0.019091544672846794,0.013535675592720509
1780100486484521500,9.136521484375,-0.0013106977567076683,-0.0030646244995296,0.0074788485653698444
1780100486494513400,9.146513427734375,0.006909768097102642,-0.030381569638848305,-0.0007445508381351829
1780100486504505300,9.15650537109375,0.014947188086807728,-0.050968870520591736,-0.007769437041133642
1780100486514497500,9.16649755859375,0.01674775406718254,-0.05525628477334976,-0.016271842643618584
1780100486524489500,9.176489501953125,0.011008641682565212,-0.03540108725428581,-0.019001049920916557
1780100486534481400,9.1864814453125,-0.0013945875689387321,-0.0025019028689712286,-0.014881850220263004
1780100486544473300,9.196473388671874,-0.011317791417241096,0.0331232026219368,-0.0015719046350568533
1780100486554465500,9.206465576171874,-0.015323629602789879,0.056527238339185715,0.015016037970781326
1780100486564457500,9.21645751953125,-0.013846375048160553,0.062010686844587326,0.02375786565244198
1780100486574449700,9.22644970703125,-0.008557869121432304,0.05308643728494644,0.020678184926509857
1780100486584441300,9.23644140625,-0.006082993932068348,0.03658043220639229,0.009151757694780827
1780100486594433500,9.24643359375,-0.0038086543790996075,0.011579740792512894,-0.004842354916036129
1780100486604425500,9.256425537109376,-0.0008661281317472458,-0.013393785804510117,-0.014613226056098938
1780100486614417400,9.26641748046875,0.006444070488214493,-0.03526933863759041,-0.01767781376838684
1780100486624409300,9.276409423828126,0.009271549060940742,-0.046251680701971054,-0.016436247155070305
1780100486634401300,9.2864013671875,0.008821830153465271,-0.04131188243627548,-0.018168725073337555
1780100486644393500,9.2963935546875,0.0067131407558918,-0.020568521693348885,-0.0192736703902483
1780100486654385400,9.306385498046875,-0.000009301118552684784,0.004893239121884108,-0.019585706293582916
1780100486664377300,9.31637744140625,-0.0059835705906152725,0.028232382610440254,-0.013528079725801945
1780100486674369300,9.326369384765625,-0.013553961180150509,0.03729680925607681,-0.0010947565315291286
1780100486684361500,9.336361572265625,-0.01341254822909832,0.033155858516693115,0.011865250766277313
1780100486694353400,9.346353515625,-0.014193031936883926,0.017671609297394753,0.01949138753116131
1780100486704345300,9.356345458984375,-0.012585015036165714,-0.0036768224090337753,0.01757870614528656
1780100486714337300,9.366337158203125,-0.010527987964451313,-0.024318698793649673,0.009183892980217934
1780100486724329500,9.37632958984375,-0.005461856257170439,-0.03977595269680023,-0.000015997575246728957
1780100486734321400,9.3863212890625,-0.002863232046365738,-0.0461844764649868,-0.006849578581750393
1780100486744314400,9.396314453125,-0.0019492357969284058,-0.04395727440714836,-0.01053539291024208
1780100486754306300,9.406306396484375,0.0006787721067667007,-0.03255733102560043,-0.008852008730173111
1780100486764298500,9.416298583984375,0.00031631533056497574,-0.012879501096904278,-0.007789673283696175
1780100486774290400,9.42629052734375,0.0027227476239204407,0.00512265507131815,-0.00857503991574049
1780100486784282400,9.436282470703125,0.0026553701609373093,0.018075738102197647,-0.007567832246422768
1780100486794274300,9.4462744140625,0.00016327295452356339,0.01951880194246769,-0.00822412595152855
1780100486804266500,9.4562666015625,0.0007544951513409615,0.006143607199192047,-0.009237192571163177
1780100486814258400,9.466258544921875,0.0011882325634360313,-0.012394580990076065,-0.00951620377600193
1780100486824250400,9.47625048828125,0.0012777149677276611,-0.03139436990022659,-0.01083739846944809
1780100486834242300,9.4862421875,-0.0030350061133503914,-0.03968344256281853,-0.011807586066424847
1780100486844234500,9.496234375,-0.010563762858510017,-0.03489960730075836,-0.012857137247920036
1780100486854226400,9.506226318359374,-0.02251487597823143,-0.02090292051434517,-0.009747985750436783
1780100486864218400,9.51621826171875,-0.031919561326503754,-0.0036957033444195986,-0.003567321691662073
1780100486874210300,9.526210205078126,-0.03921253979206085,0.0100410720333457,0.0025948788970708847
1780100486884202500,9.536202392578126,-0.04080404341220856,0.010480226948857307,0.009687941521406174
1780100486894194400,9.5461943359375,-0.03884245082736015,-0.001991812838241458,0.008129814639687538
1780100486904186400,9.556186279296876,-0.030426859855651855,-0.018991569057106972,0.0042533171363174915
1780100486914178300,9.56617822265625,-0.016397593542933464,-0.03313533216714859,-0.006543136667460203
1780100486924170500,9.57617041015625,-0.00530259869992733,-0.04257144406437874,-0.01815345324575901
1780100486934162400,9.586162353515626,0.007283678278326988,-0.05278857797384262,-0.018198637291789055
1780100486944154600,9.596154541015625,0.015942147001624107,-0.05674710124731064,-0.010831802152097225
1780100486954146300,9.606146240234375,0.01950385980308056,-0.0513579286634922,-0.000753069412894547
1780100486964138500,9.616138427734375,0.022031906992197037,-0.03253195062279701,0.0050793420523405075
1780100486974130400,9.62613037109375,0.020188115537166595,-0.0019451889675110579,0.007004363927990198
1780100486984122600,9.63612255859375,0.01380052138119936,0.03576251119375229,0.0026189363561570644
1780100486994114300,9.6461142578125,0.005242188461124897,0.07174765318632126,-0.002648797817528248
1780100487004106500,9.6561064453125,-0.013731502927839756,0.09811294823884964,-0.0026842178776860237
1780100487014098400,9.666098388671875,-0.03548775613307953,0.1023179218173027,0.00491999601945281
1780100487024090600,9.676090576171875,-0.05637891963124275,0.0808725506067276,0.016582511365413666
1780100487034082300,9.686082275390625,-0.06896369159221649,0.03602730482816696,0.022959183901548386
1780100487044074500,9.696074462890625,-0.07921633124351501,-0.020659413188695908,0.01949307881295681
1780100487054066400,9.70606640625,-0.08001119643449783,-0.0734819695353508,-0.0001377023581881076
1780100487064058600,9.71605859375,-0.0563117191195488,-0.10893024504184723,-0.03193238377571106
1780100487074050300,9.72605029296875,-0.025296369567513466,-0.11620377749204636,-0.06095382571220398
1780100487084042500,9.73604248046875,0.005825596861541271,-0.09732915461063385,-0.07434126734733582
1780100487094034400,9.746034423828124,0.013629014603793621,-0.061079107224941254,-0.06270254403352737
1780100487104026400,9.7560263671875,0.007937041111290455,-0.01681523770093918,-0.031122516840696335
1780100487114018600,9.7660185546875,-0.010091939941048622,0.03328486531972885,0.008459159173071384
1780100487124010200,9.77601025390625,-0.029720503836870193,0.0849861428141594,0.03408409655094147
1780100487134002000,9.786001953125,-0.043602850288152695,0.1265062540769577,0.0444052629172802
1780100487143993900,9.795993896484376,-0.0589786097407341,0.1562311351299286,0.0330684520304203
1780100487153986000,9.805986083984376,-0.06578928977251053,0.148329958319664,0.012449107132852077
1780100487163978000,9.81597802734375,-0.06467022746801376,0.09782977402210236,-0.00448939623311162
1780100487173970000,9.825969970703126,-0.0334734283387661,0.0006616844329982996,-0.010795229114592075
1780100487183961900,9.8359619140625,0.017506930977106094,-0.09580893069505692,-0.010898825712502003
1780100487193954000,9.8459541015625,0.049688927829265594,-0.14931590855121613,-0.014597512781620026
1780100487203946000,9.855946044921875,0.04436793178319931,-0.1484983116388321,-0.022835200652480125
1780100487213938000,9.86593798828125,0.02037355862557888,-0.09508028626441956,-0.027743851765990257
1780100487223929900,9.875929931640625,-0.007540897000581026,-0.016121556982398033,-0.018583377823233604
1780100487233922000,9.885922119140625,-0.028560340404510498,0.06036832928657532,-0.001142424065619707
1780100487243914000,9.8959140625,-0.04095122963190079,0.11830566078424454,0.01990613527595997
1780100487253906000,9.905906005859375,-0.047203268855810165,0.14591331779956818,0.03383153676986694
1780100487263899000,9.91589892578125,-0.04580031335353851,0.12933914363384247,0.03804492577910423
1780100487273891000,9.92589111328125,-0.031973179429769516,0.07907943427562714,0.03295589238405228
1780100487283882800,9.9358828125,-0.015279421582818031,0.0007316352566704154,0.017786525189876556
1780100487293875000,9.945875,-0.002032858319580555,-0.07410824298858643,-0.0016252546338364482
1780100487303867000,9.955866943359375,-0.0021787993609905243,-0.11288892477750778,-0.029625995084643364
1780100487313859000,9.965859130859375,-0.006384286098182201,-0.11459220200777054,-0.054304089397192
1780100487323850800,9.975850830078125,-0.012099429965019226,-0.08557040244340897,-0.06547632068395615
1780100487333843000,9.985843017578125,-0.014082774519920349,-0.0376344732940197,-0.0592966303229332
1780100487343835000,9.9958349609375,-0.009914660826325417,0.0014564709272235632,-0.03368687257170677
1780100487353827000,10.0058271484375,-0.0025567905977368355,0.030727969482541084,0.0003924444899894297
1780100487363819000,10.015819091796875,0.0031660757958889008,0.04594633728265762,0.025178750976920128
1780100487373811000,10.02581103515625,0.0062901414930820465,0.04952571541070938,0.035421088337898254
1780100487383803000,10.035802978515624,-0.0026442324742674828,0.05491515249013901,0.026999909430742264
1780100487393795000,10.045795166015624,-0.009666632860898972,0.05780458822846413,0.00724289333447814
1780100487403787000,10.055787109375,-0.02421361766755581,0.06093273684382439,-0.01208925899118185
1780100487413779000,10.065779052734374,-0.042503856122493744,0.06448188424110413,-0.02340937964618206
1780100487423771000,10.07577099609375,-0.051295749843120575,0.053459856659173965,-0.02299259603023529
1780100487433763000,10.08576318359375,-0.04786452651023865,0.02130562998354435,-0.006779269780963659
1780100487443755000,10.095755126953126,-0.01936124823987484,-0.03556884080171585,0.013607759959995747
1780100487453747000,10.105746826171876,0.01835399493575096,-0.09443649649620056,0.02781110815703869
1780100487463739000,10.11573876953125,0.03947658836841583,-0.10755842179059982,0.02210635133087635
1780100487473731000,10.12573095703125,0.02727523073554039,-0.06636323034763336,0.001250426983460784
1780100487483723000,10.135722900390626,-0.0036073196679353714,0.0015841266140341759,-0.020174968987703323
1780100487493715000,10.14571484375,-0.028335124254226685,0.06264542788267136,-0.026416266337037086
1780100487503707000,10.155706787109375,-0.0320582240819931,0.09020567685365677,-0.01506001502275467
1780100487513698800,10.16569873046875,-0.012201162986457348,0.06521406024694443,0.008966492488980293
1780100487523691000,10.17569091796875,0.01717430353164673,0.013182283379137516,0.0278491023927927
1780100487533683000,10.185682861328125,0.03419776260852814,-0.03815309703350067,0.028121544048190117
1780100487543675000,10.1956748046875,0.03264407441020012,-0.06611255556344986,0.011283974163234234
1780100487553666800,10.205666748046875,0.01696702092885971,-0.06226152181625366,-0.01664583757519722
1780100487563659000,10.215658935546875,-0.0037920535542070866,-0.034477028995752335,-0.036047499626874924
1780100487573651000,10.22565087890625,-0.01850930228829384,0.0004970153677277267,-0.03906157612800598
1780100487583643000,10.235642822265625,-0.022770892828702927,0.028620794415473938,-0.023246925324201584
1780100487593634800,10.245634765625,-0.019818779081106186,0.040114179253578186,-0.005557946395128965
1780100487603627000,10.255626953125,-0.009084110148251057,0.03130684047937393,0.011961925774812698
1780100487613619000,10.265618896484375,0.008255996741354465,-0.003136059967800975,0.023590087890625
1780100487623611000,10.27561083984375,0.02691889926791191,-0.04395299777388573,0.0208749957382679
1780100487633602800,10.285602783203124,0.03394937887787819,-0.07007941603660583,0.012357406318187714
1780100487643595000,10.295594970703124,0.026340991258621216,-0.07250182330608368,-0.0019424371421337128
1780100487653587000,10.3055869140625,0.010178976692259312,-0.045985158532857895,-0.01052092295140028
1780100487663579000,10.315578857421874,-0.0071411579847335815,-0.008580265566706657,-0.010547821410000324
1780100487673570800,10.32557080078125,-0.015164639800786972,0.026583729311823845,0.0006839713314548135
1780100487683563000,10.33556298828125,-0.004300806671380997,0.041747234761714935,0.01642698235809803
1780100487693555000,10.345554931640624,0.00979557167738676,0.028167009353637695,0.029638925567269325
1780100487703547000,10.355546875,0.021417073905467987,0.009671090170741081,0.02708655223250389
1780100487713538800,10.365538818359376,0.020119935274124146,-0.0025020469911396503,0.0058325729332864285
1780100487723531000,10.375531005859376,0.018195271492004395,-0.006968434434384108,-0.016547568142414093
1780100487733523000,10.38552294921875,0.014318683184683323,-0.010556980967521667,-0.030672352761030197
1780100487743515100,10.39551513671875,0.008153199218213558,-0.00987814087420702,-0.03129153698682785
1780100487753506800,10.4055068359375,0.006424009799957275,0.0010946330148726702,-0.020310791209340096
1780100487763499000,10.4154990234375,0.010777745395898819,0.011394408531486988,-0.005114527884870768
1780100487773491000,10.425490966796875,0.020683905109763145,0.009072154760360718,0.01491563767194748
1780100487783483100,10.435483154296875,0.02960309572517872,-0.003467872040346265,0.02984505333006382
1780100487793474800,10.445474853515625,0.032138604670763016,-0.018306653946638107,0.03283533826470375
1780100487803467000,10.455467041015625,0.02728206291794777,-0.02434084378182888,0.0232562143355608
1780100487813459000,10.465458984375,0.02269938588142395,-0.01852726750075817,0.006408437620848417
1780100487823451100,10.475451171875,0.009394233115017414,-0.004863652400672436,-0.009731383994221687
1780100487833442800,10.48544287109375,-0.002291277050971985,0.00956999883055687,-0.01735326461493969
1780100487843435000,10.49543505859375,-0.003635907080024481,0.014849982224404812,-0.013852538540959358
1780100487853427000,10.505427001953125,-0.0020745880901813507,0.008485662750899792,-0.00271324859932065
1780100487863419000,10.5154189453125,0.006396926939487457,-0.008910105563700199,0.011305631138384342
1780100487873410800,10.525410888671875,0.01776321791112423,-0.03335762023925781,0.018186001107096672
1780100487883402800,10.53540283203125,0.031461186707019806,-0.054923102259635925,0.020599624142050743
1780100487893395000,10.54539501953125,0.04246155172586441,-0.06402675807476044,0.012881605885922909
1780100487903387000,10.555386962890625,0.0421997606754303,-0.05581143870949745,0.0022321566939353943
1780100487913379000,10.565379150390624,0.03261344134807587,-0.029696723446249962,-0.008401046507060528
1780100487923370800,10.575370849609374,0.022006073966622353,0.004828497767448425,-0.010295885615050793
1780100487933363000,10.585363037109374,0.007457936182618141,0.03291559964418411,-0.008981260471045971
1780100487943355000,10.59535498046875,-0.0017155883833765984,0.047678567469120026,0.00006416607357095927
1780100487953347800,10.605347900390624,-0.0010830871760845184,0.040219832211732864,0.009022773243486881
1780100487963340000,10.615340087890624,0.006358850747346878,0.0171416774392128,0.013548815622925758
1780100487973332000,10.62533203125,0.017612215131521225,-0.014783119782805443,0.014918568544089794
1780100487983324200,10.63532421875,0.029340509325265884,-0.04204456880688667,0.01047295331954956
1780100487993315800,10.64531591796875,0.0360606387257576,-0.0543794184923172,0.004135249648243189
1780100488003307800,10.655307861328126,0.03668541461229324,-0.05113701894879341,-0.00004191866173641756
1780100488013300000,10.665300048828126,0.029779665172100067,-0.032069168984889984,-0.000015373567293863744
1780100488023292000,10.6752919921875,0.01733977347612381,-0.004134741146117449,0.004017717204988003
1780100488033283800,10.685283935546876,0.00616879016160965,0.020220747217535973,0.010861065238714218
1780100488043275800,10.69527587890625,-0.0027043307200074196,0.03731105104088783,0.015472594648599625
1780100488053268000,10.70526806640625,-0.004734990652650595,0.0395481213927269,0.013693336397409439
1780100488063260000,10.715260009765625,-0.0011786054819822311,0.02746935375034809,0.009061033837497234
1780100488073251800,10.725251953125,0.008289288729429245,0.005441178102046251,0.0010070138378068805
1780100488083243800,10.735243896484375,0.022323882207274437,-0.017785580828785896,-0.0062178755179047585
1780100488093236000,10.745236083984375,0.032145969569683075,-0.03134673088788986,-0.01147318072617054
1780100488103228000,10.755227783203125,0.0416414737701416,-0.03254648298025131,-0.009621485136449337
1780100488113220000,10.76522021484375,0.0414329469203949,-0.019645338878035545,-0.004058141261339188
1780100488123211800,10.775211669921875,0.0325036346912384,0.002550777280703187,0.0018697892082855105
1780100488133204000,10.785203857421875,0.020509909838438034,0.023414161056280136,0.006266046315431595
1780100488143196200,10.795196044921875,0.0024733860045671463,0.045193493366241455,0.009234139695763588
1780100488153188000,10.80518798828125,-0.014171812683343887,0.06506853550672531,0.006426545791327953
1780100488163180000,10.815179931640625,-0.024739503860473633,0.07855585217475891,0.001974006649106741
1780100488173172000,10.825171875,-0.02443714439868927,0.06924696266651154,0.0015147898811846972
1780100488183164200,10.8351640625,-0.012573827058076859,0.04345931112766266,0.0027789922896772623
1780100488193156000,10.845156005859375,0.0038474900647997856,0.0021275875624269247,0.007368417922407389
1780100488203148000,10.85514794921875,0.01750124990940094,-0.036466408520936966,0.009691759943962097
1780100488213140000,10.865139892578124,0.02348652295768261,-0.06118166446685791,0.006505995523184538
1780100488223132200,10.875132080078124,0.018111199140548706,-0.06258594989776611,0.0019447995582595468
1780100488233124000,10.8851240234375,0.005372324027121067,-0.04441156983375549,-0.004853272810578346
1780100488243116000,10.895115966796874,-0.007959992624819279,-0.01887904852628708,-0.008464253507554531
1780100488253108000,10.90510791015625,-0.015846675261855125,0.006660386919975281,-0.005971533711999655
1780100488263100200,10.91510009765625,-0.01545705460011959,0.02259381301701069,-0.0004934110911563039
1780100488273092000,10.925092041015626,-0.002523857168853283,0.021467216312885284,0.005760666914284229
1780100488283084000,10.935083984375,0.008098959922790527,0.007078688591718674,0.008219563402235508
1780100488293076000,10.945075927734376,0.020385630428791046,-0.015357283875346184,0.005698970053344965
1780100488303068200,10.955068115234376,0.027960192412137985,-0.03500395640730858,0.0027737540658563375
1780100488313060000,10.96506005859375,0.02847764454782009,-0.044084008783102036,-0.004345407709479332
1780100488323052300,10.97505224609375,0.02467491663992405,-0.04072922468185425,-0.006673276890069246
1780100488333044000,10.9850439453125,0.015584126114845276,-0.03152710199356079,-0.004789003171026707
1780100488343036200,10.9950361328125,0.003442241810262203,-0.016780911013484,-0.0004925255198031664
1780100488353028000,11.005028076171875,-0.003843097947537899,-0.0027836246881633997,0.0039032900240272284
1780100488363020300,11.015020263671875,-0.004802102223038673,0.0028225958812981844,0.008502036333084106
1780100488373012000,11.025011962890625,0.0003430331125855446,0.0044099390506744385,0.010838782414793968
1780100488383004200,11.035004150390625,0.008942913264036179,-0.0002527235192246735,0.012334946542978287
1780100488392996000,11.04499609375,0.013209120370447636,-0.002906391629949212,0.014712794683873653
1780100488402988300,11.05498828125,0.01215530838817358,-0.001282129785977304,0.013150583952665329
1780100488412980000,11.06497998046875,0.007844004780054092,0.006176499649882317,0.008118451572954655
1780100488422972200,11.07497216796875,-0.0013806521892547607,0.017537012696266174,0.004432903602719307
1780100488432964000,11.084964111328125,-0.01217116042971611,0.025260629132390022,0.0027803226839751005
1780100488442956300,11.094956298828125,-0.01958087459206581,0.029650850221514702,-0.0009526300127618015
1780100488452948000,11.104947998046875,-0.02309686876833439,0.02752787433564663,0.0006267125136218965
1780100488462940200,11.114940185546875,-0.020425984635949135,0.01844676025211811,-0.002320874249562621
1780100488472932000,11.12493212890625,-0.016543809324502945,0.004728475119918585,-0.003954547923058271
1780100488482924000,11.134924072265624,-0.006285578478127718,-0.01101693231612444,-0.008457420393824577
1780100488492916200,11.144916259765624,0.006924147717654705,-0.023734524846076965,-0.010770550929009914
1780100488502908000,11.154907958984374,0.01514239702373743,-0.0336713083088398,-0.010886930860579014
1780100488512900000,11.164900146484374,0.020177986472845078,-0.03423597291111946,-0.010508320294320583
1780100488522892000,11.17489208984375,0.019560135900974274,-0.029998617246747017,-0.004427524749189615
1780100488532884200,11.18488427734375,0.014718775637447834,-0.02058408036828041,0.00047881779028102756
1780100488542876000,11.1948759765625,0.007670187391340733,-0.010741569101810455,0.005549210123717785
1780100488552868000,11.2048681640625,0.0015683537349104881,0.004663742613047361,0.00754045695066452
1780100488562860000,11.214860107421876,-0.0025046849623322487,0.018612846732139587,0.005472778808325529
1780100488572852200,11.224852294921876,-0.00542484549805522,0.023644112050533295,0.004164363723248243
1780100488582844000,11.234843994140626,-0.004912720061838627,0.022861942648887634,0.003760362509638071
1780100488592836000,11.244836181640625,-0.001646529883146286,0.01395038329064846,0.006716382689774036
1780100488602828000,11.254828125,-0.00042307376861572266,0.0007858452736400068,0.007982183247804642
1780100488612820200,11.2648203125,-0.0020407596603035927,-0.007940474897623062,0.006774798966944218
1780100488622812200,11.274812255859375,-0.008036068640649319,-0.011228946037590504,0.003912433050572872
1780100488632804000,11.28480419921875,-0.015665322542190552,-0.007952867075800896,-0.001988782314583659
1780100488642796000,11.294796142578125,-0.017988665029406548,-0.0041831620037555695,-0.005246360786259174
1780100488652788200,11.304788330078125,-0.021658848971128464,-0.0012384539004415274,-0.006286230403929949
1780100488662780200,11.3147802734375,-0.016419611871242523,-0.0016477818135172129,-0.006309932563453913
1780100488672772000,11.324772216796875,-0.010420398786664009,-0.005413929466158152,-0.003139617620036006
1780100488682764000,11.334763916015625,-0.0030546272173523903,-0.007678947877138853,-0.003948952071368694
1780100488692756200,11.344756103515625,0.00032794009894132614,-0.005807084497064352,-0.007373069413006306
1780100488702748200,11.354748046875,0.001097327098250389,0.0005892955232411623,-0.009112113155424595
1780100488712740000,11.364739990234375,-0.001535826362669468,0.005828871391713619,-0.010297661647200584
1780100488722732000,11.37473193359375,-0.007894922979176044,0.008777523413300514,-0.007944758981466293
1780100488732724200,11.38472412109375,-0.009913508780300617,0.006744371727108955,-0.004803382325917482
1780100488742716200,11.394716064453124,-0.013538602739572525,0.0018521444872021675,-0.0045333378948271275
1780100488752708000,11.4047080078125,-0.013600838370621204,-0.005486787762492895,-0.003996803890913725
1780100488762700000,11.414699951171874,-0.013084185309708118,-0.011214980855584145,-0.00320824165828526
1780100488772692200,11.424692138671874,-0.013609624467790127,-0.013288797810673714,-0.0039856163784861565
1780100488782684200,11.43468408203125,-0.013221335597336292,-0.009070349857211113,-0.003001578152179718
1780100488792676000,11.444676025390624,-0.014137724414467812,0.0033953425008803606,-0.0027030357159674168
1780100488802668000,11.45466796875,-0.016251742839813232,0.019282961264252663,-0.00081751769175753
1780100488812660200,11.46466015625,-0.019780253991484642,0.03307344764471054,0.00005875063652638346
1780100488822652200,11.474652099609376,-0.023592036217451096,0.03846128657460213,0.002949079265818
1780100488832644000,11.48464404296875,-0.022900326177477837,0.03299932926893234,0.003823039587587118
1780100488842636000,11.494635986328126,-0.01931491121649742,0.019060343503952026,0.0035615169908851385
1780100488852628000,11.5046279296875,-0.015459634363651276,0.00036488129990175366,0.0036208145320415497
1780100488862620200,11.5146201171875,-0.00929281860589981,-0.018429579213261604,-0.0020384027156978846
1780100488872612000,11.524612060546875,-0.0037229079753160477,-0.02941209450364113,-0.007886083796620369
1780100488882604000,11.53460400390625,-0.00016785413026809692,-0.030280819162726402,-0.011648864485323429
1780100488892596000,11.544595947265625,0.0009404709562659264,-0.021309377625584602,-0.015828870236873627
1780100488902588200,11.554588134765625,0.0035359878093004227,-0.009883350692689419,-0.012128939852118492
1780100488912580000,11.564580078125,0.0056938594207167625,0.0019627378787845373,-0.007820921018719673
1780100488922572000,11.574572021484375,0.007668859325349331,0.00911146029829979,0.00033447699388489127
1780100488932564000,11.58456396484375,0.008382142521440983,0.009405667893588543,0.004291845019906759
1780100488942556200,11.59455615234375,0.00523268710821867,0.010238970629870892,0.005817303899675608
1780100488952548000,11.604548095703125,-0.004080655984580517,0.014651847071945667,0.0023400126956403255
1780100488962540000,11.6145400390625,-0.01294099260121584,0.017676666378974915,-0.003420937340706587
1780100488972532000,11.624531982421875,-0.019047804176807404,0.018177537247538567,-0.007206181064248085
1780100488982524200,11.634524169921875,-0.023793023079633713,0.019173558801412582,-0.009792642667889595
1780100488992516000,11.64451611328125,-0.02118605375289917,0.016767917200922966,-0.005057807080447674
1780100489002508300,11.65450830078125,-0.017543915659189224,0.006744578015059233,-0.0005791690782643855
1780100489012500000,11.6645,-0.00863307062536478,-0.0037063616327941418,0.004967481829226017
1780100489022492200,11.6744921875,0.004306696355342865,-0.016971834003925323,0.008890851400792599
1780100489032484000,11.684484130859374,0.010888702236115932,-0.021523455157876015,0.009678882546722889
1780100489042476300,11.694476318359374,0.013805930502712727,-0.015161695890128613,0.00600159028545022
1780100489052468000,11.704468017578124,0.006972525268793106,-0.004106918815523386,0.0005040277610532939
1780100489062460200,11.714460205078124,0.00341614056378603,0.004149413667619228,-0.0014371502911671996
1780100489072452000,11.7244521484375,0.0011554677039384842,0.010338793508708477,-0.0032532524783164263
1780100489082444300,11.7344443359375,0.0015946226194500923,0.005008742678910494,-0.0009344379650428891
1780100489092436000,11.74443603515625,0.005803133361041546,-0.008000197820365429,-0.0001590985630173236
1780100489102428200,11.75442822265625,0.011995249427855015,-0.025108344852924347,0.0008880563545972109
1780100489112420000,11.764420166015626,0.019219957292079926,-0.03897096961736679,-0.0006311028264462948
1780100489122412300,11.774412353515626,0.021664472296833992,-0.03888441622257233,-0.004281763918697834
1780100489132404000,11.784404052734375,0.016116134822368622,-0.023692255839705467,-0.011070246808230877
1780100489142396000,11.79439599609375,0.006045126356184483,0.005511702038347721,-0.013303839601576328
1780100489152387800,11.804387939453125,-0.007018743082880974,0.037557248026132584,-0.009995127096772194
1780100489162380000,11.814380126953125,-0.016350992023944855,0.05887265503406525,-0.001224539359100163
1780100489172372000,11.8243720703125,-0.017029397189617157,0.05932818353176117,0.009391168132424355
1780100489182364000,11.834364013671875,-0.008150685578584671,0.0423518642783165,0.019221695140004158
1780100489192355800,11.84435595703125,0.0013586711138486862,0.014468273147940636,0.021523205563426018
1780100489202348000,11.85434814453125,0.012997749261558056,-0.011792625300586224,0.016469324007630348
1780100489212340000,11.864340087890625,0.022110819816589355,-0.032394569367170334,0.006583669688552618
1780100489222332000,11.874331787109375,0.024174239486455917,-0.039141424000263214,-0.0020601521246135235
1780100489232323800,11.88432373046875,0.02339792624115944,-0.03213571012020111,-0.005460210144519806
1780100489242316000,11.89431591796875,0.014840391464531422,-0.013281598687171936,-0.0063598258420825005
1780100489252308000,11.904307861328125,0.007940939627587795,0.006809022277593613,-0.0004569291486404836
1780100489262300000,11.9142998046875,0.0006252359598875046,0.025064991787075996,0.004828114062547684
1780100489272291800,11.924291748046874,-0.00283757783472538,0.02991236001253128,0.010661683045327663
1780100489282284000,11.934283935546874,0.0009667472913861275,0.020441627129912376,0.011687000282108784
