time,seconds_elapsed,z,y,x
1779910134619772700,0.133772705078125,0.8381071090698242,-0.893390417098999,2.6361889839172363
1779910134636094700,0.1500947265625,-0.18524488806724548,-2.2649354934692383,2.6204590797424316
1779910134652429600,0.1664296875,-0.8985827565193176,-2.858391284942627,2.5957190990448
1779910134668761300,0.18276123046875,-1.31916344165802,-2.5082128047943115,2.3105978965759277
1779910134685109200,0.199109130859375,-1.6991217136383057,-1.5596916675567627,1.9233092069625854
1779910134701438000,0.21543798828125,-1.9225456714630127,-0.6414085030555725,1.0131200551986694
1779910134717770200,0.231770263671875,-2.063197374343872,0.380721777677536,-0.6099489331245422
1779910134734101800,0.248101806640625,-2.046704053878784,0.579405665397644,-1.5267049074172974
1779910134750453800,0.264453857421875,-2.017993450164795,0.6386595964431763,-2.2547035217285156
1779910134766780400,0.280780517578125,-1.824349045753479,0.5267185568809509,-2.7426321506500244
1779910134783112400,0.297112548828125,-1.111163854598999,0.13072516024112701,-2.8289170265197754
1779910134799433500,0.31343359375,-0.10491610318422318,0.2145664244890213,-2.4081835746765137
1779910134815784200,0.3297841796875,0.46547931432724,0.23579397797584534,-1.6139060258865356
1779910134832112600,0.346112548828125,0.7108944058418274,-0.48258355259895325,-0.6716463565826416
1779910134848427500,0.362427490234375,0.8171849846839905,-1.2928962707519531,0.18081611394882202
1779910134864772600,0.378772705078125,0.7257078886032104,-2.1421515941619873,0.6708827614784241
1779910134881084000,0.395083984375,0.12950342893600464,-3.182302474975586,0.9043859839439392
1779910134897421800,0.411421875,-0.24419337511062622,-3.860363006591797,1.2709051370620728
1779910134913753600,0.427753662109375,0.3793473243713379,-4.0042219161987305,1.8515325784683228
1779910134930089500,0.44408935546875,0.9709703326225281,-4.027129173278809,2.328160047531128
1779910134946417400,0.46041748046875,1.576032280921936,-5.078122615814209,2.6897923946380615
1779910134962750000,0.47675,2.4251351356506348,-6.560540199279785,3.332728147506714
1779910134979081700,0.493081787109375,3.2012393474578857,-7.858628749847412,4.021936893463135
1779910134995414000,0.5094140625,4.140902996063232,-8.426427841186523,4.611116409301758
1779910135011745500,0.52574560546875,5.240002155303955,-8.117788314819336,4.794986724853516
1779910135028091000,0.5420908203125,6.27664041519165,-7.42369270324707,4.7160325050354
1779910135044428300,0.55842822265625,7.014412879943848,-6.373920917510986,4.250247478485107
1779910135060753200,0.574753173828125,7.148650646209717,-4.464966773986816,3.271488904953003
1779910135077089300,0.59108935546875,7.236615180969238,-2.0958786010742188,1.994780421257019
1779910135093418200,0.607418212890625,6.969361782073975,-1.0509936809539795,1.0795515775680542
1779910135109733600,0.623733642578125,6.28610897064209,-0.5674937963485718,0.7669413089752197
1779910135126072600,0.640072509765625,5.497023582458496,-0.44364088773727417,0.8469646573066711
1779910135142388700,0.656388671875,4.86309814453125,-0.8823948502540588,1.086118459701538
1779910135158731500,0.6727314453125,4.301712989807129,-1.4764612913131714,1.3365731239318848
1779910135175065600,0.689065673828125,3.4319937229156494,-1.855197787284851,1.5987870693206787
1779910135191398000,0.70539794921875,2.2182044982910156,-1.837024450302124,1.8999435901641846
1779910135207729700,0.721729736328125,0.7835873961448669,-3.383124351501465,2.0929770469665527
1779910135224073700,0.73807373046875,-0.4043927788734436,-4.887380123138428,1.9449949264526367
1779910135240392200,0.75439208984375,-1.1310169696807861,-3.489567756652832,1.599703311920166
1779910135256712200,0.770712158203125,-1.1091785430908203,-1.353830099105835,1.0094548463821411
1779910135273058000,0.78705810546875,0.6995934247970581,0.2935207486152649,0.47479501366615295
1779910135289389800,0.803389892578125,1.987450122833252,2.5891523361206055,0.15012013912200928
1779910135305721300,0.819721435546875,1.3768903017044067,4.228409290313721,-0.09728029370307922
1779910135322040800,0.836040771484375,0.28130343556404114,4.618905067443848,-0.1609629988670349
1779910135338399000,0.85239892578125,-0.551305890083313,3.601508855819702,-0.4902193546295166
1779910135354737000,0.86873681640625,-0.4948008358478546,2.4361305236816406,-0.8029823899269104
1779910135371060700,0.885060791015625,-0.15729780495166779,3.6447274684906006,-0.20463985204696655
1779910135387396600,0.901396728515625,-0.15012013912200928,3.107471466064453,-0.06215553730726242
1779910135403725300,0.917725341796875,-0.1765400618314743,1.6649131774902344,0.347276896238327
1779910135420051200,0.93405126953125,0.07147123664617538,3.4324517250061035,0.9082038998603821
1779910135436382500,0.950382568359375,0.012522737495601177,2.200183868408203,0.6140722632408142
1779910135452707300,0.966707275390625,0.31093040108680725,1.5123496055603027,0.8378016948699951
1779910135469043500,0.98304345703125,0.9225592613220215,1.3571898937225342,0.2854267954826355
1779910135485372000,0.999371826171875,1.2359330654144287,0.2050980031490326,-0.39874228835105896
1779910135501708300,1.015708251953125,1.710117220878601,-0.015577063895761967,-0.45036038756370544
1779910135518023000,1.03202294921875,1.9242255687713623,0.37369680404663086,-0.8854491710662842
1779910135534356700,1.048356689453125,1.954310655593872,0.6858489513397217,-0.9469938278198242
1779910135550689800,1.064689697265625,2.1290180683135986,0.5016731023788452,-0.6107125282287598
1779910135567020500,1.0810205078125,1.6795740127563477,0.1108720451593399,-0.17623461782932281
1779910135583357000,1.09735693359375,1.0317513942718506,-0.37690386176109314,-0.5288565754890442
1779910135599697000,1.11369677734375,0.875064492225647,0.11743884533643723,-1.0520626306533813
1779910135616030500,1.130030517578125,0.7506006956100464,0.6488916277885437,-1.564884066581726
1779910135632348000,1.146347900390625,0.7037167549133301,0.4349360466003418,-1.6462818384170532
1779910135648694000,1.162694091796875,0.9245445728302002,-0.1719585657119751,-1.4572190046310425
1779910135665025500,1.179025634765625,1.1589640378952026,-0.6786713004112244,-1.3474160432815552
1779910135681356300,1.195356201171875,1.3315335512161255,-1.0659598112106323,-1.4007140398025513
1779910135697689600,1.211689697265625,1.3727669715881348,-0.8947648406028748,-1.3862059116363525
1779910135714039000,1.2280390625,1.2385293245315552,-0.4392121136188507,-1.3167200088500977
1779910135730367500,1.244367431640625,0.8477282524108887,0.047800205647945404,-1.449125051498413
1779910135746703000,1.260703125,0.7089090943336487,0.3854559659957886,-1.5421292781829834
1779910135763026700,1.277026611328125,0.8382598161697388,-0.07941248267889023,-1.2880094051361084
1779910135779368700,1.29336865234375,1.3874276876449585,-0.7622070908546448,-0.7365507483482361
1779910135795691300,1.309691162109375,1.9007072448730469,-1.2018773555755615,-0.5656611919403076
1779910135812032000,1.326031982421875,1.212720274925232,-1.1992812156677246,-0.6180428862571716
1779910135828355300,1.342355224609375,0.7040221691131592,-0.30695977807044983,-0.7638869881629944
1779910135844678000,1.358677978515625,0.4190535545349121,0.4812090992927551,-0.8747590184211731
1779910135861025800,1.37502587890625,0.5328271985054016,0.2831360399723053,-0.6866125464439392
1779910135877354800,1.391354736328125,0.9221010804176331,-0.4437935948371887,-0.4239404797554016
1779910135893673700,1.407673828125,1.253190040588379,-1.2446379661560059,-0.3199406862258911
1779910135910004000,1.42400390625,1.5560264587402344,-1.540602207183838,-0.45173484086990356
1779910135926337800,1.440337890625,1.6882787942886353,-1.4201090335845947,-0.5135849714279175
1779910135942670300,1.45667041015625,1.8139643669128418,-1.182176947593689,-0.6177374720573425
1779910135959001900,1.473001953125,1.7693711519241333,-0.8063421249389648,-0.8936958312988281
1779910135975333600,1.489333740234375,1.795027494430542,-0.6701191663742065,-1.0580185651779175
1779910135991662600,1.50566259765625,1.3912456035614014,-1.90925931930542,-1.2933543920516968
1779910136007999700,1.521999755859375,0.7941248416900635,-4.314999580383301,-1.9799669981002808
1779910136024331300,1.538331298828125,-0.327271044254303,-5.637217044830322,-1.585806131362915
1779910136040673000,1.554673095703125,-0.1843285858631134,-5.120883464813232,-1.0083857774734497
1779910136057011200,1.57101123046875,-0.5129740834236145,-3.2201762199401855,-0.3045163154602051
1779910136073336300,1.58733642578125,-0.266642689704895,-0.8814785480499268,0.206777885556221
1779910136089676000,1.603676025390625,-0.6210972666740417,1.594205617904663,-0.1082758679986
1779910136105983200,1.619983154296875,-1.1885910034179688,3.740633249282837,-0.693026602268219
1779910136122316800,1.63631689453125,-1.4747813940048218,5.432882785797119,-0.2635883390903473
1779910136138650600,1.652650634765625,-1.4256067276000977,4.845230579376221,1.5515977144241333
1779910136154989300,1.6689892578125,-0.7579310536384583,-1.4069753885269165,3.257286310195923
1779910136171318000,1.685318115234375,-0.1739438772201538,-3.037069320678711,2.263713836669922
1779910136187639600,1.7016396484375,-0.20922134816646576,-0.9193521738052368,0.5071708559989929
1779910136203999200,1.717999267578125,-0.8358163833618164,0.6218608021736145,0.2915354371070862
1779910136220312300,1.734312255859375,-1.228450059890747,1.4028520584106445,0.44058656692504883
1779910136236658200,1.750658203125,-1.1252137422561646,2.4801127910614014,0.12308934330940247
1779910136252993300,1.7669931640625,-1.2414308786392212,2.616183042526245,0.27320948243141174
1779910136269323500,1.783323486328125,-1.4370604753494263,1.8208365440368652,0.6771441102027893
1779910136285649700,1.799649658203125,-1.6904168128967285,0.9903652667999268,1.338711142539978
1779910136301992200,1.8159921875,-1.751503348350525,1.2455542087554932,1.2530373334884644
1779910136318318800,1.83231884765625,-1.8365663290023804,1.9882136583328247,1.7985399961471558
1779910136334622200,1.848622314453125,-2.060295820236206,1.0968085527420044,0.9640980958938599
1779910136350963000,1.864962890625,-1.7348573207855225,1.6447546482086182,0.24587325751781464
1779910136367307800,1.881307861328125,-1.4926491975784302,1.1131491661071777,-0.2616030275821686
1779910136383634200,1.89763427734375,-1.217149019241333,-0.07192938029766083,0.04230241850018501
1779910136399952000,1.913951904296875,-0.8912523984909058,-1.0222829580307007,0.3625485301017761
1779910136416288300,1.930288330078125,-0.697149932384491,-1.0198395252227783,-0.24892759323120117
1779910136432617500,1.946617431640625,-0.40026944875717163,-0.7052439451217651,-1.0543533563613892
1779910136448949200,1.96294921875,-0.16019940376281738,-0.6537785530090332,-0.7715228199958801
1779910136465284400,1.979284423828125,0.19364428520202637,-1.718058466911316,-0.3625485301017761
1779910136481613600,1.995613525390625,0.551916778087616,-2.029141664505005,-0.21884247660636902
1779910136497945300,2.0119453125,0.4674646258354187,-2.400700330734253,0.40256020426750183
1779910136514278700,2.028278564453125,0.1820378452539444,-1.3752104043960571,0.71318519115448
1779910136530613200,2.04461328125,-0.2773328125476837,-0.13698652386665344,-0.34926220774650574
1779910136546942700,2.060942626953125,0.06185010448098183,0.8298604488372803,-0.9321803450584412
1779910136563275000,2.07727490234375,0.1287398487329483,0.543059229850769,-0.6676757335662842
1779910136579606800,2.093606689453125,1.5439618825912476,0.23121249675750732,-0.26053401827812195
1779910136595938000,2.10993798828125,2.82265567779541,-0.037110064178705215,0.06643159687519073
1779910136612262100,2.12626220703125,2.8771753311157227,-0.5322163701057434,0.5119050741195679
1779910136628603000,2.142602783203125,3.224604845046997,0.3920227587223053,-0.12476922571659088
1779910136644950300,2.1589501953125,1.8066339492797852,0.1696678251028061,0.06169738993048668
1779910136661278500,2.175278564453125,2.191784381866455,0.01466076634824276,0.0032070425804704428
1779910136677610500,2.191610595703125,2.995072364807129,-0.44364088773727417,-0.11728613078594208
1779910136693941200,2.207941162109375,2.328618288040161,-0.9101892113685608,0.07406741380691528
1779910136710273300,2.224273193359375,0.7371616363525391,-1.8432859182357788,0.4082106947898865
1779910136726602000,2.24060205078125,-1.1282681226730347,-2.1207714080810547,0.42928555607795715
1779910136742945300,2.2569453125,-1.9872974157333374,-0.7363980412483215,0.8148942589759827
1779910136759284000,2.273283935546875,-1.9453003406524658,0.1941024363040924,0.9527970552444458
1779910136775624000,2.2896240234375,-1.2553280591964722,1.0024298429489136,0.3196352422237396
1779910136791958000,2.3059580078125,-0.6009386777877808,-0.03344487398862839,-0.5338962078094482
1779910136808260600,2.322260498046875,-0.11056660860776901,-1.3504703044891357,-1.14873206615448
1779910136824616000,2.338615966796875,0.3816380500793457,-2.596788167953491,-1.5534303188323975
1779910136840917800,2.354917724609375,0.5977316498756409,-0.22510384023189545,0.2515237629413605
1779910136857260500,2.371260498046875,0.048105638474226,-0.8810204267501831,0.5917757153511047
1779910136873609200,2.387609130859375,-0.6397286057472229,-1.1036807298660278,0.49495357275009155
1779910136889928000,2.403927978515625,-0.3576616048812866,-0.361174076795578,0.3539963960647583
1779910136906258400,2.420258544921875,0.16661348938941956,-0.013286318629980087,0.08491026610136032
1779910136922591500,2.436591552734375,0.5697845816612244,0.23579397797584534,-0.4456261992454529
1779910136938919400,2.45291943359375,1.0286970138549805,0.9825767278671265,-0.5780312418937683
1779910136955258400,2.46925830078125,1.663691520690918,1.0734429359436035,0.17348572611808777
1779910136971586800,2.4855869140625,2.2427916526794434,-0.06841690838336945,0.23228150606155396
1779910136987908600,2.50190869140625,2.6254987716674805,0.1498146951198578,0.11133018881082535
1779910137004249600,2.51824951171875,2.72965145111084,0.9492846131324768,0.04108068719506264
1779910137020582000,2.534581787109375,2.563037872314453,1.1782063245773315,0.26832255721092224
1779910137036911900,2.550911865234375,2.484694480895996,0.5400048494338989,0.7147123217582703
1779910137053266200,2.56726611328125,2.3822216987609863,0.06750060617923737,0.9854783415794373
1779910137069574700,2.58357470703125,2.2731823921203613,0.3017674386501312,0.5051855444908142
1779910137085911600,2.59991162109375,1.851074457168579,0.5920811295509338,0.7961101531982422
1779910137102227700,2.616227783203125,0.5207626223564148,-0.14706580340862274,1.2553280591964722
1779910137118564900,2.63256494140625,-0.3972151279449463,-0.22372940182685852,1.4575244188308716
1779910137134907100,2.6489072265625,0.012064588256180286,0.5199990272521973,0.6236934065818787
1779910137151222000,2.665221923828125,-0.0936150997877121,0.7185302376747131,-0.11927144229412079
1779910137167570000,2.68156982421875,-0.21731531620025635,0.26969701051712036,0.019394971430301666
1779910137183907000,2.697906982421875,-0.20861047506332397,0.15042556822299957,0.45326200127601624
1779910137200252200,2.714252197265625,-0.07467827945947647,0.2243402600288391,0.4046982228755951
1779910137216581400,2.730581298828125,-0.0656680166721344,0.3614795207977295,0.1595885455608368
1779910137232915700,2.746915771484375,-0.07528914511203766,0.5268712639808655,0.12232576310634613
1779910137249239800,2.76323974609375,-0.07956519722938538,0.7038694620132446,0.1059851199388504
1779910137265583000,2.7795830078125,-0.027641652151942253,0.7104362845420837,0.08032877743244171
1779910137281904600,2.795904541015625,0.029016099870204926,0.6210972666740417,0.08216137439012527
1779910137298242000,2.812241943359375,0.09178250283002853,0.6959282159805298,0.08185594528913498
1779910137314577000,2.828576904296875,0.10842858254909515,0.8190175890922546,0.09285151958465576
1779910137330902800,2.84490283203125,0.13072516024112701,0.8159632682800293,0.10506882518529892
1779910137347233800,2.86123388671875,0.15622878074645996,0.6725626587867737,0.14782938361167908
1779910137363573000,2.877572998046875,0.18845193088054657,0.5514585971832275,0.2028072625398636
1779910137379896300,2.893896240234375,0.2629774808883667,0.45326200127601624,0.24877487123012543
1779910137396239600,2.910239501953125,0.3536909818649292,0.49144110083580017,0.3159700334072113
1779910137412552700,2.926552734375,0.4579962193965912,0.603076696395874,0.4671591818332672
1779910137428881000,2.942880859375,0.5633704662322998,0.6142250299453735,0.6754642724990845
1779910137445196500,2.959196533203125,0.6023131608963013,0.485027015209198,0.799011766910553
1779910137461533000,2.975532958984375,0.5621487498283386,0.4334088861942291,0.6464481353759766
1779910137477885200,2.99188525390625,0.4622722864151001,0.4758640229701996,0.4300491213798523
1779910137494208800,3.008208740234375,0.289702832698822,0.19135354459285736,0.3101668357849121
1779910137510542800,3.02454296875,0.2932153046131134,0.1137736514210701,-0.09544769674539566
1779910137526866000,3.040865966796875,0.29917123913764954,-0.012522737495601177,-0.6954700946807861
1779910137543211500,3.05721142578125,0.2600758671760559,-0.18325957655906677,-1.2893837690353394
1779910137559549400,3.073549560546875,0.18646661937236786,-0.1212567538022995,-1.8822284936904907
1779910137575874600,3.08987451171875,0.14477506279945374,-0.05757404863834381,-2.364659309387207
1779910137592204300,3.106204345703125,0.03588833287358284,-0.09896016865968704,-2.733163833618164
1779910137608534800,3.12253466796875,-0.01542434748262167,-0.3675881624221802,-2.958878517150879
1779910137624870000,3.138869873046875,0.16890424489974976,-0.5340489149093628,-3.0109548568725586
1779910137641199000,3.15519921875,0.6609562039375305,-0.6059783101081848,-3.020728588104248
1779910137657532400,3.171532470703125,1.296408772468567,-0.6611089110374451,-3.0576860904693604
1779910137673865200,3.187865234375,1.6865988969802856,-0.31780263781547546,-3.043025255203247
1779910137690207200,3.204207275390625,1.6351335048675537,0.06658431142568588,-2.8014280796051025
1779910137706547000,3.220546875,1.0122036933898926,0.22586742043495178,-2.3683245182037354
1779910137722880500,3.236880615234375,0.05955936014652252,-0.10766500234603882,-2.501340389251709
1779910137739200000,3.253199951171875,-0.33200526237487793,-0.36392298340797424,-3.207653284072876
1779910137755538000,3.269537841796875,-0.2565633952617645,-0.43447789549827576,-3.9073996543884277
1779910137771895300,3.285895263671875,-0.09453139454126358,-0.2742784917354584,-4.257883548736572
1779910137788199400,3.302199462890625,-0.18081611394882202,-0.17287486791610718,-3.916409730911255
1779910137804536000,3.3185361328125,-0.2893974184989929,-0.08078692853450775,-3.054478883743286
1779910137820858600,3.334858642578125,-0.3845396637916565,-0.30741792917251587,-2.4158194065093994
1779910137837172000,3.351171875,-0.6985244154930115,-0.6904304623603821,-2.3988678455352783
1779910137853507800,3.3675078125,-0.7165449261665344,-1.1105530261993408,-2.526844024658203
1779910137869850400,3.383850341796875,-0.5435173511505127,-1.449125051498413,-2.4581217765808105
1779910137886180600,3.4001806640625,-0.4534147381782532,-1.5364787578582764,-2.191326379776001
1779910137902513400,3.416513427734375,-0.45494189858436584,-1.4373658895492554,-1.7449365854263306
1779910137918843600,3.43284375,-0.5155702829360962,-1.228297233581543,-1.1323914527893066
1779910137935186200,3.449186279296875,-0.5810855627059937,-0.7930558323860168,-0.40026944875717163
1779910137951516000,3.465515869140625,-0.6363688707351685,-0.15500704944133759,0.2678644061088562
1779910137967840300,3.48184033203125,-0.6198754906654358,0.5143485069274902,0.8539896011352539
1779910137984173300,3.49817333984375,-0.5264131426811218,0.7399105429649353,1.3348932266235352
1779910138000503800,3.51450390625,-0.4014911949634552,0.7092145681381226,1.7748689651489258
1779910138016836400,3.53083642578125,-0.3646865487098694,0.6751587986946106,2.1980459690093994
1779910138033171500,3.54717138671875,-0.2649627923965454,0.2597704529762268,2.3437371253967285
1779910138049498400,3.563498291015625,-0.28955012559890747,0.5096143484115601,1.9695823192596436
1779910138065830100,3.579830078125,-0.8341364860534668,1.1823296546936035,0.13057245314121246
1779910138082155300,3.5961552734375,-1.1320860385894775,0.9398161768913269,0.28069257736206055
1779910138098497500,3.61249755859375,-0.30863967537879944,-0.3199406862258911,2.147191286087036
1779910138114811400,3.628811279296875,-0.7322747111320496,-0.5378668308258057,2.701857089996338
1779910138131158800,3.64515869140625,-0.6395758986473083,-0.3695734739303589,1.9668333530426025
1779910138147480600,3.66148046875,-0.5111414790153503,0.27947086095809937,1.1872166395187378
1779910138163813400,3.6778134765625,-0.4882340431213379,1.0027352571487427,1.680795669555664
1779910138180145700,3.694145751953125,-0.048258353024721146,1.3432927131652832,2.221564292907715
1779910138196478700,3.710478759765625,0.6754642724990845,1.3309226036071777,2.108401298522949
1779910138212810000,3.72681005859375,1.598328948020935,1.54945969581604,1.6960673332214355
1779910138229142800,3.743142822265625,1.7006487846374512,0.884227454662323,1.315956473350525
1779910138245475000,3.75947509765625,1.3148874044418335,-0.45402559638023376,1.0535898208618164
1779910138261807900,3.775807861328125,1.0099129676818848,-1.36482572555542,1.0848966836929321
1779910138278152000,3.79215185546875,0.44516804814338684,-0.5922338366508484,1.6600263118743896
1779910138294483700,3.808483642578125,0.09987647086381912,1.0157161951065063,2.1904101371765137
1779910138310813400,3.8248134765625,0.11988230794668198,1.9045251607894897,2.3910791873931885
1779910138327146800,3.841146728515625,0.12476922571659088,1.5073100328445435,2.325563907623291
1779910138343481600,3.857481689453125,0.12263119965791702,0.3478877544403076,2.105041742324829
1779910138359807700,3.873807861328125,0.08689557760953903,-0.9162978529930115,1.9188804626464844
1779910138376154000,3.890154052734375,-0.02580905705690384,-1.5070046186447144,1.848020076751709
1779910138392461000,3.9064609375,-0.09178250283002853,-1.2634220123291016,1.8156442642211914
1779910138408818700,3.922818603515625,0.09040805697441101,-0.7363980412483215,1.5138767957687378
1779910138425119500,3.939119384765625,0.18539759516716003,-0.5529857873916626,1.062447428703308
1779910138441482500,3.955482421875,0.21578814089298248,-0.197004035115242,0.7761042714118958
1779910138457787000,3.971786865234375,0.32498031854629517,0.19135354459285736,0.8005388975143433
1779910138474134800,3.988134765625,0.3978259861469269,0.32940909266471863,0.877966046333313
1779910138490456000,4.0044560546875,0.41202861070632935,0.6430884003639221,0.8000807762145996
1779910138506804700,4.0208046875,0.32528573274612427,0.8762862086296082,0.5384777188301086
1779910138523129900,4.0371298828125,0.25106561183929443,0.6618725061416626,0.26404649019241333
1779910138539463400,4.05346337890625,0.3442225754261017,0.2767219543457031,0.07727445662021637
1779910138555801000,4.069801025390625,0.5143485069274902,-0.10934487730264664,-0.010842857882380486
1779910138572115500,4.086115478515625,0.5473352670669556,-0.11331550031900406,0.08521570265293121
1779910138588459000,4.102458984375,0.4178318381309509,0.19776763021945953,0.2886338233947754
1779910138604795100,4.118795166015625,0.2825251817703247,0.4360050559043884,0.3854559659957886
1779910138621122800,4.135122802734375,0.1368338167667389,0.3767511546611786,0.3927863538265228
1779910138637455400,4.151455322265625,-0.09697485715150833,0.2782491147518158,0.3810271918773651
1779910138653767000,4.167766845703125,-0.3781255781650543,0.13530665636062622,0.2515237629413605
1779910138670126300,4.184126220703125,-0.38499781489372253,0.048258353024721146,-0.048105638474226
1779910138686471200,4.20047119140625,-0.16798794269561768,-0.1281289905309677,-0.44684791564941406
1779910138702776600,4.216776611328125,0.33735033869743347,-0.5241223573684692,-1.1230757236480713
1779910138719112700,4.23311279296875,0.7113525867462158,-0.85994553565979,-2.101987361907959
1779910138735437000,4.24943701171875,1.0236574411392212,-1.195005178451538,-3.2649219036102295
1779910138751780900,4.26578076171875,1.2484558820724487,-0.912021815776825,-4.2725443840026855
1779910138768111400,4.282111328125,1.2289081811904907,0.4746423065662384,-4.653724193572998
1779910138792608000,4.30660791015625,0.6562219858169556,1.7070629596710205,-3.5277466773986816
1779910138808961000,4.3229609375,0.34697145223617554,1.471268892288208,-1.9726365804672241
1779910138825289000,4.3392890625,-0.08643743395805359,0.6038402915000916,-1.31748366355896
1779910138841618200,4.3556181640625,-0.2664899528026581,0.1895209401845932,-1.8167132139205933
1779910138857956600,4.37195654296875,0.052839845418930054,-0.27061331272125244,-2.459496259689331
1779910138874278700,4.388278564453125,0.3113885521888733,-0.5587889552116394,-2.9271135330200195
1779910138890620000,4.404619873046875,0.3113885521888733,-0.8840747475624084,-3.140458106994629
1779910138906956800,4.420956787109375,0.26221391558647156,-0.7290676832199097,-3.246443271636963
1779910138923280100,4.437280029296875,0.044287730008363724,-0.31581732630729675,-3.2556064128875732
1779910138939612200,4.453612060546875,-0.2356412708759308,0.03741549700498581,-2.797457456588745
1779910138955914500,4.46991455078125,-0.5222898125648499,-0.038026362657547,-2.2481367588043213
1779910138972265200,4.48626513671875,-0.6188064813613892,-0.45265114307403564,-2.0279200077056885
1779910138988594400,4.502594482421875,-0.6105598211288452,-0.71318519115448,-2.048383951187134
1779910139004927000,4.518927001953125,-0.551916778087616,-0.9749409556388855,-2.1432206630706787
1779910139021259300,4.53525927734375,-0.521984338760376,-0.8042041063308716,-1.836719036102295
1779910139037576000,4.551575927734375,-0.4596760869026184,-0.45814892649650574,-1.3122912645339966
1779910139053910000,4.567909912109375,-0.4583016633987427,-0.1547016203403473,-0.679740309715271
1779910139070243000,4.5842431640625,-0.5062545537948608,0.22403483092784882,-0.05360342562198639
1779910139086576000,4.600576171875,-0.4764748811721802,0.36132678389549255,0.38438695669174194
1779910139102907000,4.616906982421875,-0.4648684561252594,0.23273965716362,0.8993463516235352
1779910139119239200,4.6332392578125,-0.5196936130523682,-0.006719517521560192,1.49738347530365
1779910139135571200,4.6495712890625,-0.5668829679489136,0.014508049935102463,2.060601234436035
1779910139151919400,4.66591943359375,-0.575893223285675,-0.00045814894838258624,2.3710734844207764
1779910139168244500,4.682244384765625,-0.6064364910125732,0.10842858254909515,2.5781567096710205
1779910139184582100,4.69858203125,-0.6966918110847473,1.2469286918640137,2.020742177963257
1779910139200910300,4.714910400390625,-0.6159048676490784,2.015549898147583,1.4899003505706787
1779910139217244200,4.731244140625,0.08720101416110992,0.836885392665863,2.104278087615967
1779910139233575700,4.74757568359375,-0.22617286443710327,0.4360050559043884,2.694068431854248
1779910139249918000,4.76391796875,-0.2721404731273651,0.43188172578811646,2.7714955806732178
1779910139266254300,4.78025439453125,-0.44058656692504883,1.0836749076843262,2.59098482131958
1779910139282570500,4.796570556640625,-0.1898263692855835,1.13926362991333,2.2682952880859375
1779910139298920400,4.81292041015625,0.26939156651496887,0.9604328870773315,2.0902280807495117
1779910139315250000,4.82925,0.6626361012458801,0.8155050873756409,2.359314203262329
1779910139331582000,4.84558203125,1.1172724962234497,1.2699888944625854,2.973539352416992
1779910139347914800,4.861914794921875,1.444696307182312,1.5735888481140137,3.3203580379486084
1779910139364225500,4.8782255859375,1.289689302444458,0.7996225953102112,2.5277602672576904
1779910139380580000,4.894580078125,0.9364564418792725,-1.1691961288452148,0.963792622089386
1779910139396889600,4.9108896484375,0.5693264007568359,-2.2849414348602295,0.7565566301345825
1779910139413247200,4.927247314453125,0.24373523890972137,-1.4509576559066772,1.2903001308441162
1779910139429574100,4.94357421875,-0.15164729952812195,0.06536258012056351,1.7570011615753174
1779910139445896400,4.959896484375,-0.5383250117301941,1.2095131874084473,1.8530597686767578
1779910139462205700,4.976205810546875,-0.4306600093841553,1.1371256113052368,1.628719449043274
1779910139478557000,4.992556884765625,-0.014508049935102463,-0.010995574295520782,1.2249375581741333
1779910139494892300,5.008892333984375,0.17333301901817322,-0.8260425329208374,0.9593638777732849
1779910139511218200,5.02521826171875,-0.02015855349600315,-0.599564254283905,0.9746354818344116
1779910139527545300,5.04154541015625,-0.28237244486808777,-0.20906862616539001,1.0167851448059082
1779910139543886000,5.057885986328125,-0.3245221674442291,0.05665775015950203,0.9390525817871094
1779910139560215300,5.07421533203125,-0.16065755486488342,-0.0064140851609408855,0.7354817390441895
1779910139576549600,5.090549560546875,-0.06291911751031876,0.3361285924911499,0.5091561675071716
1779910139592885200,5.10688525390625,-0.01542434748262167,0.694553792476654,0.40653082728385925
1779910139609211400,5.12321142578125,0.031154127791523933,0.8713992834091187,0.33246341347694397
1779910139625543400,5.13954345703125,0.05665775015950203,0.9104946255683899,0.3582724630832672
1779910139641883600,5.155883544921875,0.08399397134780884,0.8414669036865234,0.48915034532546997
1779910139658211600,5.172211669921875,0.10415252298116684,0.5480988621711731,0.740368664264679
1779910139674545200,5.188545166015625,0.15821409225463867,0.08170322328805923,0.9144652485847473
1779910139690871800,5.204871826171875,0.3998112976551056,-0.2252565622329712,0.9185886383056641
1779910139707208400,5.22120849609375,0.46563202142715454,-0.032681290060281754,0.9567676782608032
1779910139723538400,5.237538330078125,0.36911532282829285,0.0630718395113945,1.0888673067092896
1779910139739876000,5.2538759765625,0.13973543047904968,-0.13148874044418335,0.993725061416626
1779910139756186400,5.270186279296875,-0.05497787147760391,-0.45753806829452515,0.5635231733322144
1779910139772530700,5.28653076171875,-0.09926560521125793,-0.3978259861469269,-0.05009094998240471
1779910139788877600,5.302877685546875,-0.09010262042284012,-0.027030786499381065,-0.6475171446800232
1779910139805208600,5.31920849609375,-0.15561792254447937,0.05375614017248154,-1.2492194175720215
1779910139821548500,5.335548583984375,-0.07895433157682419,-0.21120665967464447,-1.8611537218093872
1779910139837869800,5.351869873046875,0.1394299864768982,-0.4170682430267334,-2.378556489944458
1779910139854212600,5.368212646484375,0.4697553813457489,-0.5885686874389648,-2.91733980178833
1779910139870539300,5.384539306640625,0.7652614116668701,-0.5477933883666992,-3.6535849571228027
1779910139886855400,5.40085546875,0.9399688839912415,0.16065755486488342,-4.295299053192139
1779910139903204900,5.417204833984375,0.9263771176338196,1.4117095470428467,-4.39303731918335
1779910139919537200,5.433537109375,0.816726803779602,2.13008713722229,-3.4662020206451416
1779910139935836400,5.44983642578125,0.28848111629486084,1.6705636978149414,-1.9339994192123413
1779910139952173800,5.466173828125,-0.44654250144958496,0.6183483600616455,-1.1452195644378662
1779910139968506000,5.482506103515625,-0.49357911944389343,-0.7307475209236145,-1.9914207458496094
1779910139984840000,5.49883984375,-0.030237829312682152,-1.6123788356781006,-2.975371837615967
1779910140001172000,5.515171875,0.16584990918636322,-1.131933331489563,-3.5098788738250732
1779910140017503000,5.5315029296875,0.33047810196876526,-0.8526151776313782,-3.782172203063965
1779910140033835000,5.5478349609375,0.46929723024368286,-0.9372199773788452,-3.751781702041626
1779910140050166800,5.564166748046875,0.3830125033855438,-0.9851729273796082,-3.4515414237976074
1779910140066499300,5.580499267578125,0.12950342893600464,-0.5795583724975586,-2.9775099754333496
1779910140082835200,5.596835205078125,-0.0913243517279625,-0.34758231043815613,-2.4836254119873047
1779910140099175200,5.613175048828125,-0.20876319706439972,-0.5433646440505981,-2.215913772583008
1779910140115496000,5.629495849609375,-0.22296582162380219,-0.6831000447273254,-1.9734001159667969
1779910140131839500,5.645839599609375,-0.2779437005519867,-0.6603453159332275,-1.6386460065841675
1779910140148174600,5.662174560546875,-0.33826664090156555,-0.6875288486480713,-1.212720274925232
1779910140164501000,5.6785009765625,-0.4008803069591522,-0.5815436840057373,-0.6357579827308655
1779910140180852000,5.69485205078125,-0.35475999116897583,-0.235030397772789,-0.041691552847623825
1779910140197181200,5.71118115234375,-0.303600013256073,0.06673702597618103,0.5316054821014404
1779910140213497600,5.72749755859375,-0.30695977807044983,0.07192938029766083,1.0696250200271606
1779910140229843700,5.74384375,-0.36529740691185,-0.03222314268350601,1.545336365699768
1779910140246179000,5.760178955078125,-0.403323769569397,-0.016493361443281174,1.9709566831588745
1779910140262493400,5.776493408203125,-0.4294382631778717,0.1134682223200798,2.545933723449707
1779910140278822000,5.79282177734375,-0.3605632185935974,1.1007791757583618,2.353205680847168
1779910140295161300,5.809161376953125,0.10659598559141159,1.570534586906433,1.4618005752563477
1779910140311497700,5.825497802734375,0.499382346868515,0.45234572887420654,1.5531249046325684
1779910140327847000,5.841846923828125,-0.047189339995384216,0.7744244337081909,2.31472110748291
1779910140344153000,5.858153076171875,-0.34773504734039307,0.40286561846733093,2.464993953704834
1779910140360506600,5.874506591796875,-0.503963828086853,0.7677049040794373,2.6418395042419434
1779910140376830200,5.890830322265625,-0.3110831379890442,1.0430524349212646,2.613586902618408
1779910140393171000,5.9071708984375,-0.0003054326225537807,0.9495900273323059,2.4947736263275146
1779910140409497900,5.923497802734375,0.4236350357532501,0.9650143980979919,2.4026856422424316
1779910140425832200,5.939832275390625,1.0070114135742188,1.2006556987762451,2.3887884616851807
1779910140442162000,5.956161865234375,1.4833335876464844,0.8625417351722717,2.568077564239502
1779910140458491400,5.972491455078125,0.9514226317405701,-0.6284276247024536,2.3377811908721924
1779910140474814700,5.988814697265625,0.08368854224681854,-1.7426458597183228,1.6957619190216064
1779910140491143000,6.005142822265625,-0.0907134860754013,-1.0966558456420898,1.763109803199768
1779910140507480800,6.021480712890625,-0.3677408695220947,-0.005803219974040985,1.991573452949524
1779910140523811300,6.037811279296875,-0.688903272151947,0.7541131377220154,2.0393736362457275
1779910140540130600,6.054130615234375,-0.5229006409645081,0.688903272151947,1.8354973793029785
1779910140556473900,6.070473876953125,-0.19135354459285736,0.010231993161141872,1.39323091506958
1779910140572802300,6.08680224609375,-0.12690725922584534,-0.5433646440505981,1.0175487995147705
1779910140589144000,6.10314404296875,-0.22602014243602753,-0.24419337511062622,0.879187822341919
1779910140605470500,6.119470458984375,-0.3504839241504669,0.13469578325748444,0.8767443299293518
1779910140621803500,6.135803466796875,-0.502436637878418,0.27550023794174194,0.9251554012298584
1779910140638134500,6.152134521484375,-0.46822822093963623,0.22999076545238495,0.8904888033866882
1779910140654477000,6.16847705078125,-0.25702154636383057,0.059406645596027374,0.7289149761199951
1779910140670802000,6.184802001953125,-0.13316862285137177,0.19196440279483795,0.5971207618713379
1779910140687130000,6.201130126953125,-0.09972374886274338,0.32971450686454773,0.5505422949790955
1779910140703461600,6.217461669921875,0.02977968007326126,0.3245221674442291,0.4766276180744171
1779910140719799600,6.233799560546875,0.15073099732398987,0.46700647473335266,0.4726569950580597
1779910140736125000,6.250125,0.23426681756973267,0.8090910315513611,0.6708827614784241
1779910140752461000,6.2664609375,0.23579397797584534,0.8216137290000916,0.88987797498703
1779910140785122300,6.299122314453125,0.1514945775270462,-0.30833423137664795,1.0548115968704224
1779910140801447200,6.315447265625,0.4199698567390442,-0.6154467463493347,1.1172724962234497
1779910140817776400,6.3317763671875,0.46593746542930603,-0.44944411516189575,1.2486085891723633
1779910140834123800,6.348123779296875,0.3101668357849121,-0.47968193888664246,1.3839151859283447
1779910140850450700,6.36445068359375,0.05268712714314461,-0.6140722632408142,1.2803735733032227
1779910140866784800,6.38078466796875,-0.24266621470451355,-0.594524621963501,0.8119926452636719
1779910140883113500,6.397113525390625,-0.4118759036064148,-0.22327125072479248,0.20234911143779755
1779910140899449900,6.413449951171875,-0.3358231782913208,-0.011301007121801376,-0.3856086730957031
1779910140915782700,6.42978271484375,-0.17333301901817322,-0.3854559659957886,-1.009149432182312
1779910140932124400,6.44612451171875,-0.017562376335263252,-0.8694139719009399,-1.629024863243103
1779910140948440300,6.4624404296875,0.18188512325286865,-1.1273517608642578,-2.199267625808716
1779910140964790800,6.478790771484375,0.351400226354599,-1.211803913116455,-2.8011226654052734
1779910140981106200,6.495106201171875,0.40256020426750183,-0.9567676782608032,-3.4875824451446533
1779910140997440500,6.5114404296875,0.45784351229667664,-0.29138273000717163,-3.9658899307250977
1779910141013772500,6.5277724609375,0.46868637204170227,0.4893030524253845,-4.037513732910156
1779910141030087200,6.544087158203125,0.5768095254898071,0.9633345007896423,-3.7475056648254395
1779910141046426600,6.560426513671875,0.5140430927276611,0.5195409059524536,-2.743701219558716
1779910141062772200,6.576772216796875,0.09162978827953339,0.9783006906509399,-1.5664112567901611
1779910141079100400,6.593100341796875,-0.5719226002693176,1.233642339706421,-1.1125383377075195
1779910141095433000,6.609432861328125,-0.6834055185317993,0.22327125072479248,-1.527010440826416
1779910141111765200,6.62576513671875,-0.28649580478668213,-0.8440630435943604,-2.3290765285491943
1779910141128094000,6.642093994140625,0.0757472887635231,-1.2260065078735352,-3.1511483192443848
1779910141144428800,6.6584287109375,0.1635591685771942,-1.446223497390747,-3.5880696773529053
1779910141160772900,6.67477294921875,0.1414152979850769,-1.5564846992492676,-3.6890151500701904
1779910141177111300,6.691111328125,0.0010690141934901476,-1.7434093952178955,-3.5051448345184326
1779910141193440000,6.70743994140625,-0.30253100395202637,-1.488220453262329,-3.27408504486084
1779910141209771300,6.723771240234375,-0.537408709526062,-0.7489207983016968,-3.1697797775268555
1779910141226101200,6.740101318359375,-0.5155702829360962,-0.5300782918930054,-2.9807169437408447
1779910141242436400,6.756436279296875,-0.33307427167892456,-0.6571382880210876,-2.886185646057129
1779910141258791400,6.77279150390625,-0.12370020896196365,-0.55695641040802,-2.8261680603027344
1779910141275078400,6.789078369140625,0.038179077208042145,-0.3778201639652252,-2.582432746887207
1779910141291425800,6.80542578125,0.0328340083360672,-0.266642689704895,-2.213164806365967
1779910141307762400,6.821762451171875,-0.03420845419168472,-0.29825496673583984,-1.8319848775863647
1779910141324080600,6.83808056640625,-0.16859880089759827,-0.22250767052173615,-1.2796099185943604
1779910141340449500,6.854449462890625,-0.33658674359321594,-0.24785856902599335,-0.7965682744979858
1779910141356759800,6.870759765625,-0.45814892649650574,-0.3484986126422882,-0.4729624092578888
1779910141373091300,6.88709130859375,-0.6316346526145935,-0.1661553531885147,-0.021532999351620674
1779910141389401000,6.903401123046875,-0.7476990818977356,0.0887281745672226,0.4977024495601654
1779910141405756000,6.919755859375,-0.7883216142654419,0.17409659922122955,0.8764389157295227
1779910141422085400,6.93608544921875,-0.7307475209236145,-0.14676037430763245,0.9750936627388
1779910141438424800,6.9524248046875,-0.837496280670166,-0.47800204157829285,1.0128145217895508
1779910141454740500,6.968740478515625,-1.0731375217437744,-0.6786713004112244,1.0210613012313843
1779910141471071700,6.98507177734375,-1.1530081033706665,-0.44165557622909546,0.5056437253952026
1779910141487386600,7.00138671875,-0.8663596510887146,-0.024587325751781464,-0.2373211532831192
1779910141503735800,7.01773583984375,-0.06582073122262955,-1.3361150026321411,0.8810204267501831
1779910141520067800,7.03406787109375,-0.2194533348083496,-1.1612548828125,1.4552336931228638
1779910141536402400,7.05040234375,-0.035124752670526505,-0.894001305103302,1.91231369972229
1779910141552731600,7.066731689453125,0.005803219974040985,-0.9001099467277527,1.8446602821350098
1779910141569064700,7.083064697265625,-0.6423248052597046,0.5355761051177979,2.303420066833496
1779910141585396000,7.09939599609375,-0.6241515874862671,1.6919440031051636,2.9555187225341797
1779910141601727700,7.115727783203125,-0.24785856902599335,1.849547266960144,2.77531361579895
1779910141618060000,7.13206005859375,-0.09437867999076843,2.1711678504943848,2.5618162155151367
1779910141634376700,7.148376708984375,0.05772676691412926,2.359467029571533,2.5720481872558594
1779910141650714000,7.164714111328125,0.2451096773147583,2.216830015182495,2.646268129348755
1779910141667044400,7.18104443359375,0.3043636083602905,2.193617105484009,2.9411635398864746
1779910141683377200,7.197377197265625,0.33735033869743347,2.2382102012634277,3.290731191635132
1779910141699708700,7.213708740234375,0.4156937897205353,2.4938573837280273,3.48406982421875
1779910141716041500,7.23004150390625,0.6721044778823853,2.6192374229431152,3.483917236328125
1779910141732372200,7.246372314453125,0.8541423082351685,2.7322475910186768,3.2033772468566895
1779910141748721400,7.262721435546875,1.0114401578903198,2.697275400161743,2.8823676109313965
1779910141765047000,7.279047119140625,1.1114692687988281,2.1140518188476562,2.629774808883667
1779910141781381000,7.295381103515625,1.189354658126831,1.0519099235534668,1.8306103944778442
1779910141797713700,7.311713623046875,1.0393872261047363,0.0887281745672226,1.1023063659667969
1779910141814044400,7.32804443359375,0.708450973033905,-0.2588541507720947,1.1607966423034668
1779910141830376200,7.344376220703125,0.27641651034355164,0.10308351367712021,1.5508341789245605
1779910141846727200,7.36072705078125,-0.19746218621730804,0.7840455174446106,1.8949040174484253
1779910141863054800,7.377054931640625,-0.34162637591362,0.8112290501594543,1.9213238954544067
1779910141879387600,7.3933876953125,-0.247094988822937,0.2620611786842346,1.6852245330810547
1779910141895703800,7.409703857421875,-0.28435778617858887,0.08674286305904388,1.5083789825439453
1779910141912037600,7.42603759765625,-0.32131510972976685,0.27840182185173035,1.4874569177627563
1779910141928369400,7.442369384765625,-0.22602014243602753,0.47510045766830444,1.4972307682037354
1779910141944702200,7.4587021484375,-0.16844609379768372,0.6934847831726074,1.5357152223587036
1779910141961036300,7.475036376953125,-0.08704829961061478,0.9650143980979919,1.4764612913131714
1779910141977366300,7.4913662109375,0.060475658625364304,1.1586586236953735,1.3129020929336548
1779910141993698000,7.507697998046875,0.20723603665828705,0.9976956844329834,1.190729022026062
1779910142010030000,7.524030029296875,0.27259862422943115,0.5108360648155212,1.2988522052764893
1779910142026365400,7.540365478515625,0.31810808181762695,-0.204487144947052,1.3770430088043213
1779910142042698200,7.5566982421875,0.5186246037483215,-0.7959573864936829,1.36955988407135
1779910142059017000,7.573016845703125,0.5621487498283386,-0.7548767328262329,1.423621416091919
1779910142075359000,7.58935888671875,0.4992296099662781,0.06475171446800232,1.0793988704681396
1779910142091690200,7.605690185546875,0.532369077205658,0.7872526049613953,0.4075998365879059
1779910142108011800,7.62201171875,0.49495357275009155,0.826500654220581,0.06918048858642578
1779910142124355800,7.63835595703125,0.27290403842926025,0.7478517889976501,0.11056660860776901
1779910142140702200,7.6547021484375,0.03039054572582245,0.8181012868881226,0.12232576310634613
1779910142157028900,7.67102880859375,-0.1569923609495163,0.8426886200904846,0.17012597620487213
1779910142173367000,7.687366943359375,-0.16294831037521362,0.47998735308647156,0.12568552792072296
1779910142189702000,7.703701904296875,-0.30894508957862854,0.3900374472141266,-0.14645494520664215
1779910142206027500,7.720027587890625,-0.5468770861625671,0.4098905920982361,-0.6873761415481567
1779910142222346200,7.73634619140625,-0.8289441466331482,0.2977968156337738,-1.1951578855514526
1779910142238677800,7.752677734375,-1.2725850343704224,0.01542434748262167,-1.8884899616241455
1779910142255004400,7.76900439453125,-1.809230089187622,-0.5673410892486572,-2.2872321605682373
1779910142271362800,7.78536279296875,-1.8377881050109863,-1.4555391073226929,-2.648864507675171
1779910142287696100,7.801696044921875,-1.7244726419448853,-2.1540634632110596,-3.221092462539673
1779910142304038100,7.8180380859375,-1.4379768371582031,-2.1565070152282715,-3.6393823623657227
1779910142320339000,7.8343388671875,-0.7959573864936829,-1.2643383741378784,-3.7501018047332764
1779910142336686300,7.850686279296875,-0.11514809727668762,-0.15577064454555511,-3.9451205730438232
1779910142353016600,7.8670166015625,0.33948835730552673,0.7272350788116455,-4.139680862426758
1779910142369353500,7.883353515625,0.43737950921058655,1.3507757186889648,-4.083786964416504
1779910142385681400,7.899681396484375,0.060933809727430344,0.2993239760398865,-3.322037935256958
1779910142402014700,7.9160146484375,-0.23884831368923187,-1.672243595123291,-2.514779567718506
1779910142418322200,7.932322265625,-0.5697845816612244,-1.44057297706604,-3.2563698291778564
1779910142434686000,7.94868603515625,-1.3727669715881348,-0.8205447196960449,-3.860973834991455
1779910142451008000,7.965008056640625,-1.8710802793502808,-0.6585127115249634,-4.1919097900390625
1779910142467338800,7.9813388671875,-1.7835737466812134,-1.3381003141403198,-4.3786821365356445
1779910142483658800,7.99765869140625,-1.2971723079681396,-2.34480619430542,-4.1135663986206055
1779910142499992600,8.01399267578125,-0.9934195876121521,-2.6032023429870605,-3.3040173053741455
1779910142516325000,8.0303251953125,-0.9361509680747986,-2.7322475910186768,-2.514779567718506
1779910142532658400,8.046658447265624,-0.7310529947280884,-2.576476812362671,-2.4579689502716064
1779910142548974600,8.062974609375,-0.6172793507575989,-2.3883304595947266,-2.68230938911438
1779910142565311500,8.0793115234375,-0.4612032473087311,-1.7759380340576172,-2.2090413570404053
1779910142581643800,8.095643798828124,-0.2252565622329712,-1.0367910861968994,-1.5053247213363647
1779910142597974300,8.111974365234374,-0.24373523890972137,-0.5216789245605469,-0.7338019013404846
1779910142614305500,8.128305419921874,-0.29306259751319885,-0.1293507218360901,-0.0503963828086853
1779910142630641200,8.14464111328125,-0.3280346393585205,0.07910704612731934,0.34804046154022217
1779910142646971000,8.160970947265625,-0.4034765064716339,0.036651913076639175,0.2900082767009735
1779910142663303200,8.17730322265625,-0.5346598029136658,-0.408363401889801,-0.030085112899541855
1779910142679650000,8.193650146484375,-0.793361246585846,-0.8715519905090332,-0.01771509274840355
1779910142695979800,8.209979736328124,-1.0839803218841553,-1.2316570281982422,0.3908010423183441
1779910142712310300,8.226310302734374,-1.153160810470581,-1.386358618736267,0.7414376735687256
1779910142728631800,8.2426318359375,-0.93095862865448,-0.6795876026153564,-0.04398229718208313
1779910142744972800,8.258972900390624,-0.5771149396896362,-0.42638394236564636,-1.166752576828003
1779910142761310700,8.275310791015626,0.3591887652873993,-1.1267409324645996,0.2915354371070862
1779910142777656000,8.291656005859375,0.6159048676490784,-0.8604037165641785,0.584139883518219
1779910142793985000,8.307985107421874,0.5256495475769043,-0.6424775123596191,1.151481032371521
1779910142810335000,8.3243349609375,0.3914119005203247,-0.6305656433105469,1.2716686725616455
1779910142826653200,8.340653076171876,-0.44364088773727417,0.9868528246879578,1.9462167024612427
1779910142842981600,8.356981689453125,-0.40072759985923767,3.1705434322357178,3.011871099472046
1779910142859314400,8.373314453125,0.34208452701568604,3.224604845046997,2.8620564937591553
1779910142875645700,8.389645751953125,0.23671028017997742,2.5506677627563477,2.4749205112457275
1779910142891962000,8.405962158203126,-0.03787364438176155,1.5940529108047485,2.4938573837280273
1779910142908293600,8.422293701171874,0.0377209298312664,0.7446447610855103,2.618168354034424
1779910142924638000,8.438637939453125,0.2945897579193115,0.4758640229701996,2.610685348510742
1779910142940962000,8.454962158203125,0.612850546836853,0.3625485301017761,2.546391725540161
1779910142957292800,8.471292724609375,1.0103710889816284,0.192422553896904,2.4964535236358643
1779910142973624600,8.48762451171875,1.2953397035598755,0.18631389737129211,2.4104743003845215
1779910142989944000,8.503944091796875,1.3573426008224487,0.4086688458919525,2.353663682937622
1779910143006289200,8.5202890625,1.1749993562698364,0.5836817622184753,2.258826971054077
1779910143022621400,8.536621337890624,0.7678576111793518,0.3933972120285034,2.1365013122558594
1779910143038952400,8.552952392578124,0.3813326358795166,0.005345070734620094,1.9214766025543213
1779910143055285800,8.56928564453125,0.12263119965791702,-0.33460143208503723,1.7020232677459717
1779910143071605200,8.585605224609376,-0.04489859566092491,-0.4346306324005127,1.4625641107559204
1779910143087945000,8.601945068359376,-0.11331550031900406,-0.33918291330337524,1.229519009590149
1779910143104284700,8.61828466796875,-0.1310305893421173,-0.017867809161543846,0.9618073105812073
1779910143120616400,8.634616455078126,-0.16554448008537292,0.07177666574716568,0.6998988389968872
1779910143136958000,8.6509580078125,-0.16111570596694946,0.07559457421302795,0.5551238059997559
1779910143153271800,8.667271728515624,-0.1644754707813263,0.20815233886241913,0.5612324476242065
1779910143169611300,8.683611328125,-0.0507018156349659,0.8475755453109741,0.6113234162330627
1779910143185956000,8.6999560546875,0.11881329119205475,1.4039210081100464,0.6812674403190613
1779910143202275800,8.71627587890625,0.3225368559360504,1.4828753471374512,0.7539604306221008
1779910143218593500,8.732593505859375,0.508698046207428,1.3547463417053223,0.8249735236167908
1779910143234938400,8.7489384765625,0.5383250117301941,0.6803511381149292,0.7718282341957092
1779910143251271400,8.765271484375,0.41111230850219727,-0.4631885588169098,0.6600399017333984
1779910143267603200,8.781603271484375,0.42531493306159973,-0.8174903988838196,0.7675521969795227
1779910143283933400,8.797933349609375,0.6108652353286743,-0.5313000679016113,0.8526151776313782
1779910143300283400,8.814283447265625,0.4918992519378662,-0.5700899958610535,0.8176431059837341
1779910143316603000,8.830602783203124,0.11911872029304504,-0.5161811113357544,0.8949176073074341
1779910143332954600,8.84695458984375,-0.30863967537879944,-0.2971859276294708,0.8643743395805359
1779910143349282300,8.8632822265625,-0.6230825781822205,0.34162637591362,0.7194465398788452
1779910143365575000,8.879574951171875,-0.8315402865409851,0.7345654368400574,0.47937649488449097
1779910143381938200,8.895938232421875,-0.7299839854240417,0.6829473376274109,0.038179077208042145
1779910143398296800,8.912296875,-0.36453384160995483,0.3124575614929199,-0.4639521539211273
1779910143414600200,8.92860009765625,0.1316414624452591,-0.304210901260376,-1.2052371501922607
1779910143430939400,8.944939453125,0.6192646622657776,-0.8284859657287598,-2.1708624362945557
1779910143447265800,8.961265869140625,0.9500481486320496,-0.7797694802284241,-3.023324728012085
1779910143463589600,8.977589599609376,1.1299480199813843,-0.24358251690864563,-3.543018341064453
1779910143479906000,8.993906005859374,0.8915578126907349,0.4138612151145935,-3.327993869781494
1779910143496241400,9.010241455078125,0.42760565876960754,1.3002266883850098,-2.774244546890259
1779910143512573000,9.026572998046875,0.07208210229873657,0.6133087277412415,-1.7803667783737183
1779910143528905500,9.042905517578125,-0.19837848842144012,0.058184914290905,-1.3880385160446167
1779910143545239000,9.059239013671874,-0.26771169900894165,0.043676864355802536,-1.856266736984253
1779910143561567000,9.07556689453125,-0.018478672951459885,-0.5167919993400574,-2.3437371253967285
1779910143577901300,9.0919013671875,0.24297164380550385,-0.7693848013877869,-2.725222587585449
1779910143594234400,9.108234375,0.33536502718925476,-1.061989188194275,-3.012329339981079
1779910143610566700,9.124566650390625,0.3810271918773651,-1.016479730606079,-3.1610748767852783
1779910143626897400,9.1408974609375,0.3081815242767334,-0.4815145432949066,-3.1077768802642822
1779910143643230200,9.157230224609375,-0.022907447069883347,-0.10934487730264664,-2.8903088569641113
1779910143659563000,9.17356298828125,-0.31062498688697815,0.024892758578062057,-2.5946500301361084
1779910143675895000,9.18989501953125,-0.45921793580055237,-0.14508049190044403,-2.305405378341675
1779910143692225800,9.206225830078125,-0.5093088746070862,-0.2922990322113037,-2.099696636199951
1779910143708557600,9.2225576171875,-0.44287729263305664,-0.5267185568809509,-2.0028743743896484
1779910143724905700,9.23890576171875,-0.3781255781650543,-0.6985244154930115,-1.780824899673462
1779910143741234700,9.255234619140625,-0.3966042697429657,-0.7376197576522827,-1.3480268716812134
1779910143757565400,9.2715654296875,-0.4766276180744171,-0.873842716217041,-0.816726803779602
1779910143773899000,9.28789892578125,-0.5444336533546448,-0.55069500207901,-0.09911288321018219
1779910143790230000,9.30422998046875,-0.5103778839111328,-0.04001167416572571,0.578489363193512
1779910143806562300,9.320562255859375,-0.35384368896484375,0.17348572611808777,1.1760683059692383
1779910143822874000,9.3368740234375,-0.2099849283695221,0.06704246252775192,1.5351043939590454
1779910143839245600,9.35324560546875,-0.10980302840471268,-0.27122417092323303,1.9993619918823242
1779910143855571700,9.36957177734375,-0.194713294506073,-0.21013765037059784,3.065016269683838
1779910143871904800,9.38590478515625,-0.21441370248794556,1.2128729820251465,2.941774368286133
1779910143888233500,9.4022333984375,0.37171149253845215,1.9504927396774292,1.1892019510269165
1779910143904563200,9.418563232421874,0.9124799370765686,-0.27351492643356323,0.556345522403717
1779910143920889300,9.434889404296875,-0.05925392732024193,0.8309294581413269,2.61603045463562
1779910143937233200,9.451233154296874,-0.36361753940582275,0.34025195240974426,2.578920364379883
1779910143953531600,9.46753173828125,-0.5623014569282532,0.7290676832199097,2.715754270553589
1779910143969886500,9.483886474609376,-0.5248859524726868,1.2623530626296997,2.800359010696411
1779910143986216400,9.500216552734376,-0.4205807149410248,0.927446186542511,2.5419631004333496
1779910144002548700,9.516548828125,-0.05726861581206322,0.736245334148407,2.4274258613586426
1779910144018868000,9.532867919921875,0.5600107312202454,0.8170322775840759,2.5473079681396484
1779910144035202600,9.54920263671875,1.1775954961776733,0.3075706362724304,2.8623619079589844
1779910144051545300,9.56554541015625,0.9778425693511963,-0.9595165848731995,2.219426155090332
1779910144067886300,9.58188623046875,0.10766500234603882,-2.0022635459899902,1.1056660413742065
1779910144084205000,9.598205078125,-0.24129177629947662,-1.1398745775222778,1.2307407855987549
1779910144100542700,9.614542724609375,-0.34086281061172485,0.021380282938480377,1.6934711933135986
1779910144116865000,9.630864990234375,-0.4834998548030853,0.6779077053070068,1.882992148399353
1779910144133217500,9.647217529296874,-0.4980078935623169,0.6884451508522034,1.8078557252883911
1779910144149547000,9.663547119140626,-0.4309654235839844,0.0884227454662323,1.5796974897384644
1779910144165886700,9.67988671875,-0.45723262429237366,-0.2142609804868698,1.3539828062057495
1779910144182200300,9.696200439453126,-0.498924195766449,-0.17302757501602173,1.1520918607711792
1779910144198526700,9.712526611328125,-0.46853363513946533,-0.17547103762626648,1.1158981323242188
1779910144214875100,9.728875244140625,-0.3732386529445648,-0.45524731278419495,1.1989758014678955
1779910144231186000,9.74518603515625,-0.3376557528972626,-0.6484334468841553,1.0965031385421753
1779910144247534600,9.76153466796875,-0.32940909266471863,-0.6505714654922485,0.8287914395332336
1779910144263864000,9.777864013671875,-0.3170390725135803,-0.36560285091400146,0.4960225820541382
1779910144280181000,9.794180908203124,-0.28817567229270935,0.01664607785642147,0.19883663952350616
1779910144296524800,9.81052490234375,-0.20326541364192963,0.24358251690864563,-0.02825251780450344
1779910144312861700,9.82686181640625,-0.08888089656829834,0.2838996350765228,-0.18387043476104736
1779910144329187300,9.843187255859375,0.0656680166721344,0.427452951669693,-0.22602014243602753
1779910144345531600,9.85953173828125,0.17150041460990906,0.6120869517326355,-0.1310305893421173
1779910144361874400,9.87587451171875,0.2768746614456177,0.6944010853767395,0.0832303911447525
1779910144378199600,9.892199462890625,0.44455718994140625,0.36422839760780334,0.313373863697052
1779910144394532600,9.90853271484375,0.5722280144691467,-0.3246748745441437,0.4476115107536316
1779910144410865400,9.924865478515626,0.5574145317077637,-0.36163222789764404,0.660803496837616
1779910144427193900,9.94119384765625,0.44226643443107605,0.10965031385421753,0.9857838153839111
1779910144443518000,9.95751806640625,0.20433442294597626,0.14324790239334106,1.056796908378601
1779910144459846100,9.97384619140625,0.0032070425804704428,-0.12293662875890732,0.8567385077476501
1779910144476176100,9.990176025390625,-0.19456058740615845,-0.3205515444278717,0.5598580241203308
1779910144492515300,10.006515380859375,-0.3121521472930908,-0.2324342280626297,0.07467827945947647
1779910144508844500,10.022844482421876,-0.22510384023189545,0.026114489883184433,-0.560468852519989
1779910144525176300,10.03917626953125,-0.2217440903186798,-0.04260785132646561,-1.0870347023010254
1779910144541507800,10.0555078125,-0.22647829353809357,-0.39553526043891907,-1.485318899154663
1779910144557839400,10.07183935546875,0.2295326143503189,-0.7020368576049805,-2.1337523460388184
1779910144574168600,10.08816845703125,0.5247332453727722,-0.3836233615875244,-2.9746084213256836
1779910144590506800,10.1045068359375,0.6591235995292664,0.2967278063297272,-3.659999132156372
1779910144606835500,10.12083544921875,0.7324274182319641,0.8294022679328918,-3.9961276054382324
1779910144623184600,10.1371845703125,0.7559457421302795,0.7806857824325562,-3.8003454208374023
1779910144639515100,10.15351513671875,0.7735081315040588,0.2863430976867676,-3.1164817810058594
1779910144655845400,10.169845458984375,0.5216789245605469,-0.5242751240730286,-2.1094703674316406
1779910144672178700,10.1861787109375,0.1238529309630394,-0.9086620807647705,-1.7064520120620728
1779910144688487000,10.20248681640625,-0.13820825517177582,0.05467243865132332,-2.035250186920166
1779910144704838100,10.218838134765624,-0.08185594528913498,0.031154127791523933,-2.6673431396484375
1779910144721161000,10.235160888671874,-0.01817324012517929,-0.46471574902534485,-3.012176513671875
1779910144737492000,10.251491943359374,0.021838432177901268,-0.816421389579773,-3.13205885887146
1779910144753825300,10.2678251953125,0.037110064178705215,-0.8515461683273315,-3.261104106903076
1779910144770159900,10.284159912109375,-0.11652254313230515,-0.7130324840545654,-3.363424062728882
1779910144786489900,10.30048974609375,-0.417679101228714,-0.5926920175552368,-3.229491949081421
1779910144802820600,10.316820556640625,-0.5438227653503418,-0.6192646622657776,-2.825251817703247
1779910144819171800,10.333171875,-0.607810914516449,-0.7428121566772461,-2.3299927711486816
1779910144835485400,10.3494853515625,-0.789237916469574,-0.9451612234115601,-1.9659171104431152
1779910144851826000,10.365825927734376,-0.8967501521110535,-0.9447031021118164,-1.5625933408737183
1779910144868165000,10.3821650390625,-1.0125091075897217,-0.8475755453109741,-0.9520334601402283
1779910144884492800,10.398492919921875,-1.0920743942260742,-0.7218900322914124,-0.2557998299598694
1779910144900829700,10.41482958984375,-1.0648908615112305,-0.39935314655303955,0.3969096839427948
1779910144917143600,10.4311435546875,-0.9388998746871948,-0.06276640295982361,0.9100365042686462
1779910144933475600,10.4474755859375,-0.745408296585083,-0.020922135561704636,1.394452691078186
1779910144949812200,10.463812255859375,-0.6017022728919983,-0.022907447069883347,1.7550158500671387
1779910144966144300,10.480144287109376,-0.5850561857223511,-0.17272214591503143,2.2036964893341064
1779910144982476000,10.49647607421875,-0.6846272349357605,0.29275718331336975,3.015536308288574
1779910144998808300,10.512808349609376,-0.722348153591156,1.8898643255233765,2.838843584060669
1779910145015127600,10.52912744140625,-0.4046982228755951,3.227353811264038,1.9741637706756592
1779910145031476000,10.54547607421875,0.6572909951210022,1.2620476484298706,2.060601234436035
1779910145047805400,10.561805419921875,-0.04382958263158798,0.8672759532928467,2.476447820663452
1779910145064136000,10.578135986328125,-0.2577851414680481,0.46364670991897583,2.244166135787964
1779910145080467200,10.59446728515625,-0.38576140999794006,1.0937541723251343,2.261423110961914
1779910145096802800,10.610802734375,-0.16691893339157104,1.5282320976257324,2.266309976577759
1779910145113132800,10.6271328125,0.35292738676071167,2.004096269607544,2.211484909057617
1779910145129450200,10.6434501953125,0.7826710939407349,2.241264581680298,2.331214427947998
1779910145145781500,10.659781494140624,1.2670872211456299,1.703092336654663,2.718961238861084
1779910145162130200,10.676130126953124,1.6093244552612305,1.249066710472107,2.810590982437134
1779910145178449700,10.69244970703125,1.4199562072753906,-0.08781187981367111,1.7507398128509521
1779910145194782500,10.708782470703126,0.8582656979560852,-1.1621711254119873,0.6586654782295227
1779910145211113000,10.725113037109375,0.5448917746543884,-1.035416603088379,0.789237916469574
1779910145227446300,10.7414462890625,0.26221391558647156,-0.3266601860523224,1.2220358848571777
1779910145243778300,10.7577783203125,-0.07712173461914062,0.42791110277175903,1.405295491218567
1779910145260112100,10.774112060546875,-0.2715296149253845,0.8399397134780884,1.3842206001281738
1779910145276454100,10.7904541015625,-0.04230241850018501,0.855516791343689,1.3283264636993408
1779910145292788700,10.806788818359376,0.2675589919090271,0.05467243865132332,1.1913399696350098
1779910145309115400,10.823115478515625,0.2226603776216507,-0.6688974499702454,1.0961977243423462
1779910145325452300,10.839452392578124,0.03390302136540413,-0.5984952449798584,1.124755620956421
1779910145341781500,10.855781494140626,-0.17821992933750153,-0.07162395119667053,1.0803152322769165
1779910145358114800,10.87211474609375,-0.27748554944992065,0.4967861473560333,0.79840087890625
1779910145374447900,10.88844775390625,-0.2874121069908142,0.4108068645000458,0.5900958180427551
1779910145390794800,10.904794677734374,-0.28466320037841797,0.43249258399009705,0.432645320892334
1779910145407127600,10.92112744140625,-0.2860376536846161,0.4709770977497101,0.3599523603916168
1779910145423433700,10.937433837890625,-0.2603813111782074,0.37751471996307373,0.2278527319431305
1779910145439779800,10.95377978515625,-0.2025018334388733,0.3130684494972229,0.013286318629980087
1779910145456106000,10.97010595703125,-0.1589776873588562,0.34926220774650574,-0.051770828664302826
1779910145472437500,10.9864375,-0.08109235763549805,0.235030397772789,-0.018020525574684143
1779910145488775400,11.002775390625,0.020311269909143448,0.1287398487329483,0.16493362188339233
1779910145505103400,11.019103271484376,0.15042556822299957,0.15042556822299957,0.3778201639652252
1779910145521435600,11.035435546875,0.31291571259498596,0.03191770985722542,0.34086281061172485
1779910145537768400,11.0517685546875,0.42668938636779785,-0.08414668589830399,0.251218318939209
1779910145554100200,11.068100341796875,0.45402559638023376,-0.13530665636062622,0.4818199574947357
1779910145570431200,11.08443115234375,0.5114469528198242,-0.07422012835741043,0.9482156038284302
1779910145586763500,11.100763427734375,0.5983424782752991,-0.08429940044879913,1.2098186016082764
1779910145603097300,11.117097412109375,0.6928738951683044,-0.08506298810243607,1.289536476135254
1779910145619444000,11.13344384765625,0.6378960609436035,-0.1791362315416336,1.4662293195724487
1779910145635774500,11.1497744140625,0.3880521357059479,-0.35124751925468445,1.6212363243103027
1779910145652090400,11.16609033203125,0.19379699230194092,-0.1336267739534378,1.6740761995315552
1779910145668437200,11.182437255859375,0.3246748745441437,0.09193521738052368,1.4697418212890625
1779910145684770800,11.198770751953125,0.4616613984107971,-0.18814650177955627,1.0314459800720215
1779910145701098200,11.21509814453125,0.5403103232383728,-0.27091872692108154,0.6113234162330627
1779910145717436000,11.231435791015626,0.6058256030082703,-0.15164729952812195,0.21578814089298248
1779910145733770000,11.24777001953125,0.4628831446170807,-0.09193521738052368,-0.2025018334388733
1779910145750099500,11.264099365234374,0.3020728528499603,-0.031154127791523933,-0.6517932415008545
1779910145766431000,11.280430908203124,0.2428189367055893,0.018478672951459885,-1.1946996450424194
1779910145782736000,11.29673583984375,0.13484850525856018,-0.04932736977934837,-1.7194329500198364
1779910145799096800,11.313096923828125,-0.03527746722102165,-0.13286319375038147,-2.09083890914917
1779910145815428400,11.329428466796875,-0.33536502718925476,-0.13545936346054077,-2.3744332790374756
1779910145831761400,11.345761474609375,-0.6733261942863464,-0.051770828664302826,-2.5923593044281006
1779910145848075000,11.362074951171875,-0.8819366693496704,0.05726861581206322,-2.685210943222046
1779910145864419800,11.378419921875,-0.922711968421936,0.22968533635139465,-2.6558892726898193
1779910145880743200,11.3947431640625,-0.7910705208778381,0.3663664162158966,-2.47873854637146
1779910145897086200,11.411086181640625,-0.485027015209198,0.2762638032436371,-2.2492058277130127
1779910145913405000,11.427405029296875,-0.1999056488275528,-0.14095716178417206,-1.928807020187378
1779910145929736400,11.443736328125,0.004734205547720194,-0.9363036751747131,-1.5425875186920166
1779910145946077000,11.460076904296875,0.22357667982578278,-1.782657504081726,-1.3287845849990845
1779910145962401300,11.4764013671875,0.41630467772483826,-2.456594467163086,-1.4701999425888062
1779910145978735000,11.492735107421876,0.5732970237731934,-2.783560276031494,-2.2773056030273438
1779910145995068200,11.509068115234374,0.5693264007568359,-1.8212947845458984,-3.0741794109344482
1779910146011400700,11.525400634765624,0.34605515003204346,-0.5429064631462097,-3.0747902393341064
1779910146027731500,11.5417314453125,-0.03130684420466423,0.07696902006864548,-2.393064498901367
1779910146044047000,11.558047119140625,-0.3927863538265228,0.251676470041275,-1.817171335220337
1779910146060381000,11.574380859375,-0.6394231915473938,0.28649580478668213,-1.7773123979568481
1779910146076716500,11.590716552734374,-0.6858489513397217,0.14844025671482086,-1.9304869174957275
1779910146093048300,11.60704833984375,-0.6317873597145081,-0.024892758578062057,-1.9462167024612427
1779910146109379000,11.623379150390624,-0.5453499555587769,-0.22449298202991486,-1.6504051685333252
1779910146125714200,11.639714111328125,-0.4486805200576782,-0.25182920694351196,-1.2643383741378784
1779910146142060500,11.656060546875,-0.41599923372268677,-0.15683965384960175,-0.8732318878173828
1779910146158388000,11.672387939453126,-0.4547891616821289,-0.18341228365898132,-0.46761733293533325
1779910146174723000,11.68872314453125,-0.5169447064399719,-0.22143864631652832,-0.01466076634824276
1779910146191051300,11.70505126953125,-0.57436603307724,-0.19883663952350616,0.4407392740249634
1779910146207370800,11.721370849609375,-0.5833762884140015,-0.13836097717285156,0.9166033267974854
1779910146223717400,11.73771728515625,-0.5221370458602905,-0.11560624837875366,1.412473201751709
1779910146240061700,11.754061767578126,-0.46532660722732544,-0.1339322030544281,1.8150333166122437
1779910146256396000,11.77039599609375,-0.43737950921058655,-0.00015271631127689034,1.6934711933135986
1779910146272731600,11.786731689453125,-0.68325275182724,0.5245805382728577,0.31001409888267517
1779910146289059600,11.8030595703125,-1.057865858078003,0.6378960609436035,-1.8028160333633423
1779910146305385000,11.819385009765625,-0.29733866453170776,-2.4277312755584717,-2.8985555171966553
1779910146321733400,11.8357333984375,-0.24236078560352325,-1.8730655908584595,-2.0595321655273438
1779910146338055700,11.8520556640625,-0.5230533480644226,-0.5290092825889587,0.3019201457500458
1779910146354382300,11.86838232421875,-0.289244681596756,0.7719809412956238,1.5810719728469849
1779910146370723800,11.884723876953124,0.626747727394104,1.1388055086135864,2.3944389820098877
1779910146387050200,11.90105029296875,1.1217013597488403,1.4963144063949585,1.6502524614334106
1779910146403368400,11.917368408203124,1.1042916774749756,2.5618162155151367,2.2878429889678955
1779910146419701500,11.933701416015625,1.1154398918151855,3.94771671295166,3.260798692703247
1779910146436037400,11.950037353515626,0.4743368625640869,4.090659141540527,3.025768280029297
1779910146452367000,11.9663671875,0.41828998923301697,2.110692024230957,2.2850942611694336
1779910146468695300,11.9826953125,0.5094616413116455,0.7305948138237,2.1765129566192627
1779910146485037300,11.999037353515625,0.5073235630989075,0.654542088508606,2.1461222171783447
1779910146501362200,12.015362060546876,0.8181012868881226,1.306182622909546,1.807397484779358
1779910146517696500,12.031696533203124,1.0961977243423462,1.5233452320098877,1.4205671548843384
1779910146534028500,12.048028564453125,0.8184067010879517,0.851393461227417,1.2250902652740479
1779910146550359000,12.064359130859375,0.10399980843067169,-0.36560285091400146,1.3845261335372925
1779910146566691800,12.08069189453125,-0.2739730477333069,-0.9934195876121521,1.9062049388885498
1779910146583025000,12.09702490234375,-0.35705074667930603,-0.7475463151931763,2.322967767715454
1779910146599357000,12.11335693359375,-0.5141957998275757,-0.1082758679986,2.228131055831909
1779910146615692500,12.129692626953124,-0.5326744914054871,0.41431936621665955,1.8808541297912598
1779910146632035000,12.14603515625,-0.3602577745914459,0.5064072608947754,1.6670511960983276
1779910146648353800,12.162353759765624,-0.14828753471374512,0.3546072840690613,1.7307339906692505
1779910146664693200,12.178693359375,0.04688390716910362,0.34834590554237366,1.9188804626464844
1779910146681034200,12.1950341796875,0.28206703066825867,0.4254676401615143,2.0230329036712646
1779910146697345800,12.211345703125,0.580016553401947,0.3985895812511444,1.8078557252883911
1779910146713694500,12.227694580078126,0.8051204085350037,0.5010622143745422,1.4969252347946167
1779910146730023700,12.244023681640625,0.9091202020645142,0.645684540271759,1.324813961982727
1779910146746346500,12.260346435546875,0.8527678847312927,0.6960809230804443,1.2597568035125732
1779910146762678300,12.27667822265625,0.71318519115448,1.024726390838623,1.085965633392334
1779910146779010600,12.293010498046876,0.5291619896888733,1.4995214939117432,0.6520986557006836
1779910146795321000,12.309321044921875,0.41233405470848083,1.2495248317718506,0.3292563557624817
1779910146811675000,12.3256748046875,0.3017674386501312,0.6272059082984924,0.32559117674827576
1779910146828005000,12.342005126953126,0.0754418596625328,0.9161451458930969,0.31352660059928894
1779910146844351200,12.358351318359375,-0.03145955875515938,1.264796495437622,0.21441370248794556
1779910146860668700,12.374668701171874,-0.08552113175392151,1.1331549882888794,0.2557998299598694
1779910146877019000,12.391018798828124,-0.1996002197265625,0.8199338912963867,0.21105393767356873
1779910146893332000,12.40733203125,-0.43676865100860596,0.6837109327316284,-0.06551529467105865
1779910146909667600,12.42366748046875,-0.5850561857223511,0.41370847821235657,-0.3969096839427948
1779910146926001000,12.4400009765625,-0.7276932001113892,-0.25702154636383057,-0.8048149347305298
1779910146942331000,12.456330810546875,-1.1450668573379517,-0.6368269920349121,-1.4689781665802002
1779910146958650400,12.472650390625,-1.5512923002243042,-1.0352638959884644,-1.9416351318359375
1779910146974996200,12.488996337890624,-1.617876648902893,-1.7386752367019653,-2.266462802886963
1779910146991328500,12.50532861328125,-1.4575244188308716,-2.006692409515381,-2.9486465454101562
1779910147007645000,12.52164501953125,-1.20859694480896,-1.9538525342941284,-3.5775322914123535
1779910147023979300,12.537979248046875,-0.640644907951355,-1.397048830986023,-3.7290267944335938
1779910147040311600,12.5543115234375,-0.0010690141934901476,-0.47907108068466187,-3.6920695304870605
1779910147056645000,12.57064501953125,0.26282477378845215,0.42531493306159973,-3.7342193126678467
1779910147072977700,12.586977783203125,0.13958270847797394,1.0074695348739624,-3.7450621128082275
1779910147089308000,12.603307861328124,0.01664607785642147,0.6233879923820496,-3.4958291053771973
1779910147105641200,12.61964111328125,0.020005837082862854,-0.4447098970413208,-3.0671544075012207
1779910147121973200,12.63597314453125,-0.21853704750537872,-0.7214318513870239,-3.022866725921631
1779910147138305000,12.652304931640625,-0.7922922372817993,-0.18936823308467865,-3.2203288078308105
1779910147154637300,12.66863720703125,-1.4645494222640991,-0.04260785132646561,-3.5584428310394287
1779910147170973200,12.68497314453125,-1.598023533821106,-0.6656904220581055,-4.1467061042785645
1779910147187314700,12.701314697265625,-1.251968264579773,-1.8926132917404175,-4.50803279876709
1779910147203641300,12.717641357421876,-0.84574294090271,-2.6960537433624268,-4.172056674957275
1779910147219976200,12.73397607421875,-0.589179515838623,-2.937192916870117,-3.3014211654663086
1779910147236309500,12.7503095703125,-0.3546072840690613,-2.9767463207244873,-2.805704116821289
1779910147252643000,12.76664306640625,-0.09269879758358002,-2.5645649433135986,-2.8687758445739746
1779910147268974000,12.78297412109375,0.11942415684461594,-2.0616703033447266,-2.5109615325927734
1779910147285323300,12.7993232421875,0.22143864631652832,-1.1439979076385498,-1.7487545013427734
1779910147301652500,12.815652587890625,0.18081611394882202,-0.5739079117774963,-0.9715811610221863
1779910147317981200,12.831981201171875,-0.016340645030140877,-0.15073099732398987,-0.2658790946006775
1779910147334322200,12.848322265625,-0.26053401827812195,0.05604688450694084,0.30894508957862854
1779910147350645200,12.864645263671875,-0.44455718994140625,-0.12064588814973831,0.6024658679962158
1779910147366980400,12.88098046875,-0.5412266254425049,-0.5873469114303589,0.4801400899887085
1779910147383297000,12.897297119140624,-0.7191411256790161,-1.4095715284347534,0.28588494658470154
1779910147399631400,12.91363134765625,-0.9668469429016113,-1.614822268486023,0.27809640765190125
1779910147415960000,12.9299599609375,-1.1122329235076904,-1.4633276462554932,0.2539672255516052
1779910147432283600,12.94628369140625,-1.089020013809204,-1.120632290840149,0.43279802799224854
1779910147448615400,12.962615478515625,-1.00502610206604,-0.9891435503959656,1.2991576194763184
1779910147464963300,12.97896337890625,-0.9520334601402283,-0.06872233748435974,2.252565622329712
1779910147481291800,12.995291748046874,-0.1391245573759079,2.8179214000701904,0.8991936445236206
1779910147497624300,13.011624267578124,0.1270599663257599,0.4179845452308655,0.04902193695306778
1779910147513956000,13.0279560546875,-0.4317290186882019,-0.5036584138870239,1.1391109228134155
1779910147530287600,13.04428759765625,-0.888350784778595,1.2638801336288452,2.6416866779327393
1779910147546619000,13.060618896484375,-0.5742133259773254,1.193477988243103,2.090686321258545
1779910147562953200,13.076953125,-0.3597996234893799,1.7957911491394043,2.0561723709106445
1779910147579285800,13.09328564453125,0.12308934330940247,2.2959370613098145,2.535243511199951
1779910147595614700,13.10961474609375,0.9515753388404846,2.443002939224243,2.4156665802001953
1779910147611951000,13.125951171875,1.6439911127090454,1.9181169271469116,1.6852245330810547
1779910147628268800,13.142268798828125,1.2044734954833984,0.9801332950592041,1.7957911491394043
1779910147644627200,13.158627197265625,0.5120577812194824,0.6281222105026245,2.3357958793640137
1779910147660962000,13.174962158203124,0.6524040699005127,0.5190827250480652,2.3321306705474854
1779910147677290500,13.19129052734375,0.8003861904144287,0.47540587186813354,2.261423110961914
1779910147693625000,13.207625,0.7666358947753906,0.44135013222694397,2.249969482421875
1779910147709955000,13.223955078125,0.6629415154457092,0.5051855444908142,2.289217472076416
1779910147726292200,13.240292236328125,0.5783366560935974,0.5340489149093628,2.2548563480377197
1779910147742611000,13.25661083984375,0.4415028691291809,0.19135354459285736,2.0816760063171387
1779910147758940000,13.27293994140625,0.1635591685771942,-0.6151412725448608,1.7461583614349365
1779910147775284500,13.289284423828125,-0.018478672951459885,-0.8390234112739563,1.4404202699661255
1779910147791590700,13.305590576171875,0.012217304669320583,-0.4054618179798126,1.387580394744873
1779910147807964000,13.3219638671875,0.0529925599694252,0.11071932315826416,1.354135513305664
1779910147824276700,13.33827685546875,-0.013439035043120384,0.26603180170059204,1.2055425643920898
1779910147840615700,13.35461572265625,-0.17470745742321014,0.42409318685531616,0.998153805732727
1779910147856928800,13.3709287109375,-0.24465152621269226,0.770301103591919,0.9159924387931824
1779910147873257500,13.387257568359376,-0.10797043144702911,1.106735110282898,0.9705121517181396
1779910147889595600,13.403595703125,0.055741455405950546,1.18660569190979,0.9439395070075989
1779910147905928700,13.4199287109375,0.17516560852527618,1.1317806243896484,0.7930558323860168
1779910147922260500,13.436260498046876,0.2793181240558624,1.1099421977996826,0.6105598211288452
1779910147938578700,13.45257861328125,0.3620903789997101,0.9764680862426758,0.4853324294090271
1779910147954911200,13.4689111328125,0.3937026560306549,0.5006040930747986,0.47448956966400146
1779910147971256800,13.4852568359375,0.43737950921058655,-0.16584990918636322,0.5873469114303589
1779910147987585500,13.50158544921875,0.47739118337631226,-0.34544429183006287,0.7351763248443604
1779910148003923500,13.51792333984375,0.44394633173942566,-0.04046982154250145,0.831845760345459
1779910148020234500,13.534234375,0.2565633952617645,0.13240504264831543,0.7771732807159424
1779910148036585200,13.550585205078125,0.0734565481543541,0.03497203439474106,0.5199990272521973
1779910148052917500,13.56691748046875,0.04795292019844055,-0.12492194026708603,0.1644754707813263
1779910148069246200,13.58324609375,-0.17898350954055786,0.18585574626922607,-0.08170322328805923
1779910148085585000,13.5995849609375,-0.3387247920036316,0.4050036668777466,-0.14049901068210602
1779910148101914000,13.6159140625,-0.2542726695537567,-0.023518312722444534,-0.3039054572582245
1779910148118241000,13.632240966796875,0.01618792861700058,-0.5859724879264832,-0.6939429044723511
1779910148134577700,13.64857763671875,0.44180828332901,-0.9346238374710083,-1.2948815822601318
1779910148150919700,13.664919677734375,0.749531626701355,-0.8852964639663696,-2.0334177017211914
1779910148167261700,13.68126171875,0.907898485660553,-0.11850785464048386,-2.727818727493286
1779910148183588600,13.697588623046874,0.8413141369819641,1.0500773191452026,-3.19665789604187
1779910148199918300,13.71391845703125,0.5209153294563293,1.605048418045044,-3.2510247230529785
1779910148216249900,13.730249755859376,0.19593502581119537,1.0291552543640137,-2.6532931327819824
1779910148232575000,13.746574951171874,-0.28420504927635193,0.4521929919719696,-2.2043073177337646
1779910148248913700,13.76291357421875,-0.6331618428230286,0.5195409059524536,-2.104736089706421
1779910148265252600,13.779252685546876,-0.5577199459075928,-0.04902193695306778,-2.196824073791504
1779910148281574100,13.79557421875,-0.4158465266227722,-0.8402451276779175,-2.6010642051696777
1779910148297914600,13.81191455078125,-0.1371392458677292,-1.6131423711776733,-3.0586023330688477
1779910148314223600,13.8282236328125,0.16783522069454193,-1.8661932945251465,-3.402672052383423
1779910148330563800,13.844563720703125,0.285121351480484,-1.5166256427764893,-3.6277759075164795
1779910148346896100,13.860896240234375,0.34025195240974426,-0.6120869517326355,-3.357773542404175
1779910148363228400,13.877228515625,0.27259862422943115,0.15714508295059204,-2.8713719844818115
1779910148379560400,13.893560546875,0.04596760869026184,0.017562376335263252,-2.7684412002563477
1779910148395891500,13.909891357421875,-0.07819075137376785,-0.22831088304519653,-2.8515188694000244
1779910148412225000,13.92622509765625,-0.038026362657547,-0.5855143666267395,-2.811201810836792
1779910148428545500,13.942545654296875,-0.01771509274840355,-0.8042041063308716,-2.5972464084625244
1779910148444887300,13.95888720703125,-0.02519819140434265,-0.790154218673706,-2.088242769241333
1779910148461221600,13.9752216796875,-0.11071932315826416,-0.707534670829773,-1.3632985353469849
1779910148477553200,13.99155322265625,-0.12553280591964722,-0.6586654782295227,-0.6997461318969727
1779910148493888500,14.007888427734375,-0.1950187236070633,-0.16249015927314758,0.004581489134579897
1779910148510216400,14.024216552734375,-0.21899518370628357,0.20295998454093933,0.6597344875335693
1779910148526548700,14.040548828125,-0.22647829353809357,0.2002110779285431,1.2414308786392212
1779910148542886000,14.056885986328124,-0.2971859276294708,0.020616702735424042,1.8286250829696655
1779910148559214300,14.07321435546875,-0.3094032406806946,-0.13836097717285156,2.3015875816345215
1779910148575545600,14.089545654296876,-0.2698497176170349,-0.23976461589336395,2.629316806793213
1779910148591873000,14.105873046875,-0.4677700698375702,0.8527678847312927,2.191326379776001
1779910148608210200,14.122210205078124,-0.580016553401947,1.9737056493759155,1.550986886024475
1779910148624539400,14.138539306640626,-0.21578814089298248,1.5419765710830688,1.879937767982483
1779910148640887000,14.154886962890625,-0.46043968200683594,1.0954340696334839,2.453998327255249
1779910148657193700,14.17119384765625,-0.6505714654922485,0.5603161454200745,2.545628309249878
1779910148673529300,14.187529296875,-0.8092437386512756,1.2785409688949585,2.716059684753418
1779910148689860900,14.20386083984375,-0.7904596328735352,1.3658946752548218,2.8147144317626953
1779910148706190300,14.2201904296875,-0.46670106053352356,1.0589349269866943,2.732858419418335
1779910148722523600,14.236523681640625,0.10781771689653397,1.0664180517196655,2.4689645767211914
1779910148738855400,14.25285546875,0.9373727440834045,0.8828529715538025,2.353511095046997
1779910148755190500,14.2691904296875,1.3127493858337402,0.3245221674442291,2.3041837215423584
1779910148771519200,14.285519287109375,1.2611312866210938,-0.37110063433647156,1.7632625102996826
1779910148787852500,14.3018525390625,1.2104294300079346,-1.1427761316299438,1.2311989068984985
1779910148804195600,14.318195556640624,0.9550877809524536,-1.5001323223114014,1.2137892246246338
1779910148820530400,14.334530517578125,0.5435173511505127,-1.2101240158081055,1.5305228233337402
1779910148836862200,14.3508623046875,0.09514226019382477,-0.7269296646118164,1.7540996074676514
1779910148853192000,14.36719189453125,-0.2292271852493286,-0.08659014850854874,1.8683313131332397
1779910148869511400,14.383511474609374,-0.3188716471195221,0.5464189648628235,1.8280142545700073
1779910148885843200,14.39984326171875,-0.24633140861988068,0.6328563690185547,1.718363881111145
1779910148902188500,14.4161884765625,-0.12446379661560059,0.8252789378166199,1.607797384262085
1779910148918516200,14.43251611328125,-0.09514226019382477,0.4573853611946106,1.4178181886672974
1779910148934854100,14.448854248046874,-0.1667662113904953,-0.09437867999076843,1.1314750909805298
1779910148951172600,14.465172607421875,-0.21441370248794556,-0.4940372705459595,0.8959866166114807
1779910148967517400,14.481517333984375,-0.13744467496871948,-0.3318525552749634,0.7324274182319641
1779910148983848700,14.4978486328125,-0.05696318298578262,0.07208210229873657,0.6624833345413208
1779910149000175600,14.514175537109375,-0.026419922709465027,0.394008070230484,0.6026185750961304
1779910149016516900,14.530516845703126,0.0027488935738801956,0.5732970237731934,0.5132794976234436
1779910149032844300,14.54684423828125,0.1359175145626068,0.6522513628005981,0.45875978469848633
1779910149049168000,14.56316796875,0.285121351480484,0.7095199823379517,0.4395175576210022
1779910149065510400,14.579510498046876,0.3448334336280823,0.889267086982727,0.5134322643280029
1779910149081838800,14.5958388671875,0.26679539680480957,0.9566149711608887,0.7545713186264038
1779910149098177500,14.612177490234375,0.1495092660188675,0.45494189858436584,1.0392345190048218
1779910149114503400,14.62850341796875,0.2997821271419525,-0.1537853181362152,1.2105822563171387
1779910149130840800,14.6448408203125,0.4193589985370636,-0.3159700334072113,1.2365440130233765
1779910149147170800,14.6611708984375,0.2971859276294708,-0.21823160350322723,1.302059292793274
1779910149163513300,14.677513427734375,0.06963863968849182,-0.27351492643356323,1.2496775388717651
1779910149179850000,14.69385009765625,-0.28527405858039856,-0.41752639412879944,0.9560040831565857
1779910149196183000,14.71018310546875,-0.4297437071800232,-0.2981022298336029,0.5149593949317932
1779910149212513000,14.726512939453125,-0.43737950921058655,0.1823432743549347,-0.14446963369846344
1779910149228871200,14.74287109375,-0.5748242139816284,0.6646214127540588,-0.6275113224983215
1779910149245184300,14.759184326171875,-0.4642575979232788,0.3874412775039673,-0.940121591091156
1779910149261476400,14.775476318359376,-0.23396138846874237,-0.44944411516189575,-1.4366023540496826
1779910149277829000,14.7918291015625,0.04092797264456749,-0.9569203853607178,-1.9532415866851807
1779910149294162000,14.808161865234375,0.4285219609737396,-1.2370021343231201,-2.5558602809906006
1779910149310489300,14.8244892578125,0.717613935470581,-1.105513334274292,-3.4410040378570557
1779910149326820900,14.84082080078125,1.0222829580307007,-0.4363104999065399,-4.314388275146484
1779910149343156700,14.85715673828125,1.040150761604309,0.6719517707824707,-4.618141174316406
1779910149359491800,14.873491943359374,0.6348416805267334,1.6545284986495972,-3.9150352478027344
1779910149375821300,14.8898212890625,-0.15974126756191254,1.1533136367797852,-1.9943222999572754
1779910149392144100,14.90614404296875,-0.8112290501594543,0.7137960195541382,-0.950506329536438
1779910149408491000,14.922490966796875,-0.8854491710662842,0.2941316068172455,-1.5848898887634277
1779910149424819200,14.938819091796875,-0.5053382515907288,-0.8718574047088623,-2.5199718475341797
1779910149441149400,14.9551494140625,0.0029016099870204926,-1.576948642730713,-3.321732521057129
1779910149457481700,14.971481689453125,0.06520986557006836,-1.342987298965454,-4.056145191192627
1779910149473813200,14.987813232421875,0.07773260027170181,-1.2356276512145996,-4.0741658210754395
1779910149490137600,15.0041376953125,0.24113905429840088,-0.8587238192558289,-3.604257583618164
1779910149506481200,15.020481201171876,0.17256943881511688,-0.5062545537948608,-3.0867021083831787
1779910149522811100,15.03681103515625,-0.12049316614866257,-0.4411974251270294,-2.648559093475342
1779910149539143000,15.053142822265626,-0.3147483170032501,-0.3651446998119354,-2.392759084701538
1779910149555475200,15.06947509765625,-0.342695415019989,-0.7113525867462158,-2.249664068222046
1779910149571808300,15.085808349609374,-0.28359419107437134,-1.0685560703277588,-2.046704053878784
1779910149588123100,15.102123046875,-0.29275718331336975,-1.0291552543640137,-1.578781247138977
1779910149604458800,15.118458740234376,-0.3465133011341095,-0.9865473508834839,-0.9472993016242981
1779910149620792800,15.134792724609374,-0.33826664090156555,-0.7215845584869385,-0.14492778480052948
1779910149637123800,15.151123779296874,-0.28130343556404114,-0.3830125033855438,0.5056437253952026
1779910149653457200,15.16745703125,-0.28099802136421204,-0.2857322096824646,1.0216721296310425
1779910149669788200,15.1837880859375,-0.37598755955696106,-0.18814650177955627,1.396132469177246
1779910149686119000,15.200118896484375,-0.4709770977497101,-0.12293662875890732,1.9408715963363647
1779910149702466300,15.21646630859375,-0.5853615999221802,0.11224649101495743,2.900693655014038
1779910149718806000,15.232805908203124,-0.4787656366825104,1.4967725276947021,2.9889636039733887
1779910149735127000,15.249126953125,-0.02519819140434265,2.802955150604248,1.9046778678894043
1779910149751460400,15.26546044921875,0.8240572214126587,1.3298536539077759,1.2194397449493408
1779910149767795700,15.281795654296875,0.04505131021142006,1.040150761604309,2.155743360519409
1779910149784131800,15.2981318359375,-0.36331209540367126,0.3523165285587311,2.2577579021453857
1779910149800472600,15.31447265625,-0.6441574096679688,0.6157521605491638,2.546239137649536
1779910149816801000,15.330801025390626,-0.4389066696166992,0.7968736886978149,2.509281635284424
1779910149833109000,15.34710888671875,-0.11713340878486633,0.8245153427124023,2.2931880950927734
1779910149849454800,15.363454833984376,0.28267788887023926,0.9902125597000122,2.182621479034424
1779910149865787000,15.379786865234376,0.869719386100769,1.239292860031128,2.105499744415283
1779910149882129200,15.396129150390625,1.3197743892669678,1.0922271013259888,2.333352565765381
1779910149898440000,15.41243994140625,1.3148874044418335,0.1408044397830963,2.348013401031494
1779910149914783000,15.428782958984375,0.7765624523162842,-1.1956160068511963,1.5627460479736328
1779910149931121700,15.44512158203125,-0.021074850112199783,-1.5987870693206787,1.1488847732543945
1779910149947450600,15.46145068359375,-0.33292156457901,-0.959669291973114,1.338405728340149
1779910149963767000,15.47776708984375,-0.5902485251426697,-0.34376442432403564,1.5789339542388916
1779910149980111400,15.494111328125,-0.578489363193512,-0.025656340643763542,1.5745052099227905
1779910149996443400,15.510443359375,-0.35323283076286316,-0.11957687139511108,1.3116804361343384
1779910150012776200,15.526776123046876,-0.21731531620025635,-0.40714168548583984,1.0749701261520386
1779910150029106200,15.543106201171875,-0.14477506279945374,-0.6864598393440247,0.9419541954994202
1779910150045441800,15.55944189453125,-0.10735956579446793,-0.7849618196487427,0.7672467231750488
1779910150061767200,15.57576708984375,-0.059406645596027374,-0.8837692737579346,0.5329799056053162
1779910150078101800,15.592101806640626,-0.02474004216492176,-1.0844385623931885,0.3344487249851227
1779910150094434800,15.608434814453124,-0.029626963660120964,-0.7231117486953735,0.20494529604911804
1779910150110768600,15.6247685546875,-0.07696902006864548,-0.2643519341945648,0.11560624837875366
1779910150127100400,15.641100341796875,-0.12767083942890167,0.06612616032361984,0.12690725922584534
1779910150143432000,15.657431884765625,-0.01725694350898266,0.4308127164840698,0.1840231567621231
1779910150159763500,15.673763427734375,0.15745051205158234,0.41813725233078003,0.23060162365436554
1779910150176113700,15.69011376953125,0.21212296187877655,0.36453384160995483,0.41951170563697815
1779910150192443100,15.706443115234375,0.22708915174007416,0.29596421122550964,0.7742717266082764
1779910150208754400,15.72275439453125,0.2246456891298294,-0.1186605766415596,1.0421360731124878
1779910150225103000,15.73910302734375,0.22250767052173615,-0.5319108963012695,1.171334147453308
1779910150241431800,15.755431884765626,0.35781431198120117,-0.6404922008514404,1.1789699792861938
1779910150257770500,15.7717705078125,0.38469240069389343,-0.6476698517799377,1.1330022811889648
1779910150274099200,15.78809912109375,0.19486601650714874,-0.7580837607383728,1.076344609260559
1779910150290458600,15.804458740234375,0.016951510682702065,-0.8118399381637573,0.9185886383056641
1779910150306766800,15.820766845703124,-0.12690725922584534,-0.5714644193649292,0.547182559967041
1779910150323083300,15.837083251953125,-0.13988813757896423,-0.21792617440223694,0.03237585723400116
1779910150339418000,15.853418212890626,-0.1618792861700058,-0.05955936014652252,-0.5624541640281677
1779910150355749000,15.8697490234375,-0.028557950630784035,-0.06643159687519073,-1.1870639324188232
1779910150372082400,15.88608251953125,0.25702154636383057,-0.26450464129447937,-1.8898643255233765
1779910150388405000,15.902405029296874,0.5108360648155212,-0.26939156651496887,-2.6025912761688232
1779910150404746200,15.918746337890624,0.6861543655395508,-0.06887505948543549,-3.2397239208221436
1779910150421094000,15.935093994140624,0.7733554244041443,0.38408151268959045,-3.7624716758728027
1779910150437407500,15.951407470703124,0.8058840036392212,1.0033462047576904,-4.0410261154174805
1779910150453741600,15.967741455078125,0.7797694802284241,1.4613423347473145,-3.6636643409729004
1779910150470082300,15.984082275390625,0.4847215712070465,1.4395039081573486,-2.440406560897827
1779910150486406400,16.000406494140623,0.007177666760981083,1.2948815822601318,-1.2877039909362793
1779910150502739500,16.016739501953126,-0.3929390609264374,1.4926491975784302,-1.1239920854568481
1779910150519071200,16.0330712890625,-0.19593502581119537,0.7657195925712585,-1.7276796102523804
1779910150535389200,16.04938916015625,0.1495092660188675,-0.16539175808429718,-2.4225387573242188
1779910150551713000,16.065713134765623,0.37262779474258423,-0.7400632500648499,-2.9301679134368896
1779910150568056600,16.082056640625,0.5479460954666138,-0.9185886383056641,-3.1274774074554443
1779910150584390000,16.098389892578126,0.4769330322742462,-0.8013024926185608,-3.1699323654174805
1779910150600719000,16.114718994140624,0.21991148591041565,-0.5991060733795166,-3.1115949153900146
1779910150617050400,16.13105029296875,-0.08781187981367111,-0.4447098970413208,-2.875495433807373
1779910150633385200,16.14738525390625,-0.27290403842926025,-0.24846944212913513,-2.4969117641448975
1779910150649713000,16.163712890625,-0.4075998365879059,-0.18417587876319885,-2.0731239318847656
1779910150666050800,16.18005078125,-0.47998735308647156,-0.3703370690345764,-1.8457293510437012
1779910150682381600,16.196381591796875,-0.48945578932762146,-0.42562034726142883,-1.6591099500656128
1779910150698714400,16.21271435546875,-0.4911356568336487,-0.3695734739303589,-1.4023939371109009
1779910150715045600,16.229045654296876,-0.5439754724502563,-0.3455969989299774,-1.098488450050354
1779910150731378700,16.245378662109374,-0.6024658679962158,-0.32940909266471863,-0.7819074988365173
1779910150747708400,16.26170849609375,-0.6374378800392151,-0.05497787147760391,-0.3865249752998352
1779910150764043500,16.27804345703125,-0.6064364910125732,0.19593502581119537,0.059406645596027374
1779910150780373500,16.29437353515625,-0.6094908118247986,0.19883663952350616,0.5154175758361816
1779910150796705500,16.31070556640625,-0.7293730974197388,-0.035582900047302246,0.9844093322753906
1779910150813039600,16.32703955078125,-0.854905903339386,-0.27779096364974976,1.4705053567886353
1779910150829361400,16.343361328125,-0.8985827565193176,-0.27611109614372253,1.724930763244629
1779910150845712600,16.359712646484375,-1.0633636713027954,0.15454891324043274,1.5989397764205933
1779910150878398200,16.392398193359377,-0.1872301995754242,1.3182471990585327,2.217288017272949
1779910150894712300,16.40871240234375,-0.02076941914856434,0.5816964507102966,2.2934935092926025
1779910150911044000,16.425044189453125,0.062460970133543015,0.9845620393753052,2.353663682937622
1779910150927372500,16.44137255859375,-0.007635815534740686,2.0781636238098145,2.8186850547790527
1779910150943710000,16.4577099609375,0.07864890247583389,2.23897385597229,2.9434542655944824
1779910150960042000,16.4740419921875,0.3920227587223053,1.8286250829696655,2.705674886703491
1779910150976372000,16.4903720703125,0.7170031070709229,1.3979650735855103,2.531730890274048
1779910150992704800,16.506704833984376,1.1746938228607178,1.1003210544586182,2.392301082611084
1779910151009032200,16.5230322265625,1.3881912231445312,0.7805330753326416,2.3214406967163086
1779910151025388300,16.53938818359375,1.285413146018982,0.22250767052173615,2.124742031097412
1779910151041715700,16.5557158203125,1.0882564783096313,-0.4622722864151001,1.6757560968399048
1779910151058046200,16.572046142578124,0.7548767328262329,-1.096961259841919,1.3480268716812134
1779910151074359000,16.588359130859374,0.2719877362251282,-1.0584768056869507,1.4211779832839966
1779910151090699500,16.604699462890625,-0.17150041460990906,-0.4415028691291809,1.6824755668640137
1779910151107027500,16.62102734375,-0.50335294008255,0.1485929638147354,1.860848307609558
1779910151123361500,16.637361572265625,-0.5148066878318787,0.3738495409488678,1.8646661043167114
1779910151139692800,16.65369287109375,-0.3217732608318329,0.2571742534637451,1.5966490507125854
1779910151156026600,16.670026611328126,-0.14095716178417206,-0.20631973445415497,1.1679743528366089
1779910151172367000,16.6863671875,-0.02977968007326126,-0.2773328125476837,0.8394815921783447
1779910151188692200,16.702692138671875,-0.06719517707824707,-0.26511552929878235,0.7336491346359253
1779910151205036000,16.7190361328125,-0.192422553896904,-0.24037547409534454,0.7539604306221008
1779910151221367800,16.735367919921874,-0.2606867551803589,-0.13500121235847473,0.8002334833145142
1779910151237700400,16.751700439453124,-0.25503623485565186,0.07254024595022202,0.8126034736633301
1779910151254032400,16.768032470703126,-0.22021691501140594,0.1866193264722824,0.7678576111793518
1779910151270366500,16.784366455078125,-0.16920967400074005,0.18707747757434845,0.6604980230331421
1779910151286691800,16.80069189453125,-0.076052725315094,0.09117163717746735,0.5059491395950317
1779910151303015000,16.817014892578126,0.05772676691412926,0.03481931984424591,0.34987306594848633
1779910151319347200,16.83334716796875,0.11759155988693237,0.192422553896904,0.36911532282829285
1779910151335678700,16.8496787109375,0.10980302840471268,0.4764748811721802,0.6003278493881226
1779910151352011300,16.86601123046875,0.10903944820165634,0.5688682794570923,0.8454375267028809
1779910151368343800,16.88234375,0.1488984078168869,0.266184538602829,0.9553932547569275
1779910151384675600,16.898675537109376,0.2617557644844055,-0.1690569519996643,1.0238101482391357
1779910151401022500,16.9150224609375,0.44593164324760437,-0.25534167885780334,1.0827586650848389
1779910151417333800,16.931333740234376,0.41202861070632935,-0.02275473065674305,1.0992519855499268
1779910151433655300,16.9476552734375,0.21899518370628357,-0.00855211354792118,1.1047497987747192
1779910151450002700,16.964002685546873,0.020463986322283745,-0.2704605758190155,1.0441213846206665
1779910151466335500,16.98033544921875,-0.14508049190044403,-0.5748242139816284,0.8272642493247986
1779910151482668800,16.996668701171874,-0.2116648107767105,-0.6739370822906494,0.43768495321273804
1779910151499001300,17.01300146484375,-0.2203696370124817,-0.39843684434890747,-0.1212567538022995
1779910151515332900,17.029332763671874,-0.244804248213768,0.06872233748435974,-0.6528622508049011
1779910151531681800,17.045681884765624,-0.08964447677135468,0.06841690838336945,-1.0783299207687378
1779910151547994400,17.061994384765626,0.17989981174468994,-0.6264423131942749,-1.417970895767212
1779910151564341800,17.078341796875,0.3579670190811157,-1.1705704927444458,-1.8087719678878784
1779910151580657000,17.094656982421874,0.5342016816139221,-1.339932918548584,-2.3272438049316406
1779910151596990000,17.110989990234376,0.5904012322425842,-1.2056952714920044,-2.981633186340332
1779910151613329000,17.127328857421876,0.5929974317550659,-0.560468852519989,-3.578906774520874
1779910151629648000,17.14364794921875,0.5241223573684692,0.3335324227809906,-3.858530282974243
1779910151646001200,17.160001220703126,0.31383201479911804,0.7383833527565002,-3.5475997924804688
1779910151662320600,17.176320556640626,0.10430523753166199,0.19822576642036438,-2.6287059783935547
1779910151678654500,17.192654541015624,-0.0757472887635231,-0.554818332195282,-1.7686076164245605
1779910151695000800,17.209000732421874,-0.206777885556221,-0.4717406928539276,-1.8095356225967407
1779910151711311000,17.22531103515625,-0.290313720703125,-0.4642575979232788,-2.4410176277160645
1779910151727651800,17.24165185546875,-0.21762074530124664,-0.6914994716644287,-3.1138856410980225
1779910151743979500,17.2579794921875,-0.05711590126156807,-0.88987797498703,-3.582113742828369
1779910151760317700,17.274317626953124,0.09743300825357437,-1.5221234560012817,-3.681837558746338
1779910151776647000,17.29064697265625,0.16539175808429718,-1.782352089881897,-3.5135440826416016
1779910151792971500,17.306971435546874,0.10277807712554932,-1.3115277290344238,-3.403282880783081
1779910151809312500,17.3233125,-0.07742717117071152,-0.8604037165641785,-3.3988542556762695
1779910151825644000,17.33964404296875,-0.12171489745378494,-0.6368269920349121,-3.324328660964966
1779910151841973200,17.35597314453125,-0.02672535367310047,-0.4834998548030853,-3.1247284412384033
1779910151858322000,17.372322021484376,0.1062905490398407,-0.44318273663520813,-2.850908041000366
1779910151874627000,17.388626953125,0.21471913158893585,-0.6006332635879517,-2.6954429149627686
1779910151890988000,17.404988037109376,0.2684752643108368,-0.7754934430122375,-2.5557074546813965
1779910151907323400,17.421323486328124,0.23090706765651703,-0.9140071272850037,-2.3574817180633545
1779910151923625700,17.437625732421875,0.12263119965791702,-0.9543242454528809,-1.9619464874267578
1779910151939967500,17.453967529296875,-0.045204028487205505,-0.8619308471679688,-1.4937182664871216
1779910151956302800,17.470302734375,-0.26022860407829285,-0.7583891749382019,-1.0138835906982422
1779910151972633300,17.48663330078125,-0.4544837474822998,-0.6527095437049866,-0.5186246037483215
1779910151988964600,17.502964599609374,-0.6650795340538025,-0.40714168548583984,-0.04612032696604729
1779910152005294000,17.519294189453124,-0.7988590002059937,-0.22449298202991486,0.39446622133255005
1779910152021649200,17.535649169921875,-0.8231409192085266,0.015118914656341076,0.8038986921310425
1779910152037999400,17.551999267578125,-0.6974554061889648,0.20586158335208893,1.0228939056396484
1779910152054310000,17.568309814453126,-0.5813909769058228,0.04993823543190956,1.0574077367782593
1779910152070616300,17.5846162109375,-0.5755877494812012,-0.2828305959701538,0.9663888216018677
1779910152086961700,17.600961669921876,-0.5746715068817139,-0.37079519033432007,0.11743884533643723
1779910152103286800,17.617286865234377,-0.5725334286689758,-0.8243626356124878,-1.0283915996551514
1779910152119625200,17.633625244140624,-0.44089198112487793,-1.3907874822616577,0.3491095006465912
1779910152135955000,17.649954833984374,-0.47082439064979553,-1.1539244651794434,1.3640620708465576
1779910152152283400,17.666283447265624,-0.44135013222694397,-0.7086036801338196,1.7182111740112305
1779910152168605700,17.682605712890624,-0.09422596544027328,-1.1007791757583618,2.0167715549468994
1779910152184937700,17.698937744140625,-0.5774203538894653,-0.2295326143503189,1.975232720375061
1779910152201270800,17.715270751953124,-0.9761626720428467,1.5989397764205933,2.462550401687622
1779910152217603000,17.73160302734375,-0.6843217611312866,1.974927306175232,2.6054930686950684
1779910152233936000,17.747935791015625,-0.5157229900360107,2.431854486465454,2.592970132827759
1779910152250267000,17.764266845703126,-0.3549126982688904,2.724611759185791,2.702773332595825
1779910152266602500,17.7806025390625,-0.19104810059070587,2.6085472106933594,2.797915458679199
1779910152282943000,17.79694287109375,-0.17516560852527618,2.7001771926879883,2.9778153896331787
1779910152299275800,17.81327587890625,-0.16982053220272064,2.7453811168670654,3.2068898677825928
1779910152315607600,17.829607666015626,-0.20891591906547546,2.6332874298095703,3.441614866256714
1779910152331938800,17.845938720703124,0.06123924255371094,2.5416576862335205,3.349679470062256
1779910152348256500,17.862256591796875,0.4518875777721405,2.637868881225586,2.9271135330200195
1779910152364607700,17.878607666015625,0.697760820388794,2.74385404586792,2.5699100494384766
1779910152380951000,17.894950927734374,0.8228355050086975,2.428036689758301,2.529745578765869
1779910152397282000,17.911281982421876,1.2066116333007812,2.15543794631958,2.4752259254455566
1779910152413598200,17.92759814453125,1.4776830673217773,1.514487624168396,2.0706803798675537
1779910152429934300,17.943934326171874,1.0491610765457153,0.10247264802455902,1.337336778640747
1779910152446263300,17.96026318359375,0.4199698567390442,-1.188132882118225,1.0607675313949585
1779910152462597600,17.97659765625,0.12538009881973267,-1.1655309200286865,1.5612188577651978
1779910152478910700,17.99291064453125,-0.26939156651496887,-0.48487427830696106,1.9921842813491821
1779910152495261700,18.00926171875,-0.4977024495601654,-0.07009678333997726,2.143526077270508
1779910152511609900,18.02560986328125,-0.5855143666267395,-0.3878994286060333,2.0566306114196777
1779910152527941600,18.041941650390626,-0.44913867115974426,-0.46929723024368286,1.9185750484466553
1779910152544267800,18.058267822265623,-0.3257438838481903,-0.15760323405265808,1.8652770519256592
1779910152560612600,18.074612548828124,-0.19685132801532745,0.16691893339157104,1.8637498617172241
1779910152576913400,18.090913330078124,0.0003054326225537807,0.679740309715271,1.8052594661712646
1779910152593255000,18.1072548828125,0.25595253705978394,1.2299771308898926,1.5777121782302856
1779910152609587200,18.123587158203126,0.5230533480644226,1.3202325105667114,1.374599575996399
1779910152625918200,18.139918212890624,0.816726803779602,0.8468119502067566,1.432020902633667
1779910152642241000,18.156240966796876,1.059698462486267,0.06276640295982361,1.5054774284362793
1779910152658569700,18.17256982421875,1.0855075120925903,-0.11255192011594772,1.3829989433288574
1779910152674928600,18.1889287109375,0.7562511563301086,0.5664247870445251,1.1675162315368652
1779910152691264000,18.205263916015625,0.4430300295352936,1.091616153717041,0.8219192028045654
1779910152707592400,18.221592529296874,0.18478673696517944,1.0917688608169556,0.42562034726142883
1779910152723923000,18.2379228515625,-0.04596760869026184,0.9804387092590332,0.3065016269683838
1779910152740260400,18.25426025390625,-0.10231992602348328,0.95462965965271,0.28557950258255005
1779910152756572700,18.27057275390625,-0.06490442901849747,0.9766207933425903,0.2817615866661072
1779910152772904400,18.286904541015623,-0.0780380368232727,0.9224064946174622,0.14065171778202057
1779910152789240000,18.303239990234374,-0.2942843437194824,0.7127270102500916,-0.03878994286060333
1779910152805574400,18.319574462890625,-0.3836233615875244,0.1420261710882187,-0.19318613409996033
1779910152821902600,18.335902587890626,-0.6563746929168701,-0.4046982228755951,-0.47540587186813354
1779910152838237000,18.35223681640625,-0.9845620393753052,-0.564592182636261,-1.0123564004898071
1779910152854568700,18.368568603515627,-1.2258538007736206,-0.6012440919876099,-1.654223084449768
1779910152870912800,18.384912841796876,-1.2567025423049927,-0.8694139719009399,-2.351067543029785
1779910152887249000,18.401248779296875,-1.2651019096374512,-1.2443325519561768,-3.071125030517578
1779910152903561200,18.417561279296876,-1.0667234659194946,-1.442100167274475,-3.7166569232940674
1779910152919884800,18.433884765625,-0.7136433124542236,-1.3185526132583618,-4.05660343170166
1779910152936228400,18.450228271484374,-0.29993483424186707,-0.660803496837616,-4.049731254577637
1779910152952562700,18.466562744140624,0.15729780495166779,0.41370847821235657,-4.058435916900635
1779910152968890000,18.48289013671875,0.3194825351238251,1.2820534706115723,-4.064697265625
1779910152985229300,18.499229248046873,0.22586742043495178,1.0516045093536377,-3.72383451461792
1779910153001561300,18.515561279296875,0.247094988822937,0.15653422474861145,-3.174514055252075
1779910153017903900,18.53190380859375,-0.035124752670526505,-0.4917465150356293,-2.807994842529297
1779910153034231600,18.5482314453125,-0.5291619896888733,-0.04444044828414917,-3.3936619758605957
1779910153050570500,18.564570556640625,-1.1523972749710083,-0.27061331272125244,-3.9185478687286377
1779910153066900000,18.58089990234375,-1.4408783912658691,-0.44226643443107605,-4.524373531341553
1779910153083215600,18.597215576171877,-1.2609785795211792,-1.129184365272522,-4.859127521514893
1779910153099535000,18.61353515625,-0.7881689071655273,-2.2652411460876465,-4.547433376312256
1779910153115869700,18.62986962890625,-0.5221370458602905,-2.6729936599731445,-3.595858335494995
1779910153132202200,18.6462021484375,-0.4460843503475189,-2.6720774173736572,-2.705674886703491
1779910153148534300,18.6625341796875,-0.23258693516254425,-2.244166135787964,-2.4072673320770264
1779910153164868000,18.6788681640625,-0.0027488935738801956,-2.294257164001465,-2.3405301570892334
1779910153181199600,18.69519970703125,0.12476922571659088,-1.793500304222107,-1.8064812421798706
1779910153197547000,18.711547119140626,0.14340060949325562,-0.9943358898162842,-1.185231328010559
1779910153213877200,18.727877197265624,-0.07513642311096191,-0.3640756905078888,-0.5329799056053162
1779910153230205700,18.744205810546877,-0.285121351480484,0.01542434748262167,0.004428773187100887
1779910153246539500,18.76053955078125,-0.3136793076992035,0.15515977144241333,0.25564709305763245
1779910153262874400,18.776874267578126,-0.25335636734962463,0.03741549700498581,0.15561792254447937
1779910153279204000,18.7932041015625,-0.35216382145881653,-0.502436637878418,-0.01970040425658226
1779910153295535600,18.80953564453125,-0.5256495475769043,-0.735634446144104,0.026419922709465027
1779910153311869700,18.82586962890625,-0.7360926270484924,-0.6976081132888794,-0.04230241850018501
1779910153328199400,18.842199462890626,-0.9550877809524536,-0.4008803069591522,-0.5372560024261475
1779910153344529400,18.858529296875,-1.0636690855026245,-0.06429356336593628,-1.3675745725631714
1779910153360883700,18.8748837890625,-0.9480628371238708,-0.41951170563697815,-0.774118959903717
1779910153377208000,18.8912080078125,-0.20693060755729675,-1.0319041013717651,0.6794348955154419
1779910153393539300,18.907539306640626,-0.27809640765190125,-0.877966046333313,0.7704538106918335
1779910153409843700,18.92384375,0.05619960278272629,-1.0375546216964722,1.2137892246246338
1779910153426192400,18.9401923828125,-0.34804046154022217,-0.5372560024261475,1.0265589952468872
1779910153442525400,18.956525390625,-0.9515753388404846,1.1394164562225342,1.9285016059875488
1779910153458859500,18.972859619140625,-0.579405665397644,2.364048480987549,2.80539870262146
1779910153475189200,18.989189208984374,-0.2854267954826355,2.104583501815796,2.596940755844116
1779910153491515000,19.005514892578127,-0.33047810196876526,2.0257818698883057,2.431396484375
1779910153507860000,19.02185986328125,-0.33169981837272644,1.6780468225479126,2.5192081928253174
1779910153524183600,19.03818359375,-0.3257438838481903,1.3254249095916748,2.6122124195098877
1779910153540520000,19.05452001953125,-0.1495092660188675,1.1155925989151,2.5613579750061035
1779910153556851000,19.070850830078125,0.2252565622329712,1.1394164562225342,2.439948558807373
1779910153573182000,19.087181884765624,0.7594582438468933,1.1527026891708374,2.2715024948120117
1779910153589501700,19.103501708984375,1.2916746139526367,0.9569203853607178,2.2463042736053467
1779910153605846800,19.1198466796875,1.5334244966506958,0.7689266204833984,2.3935227394104004
1779910153622177800,19.136177734375,1.4341589212417603,0.949895441532135,2.52302622795105
1779910153638493700,19.15249365234375,1.2348641157150269,0.9569203853607178,2.571437358856201
1779910153654842400,19.16884228515625,1.0743592977523804,0.21395555138587952,2.537075996398926
1779910153671172400,19.18517236328125,0.7560984492301941,-0.6850853562355042,2.459038019180298
1779910153687528200,19.201528076171876,0.18555031716823578,-1.3669637441635132,2.3602306842803955
1779910153703843300,19.21784326171875,-0.4178318381309509,-1.4947872161865234,2.221564292907715
1779910153720187600,19.234187744140623,-0.683863639831543,-1.0876455307006836,2.02929425239563
1779910153736505000,19.250505126953126,-0.6336199641227722,-0.7785477638244629,1.8903224468231201
1779910153752831000,19.2668310546875,-0.5099197626113892,-0.7423539757728577,1.8400788307189941
1779910153769166600,19.28316650390625,-0.40775254368782043,-0.4584543704986572,1.7756325006484985
1779910153785500400,19.29950048828125,-0.01970040425658226,-0.1036943718791008,1.5143349170684814
1779910153801827300,19.315827392578125,0.5865833759307861,0.14340060949325562,1.0340421199798584
1779910153818153500,19.332153564453126,0.8489499688148499,0.16065755486488342,0.5618433356285095
1779910153834484000,19.34848388671875,0.6681338548660278,0.10842858254909515,0.06352998316287994
1779910153850833000,19.3648330078125,0.3674354553222656,0.5777258276939392,-0.1033889427781105
1779910153867157200,19.3811572265625,0.35811975598335266,0.9955576062202454,0.08231408894062042
1779910153883496700,19.39749658203125,0.2819143235683441,0.669966459274292,0.2561052441596985
1779910153899823400,19.4138232421875,0.2854267954826355,0.09147707372903824,0.303600013256073
1779910153916157200,19.4301572265625,0.6531676650047302,-0.10445795953273773,0.3378084897994995
1779910153932484600,19.446484619140627,0.6177374720573425,0.2591595947742462,0.45921793580055237
1779910153948820700,19.46282080078125,0.4109596014022827,0.2796235680580139,0.570242702960968
1779910153965155000,19.479155029296876,0.13744467496871948,0.1241583600640297,0.5586362481117249
1779910153981486000,19.495486083984375,-0.16493362188339233,0.2278527319431305,0.5357288122177124
1779910153997834200,19.511834228515625,-0.37369680404663086,0.37400224804878235,0.34865134954452515
1779910154014160100,19.52816015625,-0.4141666293144226,0.2977968156337738,0.13148874044418335
1779910154030496300,19.544496337890624,-0.1814269721508026,-0.3597996234893799,-0.18020524084568024
1779910154046824400,19.560824462890626,0.3501785099506378,-1.2202032804489136,-0.8710938692092896
1779910154063164000,19.577163818359374,0.8432994484901428,-1.58733332157135,-2.0861048698425293
1779910154079458600,19.59345849609375,1.1636983156204224,-1.0525208711624146,-3.467729330062866
1779910154095799000,19.609799072265623,1.2936599254608154,0.07131851464509964,-4.284761428833008
1779910154112131300,19.62613134765625,1.1200214624404907,1.2348641157150269,-4.080885410308838
1779910154128456400,19.64245654296875,0.7458664774894714,1.4715744256973267,-3.324634075164795
1779910154144794400,19.65879443359375,0.5212207436561584,1.5934419631958008,-2.607783794403076
1779910154161127000,19.675126953125,0.2422080636024475,1.2800681591033936,-1.9213238954544067
1779910154177459000,19.691458984375,-0.08857546001672745,0.7171558141708374,-1.582904577255249
1779910154193792300,19.707792236328125,-0.14966198801994324,0.20357084274291992,-1.6293302774429321
1779910154210121700,19.724121826171874,-0.07880161702632904,-0.33628132939338684,-2.0143282413482666
1779910154226454300,19.740454345703125,0.12690725922584534,-0.7932085394859314,-2.63191294670105
1779910154242788400,19.756788330078123,0.33307427167892456,-1.1670581102371216,-3.224452257156372
1779910154259118800,19.773118896484377,0.29107728600502014,-0.6798930168151855,-3.455512046813965
1779910154275466000,19.789466064453126,0.09636399149894714,-0.1368338167667389,-3.2708778381347656
1779910154291802400,19.80580224609375,-0.18127426505088806,0.031001411378383636,-2.83853816986084
1779910154308126200,19.822126220703126,-0.4395175576210022,0.06704246252775192,-2.503478527069092
1779910154324456200,19.838456298828124,-0.5236642360687256,-0.05650503560900688,-2.359314203262329
1779910154340795100,19.854795166015624,-0.4369213581085205,-0.1765400618314743,-2.2540926933288574
1779910154357123600,19.87112353515625,-0.3257438838481903,-0.22602014243602753,-2.0971004962921143
1779910154373471700,19.8874716796875,-0.23839016258716583,-0.28619036078453064,-1.7982345819473267
1779910154389787100,19.903787109375,-0.24297164380550385,-0.3517056703567505,-1.3280210494995117
1779910154406119000,19.920118896484375,-0.3159700334072113,-0.4050036668777466,-0.7299839854240417
1779910154422440000,19.93643994140625,-0.42760565876960754,-0.31520646810531616,-0.13057245314121246
1779910154438785500,19.95278564453125,-0.4512766897678375,-0.02428189292550087,0.3349068760871887
1779910154455116800,19.96911669921875,-0.3727805018424988,0.14385876059532166,0.8158105611801147
1779910154471448300,19.9854482421875,-0.3549126982688904,0.06704246252775192,1.3057245016098022
1779910154487781600,20.00178173828125,-0.4335615932941437,0.03695734590291977,1.6809484958648682
1779910154504099800,20.018099853515626,-0.523511528968811,-0.07956519722938538,2.116037130355835
1779910154520447200,20.034447265625,-0.6719517707824707,-0.010690141469240189,2.8568639755249023
1779910154536788200,20.050788330078124,-0.6872233748435974,1.4648548364639282,2.6836836338043213
1779910154553121800,20.067121826171874,-0.30482175946235657,2.303114652633667,2.082134246826172
1779910154569456400,20.083456298828125,0.6345362663269043,1.081536889076233,2.069000482559204
1779910154585817900,20.09981787109375,-0.06185010448098183,0.4476115107536316,2.5660922527313232
1779910154602108200,20.116108154296874,-0.337044894695282,0.10186178237199783,2.716823101043701
1779910154618440700,20.132440673828125,-0.5166392922401428,0.7970264554023743,2.827542543411255
1779910154634760000,20.148760009765624,-0.37369680404663086,1.1892019510269165,2.654515027999878
1779910154651102200,20.165102294921876,-0.09040805697441101,1.3078625202178955,2.545475482940674
1779910154667434000,20.18143408203125,0.337044894695282,1.568701982498169,2.643977403640747
1779910154683766300,20.197766357421877,0.9242390990257263,1.9746218919754028,2.942996025085449
1779910154700110300,20.2141103515625,1.3704761266708374,1.7634152173995972,3.0754010677337646
1779910154716429800,20.230429931640625,1.007927656173706,0.6565274000167847,2.3877196311950684
1779910154732762600,20.2467626953125,0.5618433356285095,-0.6374378800392151,1.1508700847625732
1779910154749086500,20.26308642578125,0.4072943925857544,-0.8778133392333984,0.8813258409500122
1779910154765427500,20.279427490234376,0.01038470957428217,-0.3156646192073822,1.1618657112121582
1779910154781758200,20.29575830078125,-0.5534439086914062,0.44944411516189575,1.4253013134002686
1779910154798091000,20.312091064453124,-0.7325801253318787,0.5820018649101257,1.4114041328430176
1779910154814416000,20.328415771484377,-0.5572618246078491,0.28557950258255005,1.2614367008209229
1779910154830746000,20.34474609375,-0.24495697021484375,-0.19379699230194092,1.1073459386825562
1779910154847076900,20.361076904296876,-0.26221391558647156,-0.5392413139343262,1.0699304342269897
1779910154863424500,20.377424560546874,-0.37950003147125244,-0.5755877494812012,1.1650726795196533
1779910154879747800,20.393747802734374,-0.5271766781806946,-0.5035057067871094,1.1627819538116455
1779910154896087600,20.410087646484374,-0.5564982295036316,-0.37491855025291443,1.0169379711151123
1779910154912415700,20.426415771484375,-0.3978259861469269,-0.4378376603126526,0.7657195925712585
1779910154928747300,20.442747314453126,-0.21288654208183289,-0.38637226819992065,0.5175555944442749
1779910154945080600,20.45908056640625,-0.04398229718208313,0.05451972410082817,0.2506074607372284
1779910154961408500,20.475408447265625,0.09728029370307922,0.4282165467739105,0.013897184282541275
1779910154977742300,20.491742431640624,0.22113321721553802,0.6073527932167053,-0.13347405195236206
1779910154994076400,20.508076416015626,0.29046642780303955,0.709061861038208,-0.0936150997877121
