time,seconds_elapsed,z,y,x
1780098751102613800,0.06061376953125,0.09521043252348899,-0.3159238522425294,-0.9685301209874451
1780098751112605700,0.070605712890625,-1.6952525963008402,0.280961259932816,-1.079626981689781
1780098751122597600,0.08059765625,-3.177016755700111,0.8041744021758437,-1.3397251940749584
1780098751132589600,0.090589599609375,-3.9672394971519704,1.198223404367268,-1.6305723265975713
1780098751142580700,0.100580810546875,-4.080329285237193,1.4320596327707171,-1.9167681261830032
1780098751152572700,0.11057275390625,-3.566511163327098,1.3859934626445174,-2.065178964626789
1780098751162564900,0.12056494140625,-2.4997300730764866,1.099316747674346,-2.04211212342456
1780098751172556500,0.130556640625,-0.9193775291532278,0.8877394050911068,-1.7732143723815679
1780098751182548700,0.140548828125,0.6908019977569579,0.7639952442616224,-1.4288321951568126
1780098751192540700,0.150540771484375,2.0130214918881655,0.7136950898274779,-1.0502484000574797
1780098751202532900,0.160532958984375,2.8659406357496975,0.7595809349507093,-0.5780382998209447
1780098751212524500,0.170524658203125,3.205425104060769,0.9649836805522441,-0.24946006012335417
1780098751222516700,0.180516845703125,3.171709881463647,1.0923615217089653,-0.2524202981684357
1780098751232508700,0.1905087890625,2.7521599427908656,1.0065729975253344,-0.524525393885374
1780098751242500900,0.2005009765625,2.125800898849964,0.7443149767577648,-0.7881772801641375
1780098751252492500,0.210492431640625,1.5040741908848285,0.5640753139853477,-1.061578991562873
1780098751262484700,0.220484619140625,1.1446779844015835,0.5946674361258745,-1.3513390595011412
1780098751272476700,0.2304765625,1.0115648144632576,0.6381964889898896,-1.5313434522129594
1780098751282467600,0.240467529296875,1.4633552270054817,0.7303285369813441,-2.3328423515692354
1780098751292459800,0.250459716796875,1.5294944633454084,0.35420711340755223,-2.048899153216183
1780098751302451700,0.26045166015625,1.7444155633985996,-0.03841682441681623,-1.652524046164751
1780098751312443600,0.270443603515625,2.0018670606672764,-0.14943068301081658,-1.265745911759138
1780098751322435600,0.280435546875,2.0694360375493766,-0.1961909728810191,-0.7887582218572496
1780098751332427800,0.290427734375,2.033074684357643,-0.16743015782088042,-0.585406198240444
1780098751342419700,0.300419677734375,1.9629531003832816,-0.040760757194459436,-0.5779335242722183
1780098751352411600,0.31041162109375,1.9454285496085881,0.06672229692488908,-0.5271913982242346
1780098751362403600,0.320403564453125,1.8989631510317324,0.06503770483881234,-0.32427915426418186
1780098751372395800,0.330395751953125,1.7778239120036363,-0.01877835022807121,0.006467734709382057
1780098751382387700,0.3403876953125,1.621199518096447,-0.0977460884809494,0.3858266788996756
1780098751392379600,0.350379638671875,1.3961217656880616,-0.22316461226344106,0.6233870423927903
1780098751402371600,0.36037158203125,1.2259510769873856,-0.257234639647603,0.6710249918803572
1780098751412363800,0.37036376953125,1.0236112260878085,-0.321954072317481,0.633509938608855
1780098751422354700,0.380354736328125,0.6449672982990742,-0.46318478999882934,0.6364087287902832
1780098751432346600,0.3903466796875,0.16685878767371176,-0.6408370666265487,0.6136572371475398
1780098751442338800,0.4003388671875,-0.5462392130434512,-0.7924488930687308,0.4868344725903123
1780098751452330500,0.41033056640625,-1.1043845524579285,-0.8015978296861052,0.31521015101522204
1780098751462322700,0.42032275390625,-1.2119096921533346,-0.6467424912780523,0.2105156316358596
1780098751472314600,0.430314697265625,-1.096621517241001,-0.6466083435043692,0.2314312861535698
1780098751482306800,0.440306884765625,-0.8344324700564145,-0.8064066912725567,0.30746143658459185
1780098751492298500,0.450298583984375,-0.38187633383870123,-1.0505459947645663,0.48122459681928154
1780098751502290700,0.460290771484375,0.08453706281781197,-1.4841279659211635,0.743354388097301
1780098751512282600,0.47028271484375,0.33606910690963265,-1.76744747941792,0.9853151785064488
1780098751522274800,0.48027490234375,0.3437380341023207,-1.7534622086852787,0.9013399142898618
1780098751532266500,0.4902666015625,0.18162614869475363,-1.6030255635023116,0.5314427720583975
1780098751542258700,0.5002587890625,-0.10224924511909485,-1.3896470167160033,0.22992424259148536
1780098751552251400,0.51025146484375,-0.5063263048499822,-1.2191662391528486,0.1933176824670285
1780098751562243300,0.520243408203125,-1.0730793136119843,-1.0445619519189,0.13146240705661474
1780098751572235000,0.530235107421875,-1.6916916889488696,-0.8916764522790909,-0.02702770765721798
1780098751582227200,0.540227294921875,-2.2413813347071407,-0.7641404979512095,-0.135434890884161
1780098751592218000,0.550218017578125,-2.683955006092787,-0.6475231202617288,-0.10850465225204825
1780098751602210300,0.560210205078125,-3.081603494080901,-0.5552189305737615,-0.03849858441613614
1780098751612202200,0.5702021484375,-3.255994430825114,-0.28594167869389053,0.006961217314749956
1780098751622194200,0.580194091796875,-2.966976413425803,0.052876434662938114,-0.03923245164863765
1780098751632186000,0.59018603515625,-2.280232751148939,0.22212153295129536,0.035682138755917546
1780098751642178300,0.60017822265625,-1.3074819437265395,0.33720512520223855,0.19102935233414173
1780098751652170200,0.610170166015625,-0.20222060843408107,0.5036266905024648,0.48927989298105234
1780098751662162200,0.620162109375,0.45758360899090766,0.49278001005649563,0.9175318282213062
1780098751672154000,0.630154052734375,0.49579322039782997,0.5383180646553636,1.3334163031890987
1780098751682146300,0.640146240234375,-0.14416881695985792,0.11719576209932565,1.5888392172396182
1780098751692138200,0.65013818359375,-0.5158873293995857,-0.05060965877473354,0.9718538585826754
1780098751702130400,0.66013037109375,-1.0255565149366854,0.058388476082682605,0.3894657660543918
1780098751712122000,0.6701220703125,-1.6434458366960285,0.06607669249773025,-0.044359804599732156
1780098751722114300,0.6801142578125,-1.6419985604971645,0.2248389752164483,-0.25097061081677674
1780098751732106200,0.690106201171875,-1.2102139941513537,0.44580461613088845,-0.13359730019345878
1780098751742098400,0.700098388671875,-0.7619675378262997,0.6340700567096471,0.06538264581896364
1780098751752090000,0.710090087890625,-0.32489304837882516,0.7492506795942783,0.23100056658610701
1780098751762082300,0.720082275390625,0.13819851037859915,0.7124404135912656,0.496318632511422
1780098751772073200,0.7300732421875,0.4452741625159979,0.5826674939915537,0.9673328009616583
1780098751782065200,0.740065185546875,0.6330769540190696,0.49546267326921223,1.4222706446841358
1780098751792057300,0.750057373046875,0.5264630839496851,0.5514192460298538,1.5863117445886135
1780098751802049300,0.76004931640625,0.11839958493113517,0.7108844163209199,1.4530514212645589
1780098751812041200,0.770041259765625,-0.33419512973129745,0.8158353216141462,1.1422482730366288
1780098751822033200,0.780033203125,-0.8032453046321868,0.7823840106502175,0.8809108742453158
1780098751832025300,0.790025390625,-1.3361287770181893,0.6967901322558522,0.6215670604240149
1780098751842017300,0.800017333984375,-1.6250591161340475,0.7130097379118203,0.3620130379181355
1780098751852009200,0.81000927734375,-1.5271932006657123,0.8127274187266826,0.2158258668731898
1780098751862001200,0.820001220703125,-1.095239707493782,0.9399594216719269,0.3816621796313673
1780098751871993300,0.829993408203125,-0.491156792768836,1.1115487449988721,0.6790059076316655
1780098751881985300,0.8399853515625,0.1385626675158739,1.0874044838234782,0.7966968328367918
1780098751891977200,0.849977294921875,0.6098059685468673,0.797114546792209,0.677254168593511
1780098751901969200,0.85996923828125,0.9967471845597028,0.5056538124158978,0.47120844891332087
1780098751911961300,0.86996142578125,1.252625733423233,0.33399726907163857,0.3273422681618482
1780098751921953300,0.879953369140625,1.282372636911273,-0.06714227590262889,0.2628752028178423
1780098751931945200,0.8899453125,1.6358149034261702,-0.27013766810148954,0.24874347281921652
1780098751941937200,0.899937255859375,1.7658757000565528,-0.2696107216179371,0.13538601024113595
1780098751951929300,0.909929443359375,1.6682447623878716,-0.3296048793315887,-0.029504655697382986
1780098751961920300,0.919920166015625,1.6647195108711719,-0.3352729880958795,-0.049634676262736314
1780098751971912200,0.929912109375,1.6907634681880472,-0.31329087339043615,0.05143376157395541
1780098751981904400,0.939904296875,1.6144114653915167,-0.36671412828117605,0.12606332449205218
1780098751991896000,0.94989599609375,1.5514619650036097,-0.39972646330595013,0.163035831852071
1780098752001888300,0.95988818359375,1.4832155272513627,-0.429617159178853,0.1790194367950782
1780098752011880200,0.969880126953125,1.4919921234250069,-0.480988742236793,0.16925068777892738
1780098752021872400,0.979872314453125,1.3745827185750006,-0.5956929797813296,0.2120021803991869
1780098752031864000,0.989864013671875,1.297048227995634,-0.7545493705242872,0.32741569872424003
1780098752041856300,0.999856201171875,2.295503385517001,-0.700884123571217,0.3224163560669869
1780098752051848200,1.00984814453125,2.776249258908629,-0.6303785087153315,0.7821765053793788
1780098752061840400,1.01984033203125,0.9176046742618084,-0.6653729574680328,0.6003488792957737
1780098752071832000,1.02983203125,-0.4311246411323547,-0.36501404636502266,0.15854820157662033
1780098752081824300,1.03982421875,-1.6522990052372217,-0.12207476631253956,0.016793332157004622
1780098752091816200,1.049816162109375,-2.253287461078167,0.2385933598026633,-0.34096246844176203
1780098752101808400,1.059808349609375,-1.7945371463954447,0.6260606455162168,-0.5118753903444856
1780098752111800300,1.06980029296875,-0.5911883618384599,0.891441182218492,-0.17535130620896816
1780098752121792300,1.079792236328125,0.5465495941668749,0.8400199147999287,0.1428211286779493
1780098752131784200,1.0897841796875,1.2398118445575237,0.6042775605142117,0.16495562093351035
1780098752141776400,1.0997763671875,1.4094015184998512,0.19551292748898266,-0.14435268562678247
1780098752151768300,1.109768310546875,0.918084566733241,-0.2962546906545758,-0.64723173609972
1780098752161760300,1.11976025390625,0.2513274614304304,-0.4877259415373206,-1.1308102756340055
1780098752171752200,1.129752197265625,-0.5126216056019067,-0.20088702174276113,-1.5893052273161707
1780098752181744400,1.139744384765625,-1.49012106885612,0.30089199506640435,-1.8526440290577708
1780098752191736300,1.149736328125,-2.2698276769906283,0.7365265148386358,-2.3020297185458243
1780098752201727200,1.159727294921875,-2.80273102312088,1.2929744026854633,-2.597407187974453
1780098752211719200,1.16971923828125,-2.8822090489834546,1.6723492750972508,-2.4580510319933295
1780098752221711000,1.179711181640625,-2.4408652116537093,1.7481661481037736,-2.139909795962274
1780098752231703300,1.189703369140625,-2.116433351045847,1.4685980960950256,-1.8598014995969832
1780098752241695200,1.1996953125,-1.9764415275096892,1.1497457891851663,-1.7295390429146587
1780098752251687200,1.209687255859375,-1.8636340634971855,0.8808107748717069,-1.518393954268843
1780098752261679000,1.21967919921875,-1.7421254066348075,0.2677721080139279,-1.191321442959085
1780098752271671300,1.22967138671875,-1.4114426689386368,-0.20713672978729009,-0.9287817557059228
1780098752281663200,1.239663330078125,-1.2747142311125994,-0.4799954934157431,-0.674602558106184
1780098752291655400,1.249655517578125,-1.3577309524953365,-0.48198871305957436,-0.5345633152317255
1780098752301647000,1.259647216796875,-1.4042559723049401,-0.14942001548632977,-0.410062892674841
1780098752311639300,1.269639404296875,-1.2429974888563156,0.33584158176407214,-0.36376594600006934
1780098752321631200,1.27963134765625,-1.0861848789006472,0.5713344913333654,-0.8782291608806699
1780098752331623400,1.28962353515625,-1.1609370452851056,0.9717525901652871,-0.2977763655302115
1780098752341615000,1.299614990234375,-0.43557109914720055,1.193247661781311,-0.07790436507137492
1780098752351607300,1.309607177734375,0.34177111794352527,1.2227328455932438,-0.06381667514387518
1780098752361599200,1.31959912109375,0.9442746545225381,0.9683224695861339,-0.12163495012316852
1780098752371591400,1.32959130859375,1.2366641941815615,0.6910185631170869,0.6412010776333511
1780098752381583000,1.3395830078125,1.8774691121041773,0.14712313672080635,0.5668447421660646
1780098752391575300,1.3495751953125,2.258926928269863,-0.319013050429523,0.19211250792834908
1780098752401567200,1.359567138671875,2.4319798944085833,-0.7312205173850059,-0.3082705975430086
1780098752411559200,1.36955908203125,2.3653064050614834,-1.090594658166915,-0.785093342674151
1780098752421551000,1.379551025390625,2.036467249405384,-1.3907963328815995,-1.1101067294970155
1780098752431543000,1.38954296875,1.5629454820483921,-1.5730419286489485,-1.1639186914443969
1780098752441535200,1.39953515625,1.0775170037984847,-1.3392057002454996,-0.9393414359040558
1780098752451527200,1.409527099609375,0.49354222660064695,-0.7386258252054453,-0.8257816191542893
1780098752461519400,1.419519287109375,0.0946089594990015,0.021431495085358618,-0.7625923917263746
1780098752471511000,1.429510986328125,0.1431903273165226,0.8074415872782469,-0.5924959007730707
1780098752481503200,1.439503173828125,0.6698346130520105,1.0976520293325185,-0.771530608202517
1780098752491494100,1.449494140625,1.1294202095150947,0.8216904773831367,-0.1654371939053759
1780098752501486300,1.459486328125,2.0287229188889264,0.8700406667932867,0.6859023160818963
1780098752511478300,1.469478271484375,2.8238281716853377,1.0365697841212154,0.4675098135910928
1780098752521470200,1.47947021484375,2.242484912034869,-0.36652006701380013,-0.6224129366636276
1780098752531462100,1.489462158203125,1.8597189358800648,-1.0756043020449577,-1.3295144734449684
1780098752541454300,1.499454345703125,1.5628186407983302,-1.0426152017652988,-1.2629939827024936
1780098752551449300,1.509449462890625,1.3376163852274416,-0.7524575128115714,-1.234808483312279
1780098752561441300,1.519441162109375,1.0071931752502918,-0.3425523314490914,-1.768396450705826
1780098752571433000,1.529432861328125,1.0111199933052062,0.07595408952012658,-2.2931363641247153
1780098752581425200,1.539425048828125,1.9274439801067114,0.36262086761817336,-1.8969873209141195
1780098752591417000,1.5494169921875,3.0411043104320763,0.12385010542199015,-0.490503151165694
1780098752601409300,1.5594091796875,3.733316759508848,-0.0781340639077127,0.9429488858114927
1780098752611401000,1.56940087890625,3.9184927096396684,-0.015429185930639504,1.5704457746759055
1780098752621393200,1.57939306640625,2.7789772225677964,0.3799649472594261,1.8866949133500455
1780098752631385000,1.589385009765625,0.3284960413068533,0.569906796617806,1.7076066125698386
1780098752641377300,1.599377197265625,0.8951379909098148,0.34933234697803855,0.5845773827334866
1780098752651369200,1.609369140625,-0.06691840401887893,-0.20735855584442614,0.718381786338985
1780098752661361200,1.619361083984375,-0.03455751864016056,-0.8362180382989346,1.4026400615409016
1780098752671353000,1.62935302734375,-0.21528350362479687,-0.9866611132226883,1.9652480794526634
1780098752681345300,1.63934521484375,-0.0678220748603344,-0.46643809270635245,3.000070289254188
1780098752691337200,1.649337158203125,-3.10836758236587,-0.13656623300164938,4.574031670835614
1780098752701329200,1.6593291015625,-3.787647484633326,0.40029154984280463,4.346960114261508
1780098752711321000,1.669321044921875,-1.228596623060107,1.7472016869857907,1.4454010526418686
1780098752721313300,1.679313232421875,0.5369073210746049,0.24950536056980488,-0.18667744073495268
1780098752731305200,1.68930517578125,0.8359241699188947,-3.017704437883198,-0.0748093033991754
1780098752741297200,1.699297119140625,0.7335761406004428,-4.128963552285731,0.09227372148446739
1780098752751289000,1.7092890625,0.9489987604349851,-2.823140189421177,-0.7824186435721814
1780098752761281300,1.71928125,-1.0258926150232552,-1.1102718569308518,-1.708705367591977
1780098752771273200,1.729273193359375,-2.965287145164609,-0.14274799037650227,-2.343746022899449
1780098752781265200,1.73926513671875,-3.5257296556055544,-0.40518122158050535,-1.956182583335042
1780098752791257000,1.749257080078125,-2.689160173520446,-0.4824474896777421,-2.1358831707946955
1780098752801249300,1.759249267578125,-1.9493810866266488,-0.2846918978285044,-1.7262819408148526
1780098752811241200,1.7692412109375,-1.9383377145648002,-0.6838966022826731,-0.7942965667620301
1780098752821233200,1.779233154296875,-2.2971347861111164,-0.6778190359346569,-1.7152379842311143
1780098752831225000,1.78922509765625,-2.776031816765666,0.04240198506284505,-1.1046490486130118
1780098752841217300,1.79921728515625,-4.646470299580693,0.9480062422662973,0.5016460380792618
1780098752851209200,1.809209228515625,-7.4445380070656535,1.37098440182209,1.5164841751247644
1780098752861201400,1.819201416015625,-7.481031462204456,0.8054548704404384,0.22371873901486394
1780098752871193000,1.829193115234375,-4.429834212303161,0.3657683353310451,-1.3728142475977538
1780098752881185300,1.839185302734375,-2.713673268008232,0.5595281720750034,-1.1682795170024036
1780098752891176200,1.84917626953125,-2.0321715980380772,0.8041931068763136,0.448173975610733
1780098752901169400,1.85916943359375,-1.1697843686074019,0.9113505823031067,0.5915794069826602
1780098752911160300,1.869160400390625,-0.9366372915118932,0.39234632645938544,0.8541922325372695
1780098752921152000,1.879152099609375,-1.0990022748976944,-0.5205547732213511,1.4939987870723008
1780098752931144200,1.889144287109375,-0.28510815047919746,-0.6073312489964068,1.5157935625120997
1780098752941136100,1.89913623046875,1.4144716613709927,0.09600846016653813,1.608713253749907
1780098752951128300,1.90912841796875,2.1407927162766454,0.8571784818064421,2.6754768083438276
1780098752961120300,1.919120361328125,1.7360943097770214,1.6870960317216812,2.9611709420174357
1780098752971112200,1.9291123046875,1.5876169819682835,2.0525250886283812,1.9285276836901901
1780098752981104000,1.939104248046875,1.8357558764904736,1.4836356523595748,1.3656255051374435
1780098752991096300,1.949096435546875,2.132650910875201,0.7164607551485299,1.0527794529050587
1780098753001088300,1.959088134765625,2.2176012306690214,1.0208348932422697,1.4510913732379673
1780098753011080200,1.969080078125,1.336002520290017,1.7564939775966106,1.800707943984866
1780098753021072100,1.979072021484375,0.48553719932138917,1.92403329488039,1.6240689360529184
1780098753031064300,1.989064208984375,0.339992417833209,1.7231506570518016,1.3988690185695887
1780098753041056300,1.99905615234375,0.4549579366624355,1.5494976791933177,0.8693506387025117
1780098753051048200,2.009048095703125,0.4063853366732597,1.2789147515423596,0.6505541585206985
1780098753061040000,2.0190400390625,0.9813163911938667,1.8005768649511038,0.5567664522767066
1780098753071032300,2.0290322265625,2.4872177975058554,1.7897293077223002,1.5049141488403082
1780098753081024300,2.039024169921875,4.4363767658144235,1.6534814930200576,2.7238164763599633
1780098753091016200,2.04901611328125,6.153572898375987,2.5399381648242474,3.078574501648545
1780098753101008100,2.059008056640625,4.010675318774581,2.0452815472409127,5.899522733983397
1780098753111000300,2.069000244140625,0.18435411235392093,1.1495635644860565,4.9572179182291025
1780098753120992300,2.0789921875,-2.422843817272782,0.31289237559214234,-0.28239070821404455
1780098753130984200,2.088984130859375,-0.2544119834423065,0.2386115530464798,-2.1227619695454836
1780098753140976000,2.09897607421875,1.2449182277858257,-0.8401233751744032,-0.36049043146073817
1780098753150968000,2.108968017578125,2.49134978274405,-0.5339655320016667,1.6646224802374838
1780098753160960300,2.118960205078125,3.113330757731199,0.2126098639687523,1.9936574507266283
1780098753170952200,2.1289521484375,1.508284502056241,-0.043396293329820035,0.964627706721425
1780098753180944100,2.138944091796875,-0.1266284840941429,-0.009964344653487205,0.5585387226462364
1780098753190936000,2.14893603515625,-0.8189291959762572,0.2302335277363658,0.7253975103199481
1780098753200928300,2.15892822265625,-0.8331997133910656,0.4053443762529641,0.934020971533656
1780098753210920200,2.168920166015625,-0.7478115867018699,0.10130816487669944,0.4924538468420505
1780098753220912000,2.178912109375,-0.7670920412331819,-0.19838928664289412,-0.10504209070801734
1780098753230904000,2.188904052734375,-0.601470101878047,-0.379159476095438,-0.04076689467430115
1780098753240896300,2.198896240234375,-0.21285715326070784,0.03119491033926606,0.42444647854268547
1780098753250888200,2.20888818359375,-0.005776829835772514,0.6116344991482794,0.8396013971269131
1780098753260880100,2.218880126953125,-0.2826835536807775,0.07789572510719299,0.023788287344574926
1780098753270872000,2.2288720703125,-0.550603837993741,-0.8774155794754623,-1.355683956837654
1780098753280864300,2.2388642578125,-0.3711293143749237,-0.9772299986630678,-1.9464473712623118
1780098753290856200,2.248856201171875,-1.0413193167358636,-0.8846122129812836,-2.308610119849443
1780098753300848000,2.25884814453125,-1.9054472523540258,-0.5232672105178237,-2.3955244331926107
1780098753310840000,2.268840087890625,-2.8975895734667776,0.029652357072383163,-2.581961197039485
1780098753320832300,2.278832275390625,-4.1109032871991396,0.3129197019904852,-2.747226578041911
1780098753330824200,2.28882421875,-5.628188841834664,-0.1247375557810068,-3.479774544638395
1780098753340816400,2.29881640625,-6.104939508110284,-0.9631596799954771,-4.35555492412746
1780098753350808000,2.30880810546875,-5.59874822781682,-2.1405393260374663,-5.160290175056457
1780098753360800300,2.31880029296875,-4.715983396267891,-2.9974998542442917,-5.702072993212938
1780098753370792200,2.328792236328125,-4.180192512002587,-3.038699295116961,-5.103008783432841
1780098753380784400,2.338784423828125,-4.384036922246217,-2.563199213424325,-4.025989792284369
1780098753390776000,2.348776123046875,-4.8625668731540435,-2.0633742532923818,-2.8818659346342086
1780098753400768300,2.358768310546875,-5.233415032500028,-1.519273951973766,-1.866966422790289
1780098753410760200,2.36876025390625,-5.471462741118669,-0.8107786227464675,-1.0897931325256824
1780098753420752400,2.37875244140625,-5.1663715407967565,-0.5154040759272873,-0.44299978784322736
1780098753430744000,2.388744140625,-4.6089171062558885,-0.5952414366215467,-0.28711627543121576
1780098753440736300,2.398736328125,-3.348139046037197,-0.1358975399598479,-0.3123413175806403
1780098753450728200,2.408728271484375,-1.8381541698038577,-0.20289514669477937,0.07523352016061544
1780098753460720400,2.418720458984375,0.027511107259988784,-0.6276300867900252,0.27409049738049507
1780098753470712000,2.428712158203125,1.4544424372315405,-0.5234245930366218,0.6395242304623127
1780098753480704000,2.4387041015625,2.074600288444757,0.14712781289592383,0.8228232808053493
1780098753490696200,2.4486962890625,2.504578097629547,0.9305096024118363,0.9107759972855448
1780098753500688100,2.458688232421875,3.0118811385571953,1.7867938387922941,1.0627256773799658
1780098753510680300,2.468680419921875,3.6345904278188943,2.6887036619246003,1.302839378617704
1780098753520672000,2.478672119140625,3.5890018120765683,2.6709318583905697,0.472004933053255
1780098753530664200,2.488664306640625,2.887410124757886,2.2032462498411536,-0.9606105800345539
1780098753540656000,2.49865625,2.9655127706140276,2.054908330503106,-1.8748931241363287
1780098753550644700,2.508644775390625,3.5769144839197393,1.6495979295849799,-2.00294141190052
1780098753560636400,2.518636474609375,3.991127737739682,1.5462302018299698,-1.2701321640193461
1780098753570628600,2.528628662109375,4.207054215443134,1.929716308952868,-0.5025710439696908
1780098753580620500,2.53862060546875,4.90938590747416,2.8169866352275013,0.11719488531649112
1780098753590612700,2.54861279296875,3.99045962921977,2.788018607157469,0.968491980934143
1780098753600604400,2.5586044921875,3.5760792021393772,2.313454052749276,1.3544932857483625
1780098753610596600,2.5685966796875,3.55677127507925,2.1545736966088413,1.4596455588325856
1780098753620588500,2.578588623046875,3.3492133972704408,1.8437910066470502,1.9202026306763291
1780098753630580700,2.588580810546875,3.2175632856220004,1.9486004576429723,2.123617125070095
1780098753640572700,2.59857275390625,2.9175030652046203,1.9306942140743135,1.9712375291258095
1780098753650564600,2.608564697265625,2.9644933644384146,1.1271636627599597,1.2358446944922208
1780098753660556500,2.618556640625,1.9155507132172584,-0.09839885330125689,-0.16028817711174487
1780098753670548500,2.628548583984375,1.722592438647151,-0.14702457171715796,-0.2483247724831104
1780098753680540700,2.638540771484375,1.8274930750578642,0.469605945620127,0.35886195347607136
1780098753690532400,2.648532470703125,1.7619757700085639,1.3030837087675928,1.1581640734404324
1780098753700524500,2.658524658203125,2.529984926086664,2.191180841255188,2.21711900011003
1780098753710516500,2.6685166015625,2.7741782978534695,2.300462176968157,3.306266235947609
1780098753720508700,2.6785087890625,2.681267374444008,2.353568328733742,3.9204362449228762
1780098753730500400,2.688500244140625,1.6316086839079855,2.1561285248354074,3.5607881095051765
1780098753740492500,2.698492431640625,-0.5690390738725661,1.1023279852543026,1.7703163128525017
1780098753750484500,2.708484375,-2.6300691021263596,-0.6102686176225542,-1.1136550696283578
1780098753760476700,2.7184765625,-2.8863199914336204,-1.536406726951897,-2.21062905356884
1780098753770468400,2.72846826171875,-1.4381395372062922,-1.3244086747385562,-2.289486317184567
1780098753780460500,2.73846044921875,-0.3216460292816162,-1.0642710071258246,-1.1562240452885626
1780098753790452500,2.748452392578125,0.17760872974693775,-0.9802097451262175,0.2136392435491085
1780098753800444700,2.758444580078125,1.5228659851163624,-0.9461832646228372,1.3348673787802456
1780098753810436600,2.7684365234375,2.9189181926995516,-0.9772577634528279,2.5942373257666826
1780098753820428500,2.778428466796875,3.127020260387659,-1.1855661673679947,3.398601989817619
1780098753830420500,2.78842041015625,2.306006659352779,-1.096003239212185,3.4564708259403703
1780098753840412700,2.79841259765625,0.5775310078859329,-0.5702427505739033,2.894272996264696
1780098753850404600,2.808404541015625,-0.6154758308768272,0.971826678314805,3.1928035228967664
1780098753860396500,2.818396484375,-1.9847277098178862,2.7753011644035577,3.720062141138315
1780098753870388500,2.828388427734375,-4.0081767799571155,2.773160645243525,3.197987647536397
1780098753880380700,2.838380615234375,-4.015202440810203,3.3537495793953536,3.5618139454215765
1780098753890372600,2.84837255859375,-1.2097153969794512,3.702055652065575,3.539199378031492
1780098753900364500,2.858364501953125,0.7105982928559184,3.2735411934316154,2.8829215811669826
1780098753910356500,2.8683564453125,1.6034136860370636,2.2240772948153316,1.9725246463268995
1780098753920348700,2.8783486328125,2.3085481605291367,1.2462542986951768,0.8221949197739362
1780098753930340600,2.888340576171875,1.1390239041626453,0.7015136536464095,-0.5543441935658454
1780098753940332500,2.89833251953125,0.42141997032836076,-0.22824790687710045,-3.454312186601758
1780098753950324500,2.908324462890625,-0.937181335260719,-0.6414926079258322,-5.979517477196454
1780098753960316700,2.918316650390625,-1.6912176416963338,-1.587526965597272,-8.469353932768106
1780098753970308600,2.92830859375,-1.5888929932534694,-2.176632968203723,-10.101372951042652
1780098753980300500,2.938300537109375,-1.0646879173636437,-2.63708102671504,-10.417585264837742
1780098753990292500,2.94829248046875,0.6004974574536085,-2.7240380101561543,-10.259140085244178
1780098754000284700,2.95828466796875,10.072557190924883,-3.1254432203292843,-11.90099543787837
1780098754010276600,2.968276611328125,13.349623051351308,-4.012156789503991,-10.442090760540962
1780098754020268500,2.9782685546875,9.738743753987551,-4.460816502805054,-10.031097053289413
1780098754030260500,2.988260498046875,5.091805252373218,-5.223710800087452,-9.726207513019443
1780098754040252400,2.99825244140625,2.0549054078936577,-5.776355203998088,-9.413262676587701
1780098754050244600,3.00824462890625,2.040542243759334,-2.6905744242325422,-6.825192641279101
1780098754060236500,3.018236572265625,3.9644250242531296,0.9939809347167611,-1.9499176777213811
1780098754070228500,3.028228515625,4.585557273456454,1.7580056973338125,2.054632436171174
1780098754080220400,3.038220458984375,2.6575948224335906,0.2081055748194456,3.0414152760773896
1780098754090212600,3.048212646484375,1.028838020825386,-1.1893576686054468,2.446808045706153
1780098754100204500,3.05820458984375,1.7065706936508416,-1.838431525440514,1.5162661484599114
1780098754110196500,3.068196533203125,3.484138585066795,-1.4830682277351617,1.4088473917484283
1780098754120188400,3.0781884765625,2.734009369072318,-1.7437831107139585,0.9165279849410056
1780098754130180600,3.0881806640625,0.4169745352268219,-1.6140128214627503,-0.8408388299673796
1780098754140172500,3.098172607421875,-3.0953660619735714,-1.5680743693694472,-2.452586629107594
1780098754150164500,3.10816455078125,-6.65398793335557,-1.7686451647698878,-4.443251912280917
1780098754160156400,3.118156494140625,-8.435621174514294,-1.8715888218939303,-5.785231168892979
1780098754170148600,3.128148681640625,-9.312705622339248,-1.9918156222522259,-5.859703349292278
1780098754180140500,3.138140625,-8.530096278500556,-1.4030363673821091,-4.614650681471824
1780098754190132700,3.1481328125,-7.048895598202943,-2.2015248328760264,-3.5098902814388273
1780098754200124400,3.15812451171875,-8.230446976971626,-3.0584505820304155,-3.6160330268651246
1780098754210116600,3.16811669921875,-7.196177578747272,-1.9688129323273895,-2.540693951627612
1780098754220108500,3.178108642578125,-6.650510028111935,-1.2416457819864153,0.11714403191208839
1780098754230100700,3.188100830078125,-5.857700777298212,0.4114735997229814,3.552973636361956
1780098754240092400,3.198092529296875,-3.314020503336191,1.5390654247671365,4.680718021619319
1780098754250084600,3.208084716796875,-2.2285656922757626,2.173174059921503,5.198335535812378
1780098754260076500,3.21807666015625,-3.1636370496451853,3.5121243241012094,8.150311363983153
1780098754270068700,3.22806884765625,-0.21345453463196754,4.982099846029281,11.710834100550413
1780098754280060400,3.238060302734375,2.746568406394124,7.23456196219921,14.911201336699722
1780098754290052600,3.248052490234375,3.8767566776722666,9.05594619898796,15.55592196676135
1780098754300044500,3.25804443359375,3.8065865783810615,7.4315516842424865,13.250949911153315
1780098754310036700,3.26803662109375,3.8786429298102854,4.787750117100775,10.119864885544777
1780098754320028400,3.2780283203125,4.105528608423471,3.0333605644375083,7.605062915542721
1780098754330020600,3.2880205078125,2.492845574259758,2.1874127208933234,6.318132761457562
1780098754340012500,3.298012451171875,1.4656664265573023,3.09680515486598,6.354157430040836
1780098754350004700,3.308004638671875,0.32314357436299324,4.712383325949311,7.199443887066841
1780098754359996700,3.31799658203125,0.7756359976947307,5.952097555351257,8.871927602198719
1780098754369988400,3.32798828125,1.1652239288240671,4.913481652355194,8.221174121713638
1780098754379980500,3.33798046875,0.3058767977416515,2.691293678417802,5.602880797576904
1780098754389972500,3.347972412109375,-0.031290004744194445,2.0208336269438267,4.51144808115065
1780098754399964700,3.357964599609375,-2.630762345087528,0.30403555378913877,0.4816922143310308
1780098754409956400,3.367956298828125,-4.424178378498554,-2.2747832535713908,-4.93170938296318
1780098754419948500,3.377948486328125,-4.297693686789274,-2.4138380885183808,-10.730956802248954
1780098754429940500,3.3879404296875,-4.105366111338139,-0.9470885428994893,-15.743009887993335
1780098754439932700,3.3979326171875,-5.251878909951448,1.6686591884076594,-19.998453163552284
1780098754449924400,3.40792431640625,-6.1322811040222645,3.6528070525109766,-21.253260332667825
1780098754459916500,3.41791650390625,-2.587059981483221,3.8042981751829386,-18.265034794986246
1780098754469908500,3.427908447265625,1.3240350191205739,3.177203802704811,-13.051500520998239
1780098754479900700,3.437900634765625,3.5681530853152275,1.1675637699484824,-9.09055807816386
1780098754489892600,3.447892578125,3.41508667615056,-1.2274714184224604,-7.039550262230634
1780098754499884500,3.457884521484375,3.6667554983645676,-2.102096198135614,-5.8223231744468205
1780098754509876500,3.46787646484375,3.65600847890079,-2.9973247899383306,-4.817180794246495
1780098754519868700,3.47786865234375,3.926177418923378,-2.89288534129858,-3.759836517643928
1780098754529860600,3.487860595703125,2.9798651210933924,-2.6661487157672643,-3.553728546382487
1780098754539853600,3.497853515625,1.9042992513626813,-2.211399453419447,-3.669231825350225
1780098754549845500,3.507845458984375,-0.3009877835910767,-2.691086173146963,-4.369238873825967
1780098754559837400,3.51783740234375,-2.788618911138177,-2.9584172593951226,-4.136187658320367
1780098754569829400,3.527829345703125,-2.012330587014556,-2.714859262922406,-2.5773884822964668
1780098754579821300,3.5378212890625,5.108893165296315,-1.4898755696624517,-1.099042606908083
1780098754589813500,3.5478134765625,11.727405296123028,0.7874538612604141,-0.9001233781069516
1780098754599805400,3.557805419921875,10.258594141799211,1.706221149560809,-1.320476157595217
1780098754609797400,3.56779736328125,5.195277317285537,1.871252137285471,-1.515664383174479
1780098754619789300,3.577789306640625,3.138435972893238,2.02770935793221,-1.631725588285923
1780098754629781500,3.587781494140625,2.5658272238403557,1.6845388945847748,-1.1115668651774524
1780098754639773400,3.5977734375,1.4807973601937292,0.8359586567103863,0.04963935243785381
1780098754649765400,3.607765380859375,2.7284172481536864,0.6015075112789869,1.146730533017218
1780098754659757300,3.61775732421875,3.6846097194850445,0.8471171795845032,2.1863088513046502
1780098754669749500,3.62774951171875,4.906428811234235,3.8509284089326856,2.859332031264901
1780098754679741400,3.637741455078125,3.5050632996737954,7.083174884423613,3.0343191803365945
1780098754689733600,3.647733642578125,2.4772657278120516,8.421662791788577,3.6226091903850435
1780098754699725300,3.657725341796875,0.8632008839011192,9.101134417235851,3.8469337863385675
1780098754709717500,3.667717529296875,-1.4953252133704722,11.424276920306681,4.273763945147395
1780098754719709400,3.67770947265625,-3.4465506126895544,13.549374054801463,4.077102139884233
1780098754729701600,3.68770166015625,-3.8369802553400394,11.68979949582815,0.9607572950288653
1780098754739693300,3.697693359375,-0.037341450270265336,9.684797059744596,-3.743797821512818
1780098754749685500,3.707685546875,-0.1408734286762774,4.409420369827747,-8.21182761669755
1780098754759677400,3.717677490234375,-4.917245973324776,-0.5601648625433444,-9.12760156840086
1780098754769669600,3.727669677734375,-8.935554563456773,-1.8686469232231377,-6.164567755120992
1780098754779661300,3.737661376953125,-10.483785875976086,-1.5790215875804423,-1.8235341082990169
1780098754789653500,3.747653564453125,-8.401182313817738,-0.49291971078813074,2.5143287995323536
1780098754799645400,3.7576455078125,-2.72965029707998,0.5364636689603328,5.924962295666337
1780098754809637600,3.7676376953125,1.953000738428533,0.7955155871629714,7.683921348202228
1780098754819629300,3.77762939453125,0.7527870370268821,-0.4894090723186731,7.1774588497519485
1780098754829621200,3.787621337890625,-2.8879548991590736,-2.6411364395856856,5.117678529298305
1780098754839613400,3.797613525390625,-5.511264005631208,-3.908084128350019,3.1765725190639493
1780098754849605400,3.80760546875,-6.69378569073677,-4.682462819460034,1.557253992408514
1780098754859597600,3.81759765625,-6.886769684270024,-5.392345949783921,0.20108751275092362
1780098754869589200,3.82758935546875,-6.652704907807707,-5.788151440253854,-0.4476087429434061
1780098754879581400,3.83758154296875,-6.427752827605604,-5.885106670618057,-0.19060031326711177
1780098754889573400,3.847573486328125,-6.042259472313523,-5.622848065328598,0.4417641085684299
1780098754899565600,3.857565673828125,-5.813033368054032,-5.41590393550396,0.8039157512396573
1780098754909557200,3.86755712890625,-5.775014310783147,-5.4862458842307325,0.8115542832940816
1780098754919549400,3.877549560546875,-5.4552913585186005,-5.657852743214368,0.6700085083141922
1780098754929541400,3.887541259765625,-4.947167648857832,-5.863502741575241,0.5406891777008772
1780098754939533600,3.897533447265625,-4.2293116399586195,-6.1722641548424955,0.2872685433834791
1780098754949525200,3.907525146484375,-3.5053047072142363,-6.544737285041808,0.05531798259615898
1780098754959517400,3.917517333984375,-2.80300136449486,-6.818925397577882,-0.06190671333670616
1780098754969509400,3.92750927734375,-1.9876582103118299,-6.939564870390296,-0.010789105039834976
1780098754979501600,3.93750146484375,-0.8544491299077868,-6.698251437973976,0.21738018364310263
1780098754989493200,3.9474931640625,1.1950921206042169,-5.821437039262056,0.5880982868686319
1780098754999485400,3.9574853515625,5.238953961926699,-4.013775622877478,0.6091065881058574
1780098755009477400,3.967477294921875,11.230228512412308,-0.7118102989941835,0.25397943724393846
1780098755019469600,3.977469482421875,22.08646355319023,5.6314913905113935,-0.23112258553057907
1780098755029461500,3.98746142578125,24.489849221277236,14.911328762471674,1.6364765822052956
1780098755039453400,3.997453369140625,14.00979493304491,19.41286627498269,2.002874191883206
1780098755049445400,4.0074453125,6.211755038231611,19.086777879339454,0.10350246005058288
1780098755059437600,4.0174375,2.44773655872792,14.90842719581127,-1.1066881532251833
1780098755069429500,4.027429443359375,1.2091574708357453,10.016472315609455,-1.3378867266014218
1780098755079421400,4.03742138671875,1.6708023379161954,4.205520430004596,-1.3068071132048964
1780098755089414400,4.047414306640625,2.0270722290724517,-1.9691016861408948,-0.6071463939487933
1780098755099406600,4.057406494140625,1.6037538777768612,-5.455976418173313,0.5501750911876558
1780098755109398300,4.067398193359375,-1.4374807810366153,-7.201873160040378,1.8338994349688291
1780098755119390500,4.077390380859375,-5.281419477212428,-7.682354829537868,2.665862007780373
1780098755129382400,4.08738232421875,-6.895827435472607,-7.345280929499864,2.681952726359665
1780098755139374600,4.09737451171875,-8.276856845968961,-6.051317223516106,2.594441908428073
1780098755149366300,4.1073662109375,-9.380962581485509,-3.533331947302818,3.4652865850806234
1780098755159358500,4.1173583984375,-5.115796368813514,0.1269727674871683,6.435610555368662
1780098755169350400,4.127350341796875,15.159543644839525,9.18457667055428,13.052157523602247
1780098755179342600,4.137342529296875,6.488183623170852,12.710437843585014,9.277055047765373
1780098755189334300,4.147334228515625,-10.344214908200502,8.649334652343391,4.58144399291873
1780098755199326500,4.157326416015625,-10.139819293814897,4.47562156548798,2.096342749175429
1780098755209318400,4.167318359375,-8.45718769415617,0.7625181574463844,0.4030030007585883
1780098755219310600,4.177310546875,-7.077922955244779,-1.4602835644751786,-0.1733127861186862
1780098755229302500,4.187302490234375,-5.728825391060114,-3.34207170882225,-1.1764040790081023
1780098755239294500,4.19729443359375,-4.630878178173304,-4.643682130166888,-2.013209707936644
1780098755249286400,4.207286376953125,-3.723491531065106,-5.396625819060206,-2.9269428014621135
1780098755259278600,4.217278564453125,-3.274253141093254,-5.497760380935668,-3.425014488185942
1780098755269270500,4.2272705078125,-3.1867405695959925,-4.427589648246765,-2.8186700582697988
1780098755279262500,4.237262451171875,-3.4802395318016406,-2.356446222257614,-2.2390230811432
1780098755289254400,4.24725439453125,-3.944933557319641,-0.010035071802139282,-2.2464280967026946
1780098755299246600,4.25724658203125,-4.5675370481193065,2.2126433160006997,-2.674146436522901
1780098755309238500,4.267238525390625,-5.4711354088604445,3.860278421080112,-3.0481159427598117
1780098755319230200,4.277230224609375,-5.851542254668474,4.592011564162373,-3.403856549344957
1780098755329222400,4.287222412109375,-6.211944423323869,4.103523113819956,-3.3517125206097957
1780098755339214300,4.29721435546875,-6.592583908843994,2.695041632774472,-2.9428669313028455
1780098755349206500,4.30720654296875,-6.169806240296364,1.388103294405341,-2.6840590509891507
1780098755359198200,4.3171982421875,-5.492091687649488,0.3540957619875669,-2.4593235361471772
1780098755369190400,4.3271904296875,-4.9897068139016625,-0.36138299638628957,-1.9252426706701515
1780098755379182300,4.337182373046875,-3.9510722062051293,-1.061339775979519,-1.4705892699122427
1780098755389174500,4.347174560546875,-1.9669430468022822,-1.6390730284392834,-1.052204867887497
1780098755399166500,4.35716650390625,0.8198153311610221,-2.1008289546787737,-0.4161456831872463
1780098755409158400,4.367158447265625,4.474849996593594,-2.303849773579836,0.17571546334624288
1780098755419150300,4.377150390625,8.211814172694087,-2.083519507959485,0.5125014863535762
1780098755429142500,4.387142578125,9.7915798566401,-1.5394833579182623,0.8240843867823481
1780098755439134500,4.397134521484375,8.614105518051982,-1.1086726050406694,1.2384279889836907
1780098755449127400,4.40712744140625,5.9944683780908585,-0.7651917605698109,1.4559610251009463
1780098755459119400,4.417119384765625,3.279672828054428,-0.6494079110950232,0.9770198630437255
1780098755469111600,4.427111572265625,1.0605939260482788,-0.5024146843641996,0.23810616080760955
1780098755479103200,4.437103271484375,-1.0144160391759127,-0.37085225099921226,-0.20779344013035297
1780098755489095400,4.447095458984375,-2.346716855403781,-0.26864333789050576,-0.4247127282634377
1780098755499087400,4.45708740234375,-2.7347090417742725,0.14647709390223027,-0.7110103807881474
1780098755509079600,4.46707958984375,-1.3294184657245873,0.7982996649235486,-1.0253729750633238
1780098755519071200,4.4770712890625,1.2849328427881002,1.1987111878842114,-1.3915838299974799
1780098755529063400,4.4870634765625,3.148836370876431,1.3695453089296816,-1.3500003582432865
1780098755539055400,4.497055419921875,4.026564961823821,1.0492191300749778,-1.017502680079639
1780098755549051100,4.507051025390625,4.347334792792797,0.4384790955483913,-0.813224554593861
1780098755559043000,4.51704296875,4.118158372893929,0.16563538335859773,-0.6620061113834381
1780098755569035000,4.527034912109375,3.500877246160805,0.06367196944355964,-0.8416101066008209
1780098755579027200,4.537027099609375,2.8218331984758374,0.11839490875601767,-1.4067767229542136
1780098755589019100,4.54701904296875,2.141286052751541,0.610187076818943,-2.0185659742727875
1780098755599011000,4.557010986328125,1.7877001399822532,1.454298060324788,-2.741621889902651
1780098755609003000,4.5670029296875,1.717429941317439,2.045922475492954,-3.585860006919503
1780098755618995000,4.576994873046875,1.6310867058604954,2.1317221055924893,-4.186135053794086
1780098755628987100,4.586987060546875,1.445042156201601,2.1401620171576736,-4.560429261940717
1780098755638979000,4.59697900390625,1.1213766037911177,2.3799258820444344,-4.7791097145274275
1780098755648971000,4.606970947265625,0.8078451996430754,2.943382187348604,-4.779111760354041
1780098755658963000,4.616962890625,0.6230642401792109,3.5553064632236957,-5.0160208203315735
1780098755668955100,4.626955078125,1.0224117871701717,4.3000235910415645,-4.9998190425932405
1780098755678947000,4.636947021484375,2.305932132811844,4.818845220327377,-4.181410363359749
1780098755688939000,4.64693896484375,3.896228855383396,4.928947517034411,-3.0362025098651646
1780098755698931000,4.656930908203125,5.0194718375682825,4.972185770258307,-1.8163164320051668
1780098755708924200,4.666924072265625,5.698390505307913,4.659648930105567,-0.3129711399167776
1780098755718915800,4.676915771484375,6.597635347014665,3.8087960711240765,1.2556789835140107
1780098755728908000,4.686907958984375,7.3194661047637455,2.8020944787830113,2.5668551055833695
1780098755738900000,4.69689990234375,7.325359254455566,2.336682952645421,3.312543708781898
1780098755748892200,4.70689208984375,6.47367812795639,2.68747324334681,3.0942087086319923
1780098755758883800,4.7168837890625,5.154974532991647,3.7979356544137,1.5594731297627091
1780098755768876000,4.7268759765625,4.061996925210953,5.178882062801718,-0.6238192963302135
1780098755778868000,4.736867919921875,3.2968203622102736,5.626020850145816,-2.1436720711052417
1780098755788860200,4.746860107421875,2.6942367461323737,5.138428471860289,-2.416224691393971
1780098755798851800,4.756851806640625,0.8854822738140821,4.288761023271084,-2.171512264189124
1780098755808844000,4.766843994140625,-1.9292787943184375,3.3719168119877576,-1.5935978099435566
1780098755818836000,4.7768359375,-4.54518610010147,2.4305939930081366,-0.31769232321977614
1780098755828828200,4.786828125,-6.993600996482372,1.5543863280177115,0.7324453830048442
1780098755838820000,4.796820068359375,-6.965379110604524,0.9793775320857763,2.604253108346462
1780098755848812000,4.80681201171875,-3.0591233667254447,1.1962976970016956,6.123917764824628
1780098755858804000,4.816803955078125,1.227987989642471,2.3945249007612466,9.415244790315628
1780098755868796200,4.826796142578125,2.883071218770742,3.638838732913136,10.54651559613347
1780098755878788000,4.8367880859375,1.7937575403250752,3.7267321204215285,9.586219781136512
1780098755888780000,4.846780029296875,-0.45080154763534663,2.9890865384250875,7.197330840435623
1780098755898772000,4.85677197265625,-2.434212183505297,2.5136276655256746,4.912245973080396
1780098755908764200,4.86676416015625,-3.6552354487016796,1.982496005243063,2.5422370894163846
1780098755918756000,4.876756103515625,-3.5693200832679866,1.0741904897242784,-0.11168430520147085
1780098755928748000,4.886748046875,-4.030428359253705,0.1621907958626747,-1.8642472269594668
1780098755938740000,4.896739990234375,-4.480183466576039,-0.6261854409396648,-2.9656492564752694
1780098755948733200,4.906733154296875,-4.314593675924837,-1.1277321102976798,-3.427963108858466
1780098755958724900,4.916724853515625,-3.975228157818317,-1.4614058465033768,-3.5070509663596745
1780098755968717000,4.926717041015625,-3.325603681363165,-1.6719173134207725,-3.2877269551724195
1780098755978709000,4.936708984375,-2.9589079655215142,-1.701534453049302,-2.3946686931461096
1780098755988701200,4.946701171875,-3.1202009357616305,-1.6763298691660165,-2.103879574421048
1780098755998692900,4.95669287109375,-4.110915854419767,-1.7393699704468248,-1.8458359564781188
1780098756008685000,4.96668505859375,-5.444172583132982,-2.1025228991150855,-1.9011554003790019
1780098756018677000,4.976677001953125,-6.567737052357196,-2.532272160241008,-1.587472312800586
1780098756028669200,4.986669189453125,-6.916134894964099,-3.1632822448581455,-0.8747764631435274
1780098756038661000,4.9966611328125,-6.802840524217486,-3.8638738152235743,-0.3779039230763912
1780098756048653000,5.006653076171875,-6.601611264908313,-4.4161955630511045,0.2705202376782894
1780098756058645000,5.01664501953125,-6.304077348098159,-4.864450202682614,1.0982549636617303
1780098756068637200,5.02663720703125,-5.979857084414363,-5.219986811128258,1.9062799037858842
1780098756078629000,5.036629150390625,-6.059723232811689,-5.69666090503633,2.6255972174093127
1780098756088621000,5.04662109375,-6.22238690688312,-6.386328345805406,2.874541583095491
1780098756098613000,5.056613037109375,-5.457090516895056,-7.035240582337975,2.7257743324294683
1780098756108605200,5.066605224609375,-5.03307249289751,-7.78759273507893,2.3246181285813448
1780098756118597000,5.07659716796875,-4.681893495139479,-8.308774079233407,1.8581477410405873
1780098756128589000,5.086589111328125,-4.172054505993426,-8.405850890150665,1.5291805750906466
1780098756138581000,5.0965810546875,-2.9069293564811347,-7.964613435804844,1.3329378720223903
1780098756148573200,5.1065732421875,-0.8907447243869304,-7.249377838537097,1.1221154394596815
1780098756158565000,5.116565185546875,2.560192725084722,-5.7704170461207624,0.899658390943706
1780098756168558000,5.12655810546875,8.605439981037378,-3.229330295783281,0.38528935715258117
1780098756178550000,5.136550048828125,18.203667010831833,0.9815075298517942,-1.3058888293161988
1780098756188542200,5.146542236328125,25.186056877470016,8.968912643179296,-1.2867752557843923
1780098756198534000,5.156533935546875,18.17480098183155,17.564632609713076,2.8747680853277444
1780098756208526000,5.166526123046875,9.047455434018373,19.9411302708745,2.895876924329996
1780098756218518000,5.17651806640625,5.393998393166065,16.34425962511897,-0.03420680550634861
1780098756228510200,5.18651025390625,3.074096479451656,10.69370171508789,-0.1573530004426837
1780098756238502100,5.196502197265625,1.1812336911216377,7.33549720211029,2.0029200768515465
1780098756248494000,5.206494140625,1.7147326650574803,3.579399870994687,3.1968975142121314
1780098756258486000,5.216486083984375,3.1286694888994098,-1.2409925787746905,3.1266555187284943
1780098756268478200,5.226478271484375,2.2779409869499503,-4.499451938408613,2.9077283979043362
1780098756278470100,5.23647021484375,-1.6905768595747648,-6.196131352642178,2.9903163724809882
1780098756288462000,5.246462158203125,-5.458661711734533,-6.204842482364177,3.265461055089533
1780098756298454000,5.2564541015625,-7.7031579635918135,-4.650592347946763,4.0475785237580535
1780098756308446200,5.2664462890625,-8.107184169918298,-1.4802800583213567,5.868155535817146
1780098756318438100,5.276438232421875,-2.451701078444719,4.100144577297568,9.20891382395327
1780098756328430000,5.28643017578125,5.435899260306358,11.694094562673568,10.118255112260579
1780098756338422000,5.296422119140625,-3.4667148643180727,10.395662186843156,4.614569140668213
1780098756348414000,5.3064140625,-7.485958981734514,3.8701030650019645,1.5187950824156402
1780098756358406100,5.31640625,-6.274371361142396,-0.23522622145712374,0.2858095767468214
1780098756368397800,5.326397705078125,-5.628402776846289,-2.3488135354220865,-0.20138328082710502
1780098756378391000,5.33639111328125,-5.068540112119913,-4.076925029751658,-1.1958821019381285
1780098756388383200,5.34638330078125,-4.461898745083809,-5.413051468682289,-2.7278838719293472
1780098756398375000,5.356375,-3.8073473336204886,-6.297723010635376,-4.219769904631376
1780098756408367000,5.3663671875,-3.4451460065886375,-6.437535970473289,-5.429336248528957
1780098756418359000,5.376359130859375,-3.6140693255767222,-5.077881940960884,-5.435474897414445
1780098756428351200,5.386351318359375,-4.345187259370088,-2.3167373122036454,-4.359823395226895
1780098756438343200,5.39634326171875,-5.174212317425012,0.5547147804439068,-3.550142796850204
1780098756448335000,5.406335205078125,-6.000373218220472,3.3512563012748955,-3.084166038045287
1780098756458327000,5.4163271484375,-7.170263385289907,5.500799310240149,-3.1272464703589677
1780098756468319000,5.426319091796875,-8.11016756964326,5.815452704155445,-3.1824794050201772
1780098756478311200,5.436311279296875,-7.7125863016724585,4.287132545286417,-3.5725822999343273
1780098756488302800,5.446302734375,-6.410526382994651,2.2956828337371347,-3.761659641417861
1780098756498295000,5.456294921875,-5.32742602610588,1.0528975263267755,-3.372378292019665
1780098756508287000,5.466286865234375,-4.568482804536819,-0.1385316878557205,-2.968194264782965
1780098756518279200,5.476279052734375,-4.500910905045271,-1.338729314905405,-2.735624695314467
1780098756528270800,5.486270751953125,-4.050555493742228,-2.1261264775425195,-2.567520583754778
1780098756538263000,5.496262939453125,-2.5665795035123824,-1.7634651317834853,-1.6883131524264812
1780098756548255000,5.5062548828125,-0.9364403076350688,-1.1699644013494253,-0.86821608171463
1780098756558243800,5.516243896484375,0.04144026389122009,-1.7687842809796332,-1.2757324682444333
1780098756568235800,5.52623583984375,0.5054465994060039,-2.3792004903793336,-1.457575182299316
1780098756578228700,5.536228759765625,2.4104794257402418,-2.5249638830542565,-0.8612146785199641
1780098756588221000,5.546220947265625,6.634669484901428,-1.5862456936150788,1.3244687343627213
1780098756598212600,5.556212646484375,10.369467422878742,0.12816343857645987,3.4376991977140303
1780098756608204800,5.566204833984375,10.558926164895295,1.2555787380099295,4.048894282531738
1780098756618196700,5.57619677734375,7.342168934959172,1.411031750050187,3.529615557128191
1780098756628189000,5.58618896484375,3.2120033134073016,1.0805068332642316,2.415365736477077
1780098756638180600,5.5961806640625,1.081180640872568,1.1937597029566764,1.7684566564604638
1780098756648172800,5.6061728515625,1.1263258967615664,1.571687006908655,1.437360077266395
1780098756658164700,5.616164794921875,1.865421531435847,1.4050216959804296,0.4490805690616369
1780098756668157000,5.626156982421875,2.212666112354398,0.879100463822484,-0.6114551970586181
1780098756678148900,5.63614892578125,2.017864401874691,0.42418811986744404,-1.3023062946543096
1780098756688140800,5.646140869140625,1.6883623983956872,0.26279636542797086,-1.7792974916875361
1780098756698132700,5.6561328125,1.4805226349055767,0.28352351163625716,-2.2716364799782633
1780098756708125000,5.666125,1.5075743079602717,0.4360995069354772,-2.715473595428467
1780098756718116900,5.676116943359375,1.6254849403306841,0.5495809246867894,-3.194904586829245
1780098756728108800,5.68610888671875,1.7455667792603373,0.6977759284228086,-3.5249142475694417
1780098756738100700,5.696100830078125,1.832846857175976,0.9499082764953374,-3.658360302723944
1780098756748093000,5.706093017578125,1.928565385352075,1.1950000584065914,-3.790658649148047
1780098756758084900,5.7160849609375,2.0186422543793916,1.252856619569659,-3.8505186590880154
1780098756768077800,5.726077880859375,2.0749382882274685,1.1418915685534476,-3.5909397944018244
1780098756778069800,5.73606982421875,1.849099634449184,0.8783078521400689,-3.2059745546370744
1780098756788062000,5.74606201171875,1.21214174734354,1.0718845508694648,-2.799927363876998
1780098756798053600,5.7560537109375,0.7078788047641515,1.5184768102467059,-2.5891145759254695
1780098756808045800,5.7660458984375,0.5460650255203247,2.1451175937384366,-2.7673022746041416
1780098756818037800,5.776037841796875,0.808140675458312,2.8392829304486513,-2.8399150908723474
1780098756828030000,5.786030029296875,1.750262681991607,3.6874241923838853,-2.4879823521375655
1780098756838021600,5.796021728515625,3.00346168525815,4.3434863006711,-1.9725641015544533
1780098756848013800,5.806013916015625,3.920797187189758,4.557966086697578,-1.6168752251565455
1780098756858005800,5.816005859375,4.73658282444328,4.722021507388353,-1.0382631440356374
1780098756867998000,5.825998046875,5.403181232053041,4.9084559331476685,-0.25875702690929175
1780098756877990000,5.835989990234375,6.02529372446537,4.830249826917052,0.5522177029311657
1780098756887981800,5.84598193359375,6.704303577619791,4.171856060811877,1.123871635477245
1780098756897973800,5.855973876953125,6.981280444091558,3.4234991151869294,1.2640884999409316
1780098756907966000,5.865966064453125,5.874436223521828,3.4495828199923038,0.7910784814983606
1780098756917958000,5.8759580078125,4.458593858319521,4.505272607386112,-0.25624445956647396
1780098756927949800,5.88594970703125,3.811750829276442,5.642763310632109,-1.5047028441771864
1780098756937941800,5.895941650390625,3.4204438192695377,5.477980744710564,-2.175378291967511
1780098756947934000,5.905933837890625,2.3841835394889115,4.4078228715032335,-1.7648659384921193
1780098756957926700,5.9159267578125,-0.7498615049690007,3.086094960281253,-0.9977794502168893
1780098756967918800,5.9259189453125,-4.45855820248425,1.956012487465143,-0.9593035890892148
1780098756977910800,5.935910888671875,-5.878593927723169,1.0239783058345318,-0.025724516104161738
1780098756987903000,5.945903076171875,-5.556050072818994,0.19092706100344656,1.8016808806702493
1780098756997894700,5.955894775390625,-2.980229278230667,0.21282149742543696,4.994554253932834
1780098757007886800,5.965886962890625,1.7646634016573428,1.35115975741148,9.216911836969851
1780098757017878800,5.975878662109375,2.8215514589250086,2.920651300102472,11.495659902518987
1780098757027871000,5.98587109375,0.8568461080469191,4.041851962804794,11.248513526165485
1780098757037862700,5.995862548828125,-0.47459436502456664,4.255270841601491,9.561126840934158
1780098757047854800,6.005854736328125,-1.2636451400876045,3.9969448995858428,7.184224106103182
1780098757057846800,6.0158466796875,-1.9557380544379352,3.6933909918338057,4.818259529393911
1780098757067839000,6.0258388671875,-2.5885318076014516,2.9106302568256854,2.1616908351376654
1780098757077831000,6.035830810546875,-3.3915772057473657,1.9942250214815138,-0.29621523542702194
1780098757087822800,6.04582275390625,-4.573650854824483,0.9716600895762443,-1.9246075876370072
1780098757097814800,6.055814697265625,-5.110521643280983,-0.05610065740644932,-2.4954747537195683
1780098757107807000,6.065806884765625,-4.75790939784944,-0.8334931433796882,-2.84118788728714
1780098757117799000,6.075798828125,-4.281564389765262,-1.5261515826582908,-3.303417276257276
1780098757127790600,6.08579052734375,-3.8383296241223808,-1.8042443014174698,-2.9992925828799604
1780098757137782800,6.09578271484375,-3.4248543291881677,-1.7780740873724221,-2.2314231275334953
1780098757147776000,6.10577587890625,-3.5090956239297983,-1.7889520397394894,-1.4981681817114352
1780098757157767700,6.115767578125,-3.991114293736219,-2.0512235045105216,-1.0629223689958454
1780098757167760000,6.125759765625,-4.95356757902801,-2.508807698023319,-1.251286593773961
1780098757177751800,6.135751708984375,-6.344616863757372,-3.243737006798386,-1.130024020627141
1780098757187744000,6.145743896484375,-7.497966230392455,-3.9624382343500852,-0.8908359098017216
1780098757197735700,6.155735595703125,-7.298713239592313,-4.604155590942502,-0.8061857419982552
1780098757207727900,6.165727783203125,-6.52796910559237,-5.139296486866474,-0.46936961611360306
1780098757217719800,6.1757197265625,-6.30056904771626,-5.544596950912475,-0.010039163455367088
1780098757227712000,6.1857119140625,-6.981755075865983,-6.04879267347455,0.5401338819056749
1780098757237703700,6.19570361328125,-7.383270176154374,-6.65178662391901,0.585649140150845
1780098757247696000,6.20569580078125,-6.928200011289119,-7.361950324749946,0.24927140568345785
1780098757257687800,6.215687744140625,-6.083131580927968,-8.091209771195054,-0.24782939018160102
1780098757267679700,6.2256796875,-5.187002825415134,-8.579920339855551,-0.6529995058462024
1780098757277672000,6.235671875,-4.725180555941164,-8.72804110931158,-0.7253823127508163
1780098757287663600,6.24566357421875,-4.262399670568108,-8.301350651234388,-0.6006406653165817
1780098757297655800,6.25565576171875,-2.746377267736196,-7.093986785817146,-0.24066753572821617
1780098757307647700,6.265647705078125,0.8294014901518821,-4.86869090899229,0.2422860768407583
1780098757317640000,6.275639892578125,8.40073223196268,-1.3180541911453008,0.4027160005107522
1780098757327633000,6.2856328125,21.37323461956978,4.3715123717159035,-0.8444605275958776
1780098757337624800,6.295624755859375,33.626576345419885,16.518135013556478,0.3080976886615157
1780098757347617000,6.305616943359375,16.426045927923916,23.296430879104136,4.996573777061701
1780098757357608700,6.315608642578125,5.405484248298406,20.16817493944168,3.0951462817430495
1780098757367601000,6.325600830078125,3.3576886724099513,13.393501940566301,0.6027788463890552
1780098757377592800,6.3355927734375,1.4967954320535062,7.882313338258862,1.8223001825898886
1780098757387585000,6.3455849609375,0.216980370670557,3.940188408619165,3.6905981462448834
1780098757397576700,6.35557666015625,-0.0905409794077277,-0.6878349646449089,4.107531764939427
1780098757407568600,6.365568603515625,0.018906945043802262,-4.527389746648073,4.294468587262928
1780098757417560800,6.375560791015625,-0.8511983114182948,-7.234863575494289,4.777453471753001
1780098757427552800,6.385552734375,-1.5113403824955225,-8.934536910846829,5.372631195488572
1780098757437544700,6.395544677734375,-3.47959801902771,-9.213440361467002,6.3461909812062975
1780098757447536600,6.40553662109375,-7.302856330746412,-7.345435827800631,7.818022944656014
1780098757457528800,6.41552880859375,-6.489752479922771,-4.319378864374756,9.423886361932754
1780098757467520800,6.425520751953125,-0.20050708251446483,0.2087064633220434,11.518491327530144
1780098757477513000,6.435512939453125,1.5244820420108736,6.063665248435735,10.420414350783824
1780098757487504600,6.445504638671875,-4.699999937455356,7.480979439756274,4.688415005862713
1780098757497496800,6.455496826171875,-8.415117315667867,5.291287375754117,0.33602789811640976
1780098757507488800,6.46548876953125,-8.095092750108241,2.624703775700927,-1.4964105243891477
1780098757517481700,6.475481689453125,-7.82985425222516,1.2951508699417114,-0.9337795639932155
1780098757527473700,6.4854736328125,-7.46285984569788,0.21181085907816885,-0.8783689346775412
1780098757537465900,6.4954658203125,-6.57121904925406,-1.0938526370495558,-1.9638442040041089
1780098757547457800,6.505457763671875,-5.8357157399833195,-2.0027526113301515,-3.4122403468087312
1780098757557449500,6.515449462890625,-5.369530306863784,-2.1511159573704,-4.3538671171709895
1780098757567441700,6.525441650390625,-5.117769714713097,-1.3776362609267234,-4.663105500300229
1780098757577433600,6.53543359375,-5.2340732041478155,-0.032353871116042134,-4.841268649059534
1780098757587425800,6.54542578125,-5.684683466994762,1.611363183736801,-5.038665782859921
1780098757597417500,6.55541748046875,-6.185616388368606,3.285315802377462,-5.09336943295002
1780098757607409700,6.56540966796875,-6.451178711378574,4.2738469472557306,-5.0639843485116955
1780098757617401600,6.575401611328125,-6.472084721285104,3.854765795138478,-4.666792079858482
1780098757627393800,6.585393798828125,-6.283722542333603,2.310878649303317,-4.248732964265346
1780098757637385700,6.5953857421875,-5.928133326917886,1.0322007752567528,-3.8661870606020092
1780098757647377700,6.605377685546875,-5.712351226121187,-0.4955138189345598,-3.4310949771434065
1780098757657369600,6.61536962890625,-5.031261644083261,-1.3140771042078732,-2.536993635804951
1780098757667361800,6.62536181640625,-4.186350450110435,-0.22941899648308753,-1.7551000390201805
1780098757677353700,6.635353759765625,-3.557133678650856,0.7924199592351913,-0.9123884009182452
1780098757687346700,6.6453466796875,-1.6403741741657256,1.9517180051416159,0.33521891982108354
1780098757697338600,6.655338623046875,0.5914578264296054,1.9569652581453323,0.7778726707056164
1780098757707330800,6.665330810546875,2.694812500193715,0.687672467559576,0.8985893004074692
1780098757717322500,6.675322509765625,5.605836724773049,-0.42475393705666065,1.2747823279127477
1780098757727314700,6.685314697265625,8.33944803443849,-0.9090046036988496,1.6212991790786384
1780098757737306600,6.695306640625,8.776267087820171,-0.9748924956262112,1.6948957456871867
1780098757747298800,6.705298828125,7.0470116841524835,-0.9618138183444738,1.2840800253510474
1780098757757290500,6.71529052734375,4.914360188755393,-0.8326870876938104,0.3974818992495537
1780098757767282700,6.72528271484375,2.867737456038594,-0.7160603576540947,-0.4315779378578067
1780098757777274600,6.735274658203125,1.258815820235014,-0.7294388946652411,-0.9197212280243635
1780098757787266800,6.745266845703125,0.39011392776481807,-0.8845183972179889,-1.465624340981245
1780098757797258500,6.755258544921875,-0.3300982158064842,-0.856006003960967,-1.9267177116587757
1780098757807250700,6.765250732421875,-1.1076350056212394,-0.6607476357549429,-2.361661326557398
1780098757817242600,6.77524267578125,-1.2408674910902977,-0.20992343789637088,-2.721670404241979
1780098757827234800,6.78523486328125,-0.5810398927897215,0.5254027612417936,-3.0344276091471314
1780098757837226800,6.795226806640625,0.5983857259966433,1.0764186871677637,-3.291821238748729
1780098757847218700,6.80521875,1.8670840578205883,1.500515037098527,-3.170021489985287
1780098757857210600,6.815210693359375,3.2104747886657714,1.7879536763519048,-2.6373729953989384
1780098757867202800,6.825202880859375,4.643630692240595,1.8773101221501827,-1.8922727134823798
1780098757877195500,6.835195556640625,5.874397645077109,1.8773843564301729,-1.0972475401848554
1780098757887187700,6.845187744140625,6.57080696132183,1.551692266628146,-0.6461924561798572
1780098757897179600,6.8551796875,6.40955958378911,1.1555074214518068,-0.5276449872106314
1780098757907171800,6.865171875,5.394793927457928,0.9333885188490152,-0.7159113045722246
1780098757917163500,6.87516357421875,3.991407431463897,0.9237719647198915,-1.0950275260478257
1780098757927155700,6.88515576171875,2.819751131504774,1.1186614996135233,-1.5324258406221867
1780098757937147600,6.895147705078125,2.051982798445225,1.4390139819532632,-2.0852736581504345
1780098757947139800,6.905139892578125,1.576353537414968,1.6629449024140834,-2.920930701565742
1780098757957131500,6.915131591796875,1.3087674534924327,1.763603663471341,-3.7603754468262194
1780098757967123700,6.925123779296875,1.1176977691479026,2.0927280658096072,-4.514707959729432
1780098757977115600,6.93511572265625,0.9498325809106231,2.6574650585740804,-5.088510302481055
1780098757987107800,6.94510791015625,0.6424369030386209,3.2435821084976193,-5.385683569285273
1780098757997099500,6.955099609375,0.4184565904781222,4.211330577588081,-5.006280347561836
1780098758007091700,6.965091796875,0.8020099176183343,5.199176078289747,-3.836965934553742
1780098758017083600,6.975083740234375,2.116281521485001,5.318671057242155,-2.2831895551279184
1780098758027075800,6.985075927734375,4.208508505904674,5.012200385260582,-0.27912732250392436
1780098758037067800,6.99506787109375,6.7507835892438885,4.799926000323891,1.7666481457337737
1780098758047059700,7.005059814453125,9.092470049265026,4.552829892852902,3.106087654735148
1780098758057052700,7.015052734375,9.89217841194272,4.4395998195141555,3.7312270937532186
1780098758067044600,7.025044677734375,8.410323067128658,4.804801497405768,3.286879690693319
1780098758077036500,7.03503662109375,6.177537711331248,5.550943689590692,2.1255366949558256
1780098758087028700,7.04502880859375,4.696446336627006,6.082725338214636,1.3183841537520289
1780098758097020700,7.055020751953125,3.705423959454894,5.711446386235952,0.8208958198741078
1780098758107012900,7.065012939453125,1.5402958433449268,4.846950201827287,0.23923574935942887
1780098758117004500,7.075004638671875,-2.430535540819168,3.9325399396926164,-0.07686550527662038
1780098758126996700,7.084996826171875,-6.067281100845337,2.903200399085879,0.44487434954345223
1780098758136988700,7.09498876953125,-8.271548218166828,1.5603858606934546,1.1056140942528843
1780098758146980900,7.10498095703125,-8.98360109374523,0.6557897210866213,2.53911223539412
1780098758156972500,7.11497265625,-5.7664896435439585,0.2397515899270773,5.658516760081053
1780098758166964700,7.12496484375,3.855096050006151,0.8214543305397033,10.361503896653652
1780098758176956700,7.134956787109375,5.264398199784756,1.6214631374686956,11.303946075052023
1780098758186948900,7.144948974609375,0.6682910368718207,1.285673432022333,8.580515383139252
1780098758196940500,7.1549404296875,-2.3063094416916368,0.4358434863477945,5.615555570232868
1780098758206932700,7.1649326171875,-3.2491619544565675,-0.10116671057939529,2.998252426177263
1780098758216924700,7.174924560546875,-2.0637750891782343,-0.4664338549226522,0.7713590510278939
1780098758226916900,7.184916748046875,-1.9309671857967972,-0.42003859897255896,-0.7968152715846896
1780098758236908800,7.19490869140625,-3.1798902653098104,0.008034253373742103,-1.707372073161602
1780098758246901800,7.20490185546875,-3.6551924863427874,0.1836059243351221,-2.585544023962319
1780098758256893700,7.214893798828125,-4.134457473526894,0.29210253941118713,-3.585820843952894
1780098758266885600,7.2248857421875,-3.6707182645156977,0.5697492679685354,-4.226223610815405
1780098758276877600,7.234877685546875,-3.4780820615068078,0.9693857149034738,-4.048840798778832
1780098758286869800,7.244869873046875,-3.563192832559347,1.1365250730842351,-4.015717696855962
1780098758296861700,7.25486181640625,-3.424130691088736,0.9223135826051234,-4.2408620847597716
1780098758306854000,7.26485400390625,-3.506182074570656,0.45912908486723897,-4.078785270665586
1780098758316845600,7.274845458984375,-4.583030677588284,-0.4022147729903459,-3.4654669100835918
1780098758326837800,7.284837646484375,-5.767869699725509,-1.7267285155385732,-2.4900731869369745
1780098758336829700,7.29482958984375,-6.46698242971003,-2.760385919344425,-1.6980588858932255
1780098758346822000,7.30482177734375,-6.712205729046463,-3.603338380464911,-1.2117810973376035
1780098758356813600,7.3148134765625,-6.691477413794398,-4.160167376583814,-0.5781845033586025
1780098758366805800,7.3248056640625,-6.678603319174051,-4.500716843777894,0.3105728466033935
1780098758376797700,7.334797607421875,-6.639695204108953,-4.882225513347983,1.0773287877500057
1780098758386790000,7.344789794921875,-6.439293043273687,-5.33363715570569,1.548497562240064
1780098758396781600,7.354781494140625,-6.229270821177959,-5.825585391113162,1.830712329365313
1780098758406773500,7.3647734375,-5.867369353875517,-6.217812438574433,1.9309698161453008
1780098758416765700,7.374765625,-5.495744949460029,-6.650511197155714,1.8132570444345473
1780098758426757600,7.384757568359375,-4.867715341958403,-6.884730871918797,1.6336846133992076
1780098758436750600,7.39475048828125,-4.052354067596793,-7.022251336905359,1.525476167614758
1780098758446742800,7.40474267578125,-3.0080279702603816,-7.313143331483006,1.1995055531322956
1780098758456734700,7.414734619140625,-2.0297057924464346,-7.565649189043045,0.9195970171228051
1780098758466726700,7.4247265625,-1.0564391444563865,-7.41015350690484,0.6603840631395578
1780098758476718600,7.434718505859375,1.1745032138228415,-6.2726405918270345,0.5599956434562802
1780098758486710800,7.444710693359375,5.5765469174027436,-3.6097926711708306,0.9397539622277021
1780098758496702700,7.45470263671875,15.342165818834303,1.0942518655002116,1.3198010348126292
1780098758506695000,7.46469482421875,27.550008360791203,9.8310432675004,3.4635569848090406
1780098758516686600,7.4746865234375,24.574443567240237,18.54190761656165,7.510352249234915
1780098758526678800,7.4846787109375,13.279771516489982,20.408474226379393,5.266380898034572
1780098758536670700,7.494670654296875,5.364343259614706,16.593713693892955,-0.3988897202208638
1780098758546662700,7.50466259765625,0.5702879048898816,11.704281610167026,-3.954271586768329
1780098758556658200,7.514658203125,-1.3970169609621166,7.066008061045408,-4.260205959916115
1780098758566650000,7.524650146484375,0.1110109359845519,1.7006284441202877,-2.6310557750761507
1780098758576642300,7.534642333984375,1.3323331841275095,-2.3790952764391897,-1.2887778277784585
1780098758586634200,7.54463427734375,-0.1707413281954825,-4.463457664963602,0.021364567328989503
1780098758596626200,7.554626220703125,-4.204612082988024,-4.989060917213559,1.5404554178208112
1780098758606618000,7.5646181640625,-7.95477359431386,-4.011363301038742,3.0729955324724316
1780098758616610300,7.5746103515625,-9.439267470937967,-1.6988205179154872,4.952074125599861
1780098758626603000,7.58460302734375,-6.791457544937729,1.656820866575837,8.365849719151853
1780098758636595200,7.59459521484375,6.981679088020324,8.378699263852834,14.653552271032332
1780098758646587100,7.604587158203125,3.218847480213642,11.73489652866125,10.727563068157433
1780098758656579300,7.614579345703125,-7.957437845087051,5.019722012937069,3.1386691971272227
1780098758666571300,7.6245712890625,-6.7240265152215954,-0.8946119212090968,0.5717834041446447
1780098758676563200,7.634563232421875,-5.729916108906269,-3.130882196512818,-0.3492415999546647
1780098758686555100,7.64455517578125,-5.07563211620748,-4.356760208263993,-0.848523539251089
1780098758696547300,7.65454736328125,-4.560299205820262,-5.298489269956946,-1.9392790870681405
1780098758706539300,7.664539306640625,-4.158012828898429,-5.9772734976619475,-3.3605142512246964
1780098758716531200,7.67453125,-3.852162626902759,-6.194382463148236,-4.606087728048861
1780098758726523100,7.684523193359375,-3.8474256615087388,-5.214813207882642,-4.440931360378861
1780098758736515300,7.694515380859375,-4.644264606229961,-2.971242254176736,-2.6626231719896194
1780098758746507300,7.70450732421875,-5.459921940928697,-0.468804675707221,-1.8229738440677523
1780098758756499200,7.714499267578125,-6.043550681167841,2.088494958284497,-1.821525398825109
1780098758766491100,7.7244912109375,-6.519376049292087,4.013009899201989,-2.260892675384879
1780098758776483300,7.7344833984375,-6.937618997019529,5.166483768999576,-2.408071780076623
1780098758786475300,7.744475341796875,-6.90490447589755,5.244720270368457,-3.06793503421247
1780098758796467000,7.754467041015625,-6.57964727038145,3.9471179156213996,-3.651049395188689
1780098758806459100,7.764459228515625,-6.1289867386519905,2.596804545906186,-3.3219109643250704
1780098758816452400,7.774452392578125,-5.230656089180708,1.67788995808959,-2.8798241996735334
1780098758826444000,7.784444091796875,-3.910865283501148,1.6246002664506434,-2.3570102858811617
1780098758836436200,7.794436279296875,-2.8848551795780657,1.6016010836571455,-2.1028730277270076
1780098758846428200,7.80442822265625,-2.544338445609808,1.0282587596327066,-1.9047011101618407
1780098758856420400,7.81442041015625,-1.4650585237920284,0.23954350013434886,-1.777432866859436
1780098758866412300,7.824412353515625,0.5200525958528742,-0.4092489094108343,-1.3258069972291588
1780098758876404200,7.834404296875,3.5057366688907146,-1.3458862009227275,-1.2024226096227764
1780098758886396200,7.844396240234375,7.07465840049088,-1.937562054017186,-0.9336875017955899
1780098758896388400,7.854388427734375,9.74577555232048,-1.8699831402629612,-0.1503767316892743
1780098758906380300,7.86438037109375,9.796779763370752,-1.376154497936368,0.5270493594050407
1780098758916372200,7.874372314453125,7.307924720051885,-0.7635235350966453,0.4840943070366978
1780098758926364200,7.8843642578125,3.9744893221497533,-0.40388709011673923,-0.05255202501416206
1780098758936356000,7.894356201171875,1.2705658792614936,-0.8728221142053604,-0.9397378878757358
1780098758946348300,7.904348388671875,-0.9597913726061582,-1.525840032491088,-1.7940876490622757
1780098758956340000,7.914340087890625,-2.582439920467138,-1.7614695740520954,-1.8458555379614232
1780098758966332200,7.924332275390625,-3.5527287216901775,-1.6073147851288319,-1.2973460418984293
1780098758976324000,7.934323974609375,-1.99527175405547,-0.89356153537333,-0.44483518657684323
1780098758986316300,7.94431640625,1.0615133789807558,0.5656324802994728,0.5038718974351882
1780098758996308000,7.954307861328125,3.1519322910651564,1.6961007375627755,1.0335869689181447
1780098759006300200,7.964300048828125,4.863662851697206,2.072770150408149,1.336716806039214
1780098759016293400,7.97429345703125,6.370749668401479,1.6213158379524946,1.076016828368604
1780098759026285000,7.98428515625,6.63876698334813,0.8366443008869886,0.6103738315626979
1780098759036277200,7.99427734375,5.701313114756346,0.35354163523614407,-0.05410626871883869
1780098759046269200,8.004269287109375,4.188217705287039,0.22313538616895676,-0.785846426063776
1780098759056261000,8.01426123046875,2.66294845842123,0.6005237609386443,-1.4628504923537373
1780098759066253300,8.02425341796875,1.9874299545139074,1.504030351743102,-1.8133195882767439
1780098759076245000,8.034244873046875,1.852277387702465,2.289431372126937,-2.3158552686721086
1780098759086237200,8.0442373046875,1.5956098804183303,2.5952035404503344,-3.400611283813417
1780098759096229000,8.05422900390625,1.337022803248465,2.767721084538102,-4.301936731186509
1780098759106221300,8.06422119140625,1.4003589648663997,3.1164556117534636,-4.908205757778883
1780098759116213000,8.074212890625,1.5933074486948549,3.810565418884158,-5.3391982969641685
1780098759126205200,8.084205078125,1.8061410749495028,4.686754379174113,-5.841697737002373
1780098759136197000,8.094197021484375,2.443335401159525,5.605795223718881,-6.114634972694516
1780098759146189300,8.104189208984375,3.459244674567878,6.322583311125635,-5.364499911481142
1780098759156181000,8.114180908203124,3.98802597233206,6.351403747418522,-3.8117370930120344
1780098759166173200,8.124173095703124,4.44558795401305,6.1309466405481094,-2.066667157357931
1780098759176165000,8.1341650390625,5.0848786679804325,5.918253153416514,-0.6246589620247482
1780098759186157300,8.1441572265625,5.82562513860166,5.998875088617205,0.5767360581159592
1780098759196149000,8.15414892578125,5.809497595143318,6.292049641174078,1.1423352206677198
1780098759206141200,8.16414111328125,4.67089717708975,6.640121905088424,1.269196052213013
1780098759216133000,8.174133056640626,3.1576088753968476,6.09013882934153,1.8300643868505955
1780098759226126000,8.1841259765625,1.918992378103733,4.598776235991716,2.7688123869061467
1780098759236118000,8.194117919921876,1.7602454390846192,2.9164485877156254,3.7290994340747594
1780098759246110200,8.204110107421876,1.0061362866085022,1.5664590431272982,4.323074796283245
1780098759256102100,8.21410205078125,-1.1850589484982192,0.8095388518184423,4.125456713208556
1780098759266094000,8.224093994140626,-2.8790742580890654,0.28394495191872116,4.292443511176109
1780098759276086000,8.2340859375,-3.1026825224667784,0.01121112984418869,5.62711390607953
1780098759286078200,8.244078125,-2.616978149884939,0.1404278768658638,7.4800295916855335
1780098759296070100,8.254070068359376,-1.5188859755694866,0.6634978112459182,9.788400642082095
1780098759306062300,8.264062255859375,-1.0667408313054592,1.416354406377673,10.956341428649425
1780098759316054000,8.274053955078125,-0.6159093999885022,1.7151012061089277,9.80409447029829
1780098759326046200,8.284046142578125,-0.2220017059639096,1.5981494818985462,7.624550875344872
1780098759336038100,8.2940380859375,-0.23164149483814833,1.5331944869071243,5.34648845397234
1780098759346030300,8.3040302734375,-1.1539784583188593,1.3671774107545613,3.2064056395307183
1780098759356022000,8.31402197265625,-2.6937261662617322,0.9662140991300344,1.1159797131836413
1780098759366014200,8.32401416015625,-4.149868685409427,0.30862346610128877,-0.8782786260455846
1780098759376006100,8.334006103515625,-5.060825592219829,-0.08096972572505473,-2.103215849815309
1780098759385998300,8.343998291015625,-5.230396561461687,-0.1844862143009901,-2.5293521811410784
1780098759395990000,8.353989990234375,-4.84087497356683,-0.22777239831984042,-3.1654902762964365
1780098759405982200,8.363982177734375,-4.254745356422663,-0.08326222057640552,-3.4861879188120364
1780098759415974100,8.37397412109375,-3.6098759655401107,-0.08773264398872851,-3.5434970752254125
1780098759425966300,8.38396630859375,-3.1874858350053428,-0.09971768081486225,-3.3532629649221897
1780098759435958300,8.393958251953125,-3.307630510038137,-0.059657473105192184,-3.5367055153891442
1780098759445951200,8.403951171875,-3.8736157492980356,-0.5498831225037575,-3.9271927334457635
1780098759455943200,8.413943115234375,-4.825581250584126,-1.2149088739693163,-3.355594915001094
1780098759465935000,8.42393505859375,-5.722084684628248,-2.2507763550400735,-2.2572975735023615
1780098759475927000,8.433927001953125,-5.909477726286649,-2.9616175167411565,-1.4091115956425666
1780098759485919200,8.443919189453124,-6.093333241468668,-3.685603991219401,-0.8425628772810101
1780098759495911200,8.4539111328125,-6.304392989918589,-4.454460704037547,-0.36849633552283045
1780098759505903400,8.4639033203125,-6.655006170487403,-5.074240954110026,0.13180325638353824
1780098759515895000,8.47389501953125,-7.069654308593273,-5.613035696366429,0.537962675346434
1780098759525887200,8.48388720703125,-7.032671024110913,-6.167139651435614,0.7197118658989667
1780098759535879200,8.493879150390624,-6.493433214262128,-6.787711928668617,0.6880991685390472
1780098759545871400,8.503871337890626,-5.857955628842115,-7.354952428686619,0.5505991618186236
1780098759555859700,8.513859619140625,-5.343058479523658,-7.868964611864089,0.40244215200543404
1780098759565851600,8.5238515625,-4.906298462852836,-8.139803998494148,0.2805710915714502
1780098759575843800,8.53384375,-4.5442301145508885,-8.172861049443483,0.15949468864649533
1780098759585835800,8.543835693359375,-4.156648262546956,-7.897611445155739,0.10711071367561817
1780098759595827700,8.55382763671875,-3.059751143234968,-6.97424630767107,0.14504589205533266
1780098759605819600,8.563819580078125,-0.8374024257779121,-5.1379117545098065,0.4677656880483031
1780098759615811800,8.573811767578125,3.792733701856434,-2.4953017352402207,0.6577320873260498
1780098759625803800,8.5838037109375,15.85667484561801,2.312168689113855,0.5973220422878861
1780098759635795700,8.593795654296875,35.18149575740099,13.899992496067284,3.104801998838782
1780098759645787600,8.60378759765625,25.071284835386276,21.993608743882177,7.627042692160606
1780098759655779800,8.61377978515625,10.56542721735239,20.624864229941366,4.256706719623506
1780098759665771800,8.623771728515624,3.8605277196660635,14.987846184962986,-0.3720584119185805
1780098759675764700,8.6337646484375,0.10746434941887854,9.226587427809834,-1.4358935118451714
1780098759685757000,8.6437568359375,-0.9158534466803073,4.253710752677917,-0.6724363199830055
1780098759695748900,8.653748779296874,-0.1611538540303707,-1.1008826818168163,0.10213380204588174
1780098759705740800,8.66374072265625,1.1731170201614498,-4.66044563344121,1.7288780947878957
1780098759715732700,8.673732666015624,0.5014978617802262,-6.968561247771978,2.7864424438819286
1780098759725724700,8.683724609375,-2.933298015707731,-7.767224485310912,3.3990377508863805
1780098759735716900,8.693716796875,-6.126979490482807,-7.158514495307207,4.100157729040086
1780098759745708800,8.703708740234376,-8.030411895883082,-5.280186720547079,5.57351441783905
1780098759755700700,8.71370068359375,-6.9781690340727565,-2.4888088660895824,7.978279557585716
1780098759765692700,8.723692626953126,3.2734628674983974,2.8819799164026976,13.415738322293757
1780098759775684900,8.733684814453126,9.483470185279845,11.959976034635305,15.189915402227639
1780098759785676800,8.7436767578125,-5.731211409413814,11.431099459803104,6.824737298727035
1780098759795668700,8.753668701171875,-10.582646063178776,4.193517857521772,1.5023980743661522
1780098759805660700,8.76366064453125,-7.767211041307449,-0.5487900665700435,-0.9514891159459948
1780098759815652900,8.77365283203125,-7.083475328674912,-2.4883903484165666,-2.0506088797435162
1780098759825644800,8.783644775390625,-6.506570343732833,-3.7588983600109813,-3.035547260826826
1780098759835636700,8.79363671875,-5.855665472078323,-4.566603566661477,-4.284206136445701
1780098759845628700,8.803628662109375,-5.188547132247686,-4.9992485492289065,-5.168405676972866
1780098759855620900,8.813620849609375,-4.570936919690668,-4.661690080544353,-5.544908501079679
1780098759865612800,8.82361279296875,-4.409938256222009,-3.374230349627137,-5.563121618640422
1780098759875605000,8.83360498046875,-5.1294180669307705,-0.9193295983582734,-5.294159716320038
1780098759885596700,8.8435966796875,-6.380286727553606,2.2142741320729256,-5.051067583793402
1780098759895588900,8.8535888671875,-7.462475230294466,5.2713756375819445,-4.615861226305365
1780098759905580800,8.863580810546875,-7.262292849689722,7.46487235456407,-3.9621898125469683
1780098759915573000,8.873572998046875,-7.132123331987858,7.9217171278864145,-3.562224864310026
1780098759925565700,8.883565673828125,-7.809335195809602,5.584814395010471,-3.7500060285031793
1780098759935558000,8.893557861328125,-6.782139681494235,2.552628135049343,-3.323255364671349
1780098759945549800,8.9035498046875,-4.525312355852127,1.6329647746920584,-2.581640294522047
1780098759955541800,8.913541748046875,-3.1119968787789345,1.9427040930807589,-1.8835066387027501
1780098759965533700,8.92353369140625,-2.5683026740431782,2.0598475404709577,-1.1154662107035518
1780098759975526000,8.93352587890625,-2.019068370836973,1.5718518420815466,-0.5419248569756746
1780098759985517800,8.943517822265624,-0.7959785284996033,1.022262149566412,0.24898265186995266
1780098759995509800,8.953509765625,0.9832043968975543,0.49938043123483655,0.7768480038329958
1780098760005501700,8.963501708984374,3.1227947516471146,-0.697286683601141,0.33011224433183667
1780098760015494000,8.973493896484374,4.839563014185428,-1.825326252412796,0.340451267516613
1780098760025485800,8.98348583984375,6.712644120463729,-2.593409642770886,0.7988534994140267
1780098760035477800,8.993477783203126,7.626489149931072,-2.8832348848998546,1.256549628868699
1780098760045469700,9.0034697265625,7.120356906348467,-2.4148387899935244,1.5168939249694346
1780098760055462000,9.0134619140625,5.443792059382796,-1.966775873541832,1.3677546261206268
1780098760065453800,9.023453857421876,3.15601839133501,-1.9410978269279002,0.7273045129850506
1780098760075446000,9.033446044921876,0.563780130431056,-2.215343807131052,-0.2046680015861988
1780098760085437700,9.043437744140626,-2.4322803386598824,-2.5438129604309796,-0.9473919097602367
1780098760095430000,9.053429931640625,-4.252797729486227,-2.727097397726774,-1.132213347364962
1780098760105421800,9.063421875,-3.890083192235231,-2.9065415262073278,-0.7011226085022092
1780098760115414000,9.0734140625,-0.4038105177491903,-2.0260200896710154,0.37453736925274134
1780098760125405700,9.08340576171875,2.7306793478667735,-0.16135492956042288,1.2541747164309025
1780098760135398000,9.09339794921875,3.815086111178994,1.3439683846026658,1.3131290097028017
1780098760145389800,9.103389892578125,4.618524308034777,1.7405881140649317,0.6539052225142717
1780098760155382000,9.113382080078125,5.605549724525213,1.7182435957878828,-0.27543665129244327
1780098760165373700,9.123373779296875,6.294318755149841,1.74430275067389,-1.0892854752644896
1780098760175366000,9.133365966796875,5.853741226017474,1.8200035960853098,-1.5730293614283204
1780098760185357800,9.14335791015625,4.514187735247612,1.9400123697787521,-1.7779583520382642
1780098760195349800,9.153349853515625,3.102537853299081,1.9682856935828923,-1.9883131670892238
1780098760205342700,9.1633427734375,1.9777035102695226,1.9044138176530598,-2.300447563920915
1780098760215335000,9.1733349609375,1.1583775700606405,1.7960989888846872,-2.6730425669342277
1780098760225326800,9.183326904296875,0.5813233859062195,1.6322481508553026,-3.0017566349059344
1780098760235318800,9.19331884765625,0.509732313901186,1.7027233705729246,-3.1618703322336077
1780098760245310700,9.203310791015625,0.7812129210442305,2.107570830154419,-3.5555265357151624
1780098760255303000,9.213302978515625,0.9670710082203149,2.626266202712059,-4.262291534018516
1780098760265294800,9.223294921875,0.999489322874695,3.4303637402594087,-5.046057062155008
1780098760275287000,9.233287109375,1.0765269698478281,4.625629756125807,-5.717923473295569
1780098760285278700,9.24327880859375,1.4175307566806674,5.737573345661163,-6.024876375836134
1780098760295271000,9.25327099609375,2.185363679409027,6.016385026344657,-5.699807970890403
1780098760305262800,9.263262939453124,3.5630981400132176,5.479602792954444,-4.739513032676279
1780098760315254800,9.2732548828125,5.233109327551722,5.033970903041959,-3.338532428780198
1780098760325246700,9.283246826171874,6.691648678708076,4.98736171208024,-1.3576803913518785
1780098760335238700,9.29323876953125,7.459512873357534,5.06309879784882,0.6052089961454272
1780098760345230800,9.30323095703125,7.47912124466896,5.448101154753566,2.136425753238797
1780098760355222800,9.313222900390626,6.389170875754952,5.950814529803395,2.590711197467148
1780098760365214700,9.323214599609376,4.2540211338013405,5.760888170275091,2.228365493528545
1780098760375206700,9.33320654296875,2.5656413458794356,4.980698162537813,2.480595749017596
1780098760385198800,9.34319873046875,1.8903455448120832,3.7844331987619397,2.940812044599652
1780098760395190800,9.353190673828125,1.292471421599388,2.5329618960708378,3.233571586614847
1780098760405182700,9.3631826171875,-0.3517003912836313,1.7125889310270548,3.44206440718621
1780098760415174700,9.373174560546875,-1.6414876883655785,1.3319319098502396,3.933514045421779
1780098760425166800,9.383166748046875,-3.0706618288278578,1.1298977638989687,4.754664132317901
1780098760435158800,9.39315869140625,-4.0024598636150355,0.9228145178645849,5.934228721183538
1780098760445151000,9.40315087890625,-3.516696454322338,1.0539227777212858,7.672475240558385
1780098760455142700,9.413142578125,-2.850020013040304,1.6121721620321272,9.277084273859858
1780098760465134800,9.423134765625,-2.2679227201521397,2.0423802728414535,9.401541259133815
1780098760475126800,9.433126708984375,-1.729039422829449,2.2293431063890456,7.947843502789735
1780098760485119000,9.443118896484375,-1.2685342273034155,2.162577262583375,5.589915517541765
1780098760495110700,9.453110595703125,-1.5889526144862174,1.717843782815337,3.176340463873744
1780098760505104000,9.463103759765625,-2.144951004999876,1.06641050337255,1.3084952124223113
1780098760515095800,9.473095703125,-2.90581028932333,0.41481414232254027,-0.2728451734945178
1780098760525087700,9.483087646484375,-3.727048346763849,-0.16361059953272342,-1.3597539827555418
1780098760535079700,9.49307958984375,-4.282219346542656,-0.4345896868944168,-1.9071210307851432
1780098760545071900,9.50307177734375,-4.060726466883719,-0.4486585442572832,-2.5030685698494315
1780098760555064000,9.51306396484375,-3.4109193273380396,-0.408839159566164,-3.031373190012574
1780098760565055700,9.5230556640625,-2.991124766254425,-0.5158195248603821,-3.5191961621835826
1780098760575048000,9.5330478515625,-2.993433627718687,-0.5907692596435546,-3.7933392665341494
1780098760585040000,9.543039794921874,-3.359960708995163,-0.7261310852915048,-3.8097809905081985
1780098760595032000,9.553031982421874,-4.319360744196176,-0.9730378076702356,-3.9394995495721696
1780098760605023700,9.563023681640624,-5.637171189713478,-1.4205442592829465,-3.491680963270366
1780098760615016000,9.573015869140624,-6.129702193444967,-2.278636421868205,-2.3909406125336883
1780098760625007900,9.5830078125,-6.081797117453813,-3.068762717208266,-1.2695368284747004
1780098760635000000,9.593,-6.010639760690927,-3.60319108094871,-0.5778390509217978
1780098760644992000,9.602991943359376,-5.747646411386132,-4.164354891401529,-0.09023264411091804
1780098760654984000,9.61298388671875,-5.348061986899376,-4.634644837230444,0.40338703164011236
1780098760664976000,9.622975830078126,-5.406883593702316,-4.983513804480433,1.0733555002048611
1780098760674968000,9.632968017578126,-5.838564699673652,-5.305412931740284,1.5887217283397912
1780098760684960000,9.6429599609375,-6.084312315145135,-5.844200075212121,1.7578040372818708
1780098760694952000,9.652951904296875,-5.842088782146573,-6.508247921556234,1.6478852804481983
1780098760704943900,9.66294384765625,-5.3364679952174425,-7.184566051408648,1.4130398750022053
1780098760714936000,9.67293603515625,-4.6425341291755435,-7.57582103896737,1.2396952324405313
1780098760724928000,9.682927978515625,-3.8593364640548824,-7.4616311806857585,1.2608347588419913
1780098760734920000,9.692919921875,-3.320942996075749,-7.123215218389034,1.384076815368235
1780098760744912000,9.702911865234375,-2.433430093216896,-6.882526055350899,1.164573063699901
1780098760754904000,9.712904052734375,-1.0270745182842016,-6.576020896577835,0.8261848661929369
1780098760764896000,9.72289599609375,1.3113903493419288,-5.546799429392815,0.6511909951195121
1780098760774888000,9.732887939453125,5.656873084527254,-3.4026106409370898,0.46329935628920793
1780098760784879900,9.7428798828125,12.093008540552853,0.24115619602799415,-0.17116963661015033
1780098760794872000,9.7528720703125,20.295748010909556,6.581758563446998,-0.767819186463952
1780098760804864000,9.762864013671875,22.432561302161215,15.126064569085836,1.5657552787721156
1780098760814856000,9.77285595703125,14.464916535836457,19.378589911371467,2.535212889868021
1780098760824848000,9.782847900390625,7.3758315505862235,17.2781631077528,-0.8033996184110641
1780098760834839800,9.79283984375,3.4479330069586633,11.620023948812484,-3.974918945738673
1780098760844832000,9.80283203125,1.0001891417071223,7.811329584497213,-2.996486293287575
1780098760854824000,9.812823974609374,0.47690205744504927,5.325296612861752,-0.18543840045928953
1780098760864817000,9.82281689453125,2.0762664680913088,1.9174615152746437,1.8599457303732632
1780098760874809000,9.83280908203125,3.146604374040663,-2.0925100391447544,2.6083397931382057
1780098760884801000,9.842801025390624,1.4567469147816299,-4.706248184195161,2.8735616321474313
1780098760894793000,9.85279296875,-1.7146829806968569,-6.0413254063338035,3.381433412873745
1780098760904785000,9.862784912109374,-4.727170268453658,-6.1649050242513415,3.9783682094097137
1780098760914777000,9.872777099609374,-6.923734264051914,-4.943401574322581,4.819524434763193
1780098760924769000,9.88276904296875,-7.702998973637819,-2.278008060836792,6.31673750770688
1780098760934761000,9.892760986328126,-4.395770614659786,1.8713047442555426,8.926087646931409
1780098760944753000,9.9027529296875,5.1676539818227285,8.801101084825396,11.667530380874872
1780098760954744800,9.912744873046876,-0.14960720862150192,10.206780952453613,6.957458254477381
1780098760964737000,9.922737060546876,-7.195033084887266,4.174987929096818,1.9408394682526586
1780098760974728700,9.932728759765626,-6.466697183027863,-0.46816228615045546,0.036116730780899525
1780098760984721000,9.942720947265625,-6.145068104881048,-2.729203430095315,-0.4502443521440029
1780098760994712800,9.952712890625,-5.452126757007837,-4.112504292654991,-0.9120049545586109
1780098761004705000,9.962705078125,-4.803335516506433,-5.254647790142894,-2.090945566307008
1780098761014697000,9.972697021484375,-4.1469934222340585,-6.044872285160422,-3.394499522934854
1780098761024689000,9.98268896484375,-3.5289293284296988,-6.149329269456863,-4.203795798169076
1780098761034680800,9.992680908203125,-3.7431928413569926,-5.061436417594551,-3.7503859677314755
1780098761044673000,10.002673095703125,-4.589240345883369,-3.0382156032532452,-2.6641487741217014
1780098761054665000,10.0126650390625,-5.266339981502294,-0.4974649530023336,-1.8483572916492819
1780098761064657000,10.022656982421875,-5.827728832882642,2.177196739566326,-1.439053437180817
1780098761074648800,10.03264892578125,-6.416439406430721,4.3694367344856255,-1.569531582440436
1780098761084641000,10.04264111328125,-7.036207966065406,5.627682061356306,-1.8693822517603635
1780098761094633000,10.052633056640625,-6.953627882534265,5.386925093778967,-2.3223972376614808
1780098761104625000,10.062625,-6.269475990316272,3.8664825364172457,-2.810179001039266
1780098761114616800,10.072616943359375,-5.923583408528566,2.267521153613925,-2.3588082752138373
1780098761124609000,10.082609130859375,-5.0332057638883585,0.28267829298377034,-2.0963509324818848
1780098761134601000,10.09260107421875,-4.0624890926420685,-1.0613801079899072,-1.856089347206056
1780098761144593000,10.102593017578124,-3.602251754271984,-0.35530922943055626,-1.2061623806729913
1780098761154584800,10.112584716796874,-2.510837158024311,0.07350187406241894,-0.8796578054443002
1780098761164577000,10.122576904296874,-0.36886491310689595,-0.10560264720022677,-1.1643468537285924
1780098761174569000,10.13256884765625,2.047377350476384,-0.4448889625906944,-1.4635294145286082
1780098761184561000,10.142560791015624,4.706120173901319,-0.6175134741842746,-1.8069786948174238
1780098761194552800,10.152552734375,7.525749140331149,-0.4692810610473156,-1.6263658148184417
1780098761204545000,10.162544921875,9.566196983805298,0.11631459535062312,-0.8405886545985937
1780098761214537000,10.172536865234376,9.271586845487356,0.5731330651879311,-0.18262334303855896
1780098761224529200,10.182529052734376,6.826690186360478,0.8671499137878418,0.1779156037390232
1780098761234520800,10.192520751953126,4.169909602919221,0.5392144289731979,-0.14555325705558061
1780098761244513000,10.202512939453126,1.9950871912688015,-0.07562836469709873,-0.8752177771702409
1780098761254505000,10.2125048828125,0.5413322979100048,-0.5811567971676588,-1.5867431217432022
1780098761264497200,10.2224970703125,-1.357074388282746,-0.9399877709835767,-1.937194682009518
1780098761274488800,10.23248876953125,-2.8630051668196916,-1.1193979971945285,-2.139905412048101
1780098761284481000,10.24248095703125,-3.9618887837737797,-0.9866279416054486,-2.169858651763201
1780098761294473000,10.252472900390625,-4.089555378744006,-0.606401128539443,-1.778033170840144
1780098761304465000,10.26246484375,-1.4923884292662142,-0.18271862010657786,-0.938467137287557
1780098761314456800,10.272456787109375,1.5348649043373763,0.4571498937487602,0.30706571526527404
1780098761324448800,10.28244873046875,3.787048057435453,1.0335182875961064,1.1906523845911026
1780098761334441000,10.29244091796875,5.712361747515201,1.0272814390331506,1.5721768362522124
1780098761344433000,10.302432861328125,7.072896066993475,0.6203285316050052,1.6873782096639274
1780098761354424800,10.3124248046875,7.019679440590739,0.24756547854840755,1.704995991680026
1780098761364416800,10.322416748046875,5.705774185818433,-0.09824877730607987,1.3511340384483337
1780098761374410000,10.332409912109375,3.8400501643046736,-0.3714256669729948,0.8044485429421067
1780098761384402000,10.34240185546875,2.3568466197520492,0.0034323125362396237,0.16098960337936877
1780098761394393900,10.352393798828125,1.3789619565725326,0.976671780258417,-0.944748701775074
1780098761404386000,10.362385986328125,0.9366869758725166,1.8936644601017236,-2.635991770173609
1780098761414378000,10.3723779296875,0.9446382271379232,2.580108847171068,-4.013765101483464
1780098761424370200,10.3823701171875,1.0012690458983182,3.4083535685032604,-4.802308219285309
1780098761434361900,10.39236181640625,1.1022592308670283,4.432506061860919,-5.380856002998351
1780098761444353800,10.402353759765624,1.2510238511845468,5.3474201818645,-6.225631587892771
1780098761454346000,10.412345947265624,1.638715301042795,6.3257385602861635,-7.0063295451521865
1780098761464338000,10.422337890625,2.3170307421922685,6.502412639531493,-6.98925916788578
1780098761474329900,10.432329833984374,3.6350071919262406,5.996323066046834,-5.974702185869217
1780098761484321800,10.44232177734375,5.249349683734774,5.566055334004759,-4.354381496433914
1780098761494314000,10.45231396484375,6.755483145236969,5.273392238101363,-2.1462828381255266
1780098761504306000,10.462305908203126,7.732271829873323,4.960253340402245,0.38161709838062524
1780098761514297900,10.4722978515625,7.725608864852785,4.689474744048715,2.29608323123157
1780098761524289800,10.482289794921876,6.276858501783013,4.983101132026315,2.1081176503822205
1780098761534282000,10.492281982421876,4.02833898575902,5.529195968163013,1.2372221203252673
1780098761544274000,10.50227392578125,2.0796359445244073,5.458131550380587,1.3983750975728033
1780098761554265300,10.512265380859375,1.2014578562438487,4.700044068858027,2.1284987596318126
1780098761564257300,10.52225732421875,0.6911883667260408,3.4020272880911824,2.855324256928265
1780098761574249200,10.532249267578125,-0.9481535417824983,2.158724094286561,3.4571588082045315
1780098761584241400,10.542241455078125,-3.0648925977766512,1.124125025716424,3.799341721819341
1780098761594233300,10.5522333984375,-3.835410521805286,0.386779887971282,4.404130154465139
1780098761604225300,10.562225341796875,-3.084960403293371,0.08444353931546211,5.785084453898668
1780098761614217200,10.57221728515625,-1.6541653836309909,0.3218926975190639,8.268208260089159
1780098761624209400,10.58220947265625,-1.0714532467801123,1.1521581110239028,10.186280600738526
1780098761634201300,10.592201416015625,-1.2708359283745287,1.9464280820399522,9.946984353363513
1780098761644193500,10.602193603515625,-0.7771862228114157,2.3569611860424278,8.252406295323372
1780098761654185200,10.612185302734375,-0.5797909156419336,2.3404046035170554,6.020635085004567
1780098761664177400,10.622177490234375,-0.954246159569174,1.9927707310199736,3.746443952107429
1780098761674169300,10.63216943359375,-1.762956890000403,1.3524486281782389,1.7154422746315598
1780098761684161500,10.64216162109375,-2.7923791404545306,0.6309872882634401,-0.019971651665866372
1780098761694153200,10.6521533203125,-3.832873696804046,-0.002976385462284088,-1.2156880416482687
1780098761704145200,10.662145263671874,-4.418279383587837,-0.4251958356052637,-1.9244944826513528
1780098761714137300,10.672137451171874,-4.317190122158825,-0.7575082203298806,-2.168032313118875
1780098761724129300,10.68212939453125,-4.126422635631263,-0.9915350028693676,-2.5686998566672203
1780098761734121200,10.692121337890624,-3.8257550969704983,-0.9863380187481641,-2.983768558272719
1780098761744113200,10.702113037109376,-3.5377535631373522,-1.0962561910599469,-3.3089670193389056
1780098761754105300,10.712105224609376,-3.3601354810401793,-1.154824699884653,-3.1967741800934073
1780098761764097300,10.72209716796875,-3.3665283969476816,-1.2955395769983529,-3.5202652527198195
1780098761774089200,10.732089111328126,-4.105844542504847,-1.575620254704356,-4.298196375614404
1780098761784081200,10.7420810546875,-5.407354718345403,-2.1240619462281463,-4.1131732779577375
1780098761794073300,10.7520732421875,-6.1589516688048835,-2.8712948562592264,-2.8154452510043977
1780098761804065300,10.762065185546875,-6.115189099445939,-3.4003882887125014,-1.7900208380147813
1780098761814057500,10.772057373046875,-5.790902200266719,-4.024948758798837,-1.3048013263404368
1780098761824049200,10.782049072265625,-5.583704387941956,-4.571731577199698,-0.824597304740548
1780098761834041300,10.792041259765625,-5.577165926083922,-5.003053786730766,-0.1468397897347808
1780098761844033300,10.802033203125,-5.994210603937506,-5.3760220069706435,0.5084063259944319
1780098761854025500,10.812025390625,-6.4715598206281655,-5.7891503881633275,0.9573980477288365
1780098761864017200,10.82201708984375,-6.427458228573203,-6.275331730607151,1.0032713256314396
1780098761874009300,10.83200927734375,-5.781553941684961,-6.836144243404269,0.7553992653518915
1780098761884001300,10.842001220703125,-5.165781758210063,-7.268660046634078,0.5470978756994008
1780098761893993500,10.851993408203125,-4.623363857020437,-7.330364515396952,0.5441106765821576
1780098761903985200,10.861985107421875,-4.251352791374922,-7.06917441612184,0.5846212584078312
1780098761913977300,10.871977294921875,-3.780868784278631,-6.670400723496079,0.4515986893624067
1780098761923969300,10.88196923828125,-2.862006218910217,-5.896353456297517,0.33798692322969437
1780098761933961500,10.89196142578125,-0.9222180132761597,-4.483313289034366,0.224522456613183
1780098761943953200,10.901953125,3.692743926101923,-1.9553227516353129,0.09874854352176189
1780098761953945300,10.9119453125,13.400892635339497,2.6072628115564584,-0.2526704004719853
1780098761963937300,10.921937255859374,29.36220391347408,12.788230692839623,0.7420221896454692
1780098761973929500,10.931929443359374,28.75233014038801,22.403351574289797,6.740638627326488
1780098761983921400,10.94192138671875,15.581999826347827,20.965345892596243,5.277684382337331
1780098761993913300,10.951913330078124,7.483214066940546,14.564611420297622,0.550076014727354
1780098762003905300,10.9619052734375,2.568313195437193,9.00777341197133,-1.6474784532129763
1780098762013897500,10.9718974609375,-0.4063806604981422,5.067963773536682,-1.7305442744344472
1780098762023889400,10.981889404296876,-0.758757343608141,0.6550596532464027,-1.0742910274893045
1780098762033881300,10.99188134765625,0.3693465226113796,-3.2568232828646897,-0.2876832616642117
1780098762043873300,11.001873291015626,0.3071034169271588,-5.601586666113138,0.4461494840458035
1780098762053865200,11.011865234375,-3.28257790184617,-5.9926627899736165,1.8669956488847732
1780098762063857400,11.021857421875,-8.423252691328525,-4.871922730520367,3.4041534864649177
1780098762073849000,11.03184912109375,-10.926219846630095,-2.6297856090098617,4.67775215755105
1780098762083841300,11.04184130859375,-10.343383718073367,0.3955307651817798,6.573087765735387
1780098762093833200,11.051833251953125,0.17875293134599923,5.437103959921002,11.281646564960479
1780098762103825400,11.061825439453125,8.776900125026703,11.383410656911135,12.149268772435187
1780098762113817000,11.071817138671875,-4.815217969740927,6.219226397025585,4.249759384703636
1780098762123809300,11.081809326171875,-6.941099240350723,-0.37259471075236794,1.0582251510903238
1780098762133801200,11.09180126953125,-6.246474469435214,-3.42472894924283,-0.3738648768186569
1780098762143793400,11.10179345703125,-5.574997349873184,-4.823962709471583,-1.1050111599236727
1780098762153785300,11.111785400390625,-4.841111120410263,-5.567784934276342,-1.6772788404539227
1780098762163777300,11.12177734375,-4.5485789574101565,-6.2458653976261616,-2.7991975882977247
1780098762173769200,11.131769287109375,-4.146490148887038,-6.5964037593930955,-3.7204102239236234
1780098762183761400,11.141761474609375,-4.172393236428499,-5.878559440931677,-3.4337077899903057
1780098762193753300,11.15175341796875,-4.949704473859072,-3.965250369161367,-1.7591250567525625
1780098762203745300,11.161745361328125,-5.489972211277484,-1.4939695609778165,-0.4420739051699638
1780098762213737200,11.1717373046875,-5.74640079523921,1.398262284848094,-0.06386573844999074
1780098762223729400,11.1817294921875,-6.299370193320512,4.090671815553307,-0.12279548180252313
1780098762233721300,11.191721435546874,-6.83630966309905,5.997735270932316,-0.4230366117447614
1780098762243713300,11.20171337890625,-6.828492267346382,6.877855140930413,-0.9823965876460075
1780098762253705200,11.211705322265624,-5.965176817154884,6.465944318833947,-1.571694605693221
1780098762263697400,11.221697509765624,-4.723027177299559,4.853743515229225,-1.536629137530923
1780098762273689300,11.231689453125,-4.212874884420633,2.435710897630453,-2.030529091528058
1780098762283681300,11.241681396484376,-3.565859421420097,1.1452186671495437,-2.3714105671554804
1780098762293673200,11.251673095703126,-2.8392881911456582,0.8587059105694294,-2.624494224603474
1780098762303665400,11.26166552734375,-2.263183416670561,0.7411345931559801,-3.1028935348689552
1780098762313657300,11.2716572265625,-1.1888777761340141,0.5444511605829,-3.1111215572491284
1780098762323649300,11.281649169921875,0.04261283306824043,0.14172960711419583,-2.770322206947207
1780098762333641200,11.29164111328125,1.3587813383311032,-0.2068330706655979,-1.9820356942549346
1780098762343633400,11.30163330078125,4.138400950455665,-0.8793389487534761,-1.2385159595280886
1780098762353625300,11.311625244140625,7.460257554244994,-1.620529656010866,-0.5510717477664351
1780098762363617500,11.321617431640625,8.764269191512465,-1.6763707856982946,0.36837650853544474
1780098762373609200,11.331609130859375,7.639024806377291,-1.2775818955034017,0.7590104415863752
1780098762383601200,11.34160107421875,5.641353443834185,-0.7631359970837831,0.5689814984664321
1780098762393593300,11.35159326171875,3.260675866639614,-0.8729343424081801,0.16215777037590742
1780098762403585300,11.361585205078125,0.80596698468104,-1.5237316620349883,-0.25275281805843114
1780098762413577200,11.3715771484375,-2.2085469865977765,-2.357707035973668,-1.23342185125947
1780098762423569200,11.381569091796875,-4.848905427548289,-3.0371704781144855,-1.9041294477537274
1780098762433561300,11.391561279296875,-5.297078234115243,-3.5714451125979423,-1.4505167882204055
1780098762443553300,11.40155322265625,-2.1170622965991495,-3.0297756916880605,0.11590776811540127
1780098762453545200,11.411545166015625,1.9936866768211126,-1.2068828039020298,1.914139677375555
1780098762463537200,11.421537109375,3.642144204199314,0.5863520277231932,2.7470515137359497
1780098762473529300,11.431529296875,4.834034898413718,1.2468991724699734,1.9862278852477668
1780098762483521300,11.441521240234374,6.194116505688428,1.0917045191049575,0.7351900055378675
1780098762493513500,11.451513427734374,6.937233797094225,0.9179244077354669,-0.09745265849232673
1780098762503505200,11.461505126953124,6.188438460052013,0.8542682203829288,-0.38172260458171364
1780098762513497300,11.471497314453124,4.49456270506233,0.7546955009967088,-0.36674043176621196
1780098762523489300,11.4814892578125,3.012879794205725,0.8424263914197683,-0.3450853570580482
1780098762533481500,11.4914814453125,2.0123069138780236,1.3058107956439255,-0.675046502481401
1780098762543473200,11.50147314453125,1.2240335529282689,1.8283377091884612,-1.7140855993255972
1780098762553465300,11.51146533203125,0.945583983555436,2.314056694817543,-3.0618203507244584
1780098762563457800,11.521457763671876,1.2141361360311507,2.7962773169368504,-4.127788371026516
1780098762573449700,11.53144970703125,1.436962894642353,3.459889694473147,-5.146819283586741
1780098762583441700,11.541441650390626,1.5442334750548004,4.314832453116774,-6.344595820969343
1780098762593433900,11.551433837890626,1.7266218402937055,5.416557430976629,-7.354503515875339
1780098762603425800,11.56142578125,1.8873747123077511,6.6329790475964545,-7.918663001012802
1780098762613418000,11.57141796875,2.3811796814978123,7.08571813916564,-8.08912887326777
1780098762623409700,11.58140966796875,3.8446114808708427,6.542697888168692,-7.2113038362085815
1780098762633401900,11.59140185546875,5.724737244963646,6.158778065803647,-5.469606299597024
1780098762643393800,11.601393798828125,7.085671377414465,6.870300780028105,-2.8861779526144264
1780098762653386000,11.611385986328125,6.7102721306353805,7.718779895615577,-0.025221827279031276
1780098762663377700,11.621377685546875,4.749888588479161,6.964390684089064,1.870892071801424
1780098762673369900,11.631369873046875,3.2976404464215037,5.569501675066352,3.9545372519671913
1780098762683361800,11.64136181640625,2.952448121857643,4.358421419474483,5.355355066516995
1780098762693354000,11.65135400390625,2.6570845348238943,3.143124422970414,5.948403377008438
1780098762703345700,11.661345703125,1.9371289232969282,2.1564719314455987,6.237601427149772
1780098762713337900,11.671337890625,0.9069891722232103,1.663850326821208,6.3042252321362495
1780098762723329800,11.681329833984375,-0.7403788063526153,1.5812538766771553,6.403463605001568
1780098762733322000,11.691322021484375,-2.8723241993069646,1.6443348944902418,6.835445739746094
1780098762743313700,11.701313720703125,-3.6712557323932646,1.646451448252797,7.888800946712493
1780098762753305900,11.711305908203125,-3.4240602562010287,1.8500947829663752,9.345267583248019
1780098762763297800,11.7212978515625,-2.806066305023432,2.2893740889817473,10.169344663506745
1780098762773290000,11.7312900390625,-2.2078395689807833,2.4101672910511494,9.373660734039545
1780098762783282000,11.741281982421874,-1.4085786578096449,2.2872668875694275,7.494798121750354
1780098762793273900,11.75127392578125,-0.9840541455946862,1.7573773363023995,5.144946475452184
1780098762803265800,11.761265869140624,-1.4550633456088602,1.053657404783368,3.0402944553539153
1780098762813257700,11.7712578125,-2.294662550778687,0.350175373673439,1.3157643266424537
1780098762823250000,11.78125,-2.8586525245681402,-0.318882409787178,-0.0942734439343214
1780098762833241600,11.79124169921875,-3.219099116887152,-0.7897931178629398,-1.2765467072367667
1780098762843233800,11.80123388671875,-3.601156944772601,-1.0432353794902562,-2.199033892843127
1780098762853225700,11.811225830078126,-4.234639849244058,-1.243461014714837,-3.105143359622359
1780098762863218000,11.821218017578126,-4.517523309411108,-1.4267641567111014,-3.9593937520876525
1780098762873209600,11.831209716796875,-4.2611198598906395,-1.5365630865573883,-4.761254032102227
1780098762883201800,11.841201904296875,-3.8491479552567003,-1.4747417134165763,-5.792649336194992
1780098762893193700,11.85119384765625,-3.551015780292451,-1.241771161931753,-6.358646558153629
1780098762903186000,11.86118603515625,-3.5429902947470544,-0.966298854804039,-5.620319423633814
1780098762913177900,11.871177734375,-4.108770659084618,-0.9585369886308908,-3.484070196005702
1780098762923169800,11.881169677734375,-4.3440898195222015,-1.6018506745040415,-1.2622113078922033
1780098762933161700,11.89116162109375,-4.475167391979694,-2.3476520904272795,-0.005252221439778804
1780098762943154000,11.90115380859375,-4.956068163672089,-2.9374668258249756,0.5811942065685987
1780098762953145900,11.911145751953125,-5.33456946811974,-3.6152930221527813,0.7270040687337518
1780098762963137800,11.9211376953125,-5.69322859250009,-4.359742438945174,0.5353545386746525
1780098762973129700,11.931129638671875,-6.358111136102676,-4.9639568710952995,0.47474224906265733
1780098762983122000,11.941121826171875,-6.906702465230226,-5.403796733602881,0.655269788865745
1780098762993113900,11.95111376953125,-6.922825917035341,-5.968412730336189,0.8550140703141689
1780098763003105800,11.961105712890625,-6.493622599354386,-6.521575605162978,1.0724857316330074
1780098763013097700,11.97109765625,-5.675468479403853,-6.976981870114803,1.2828130741551518
1780098763023088600,11.981088623046874,-4.524129283547401,-7.244072717866301,1.4909598577678203
1780098763033080800,11.991080810546874,-3.7217233523488042,-7.308120534884929,1.6313240217477083
1780098763043072800,12.00107275390625,-3.407476201146841,-7.020263962480425,1.4423866732567547
1780098763053064700,12.011064697265626,-2.6829066660836336,-6.796544638943672,0.9329328840360045
1780098763063056600,12.021056640625,-1.2691948831692337,-6.4102762076258655,0.6648313979372382
1780098763073048800,12.031048828125,0.9115051883429288,-5.486785982456803,0.7283972766578197
1780098763083040800,12.041040771484376,4.579691596293449,-3.779418000948429,0.7932055566549301
1780098763093033000,12.051032958984376,10.472585267525911,-0.8510895903468132,0.4199868687853217
1780098763103024600,12.061024658203126,19.18824503417015,4.9748535281628365,-0.32198739006519317
1780098763113016800,12.071016845703125,24.067707512545585,14.695454307216405,3.064184449507296
1780098763123008800,12.0810087890625,17.123274159336088,19.794791708660124,6.490811633586883
1780098763133001000,12.0910009765625,10.837594637715815,18.223586347788572,4.54095416162014
1780098763142992600,12.10099267578125,6.267615457141399,12.894196328133344,1.9018653022140264
1780098763152984800,12.11098486328125,2.2415420782268045,8.185702995359897,0.584815611936152
1780098763162976800,12.120976806640625,0.4084758792117238,3.2849382012367245,-0.47389761493206023
1780098763172969000,12.130968994140625,0.2621440389990806,-1.7066677242845296,-0.6506006280109286
1780098763182960600,12.140960693359375,-0.4971618784025311,-4.969668234479427,-0.29040128845125435
1780098763192952800,12.150952880859375,-3.425792486821115,-7.075144722703099,-0.18683745360225437
1780098763202944800,12.16094482421875,-5.771703578799963,-7.906099287515878,0.015605857671797275
1780098763212937000,12.17093701171875,-7.180865443325042,-7.323052146556973,0.40836511231362815
1780098763222928600,12.1809287109375,-8.944393703472613,-4.924052146208286,1.6325097244009374
1780098763232920800,12.1909208984375,-9.147010033226012,-1.7609429198294877,4.154906095054746
1780098763242912800,12.200912841796875,0.4816393151000142,4.574354326918721,10.714060612505675
1780098763252905000,12.210905029296875,4.807452011914551,13.048095096468925,14.004534236037731
1780098763262897000,12.22089697265625,-8.787188879328966,10.90627595975399,9.40270913386941
1780098763272888800,12.230888916015624,-9.52279564897418,4.644211706998944,4.968372349449992
1780098763282880800,12.240880859375,-6.514732607400417,0.2079272956430912,1.7173343719884753
1780098763292873000,12.250873046875,-5.462936904835701,-2.0533821438491344,0.5097206234633922
1780098763302865000,12.260864990234374,-4.264160835021734,-3.581348082453012,-0.5650926743343472
1780098763312856800,12.27085693359375,-3.5084500195026393,-4.753858076632023,-1.9582716645687817
1780098763322848800,12.280848876953126,-2.8851299048662185,-5.367040828135609,-3.203127056251466
1780098763332841000,12.290841064453126,-2.449791737692058,-5.174442034527659,-3.578196632684767
1780098763342833000,12.3008330078125,-2.5582442213654515,-4.1057893051862715,-3.038749563999474
1780098763352824600,12.310824462890626,-3.2319071605339644,-2.165323930943012,-2.3110300404727457
1780098763362816800,12.320816650390626,-3.8030338543355464,0.1058674356162548,-1.7762749289959667
1780098763372808700,12.33080859375,-4.494063815629482,2.061107769665122,-1.6159227467373012
1780098763382801000,12.34080078125,-5.314704491698742,3.311993381422758,-1.7113091203495858
1780098763392792600,12.35079248046875,-5.959642563903332,3.59175900183022,-1.8765140033364296
1780098763402784800,12.36078466796875,-6.039713879483938,2.8246231214553115,-1.8611252955466508
1780098763412776700,12.370776611328125,-6.151174020540714,1.7424445555865764,-1.8787123901635407
1780098763422769000,12.380768798828125,-5.728816038709879,0.8439221829354763,-1.9961334854513406
1780098763432760800,12.3907607421875,-4.423268862438202,0.9261474616795777,-1.9200880643859504
1780098763442752800,12.400752685546875,-3.3977240379393097,1.1904302662730217,-1.9257891986370086
1780098763452744700,12.41074462890625,-2.614929985183477,0.7358966925024986,-2.3548954856842754
1780098763462737000,12.42073681640625,-1.1829670907855032,-0.1319523094654083,-2.519358025871217
1780098763472728800,12.430728759765625,0.4405564863443374,-0.920559432414174,-2.2008023638203738
1780098763482720800,12.440720703125,2.1584470309108497,-1.7929601063370704,-2.251377243542671
1780098763492711700,12.450711669921875,4.3202544781655075,-2.283501982077956,-2.1451909512355924
1780098763502703900,12.460703857421874,6.1450587525308125,-1.8535557370752096,-1.8087898358926175
1780098763512695800,12.47069580078125,7.097651153543591,-1.0976216341942548,-1.2245771582856773
1780098763522688000,12.48068798828125,6.99442517234683,-0.5726759690701961,-0.3916992241948843
1780098763532679700,12.4906796875,5.575820356693863,-0.15732698921859264,0.22304712336361407
1780098763542672000,12.500671875,3.246843156120181,0.28930034147202965,0.20824176841974257
1780098763552663800,12.510663818359374,1.5635748659931121,0.26001754836440083,-0.3556239944681525
1780098763562656500,12.520656494140624,0.6502298950023949,0.2753659241437912,-0.8508671797677874
1780098763572648400,12.5306484375,-0.17940365033969283,0.4300923754751682,-1.063512151582539
1780098763582640400,12.540640380859376,-0.5357211800299585,0.5215051692813635,-1.225792087033391
1780098763592632600,12.550632568359376,0.2781149305909872,0.5621300251364708,-1.1937824993103743
1780098763602624500,12.56062451171875,1.8854929902143776,0.590074847638607,-0.6893681655615568
1780098763612616400,12.570616455078126,3.5404011550366876,0.5004729026466608,-0.28429186566025016
1780098763622608400,12.5806083984375,5.042938053351641,0.3536071016877889,-0.2041319950133562
1780098763632600600,12.5906005859375,5.660623376971483,0.24297639719247816,-0.3765957630872726
1780098763642592500,12.600592529296875,5.1602743929654356,0.3325648981809616,-0.6140913907811045
1780098763652584200,12.610584228515625,3.9430972818031904,0.6169768830895423,-0.9177774004802107
1780098763662576400,12.620576416015625,2.9071742711529134,1.000825978305936,-1.3017825630411506
1780098763672568300,12.630568359375,2.243023548956215,1.3449240778923033,-1.754172402781248
1780098763682560500,12.640560546875,1.7963506255581974,1.6352338886678217,-2.4642259212359785
1780098763692552400,12.650552490234375,1.2013247313834725,2.1511346620708705,-3.460395305907726
1780098763702544400,12.66054443359375,0.9034513534858822,3.160468941003084,-4.478002030883729
1780098763712536300,12.670536376953125,1.0401888514012099,4.3784296037584545,-5.172662165373564
1780098763722528500,12.680528564453125,1.2960872740089893,5.1441222995877265,-6.078434947544336
1780098763732520400,12.6905205078125,1.9015788864880798,6.075635087692738,-6.52364189004302
1780098763742512400,12.700512451171875,2.8110630903974174,6.822160141715407,-6.2748015692532055
1780098763752504300,12.71050439453125,3.5015304493725297,6.793198835647106,-5.5448985642075534
