time,seconds_elapsed,z,y,x
1780098751102613800,0.06061376953125,-0.4403192102909088,-0.9217751026153564,-0.6639634966850281
1780098751112605700,0.070605712890625,-0.4519581198692322,-0.9743257761001587,-0.5947178602218628
1780098751122597600,0.08059765625,-0.44049587845802307,-0.7848783731460571,-0.4210672378540039
1780098751132589600,0.090589599609375,-0.4035075306892395,-0.41320565342903137,-0.20547997951507568
1780098751142580700,0.100580810546875,-0.3651745021343231,0.05737782642245293,0.028364205732941628
1780098751152572700,0.11057275390625,-0.3585863709449768,0.5002067685127258,0.26150089502334595
1780098751162564900,0.12056494140625,-0.3877192437648773,0.7877407670021057,0.4641173779964447
1780098751172556500,0.130556640625,-0.4374343454837799,0.8774745464324951,0.5885151624679565
1780098751182548700,0.140548828125,-0.5041633248329163,0.7995182275772095,0.6080814599990845
1780098751192540700,0.150540771484375,-0.5552147030830383,0.6006589531898499,0.5166274905204773
1780098751202532900,0.160532958984375,-0.5395609140396118,0.379417359828949,0.3454652726650238
1780098751212524500,0.170524658203125,-0.4611639380455017,0.21188803017139435,0.14918415248394012
1780098751222516700,0.180516845703125,-0.37648075819015503,0.07957739382982254,-0.02004801295697689
1780098751232508700,0.1905087890625,-0.3385644555091858,-0.03865274414420128,-0.12517917156219482
1780098751242500900,0.2005009765625,-0.3454838991165161,-0.14713473618030548,-0.16006578505039215
1780098751252492500,0.210492431640625,-0.37014082074165344,-0.18652328848838806,-0.1372472047805786
1780098751262484700,0.220484619140625,-0.3625745177268982,-0.13341772556304932,-0.11888283491134644
1780098751272476700,0.2304765625,-0.3808477520942688,0.05186096951365471,-0.13196519017219543
1780098751282467600,0.240467529296875,-0.49572432041168213,0.13205167651176453,-0.1994134783744812
1780098751292459800,0.250459716796875,-0.6034250855445862,0.34541481733322144,-0.2944680452346802
1780098751302451700,0.26045166015625,-0.6835780143737793,0.47023239731788635,-0.39594221115112305
1780098751312443600,0.270443603515625,-0.7340412735939026,0.4446046054363251,-0.48790550231933594
1780098751322435600,0.280435546875,-0.7611234784126282,0.34401488304138184,-0.564498245716095
1780098751332427800,0.290427734375,-0.7896117568016052,0.27473506331443787,-0.6450565457344055
1780098751342419700,0.300419677734375,-0.8176276683807373,0.25815263390541077,-0.7384091019630432
1780098751352411600,0.31041162109375,-0.8342326879501343,0.2293674349784851,-0.8090009689331055
1780098751362403600,0.320403564453125,-0.8230985403060913,0.17409992218017578,-0.8366765379905701
1780098751372395800,0.330395751953125,-0.7692663073539734,0.06425632536411285,-0.8104951977729797
1780098751382387700,0.3403876953125,-0.6849408149719238,-0.1177145466208458,-0.7194342613220215
1780098751392379600,0.350379638671875,-0.6094865798950195,-0.2937578558921814,-0.5894567966461182
1780098751402371600,0.36037158203125,-0.5574031472206116,-0.4211786389350891,-0.4561605453491211
1780098751412363800,0.37036376953125,-0.5143468976020813,-0.5770506262779236,-0.3229747712612152
1780098751422354700,0.380354736328125,-0.47584208846092224,-0.7248382568359375,-0.1837700456380844
1780098751432346600,0.3903466796875,-0.43434953689575195,-0.7885377407073975,-0.03633493557572365
1780098751442338800,0.4003388671875,-0.3908875584602356,-0.696800947189331,0.11735183000564575
1780098751452330500,0.41033056640625,-0.3362135887145996,-0.47453129291534424,0.2554543614387512
1780098751462322700,0.42032275390625,-0.27548500895500183,-0.20889773964881897,0.3452526926994324
1780098751472314600,0.430314697265625,-0.21794506907463074,0.024650022387504578,0.37503859400749207
1780098751482306800,0.440306884765625,-0.15648198127746582,0.22545182704925537,0.3470301330089569
1780098751492298500,0.450298583984375,-0.07960233837366104,0.3117218315601349,0.2558576762676239
1780098751502290700,0.460290771484375,0.011805335991084576,0.25806260108947754,0.12951889634132385
1780098751512282600,0.47028271484375,0.082883819937706,0.15398332476615906,-0.0010656503727659583
1780098751522274800,0.48027490234375,0.11378075182437897,0.03799307346343994,-0.09665582329034805
1780098751532266500,0.4902666015625,0.10204078257083893,-0.07179588824510574,-0.15117907524108887
1780098751542258700,0.5002587890625,0.0930747240781784,-0.18040385842323303,-0.16484536230564117
1780098751552251400,0.51025146484375,0.10152200609445572,-0.2714529037475586,-0.13308419287204742
1780098751562243300,0.520243408203125,0.12827160954475403,-0.3290368318557739,-0.05531376600265503
1780098751572235000,0.530235107421875,0.1407536119222641,-0.3302174508571625,0.050413813441991806
1780098751582227200,0.540227294921875,0.13353724777698517,-0.27904319763183594,0.14928312599658966
1780098751592218000,0.550218017578125,0.11243154108524323,-0.1946641504764557,0.2381555140018463
1780098751602210300,0.560210205078125,0.09620623290538788,-0.01925797574222088,0.32104188203811646
1780098751612202200,0.5702021484375,0.10087763518095016,0.2458517700433731,0.38479986786842346
1780098751622194200,0.580194091796875,0.11814823746681213,0.5124431848526001,0.4064255356788635
1780098751632186000,0.59018603515625,0.14107255637645721,0.6878621578216553,0.3802341818809509
1780098751642178300,0.60017822265625,0.1719662845134735,0.7123637795448303,0.31669649481773376
1780098751652170200,0.610170166015625,0.23642204701900482,0.5436263084411621,0.23201711475849152
1780098751662162200,0.620162109375,0.32581210136413574,0.17349381744861603,0.14880184829235077
1780098751672154000,0.630154052734375,0.49436885118484497,-0.19309447705745697,0.11133518815040588
1780098751682146300,0.640146240234375,0.5462921857833862,-0.4707399308681488,0.10232731699943542
1780098751692138200,0.65013818359375,0.4984932541847229,-0.7397927045822144,0.12001804262399673
1780098751702130400,0.66013037109375,0.4071342945098877,-0.8032041788101196,0.16203925013542175
1780098751712122000,0.6701220703125,0.30945509672164917,-0.6318892240524292,0.17026323080062866
1780098751722114300,0.6801142578125,0.233109712600708,-0.387643039226532,0.12252047657966614
1780098751732106200,0.690106201171875,0.1850845366716385,-0.1570226401090622,0.019733013585209846
1780098751742098400,0.700098388671875,0.16900277137756348,0.03244076669216156,-0.10007327795028687
1780098751752090000,0.710090087890625,0.17280952632427216,0.1440051645040512,-0.20976215600967407
1780098751762082300,0.720082275390625,0.17367026209831238,0.12492361664772034,-0.30148807168006897
1780098751772073200,0.7300732421875,0.1866108924150467,-0.008488875813782215,-0.36604660749435425
1780098751782065200,0.740065185546875,0.21914246678352356,-0.24721384048461914,-0.4049689769744873
1780098751792057300,0.750057373046875,0.2525242865085602,-0.48931118845939636,-0.41759127378463745
1780098751802049300,0.76004931640625,0.28065526485443115,-0.6278107762336731,-0.4119134247303009
1780098751812041200,0.770041259765625,0.2995679974555969,-0.680317223072052,-0.39133167266845703
1780098751822033200,0.780033203125,0.3102632462978363,-0.6406568884849548,-0.34678977727890015
1780098751832025300,0.790025390625,0.30564674735069275,-0.5056806206703186,-0.27347999811172485
1780098751842017300,0.800017333984375,0.2854091227054596,-0.30914679169654846,-0.18263693153858185
1780098751852009200,0.81000927734375,0.27473193407058716,-0.1262311041355133,-0.09856698662042618
1780098751862001200,0.820001220703125,0.3052871823310852,0.014206426218152046,-0.035905469208955765
1780098751871993300,0.829993408203125,0.38511767983436584,0.08895822614431381,0.006023826077580452
1780098751881985300,0.8399853515625,0.4730518162250519,0.10758703947067261,0.024271804839372635
1780098751891977200,0.849977294921875,0.5334107279777527,0.10509875416755676,0.026255544275045395
1780098751901969200,0.85996923828125,0.5884079337120056,0.07038338482379913,0.009717578999698162
1780098751911961300,0.86996142578125,0.5784395933151245,0.07694725692272186,-0.006345163565129042
1780098751921953300,0.879953369140625,0.5149021744728088,0.09176748245954514,-0.028154587373137474
1780098751931945200,0.8899453125,0.45609617233276367,0.05696141719818115,-0.05413301661610603
1780098751941937200,0.899937255859375,0.40078631043434143,0.05508868023753166,-0.063731849193573
1780098751951929300,0.909929443359375,0.3458872139453888,0.0807126984000206,-0.0524599552154541
1780098751961920300,0.919920166015625,0.3032819628715515,0.09384714812040329,-0.027458999305963516
1780098751971912200,0.929912109375,0.26411277055740356,0.09680502116680145,0.0032301810570061207
1780098751981904400,0.939904296875,0.2160416543483734,0.08718594908714294,0.027848973870277405
1780098751991896000,0.94989599609375,0.159171923995018,0.06627117842435837,0.03251086175441742
1780098752001888300,0.95988818359375,0.10575664043426514,0.06172063946723938,0.002136177383363247
1780098752011880200,0.969880126953125,0.04056958109140396,0.05545857921242714,-0.059295203536748886
1780098752021872400,0.979872314453125,-0.024454955011606216,0.07693511247634888,-0.13461074233055115
1780098752031864000,0.989864013671875,-0.06781455874443054,0.2622898519039154,-0.1703927367925644
1780098752041856300,0.999856201171875,-0.12700757384300232,-0.04618515819311142,-0.29974648356437683
1780098752051848200,1.00984814453125,-0.16352836787700653,-0.38712066411972046,-0.41358041763305664
1780098752061840400,1.01984033203125,-0.17735683917999268,-0.41426998376846313,-0.4185171127319336
1780098752071832000,1.02983203125,-0.1893678903579712,-0.3271844983100891,-0.3224222660064697
1780098752081824300,1.03982421875,-0.22568194568157196,-0.08123783767223358,-0.1100388914346695
1780098752091816200,1.049816162109375,-0.2399478703737259,0.26425445079803467,0.1597021073102951
1780098752101808400,1.059808349609375,-0.2052905559539795,0.45793017745018005,0.36276891827583313
1780098752111800300,1.06980029296875,-0.12853915989398956,0.37148571014404297,0.44453164935112
1780098752121792300,1.079792236328125,-0.03540575131773949,0.15519733726978302,0.43252798914909363
1780098752131784200,1.0897841796875,0.028644051402807236,-0.1271522492170334,0.3591236472129822
1780098752141776400,1.0997763671875,0.01347202155739069,-0.43755272030830383,0.2527173161506653
1780098752151768300,1.109768310546875,-0.099784716963768,-0.6706898212432861,0.13409462571144104
1780098752161760300,1.11976025390625,-0.2662844657897949,-0.826336681842804,0.00024413727805949748
1780098752171752200,1.129752197265625,-0.41779735684394836,-0.8736414909362793,-0.1348603516817093
1780098752181744400,1.139744384765625,-0.5106402039527893,-0.7573476433753967,-0.2460465282201767
1780098752191736300,1.149736328125,-0.5526904463768005,-0.5505344271659851,-0.3415106534957886
1780098752201727200,1.159727294921875,-0.5544518828392029,-0.21502435207366943,-0.4443017542362213
1780098752211719200,1.16971923828125,-0.5108261108398438,0.11314759403467178,-0.5451252460479736
1780098752221711000,1.179711181640625,-0.38914254307746887,0.24656450748443604,-0.6471325755119324
1780098752231703300,1.189703369140625,-0.3098107874393463,0.3151037096977234,-0.6922466158866882
1780098752241695200,1.1996953125,-0.2777612507343292,0.250093013048172,-0.6900700330734253
1780098752251687200,1.209687255859375,-0.29278364777565,0.24923743307590485,-0.6485318541526794
1780098752261679000,1.21967919921875,-0.348528116941452,0.15127651393413544,-0.5892506837844849
1780098752271671300,1.22967138671875,-0.45279672741889954,-0.032743025571107864,-0.5336374640464783
1780098752281663200,1.239663330078125,-0.5829483270645142,-0.2620651423931122,-0.485432893037796
1780098752291655400,1.249655517578125,-0.6787275075912476,-0.4064522385597229,-0.4382626414299011
1780098752301647000,1.259647216796875,-0.6879276633262634,-0.4638707935810089,-0.3802110552787781
1780098752311639300,1.269639404296875,-0.6252524852752686,-0.43641284108161926,-0.3134496808052063
1780098752321631200,1.27963134765625,-0.5950471758842468,-0.2669457793235779,-0.2001103311777115
1780098752331623400,1.28962353515625,-0.4946131110191345,0.18180538713932037,-0.05717286095023155
1780098752341615000,1.299614990234375,-0.2887808680534363,0.531434178352356,0.06775655597448349
1780098752351607300,1.309607177734375,-0.07907671481370926,0.6563816666603088,0.16459093987941742
1780098752361599200,1.31959912109375,0.044776782393455505,0.6868021488189697,0.26765716075897217
1780098752371591400,1.32959130859375,0.17839060723781586,0.6851828098297119,0.3778204619884491
1780098752381583000,1.3395830078125,0.2880292236804962,0.4980151057243347,0.4708172380924225
1780098752391575300,1.3495751953125,0.3016391098499298,0.1888664811849594,0.5430213809013367
1780098752401567200,1.359567138671875,0.19370438158512115,-0.19288940727710724,0.6134952902793884
1780098752411559200,1.36955908203125,-0.01977020502090454,-0.5730718374252319,0.6777592897415161
1780098752421551000,1.379551025390625,-0.3045065999031067,-0.9101957678794861,0.7166709899902344
1780098752431543000,1.38954296875,-0.6034355163574219,-1.1590945720672607,0.7021059393882751
1780098752441535200,1.39953515625,-0.8556643128395081,-1.2565995454788208,0.6339915990829468
1780098752451527200,1.409527099609375,-1.0148001909255981,-1.1026973724365234,0.5038207769393921
1780098752461519400,1.419519287109375,-1.0757757425308228,-0.7172916531562805,0.2966601252555847
1780098752471511000,1.429510986328125,-1.0851566791534424,-0.3050270974636078,0.01738123968243599
1780098752481503200,1.439503173828125,-1.0747090578079224,-0.0809524729847908,-0.23728859424591064
1780098752491494100,1.449494140625,-1.0651421546936035,0.09245443344116211,-0.40507742762565613
1780098752501486300,1.459486328125,-1.0073577165603638,0.04527786746621132,-0.5089865326881409
1780098752511478300,1.469478271484375,-1.000935435295105,-0.24815763533115387,-0.5622013211250305
1780098752521470200,1.47947021484375,-1.1794029474258423,-0.5093772411346436,-0.5301070213317871
1780098752531462100,1.489462158203125,-1.4936017990112305,-0.6800393462181091,-0.47205042839050293
1780098752541454300,1.499454345703125,-1.8486703634262085,-0.8691267371177673,-0.4499560594558716
1780098752551449300,1.509449462890625,-2.119030475616455,-1.0036218166351318,-0.45244279503822327
1780098752561441300,1.519441162109375,-2.283278703689575,-0.9805673360824585,-0.4187575578689575
1780098752571433000,1.529432861328125,-2.3858070373535156,-0.8497732877731323,-0.36811092495918274
1780098752581425200,1.539425048828125,-2.451805353164673,-0.8239381909370422,-0.4305412769317627
1780098752591417000,1.5494169921875,-2.4713358879089355,-0.9984230995178223,-0.6644501686096191
1780098752601409300,1.5594091796875,-2.441757917404175,-1.3306281566619873,-0.9645511507987976
1780098752611401000,1.56940087890625,-2.3395588397979736,-1.6835784912109375,-1.2361011505126953
1780098752621393200,1.57939306640625,-2.2320094108581543,-1.2904232740402222,-1.4841331243515015
1780098752631385000,1.589385009765625,-2.1092135906219482,-0.6739544868469238,-1.6351333856582642
1780098752641377300,1.599377197265625,-1.9086717367172241,-0.031061537563800812,-1.752370834350586
1780098752651369200,1.609369140625,-1.602436900138855,0.25727763772010803,-1.830450177192688
1780098752661361200,1.619361083984375,-1.1383717060089111,0.1734434813261032,-1.771666169166565
1780098752671353000,1.62935302734375,-0.37559011578559875,-0.5331886410713196,-1.4900094270706177
1780098752681345300,1.63934521484375,0.616421639919281,-0.9712650179862976,-1.02523934841156
1780098752691337200,1.649337158203125,1.5986106395721436,-0.6381937861442566,-0.4638158082962036
1780098752701329200,1.6593291015625,2.272498369216919,-0.16577483713626862,0.04334938898682594
1780098752711321000,1.669321044921875,2.212979793548584,-0.6262829303741455,0.2908138036727905
1780098752721313300,1.679313232421875,1.7078149318695068,-0.9550850987434387,0.3912666440010071
1780098752731305200,1.68930517578125,1.1417548656463623,-1.4801599979400635,0.3943027853965759
1780098752741297200,1.699297119140625,0.7296243906021118,-1.9991238117218018,0.3336772620677948
1780098752751289000,1.7092890625,0.5844411849975586,-2.773719549179077,0.1865001916885376
1780098752761281300,1.71928125,0.6100594997406006,-2.8403117656707764,-0.002240967471152544
1780098752771273200,1.729273193359375,0.7358506917953491,-2.6305882930755615,-0.18808045983314514
1780098752781265200,1.73926513671875,0.793461263179779,-2.4785890579223633,-0.4816356301307678
1780098752791257000,1.749257080078125,0.898232638835907,-2.6820366382598877,-0.7625584602355957
1780098752801249300,1.759249267578125,0.9351325631141663,-2.831156015396118,-1.1036601066589355
1780098752811241200,1.7692412109375,0.9304579496383667,-2.8690247535705566,-1.4274177551269531
1780098752821233200,1.779233154296875,0.9816170334815979,-2.8510870933532715,-1.5934690237045288
1780098752831225000,1.78922509765625,1.147011399269104,-2.8245575428009033,-1.5002164840698242
1780098752841217300,1.79921728515625,1.3756786584854126,-2.203826665878296,-1.1985325813293457
1780098752851209200,1.809209228515625,1.394709587097168,-1.0975232124328613,-0.8560835719108582
1780098752861201400,1.819201416015625,1.125185489654541,-0.4946645498275757,-0.5753685832023621
1780098752871193000,1.829193115234375,0.8432061076164246,-0.55568528175354,-0.32013583183288574
1780098752881185300,1.839185302734375,0.9804552793502808,-0.6378288865089417,-0.054201092571020126
1780098752891176200,1.84917626953125,1.3245023488998413,-0.6409280896186829,0.24598883092403412
1780098752901169400,1.85916943359375,1.526023507118225,-0.7281793355941772,0.5890087485313416
1780098752911160300,1.869160400390625,1.5426026582717896,-0.823011577129364,1.0451716184616089
1780098752921152000,1.879152099609375,1.3750885725021362,-0.7866266369819641,1.6029236316680908
1780098752931144200,1.889144287109375,1.0077488422393799,-1.005079984664917,1.9826570749282837
1780098752941136100,1.89913623046875,0.7650530934333801,-1.4964121580123901,2.038639545440674
1780098752951128300,1.90912841796875,0.7218437790870667,-1.780983567237854,1.875775933265686
1780098752961120300,1.919120361328125,0.7625433206558228,-1.7473117113113403,1.6686220169067383
1780098752971112200,1.9291123046875,0.8766912221908569,-1.6535120010375977,1.3873966932296753
1780098752981104000,1.939104248046875,0.8906384706497192,-1.580409288406372,1.0529122352600098
1780098752991096300,1.949096435546875,0.808055579662323,-1.652921438217163,0.7675586342811584
1780098753001088300,1.959088134765625,0.8264122009277344,-1.8110828399658203,0.604779839515686
1780098753011080200,1.969080078125,0.9152836203575134,-1.8710737228393555,0.59591144323349
1780098753021072100,1.979072021484375,0.9973052740097046,-1.8633686304092407,0.6615181565284729
1780098753031064300,1.989064208984375,1.0774908065795898,-1.737504005432129,0.6624351143836975
1780098753041056300,1.99905615234375,1.1547197103500366,-1.5524510145187378,0.6223390698432922
1780098753051048200,2.009048095703125,1.3176435232162476,-1.3491090536117554,0.6033610701560974
1780098753061040000,2.0190400390625,1.4163661003112793,-1.1030150651931763,0.5031545758247375
1780098753071032300,2.0290322265625,1.51033616065979,-0.9963111281394958,0.3012796640396118
1780098753081024300,2.039024169921875,1.5360889434814453,-1.4089068174362183,0.020840812474489212
1780098753091016200,2.04901611328125,1.6756653785705566,-1.9706727266311646,-0.16365911066532135
1780098753101008100,2.059008056640625,2.039067268371582,-2.3679792881011963,0.12934772670269012
1780098753111000300,2.069000244140625,2.093834638595581,-1.8814585208892822,0.8332445621490479
1780098753120992300,2.0789921875,1.6945849657058716,-1.059198021888733,1.218035101890564
1780098753130984200,2.088984130859375,1.274330496788025,-0.7331581115722656,1.0223597288131714
1780098753140976000,2.09897607421875,1.124348759651184,-0.1246037557721138,0.4858775734901428
1780098753150968000,2.108968017578125,1.2738767862319946,0.27012789249420166,-0.19968660175800323
1780098753160960300,2.118960205078125,1.3382984399795532,0.3468852639198303,-0.7518326044082642
1780098753170952200,2.1289521484375,1.2551156282424927,0.32733774185180664,-0.9078665375709534
1780098753180944100,2.138944091796875,1.149893879890442,0.06407761573791504,-0.7000616788864136
1780098753190936000,2.14893603515625,1.107364296913147,-0.28244179487228394,-0.3516857326030731
1780098753200928300,2.15892822265625,1.0698578357696533,-0.6318003535270691,-0.057029590010643005
1780098753210920200,2.168920166015625,0.9549207091331482,-0.9033218622207642,0.1305137574672699
1780098753220912000,2.178912109375,0.8075733184814453,-1.0617258548736572,0.22951756417751312
1780098753230904000,2.188904052734375,0.7127969861030579,-1.1492668390274048,0.24084307253360748
1780098753240896300,2.198896240234375,0.7260132431983948,-1.206785798072815,0.17193591594696045
1780098753250888200,2.20888818359375,0.7887383103370667,-1.2524735927581787,0.06797300279140472
1780098753260880100,2.218880126953125,0.7462227940559387,-1.005812406539917,-0.1421501487493515
1780098753270872000,2.2288720703125,0.6195895075798035,-0.45895785093307495,-0.6035219430923462
1780098753280864300,2.2388642578125,0.48173314332962036,0.1541508585214615,-1.1825101375579834
1780098753290856200,2.248856201171875,0.36085715889930725,0.7697136998176575,-1.6457889080047607
1780098753300848000,2.25884814453125,0.2750844657421112,1.19564688205719,-1.8437294960021973
1780098753310840000,2.268840087890625,0.2030070573091507,1.4108290672302246,-1.7234876155853271
1780098753320832300,2.278832275390625,0.12113402783870697,1.5556507110595703,-1.3274102210998535
1780098753330824200,2.28882421875,-0.021610479801893234,1.9367573261260986,-0.8744977712631226
1780098753340816400,2.29881640625,-0.23057915270328522,2.4914863109588623,-0.6347032785415649
1780098753350808000,2.30880810546875,-0.5284289717674255,3.0614826679229736,-0.760578453540802
1780098753360800300,2.31880029296875,-0.8488863706588745,3.593035936355591,-1.1750186681747437
1780098753370792200,2.328792236328125,-1.0880992412567139,3.987539291381836,-1.5953961610794067
1780098753380784400,2.338784423828125,-1.2094405889511108,4.145930290222168,-1.7844465970993042
1780098753390776000,2.348776123046875,-1.2718132734298706,3.9381253719329834,-1.660961627960205
1780098753400768300,2.358768310546875,-1.3169783353805542,3.461038827896118,-1.2746626138687134
1780098753410760200,2.36876025390625,-1.3213437795639038,2.90810489654541,-0.7395561933517456
1780098753420752400,2.37875244140625,-1.2870006561279297,2.3409435749053955,-0.16424818336963654
1780098753430744000,2.388744140625,-1.290312647819519,1.8321559429168701,0.29722970724105835
1780098753440736300,2.398736328125,-1.3045985698699951,1.3694438934326172,0.5822625160217285
1780098753450728200,2.408728271484375,-1.3017559051513672,1.0377036333084106,0.6813382506370544
1780098753460720400,2.418720458984375,-1.281442403793335,0.699637770652771,0.6450886130332947
1780098753470712000,2.428712158203125,-1.243751049041748,0.28305158019065857,0.5684065818786621
1780098753480704000,2.4387041015625,-1.1504426002502441,-0.12869122624397278,0.5415771007537842
1780098753490696200,2.4486962890625,-1.0080702304840088,-0.5234541296958923,0.6004514098167419
1780098753500688100,2.458688232421875,-0.8246254920959473,-0.9646493792533875,0.7401688098907471
1780098753510680300,2.468680419921875,-0.6154670715332031,-1.4623857736587524,0.9390052556991577
1780098753520672000,2.478672119140625,-0.5522401332855225,-1.637404203414917,1.1065120697021484
1780098753530664200,2.488664306640625,-0.6330958008766174,-1.2312870025634766,1.058380365371704
1780098753540656000,2.49865625,-0.7358999252319336,-0.5339409112930298,0.7593292593955994
1780098753550644700,2.508644775390625,-0.7948855757713318,0.1739511638879776,0.30992749333381653
1780098753560636400,2.518636474609375,-0.7778245210647583,0.8374612331390381,-0.1610378921031952
1780098753570628600,2.528628662109375,-0.7133827805519104,1.1689163446426392,-0.537261962890625
1780098753580620500,2.53862060546875,-0.526238203048706,0.9508022665977478,-0.7124249935150146
1780098753590612700,2.54861279296875,-0.3397548794746399,0.6523923277854919,-0.5797179341316223
1780098753600604400,2.5586044921875,-0.1952299177646637,0.014430205337703228,-0.2845776379108429
1780098753610596600,2.5685966796875,-0.09060588479042053,-0.7798452377319336,0.10742272436618805
1780098753620588500,2.578588623046875,0.03385081887245178,-1.6402002573013306,0.49278533458709717
1780098753630580700,2.588580810546875,0.16361388564109802,-2.372194766998291,0.8576968908309937
1780098753640572700,2.59857275390625,0.29469865560531616,-3.0035078525543213,1.1454139947891235
1780098753650564600,2.608564697265625,0.26994428038597107,-3.355664014816284,1.2681362628936768
1780098753660556500,2.618556640625,0.13143405318260193,-3.2456040382385254,1.1963472366333008
1780098753670548500,2.628548583984375,0.027399033308029175,-2.843141794204712,0.8863188624382019
1780098753680540700,2.638540771484375,0.04639749228954315,-2.171388626098633,0.4026286005973816
1780098753690532400,2.648532470703125,0.2312477082014084,-1.5197246074676514,-0.13901838660240173
1780098753700524500,2.658524658203125,0.5385022163391113,-1.190311312675476,-0.5421733260154724
1780098753710516500,2.6685166015625,0.8650673627853394,-1.451250672340393,-0.6585633754730225
1780098753720508700,2.6785087890625,1.1171956062316895,-2.1996781826019287,-0.42065468430519104
1780098753730500400,2.688500244140625,1.242361068725586,-2.982300043106079,0.093506820499897
1780098753740492500,2.698492431640625,1.1673963069915771,-3.271726608276367,0.6167037487030029
1780098753750484500,2.708484375,0.9009273648262024,-2.7310574054718018,0.8219513893127441
1780098753760476700,2.7184765625,0.6542856097221375,-1.602210521697998,0.5399966835975647
1780098753770468400,2.72846826171875,0.5364860892295837,-0.4944782853126526,-0.11583050340414047
1780098753780460500,2.73846044921875,0.5995385646820068,0.6688075065612793,-0.7607378959655762
1780098753790452500,2.748452392578125,0.6868271827697754,1.4988327026367188,-1.18427312374115
1780098753800444700,2.758444580078125,0.7948761582374573,1.387271761894226,-1.3547106981277466
1780098753810436600,2.7684365234375,0.8875877857208252,0.40757957100868225,-1.1743351221084595
1780098753820428500,2.778428466796875,0.9463642835617065,-1.1418704986572266,-0.5897768139839172
1780098753830420500,2.78842041015625,0.9683701992034912,-2.9092135429382324,0.29160305857658386
1780098753840412700,2.79841259765625,1.0709367990493774,-4.56437873840332,1.2089694738388062
1780098753850404600,2.808404541015625,1.5085406303405762,-6.024929523468018,2.1740078926086426
1780098753860396500,2.818396484375,1.9834728240966797,-6.544102668762207,3.063974618911743
1780098753870388500,2.828388427734375,2.350083351135254,-6.320589065551758,3.8017733097076416
1780098753880380700,2.838380615234375,2.709857702255249,-6.220434188842773,4.440578937530518
1780098753890372600,2.84837255859375,3.08236026763916,-6.483689785003662,4.901619911193848
1780098753900364500,2.858364501953125,3.4066598415374756,-6.693995952606201,5.197725772857666
1780098753910356500,2.8683564453125,3.5319430828094482,-6.648038387298584,5.212798118591309
1780098753920348700,2.8783486328125,3.6757566928863525,-6.2951130867004395,5.099215030670166
1780098753930340600,2.888340576171875,3.7080259323120117,-5.659183025360107,4.875730037689209
1780098753940332500,2.89833251953125,3.6490066051483154,-4.86895751953125,4.626736164093018
1780098753950324500,2.908324462890625,3.413142681121826,-3.9394257068634033,4.343310356140137
1780098753960316700,2.918316650390625,3.0008938312530518,-3.081101655960083,4.052122116088867
1780098753970308600,2.92830859375,2.5359809398651123,-2.51501727104187,3.84938907623291
1780098753980300500,2.938300537109375,2.098766565322876,-2.102895736694336,3.640242576599121
1780098753990292500,2.94829248046875,1.6198264360427856,-1.5262515544891357,2.92453670501709
1780098754000284700,2.95828466796875,1.2828744649887085,0.524008572101593,0.5868785977363586
1780098754010276600,2.968276611328125,1.5199185609817505,2.590223550796509,-1.4417774677276611
1780098754020268500,2.9782685546875,1.5790162086486816,3.731950283050537,-2.5355024337768555
1780098754030260500,2.988260498046875,0.9822497367858887,3.665607452392578,-2.618943929672241
1780098754040252400,2.99825244140625,0.11456417292356491,2.8703372478485107,-2.0494327545166016
1780098754050244600,3.00824462890625,-0.34820032119750977,1.97359299659729,-1.387571096420288
1780098754060236500,3.018236572265625,-0.14602966606616974,0.9907395243644714,-1.0785634517669678
1780098754070228500,3.028228515625,0.1831233948469162,0.03516295924782753,-0.7580098509788513
1780098754080220400,3.038220458984375,0.12143260985612869,-1.3731991052627563,0.11070210486650467
1780098754090212600,3.048212646484375,-0.2791506350040436,-2.9202282428741455,1.4962273836135864
1780098754100204500,3.05820458984375,-0.6758109331130981,-4.682929515838623,2.6167070865631104
1780098754110196500,3.068196533203125,-0.8576914668083191,-5.923171520233154,3.101383924484253
1780098754120188400,3.0781884765625,-0.9945585131645203,-6.372075080871582,3.038316011428833
1780098754130180600,3.0881806640625,-1.0440980195999146,-5.960536003112793,2.599900245666504
1780098754140172500,3.098172607421875,-0.8927766680717468,-4.836467266082764,2.018805503845215
1780098754150164500,3.10816455078125,-0.7957528233528137,-3.6376490592956543,1.7431508302688599
1780098754160156400,3.118156494140625,-0.8358035683631897,-2.57669734954834,1.6447662115097046
1780098754170148600,3.128148681640625,-0.892241358757019,-1.4860907793045044,1.5691949129104614
1780098754180140500,3.138140625,-0.8597979545593262,-0.3216669261455536,1.3354558944702148
1780098754190132700,3.1481328125,-0.8899686932563782,0.29406553506851196,1.3603105545043945
1780098754200124400,3.15812451171875,-1.050423264503479,0.47347018122673035,1.5896813869476318
1780098754210116600,3.16811669921875,-1.256293773651123,0.2817593216896057,1.808376431465149
1780098754220108500,3.178108642578125,-1.2501698732376099,0.2691332697868347,2.069079875946045
1780098754230100700,3.188100830078125,-1.0533126592636108,0.37140485644340515,2.180704355239868
1780098754240092400,3.198092529296875,-0.8298372626304626,0.5302482843399048,2.0584967136383057
1780098754250084600,3.208084716796875,-0.5420921444892883,0.5515809059143066,1.937117576599121
1780098754260076500,3.21807666015625,-0.08236369490623474,0.3767571747303009,1.9591435194015503
1780098754270068700,3.22806884765625,0.5561778545379639,0.03553495183587074,1.6356076002120972
1780098754280060400,3.238060302734375,1.3512701988220215,-0.2780219316482544,1.083667278289795
1780098754290052600,3.248052490234375,1.9728847742080688,-0.5242518186569214,0.48298782110214233
1780098754300044500,3.25804443359375,2.2370054721832275,-0.4835488498210907,0.0569281242787838
1780098754310036700,3.26803662109375,2.282191038131714,-0.20769362151622772,-0.2658899426460266
1780098754320028400,3.2780283203125,2.4014718532562256,0.5865960121154785,-0.5814579725265503
1780098754330020600,3.2880205078125,2.7080273628234863,1.454853892326355,-0.9067922234535217
1780098754340012500,3.298012451171875,3.4340598583221436,2.0293374061584473,-1.2187942266464233
1780098754350004700,3.308004638671875,4.539341449737549,2.7864580154418945,-1.6876574754714966
1780098754359996700,3.31799658203125,6.029590129852295,2.8301620483398438,-2.365017890930176
1780098754369988400,3.32798828125,7.145477771759033,2.6149985790252686,-3.138634204864502
1780098754379980500,3.33798046875,7.979453086853027,2.334498643875122,-3.783268928527832
1780098754389972500,3.347972412109375,8.685269355773926,1.828220009803772,-3.998466730117798
1780098754399964700,3.357964599609375,8.767603874206543,1.83172607421875,-3.91721510887146
1780098754409956400,3.367956298828125,8.24203872680664,1.481956958770752,-3.4952504634857178
1780098754419948500,3.377948486328125,7.201889514923096,0.49355214834213257,-2.72102427482605
1780098754429940500,3.3879404296875,5.773680686950684,-0.5037775635719299,-1.5747830867767334
1780098754439932700,3.3979326171875,4.0906901359558105,0.057519327849149704,0.113573357462883
1780098754449924400,3.40792431640625,2.452040195465088,1.3515434265136719,1.8257766962051392
1780098754459916500,3.41791650390625,1.2955279350280762,1.6748229265213013,2.7752153873443604
1780098754469908500,3.427908447265625,0.5981581211090088,1.0387438535690308,2.8461058139801025
1780098754479900700,3.437900634765625,-0.20858527719974518,0.09665414690971375,2.2906341552734375
1780098754489892600,3.447892578125,-0.9009526968002319,-0.48017290234565735,1.5630429983139038
1780098754499884500,3.457884521484375,-1.2126212120056152,-0.7244833111763,1.0372623205184937
1780098754509876500,3.46787646484375,-1.2514673471450806,-0.6358675956726074,0.839827835559845
1780098754519868700,3.47786865234375,-1.1955046653747559,-0.5305944681167603,0.7524130344390869
1780098754529860600,3.487860595703125,-1.220826506614685,-0.43152371048927307,0.7366384863853455
1780098754539853600,3.497853515625,-1.257301688194275,-0.3003388047218323,0.7636181712150574
1780098754549845500,3.507845458984375,-1.3163576126098633,0.2323274463415146,0.9353346824645996
1780098754559837400,3.51783740234375,-1.2517144680023193,1.1088075637817383,1.2207906246185303
1780098754569829400,3.527829345703125,-1.002828598022461,2.0091419219970703,1.113264799118042
1780098754579821300,3.5378212890625,-0.4921541213989258,2.412266969680786,0.05635474622249603
1780098754589813500,3.5478134765625,0.08482848107814789,1.7765283584594727,-1.4402652978897095
1780098754599805400,3.557805419921875,0.6093418002128601,0.6792159676551819,-2.448211193084717
1780098754609797400,3.56779736328125,1.0597057342529297,-0.5177249908447266,-2.9229819774627686
1780098754619789300,3.577789306640625,1.460415244102478,-1.7383158206939697,-3.2324936389923096
1780098754629781500,3.587781494140625,1.8730024099349976,-2.6933770179748535,-3.533207654953003
1780098754639773400,3.5977734375,2.365699291229248,-3.3811304569244385,-3.8428704738616943
1780098754649765400,3.607765380859375,2.975679874420166,-3.9788405895233154,-4.220252990722656
1780098754659757300,3.61775732421875,3.614880084991455,-4.612220287322998,-4.2900309562683105
1780098754669749500,3.62774951171875,4.049447059631348,-5.3186259269714355,-3.092167854309082
1780098754679741400,3.637741455078125,4.502767562866211,-6.165698528289795,-1.6922880411148071
1780098754689733600,3.647733642578125,5.288050174713135,-7.0719146728515625,-0.6164429783821106
1780098754699725300,3.657725341796875,6.455600738525391,-7.285703182220459,0.005889854393899441
1780098754709717500,3.667717529296875,7.985528945922852,-6.744565010070801,0.5534263849258423
1780098754719709400,3.67770947265625,9.027924537658691,-5.775290489196777,1.210958480834961
1780098754729701600,3.68770166015625,9.085901260375977,-4.723937511444092,1.4768884181976318
1780098754739693300,3.697693359375,7.6852874755859375,-3.44706130027771,0.5924515724182129
1780098754749685500,3.707685546875,5.12879753112793,-1.7038993835449219,-1.0022910833358765
1780098754759677400,3.717677490234375,2.0502567291259766,0.12663739919662476,-2.4768521785736084
1780098754769669600,3.727669677734375,-0.6266622543334961,1.7652568817138672,-3.315807819366455
1780098754779661300,3.737661376953125,-2.140549898147583,2.924180030822754,-3.525054454803467
1780098754789653500,3.747653564453125,-2.4119925498962402,3.290837287902832,-3.44972562789917
1780098754799645400,3.7576455078125,-1.9588133096694946,2.3301897048950195,-3.3804287910461426
1780098754809637600,3.7676376953125,-1.090210199356079,0.17123673856258392,-3.107783794403076
1780098754819629300,3.77762939453125,-0.22883552312850952,-1.6034626960754395,-2.614053964614868
1780098754829621200,3.787621337890625,0.34676435589790344,-2.3718535900115967,-2.0162289142608643
1780098754839613400,3.797613525390625,0.581661581993103,-2.264458417892456,-1.4559695720672607
1780098754849605400,3.80760546875,0.4976075291633606,-1.615539312362671,-1.0256763696670532
1780098754859597600,3.81759765625,0.1767996996641159,-0.7447028756141663,-0.7599855661392212
1780098754869589200,3.82758935546875,-0.21144165098667145,0.10054443031549454,-0.5852066874504089
1780098754879581400,3.83758154296875,-0.4913015365600586,0.7074668407440186,-0.3907938003540039
1780098754889573400,3.847573486328125,-0.5788381695747375,0.9361778497695923,-0.12860864400863647
1780098754899565600,3.857565673828125,-0.5200257301330566,0.9025128483772278,0.19921930134296417
1780098754909557200,3.86755712890625,-0.3976961672306061,0.6923725008964539,0.5582616925239563
1780098754919549400,3.877549560546875,-0.2184275984764099,0.3968484103679657,0.9328222870826721
1780098754929541400,3.887541259765625,-0.03719595447182655,0.07602841407060623,1.28823721408844
1780098754939533600,3.897533447265625,0.09197162091732025,-0.23941104114055634,1.6240911483764648
1780098754949525200,3.907525146484375,0.14575673639774323,-0.5388481616973877,1.9663593769073486
1780098754959517400,3.917517333984375,0.13964425027370453,-0.8897401094436646,2.3317627906799316
1780098754969509400,3.92750927734375,0.1042553186416626,-1.3284602165222168,2.7052512168884277
1780098754979501600,3.93750146484375,0.10145127773284912,-1.8821806907653809,3.0654702186584473
1780098754989493200,3.9474931640625,0.14687354862689972,-2.641674757003784,3.3436665534973145
1780098754999485400,3.9574853515625,0.1339646726846695,-3.4651787281036377,3.2296669483184814
1780098755009477400,3.967477294921875,-0.026713447645306587,-3.1271157264709473,1.8831545114517212
1780098755019469600,3.977469482421875,-0.21938969194889069,-1.321505069732666,-1.1339049339294434
1780098755029461500,3.98746142578125,-0.02476629614830017,-0.8445844054222107,-2.862637519836426
1780098755039453400,3.997453369140625,0.16885963082313538,-1.3308621644973755,-2.8448092937469482
1780098755049445400,4.0074453125,0.2903110682964325,-1.2960290908813477,-2.132571220397949
1780098755059437600,4.0174375,0.2201964110136032,-0.5542482137680054,-1.3050886392593384
1780098755069429500,4.027429443359375,0.02705492079257965,0.34700438380241394,-0.5814573168754578
1780098755079421400,4.03742138671875,-0.3171897828578949,0.8439995646476746,-0.06702838093042374
1780098755089414400,4.047414306640625,-0.710774838924408,0.7529369592666626,0.28980499505996704
1780098755099406600,4.057406494140625,-0.932984471321106,0.5715394616127014,0.6609984636306763
1780098755109398300,4.067398193359375,-0.8946256637573242,0.7346704006195068,1.1662580966949463
1780098755119390500,4.077390380859375,-0.690204918384552,0.8984604477882385,1.5562162399291992
1780098755129382400,4.08738232421875,-0.4207071363925934,1.0145483016967773,1.5622011423110962
1780098755139374600,4.09737451171875,-0.19613714516162872,1.4943900108337402,1.3439148664474487
1780098755149366300,4.1073662109375,0.00978515949100256,2.102621078491211,1.071362018585205
1780098755159358500,4.1173583984375,0.3863779604434967,0.5572924017906189,0.8850931525230408
1780098755169350400,4.127350341796875,1.1580835580825806,-3.637861490249634,0.6251727342605591
1780098755179342600,4.137342529296875,1.5314533710479736,-3.099989414215088,0.576611340045929
1780098755189334300,4.147334228515625,1.1953223943710327,-0.6541515588760376,0.3320825397968292
1780098755199326500,4.157326416015625,0.5953023433685303,1.136894941329956,-0.013894044794142246
1780098755209318400,4.167318359375,0.30060091614723206,2.080925226211548,-0.08319766819477081
1780098755219310600,4.177310546875,0.2570294737815857,2.4671528339385986,0.00649946229532361
1780098755229302500,4.187302490234375,0.2775433361530304,2.357130289077759,0.13185489177703857
1780098755239294500,4.19729443359375,0.28421297669410706,1.8663641214370728,0.2685365676879883
1780098755249286400,4.207286376953125,0.23984865844249725,1.1176564693450928,0.401658296585083
1780098755259278600,4.217278564453125,0.22609183192253113,0.23757976293563843,0.5265893340110779
1780098755269270500,4.2272705078125,0.35427966713905334,-0.5979478359222412,0.6394004225730896
1780098755279262500,4.237262451171875,0.5262013077735901,-1.3310004472732544,0.786038875579834
1780098755289254400,4.24725439453125,0.6129018068313599,-1.9924064874649048,0.9585005044937134
1780098755299246600,4.25724658203125,0.5308939814567566,-2.450011968612671,1.1571084260940552
1780098755309238500,4.267238525390625,0.30278280377388,-2.4570436477661133,1.3358932733535767
1780098755319230200,4.277230224609375,-0.015231388621032238,-2.118166923522949,1.4742103815078735
1780098755329222400,4.287222412109375,-0.2631409466266632,-1.4567967653274536,1.6267502307891846
1780098755339214300,4.29721435546875,-0.4788897633552551,-0.5270577669143677,1.7988908290863037
1780098755349206500,4.30720654296875,-0.7509143948554993,0.4379110634326935,1.9960752725601196
1780098755359198200,4.3171982421875,-1.0254725217819214,1.3569480180740356,2.240739107131958
1780098755369190400,4.3271904296875,-1.2183796167373657,2.1731672286987305,2.5723605155944824
1780098755379182300,4.337182373046875,-1.2859879732131958,2.721773386001587,3.035628080368042
1780098755389174500,4.347174560546875,-1.2353780269622803,2.9767134189605713,3.4849376678466797
1780098755399166500,4.35716650390625,-1.1120753288269043,3.093207359313965,3.712641954421997
1780098755409158400,4.367158447265625,-1.0011011362075806,2.9517085552215576,3.571162223815918
1780098755419150300,4.377150390625,-0.9157889485359192,2.432898759841919,3.004525661468506
1780098755429142500,4.387142578125,-0.801656186580658,1.6072994470596313,2.13675856590271
1780098755439134500,4.397134521484375,-0.5690584182739258,0.6703038811683655,1.2396963834762573
1780098755449127400,4.40712744140625,-0.23457565903663635,-0.12515364587306976,0.5652978420257568
1780098755459119400,4.417119384765625,0.10291235148906708,-0.6521027088165283,0.22097592055797577
1780098755469111600,4.427111572265625,0.3931537866592407,-0.7991439700126648,0.1911594122648239
1780098755479103200,4.437103271484375,0.6259568929672241,-0.530528724193573,0.40663230419158936
1780098755489095400,4.447095458984375,0.7412431836128235,-0.0378628708422184,0.7818873524665833
1780098755499087400,4.45708740234375,0.74187171459198,0.46186545491218567,1.2238892316818237
1780098755509079600,4.46707958984375,0.6454656720161438,0.5056812167167664,1.5690200328826904
1780098755519071200,4.4770712890625,0.5443867444992065,0.16279496252536774,1.7211827039718628
1780098755529063400,4.4870634765625,0.5676770806312561,-0.2410145401954651,1.6750304698944092
1780098755539055400,4.497055419921875,0.6570314764976501,-0.4679965674877167,1.4660402536392212
1780098755549051100,4.507051025390625,0.7400293350219727,-0.47525057196617126,1.1535531282424927
1780098755559043000,4.51704296875,0.8215420246124268,-0.29337745904922485,0.8136106133460999
1780098755569035000,4.527034912109375,0.8557190895080566,-0.03252695873379707,0.5138353705406189
1780098755579027200,4.537027099609375,0.8078500628471375,0.22196711599826813,0.30095556378364563
1780098755589019100,4.54701904296875,0.6958528757095337,0.4144478440284729,0.2112501561641693
1780098755599011000,4.557010986328125,0.549164891242981,0.5243596434593201,0.22003033757209778
1780098755609003000,4.5670029296875,0.3708985149860382,0.509411096572876,0.29003551602363586
1780098755618995000,4.576994873046875,0.18307293951511383,0.41103506088256836,0.3276175260543823
1780098755628987100,4.586987060546875,-0.0031242063269019127,0.215393528342247,0.2787240445613861
1780098755638979000,4.59697900390625,-0.15450626611709595,-0.014904390089213848,0.1707962155342102
1780098755648971000,4.606970947265625,-0.2723960876464844,-0.24846892058849335,0.07286295294761658
1780098755658963000,4.616962890625,-0.3780871033668518,-0.5092235803604126,0.0803094133734703
1780098755668955100,4.626955078125,-0.45863163471221924,-0.7359633445739746,0.19647082686424255
1780098755678947000,4.636947021484375,-0.5426138639450073,-0.843913197517395,0.3307410180568695
1780098755688939000,4.64693896484375,-0.6247979998588562,-0.7360467910766602,0.3485087752342224
1780098755698931000,4.656930908203125,-0.6179377436637878,-0.3203321099281311,0.15871061384677887
1780098755708924200,4.666924072265625,-0.5148641467094421,0.25762006640434265,-0.20305582880973816
1780098755718915800,4.676915771484375,-0.38842126727104187,0.7185194492340088,-0.6635052561759949
1780098755728908000,4.686907958984375,-0.28697800636291504,0.9754342436790466,-1.161373257637024
1780098755738900000,4.69689990234375,-0.22333991527557373,1.0422077178955078,-1.683579444885254
1780098755748892200,4.70689208984375,-0.21132953464984894,0.8636031746864319,-2.1921331882476807
1780098755758883800,4.7168837890625,-0.27555620670318604,0.5089777112007141,-2.7044341564178467
1780098755768876000,4.7268759765625,-0.38780784606933594,0.18379175662994385,-3.2105698585510254
1780098755778868000,4.736867919921875,-0.5198995471000671,-0.06418341398239136,-3.645425796508789
1780098755788860200,4.746860107421875,-0.6711648106575012,-0.2705947160720825,-3.929802417755127
1780098755798851800,4.756851806640625,-0.8659734129905701,-0.44954556226730347,-3.9016165733337402
1780098755808844000,4.766843994140625,-0.9514783024787903,-0.49289169907569885,-3.6134960651397705
1780098755818836000,4.7768359375,-0.8926194906234741,-0.146585151553154,-3.16850209236145
1780098755828828200,4.786828125,-0.7602567076683044,0.5737869143486023,-2.6393418312072754
1780098755838820000,4.796820068359375,-0.5050853490829468,1.1944544315338135,-2.246255874633789
1780098755848812000,4.80681201171875,-0.06036924570798874,1.2269108295440674,-2.2027275562286377
1780098755858804000,4.816803955078125,0.5293805599212646,0.7444139719009399,-2.448192596435547
1780098755868796200,4.826796142578125,1.0535061359405518,0.08490139245986938,-2.7584447860717773
1780098755878788000,4.8367880859375,1.3448904752731323,-0.3486343324184418,-2.913820505142212
1780098755888780000,4.846780029296875,1.3503124713897705,-0.3034733831882477,-2.874023914337158
1780098755898772000,4.85677197265625,1.155243158340454,0.27704140543937683,-2.660836935043335
1780098755908764200,4.86676416015625,0.7076137065887451,0.9721384644508362,-2.3525421619415283
1780098755918756000,4.876756103515625,0.18621179461479187,1.315659523010254,-1.9547847509384155
1780098755928748000,4.886748046875,-0.3004634380340576,1.4201555252075195,-1.4764221906661987
1780098755938740000,4.896739990234375,-0.6625633239746094,1.303841471672058,-1.0355931520462036
1780098755948733200,4.906733154296875,-0.8987938165664673,0.9605949521064758,-0.7129979729652405
1780098755958724900,4.916724853515625,-1.0323045253753662,0.31262335181236267,-0.5687305331230164
1780098755968717000,4.926717041015625,-0.9777488112449646,-0.4711507558822632,-0.6585613489151001
1780098755978709000,4.936708984375,-0.7422041893005371,-1.1832877397537231,-0.9107219576835632
1780098755988701200,4.946701171875,-0.41853833198547363,-1.637397289276123,-1.2333317995071411
1780098755998692900,4.95669287109375,-0.09936830401420593,-1.584150791168213,-1.503884196281433
1780098756008685000,4.96668505859375,0.1091071367263794,-1.047034502029419,-1.6346181631088257
1780098756018677000,4.976677001953125,0.22763298451900482,-0.3145346939563751,-1.6225521564483643
1780098756028669200,4.986669189453125,0.292206346988678,0.24421559274196625,-1.5104985237121582
1780098756038661000,4.9966611328125,0.32762372493743896,0.5455618500709534,-1.322304129600525
1780098756048653000,5.006653076171875,0.35270270705223083,0.6206970810890198,-1.0872235298156738
1780098756058645000,5.01664501953125,0.3786357641220093,0.5216211080551147,-0.8088675141334534
1780098756068637200,5.02663720703125,0.37490200996398926,0.26856911182403564,-0.47333985567092896
1780098756078629000,5.036629150390625,0.3224864900112152,0.0503462478518486,-0.04503244534134865
1780098756088621000,5.04662109375,0.19730134308338165,-0.2199096381664276,0.399808406829834
1780098756098613000,5.056613037109375,0.046651385724544525,-0.6006702780723572,0.8285661935806274
1780098756108605200,5.066605224609375,-0.14158877730369568,-0.9757663607597351,1.271043300628662
1780098756118597000,5.07659716796875,-0.3110230565071106,-1.3131734132766724,1.739603877067566
1780098756128589000,5.086589111328125,-0.36817529797554016,-1.6256486177444458,2.206861734390259
1780098756138581000,5.0965810546875,-0.3085479140281677,-2.0434999465942383,2.62361216545105
1780098756148573200,5.1065732421875,-0.16458317637443542,-2.692758083343506,2.9781503677368164
1780098756158565000,5.116565185546875,0.04077582061290741,-3.826416015625,3.192518949508667
1780098756168558000,5.12655810546875,0.17458240687847137,-4.724035263061523,2.7796976566314697
1780098756178550000,5.136550048828125,0.021006427705287933,-3.1002583503723145,0.4960472881793976
1780098756188542200,5.146542236328125,0.11940402537584305,-0.9848344326019287,-1.6981827020645142
1780098756198534000,5.156533935546875,0.6252733469009399,-0.6035690903663635,-1.9467706680297852
1780098756208526000,5.166526123046875,0.7603335976600647,-0.9311152100563049,-1.4146469831466675
1780098756218518000,5.17651806640625,0.357199490070343,-1.0592583417892456,-0.9491640329360962
1780098756228510200,5.18651025390625,0.008251514285802841,-0.5990983843803406,-0.5462465286254883
1780098756238502100,5.196502197265625,-0.17059199512004852,0.09169154614210129,-0.1459890902042389
1780098756248494000,5.206494140625,-0.36911091208457947,0.44217240810394287,0.13919556140899658
1780098756258486000,5.216486083984375,-0.5828940272331238,0.42927658557891846,0.25716906785964966
1780098756268478200,5.226478271484375,-0.7002618908882141,0.41945406794548035,0.4748952090740204
1780098756278470100,5.23647021484375,-0.6682820916175842,0.48598039150238037,0.8534044623374939
1780098756288462000,5.246462158203125,-0.5063623785972595,0.7086887359619141,1.0924769639968872
1780098756298454000,5.2564541015625,-0.20282354950904846,1.1750543117523193,1.1610674858093262
1780098756308446200,5.2664462890625,0.12075532972812653,1.6438161134719849,1.1354856491088867
1780098756318438100,5.276438232421875,0.5510528683662415,1.0549368858337402,1.0222153663635254
1780098756328430000,5.28643017578125,0.8945299386978149,1.01059889793396,0.6951042413711548
1780098756338422000,5.296422119140625,0.7897510528564453,1.8744369745254517,0.2520274817943573
1780098756348414000,5.3064140625,0.5445191264152527,1.938559889793396,-0.08178634941577911
1780098756358406100,5.31640625,0.5333213210105896,1.553005337715149,-0.2504374086856842
1780098756368397800,5.326397705078125,0.6985867023468018,1.0633763074874878,-0.2926861345767975
1780098756378391000,5.33639111328125,0.8337501287460327,0.48153093457221985,-0.2574285566806793
1780098756388383200,5.34638330078125,0.8412163853645325,-0.30036869645118713,-0.18027189373970032
1780098756398375000,5.356375,0.7240383625030518,-1.2652902603149414,-0.07482829689979553
1780098756408367000,5.3663671875,0.537530779838562,-2.3496997356414795,0.07852066308259964
1780098756418359000,5.376359130859375,0.49385279417037964,-3.3133320808410645,0.25345250964164734
1780098756428351200,5.386351318359375,0.5670060515403748,-3.9090240001678467,0.4260231852531433
1780098756438343200,5.39634326171875,0.6923010945320129,-4.106222629547119,0.5569710731506348
1780098756448335000,5.406335205078125,0.78193598985672,-3.8793749809265137,0.6784024238586426
1780098756458327000,5.4163271484375,0.7317119240760803,-3.087902307510376,0.8254070281982422
1780098756468319000,5.426319091796875,0.478475958108902,-1.8511719703674316,0.9888746738433838
1780098756478311200,5.436311279296875,0.02923877164721489,-0.6549071669578552,1.1513748168945312
1780098756488302800,5.446302734375,-0.47578132152557373,0.26996222138404846,1.3581653833389282
1780098756498295000,5.456294921875,-0.9332476258277893,0.9554444551467896,1.641658902168274
1780098756508287000,5.466286865234375,-1.3075073957443237,1.4796565771102905,2.1107022762298584
1780098756518279200,5.476279052734375,-1.5781750679016113,1.9480376243591309,2.734635353088379
1780098756528270800,5.486270751953125,-1.708991527557373,2.2845699787139893,3.233337879180908
1780098756538263000,5.496262939453125,-1.5519680976867676,2.4185268878936768,3.4827115535736084
1780098756548255000,5.5062548828125,-1.3530389070510864,2.2647483348846436,3.4536170959472656
1780098756558243800,5.516243896484375,-1.2488441467285156,2.0595297813415527,3.330636978149414
1780098756568235800,5.52623583984375,-1.2502601146697998,1.7538481950759888,3.224720001220703
1780098756578228700,5.536228759765625,-1.2759995460510254,1.117539644241333,3.249546766281128
1780098756588221000,5.546220947265625,-1.1497946977615356,0.2525235414505005,3.1651954650878906
1780098756598212600,5.556212646484375,-0.8418858647346497,-0.39699453115463257,2.7003748416900635
1780098756608204800,5.566204833984375,-0.49762195348739624,-0.46217116713523865,1.955450177192688
1780098756618196700,5.57619677734375,-0.18776845932006836,0.057914651930332184,1.261474370956421
1780098756628189000,5.58618896484375,0.05867899954319,0.9366883039474487,0.7752366662025452
1780098756638180600,5.5961806640625,0.34034448862075806,1.7135685682296753,0.48336273431777954
1780098756648172800,5.6061728515625,0.5638858079910278,1.942500352859497,0.37979117035865784
1780098756658164700,5.616164794921875,0.6816853880882263,1.6362563371658325,0.40009644627571106
1780098756668157000,5.626156982421875,0.75690096616745,1.097537636756897,0.47298941016197205
1780098756678148900,5.63614892578125,0.8103077411651611,0.5400036573410034,0.536552369594574
1780098756688140800,5.646140869140625,0.8451414704322815,0.0785960927605629,0.5691348910331726
1780098756698132700,5.6561328125,0.8559589385986328,-0.23176389932632446,0.5779007077217102
1780098756708125000,5.666125,0.8238894939422607,-0.4185393154621124,0.5738973617553711
1780098756718116900,5.676116943359375,0.735328197479248,-0.4987260103225708,0.5802902579307556
1780098756728108800,5.68610888671875,0.6135561466217041,-0.46632325649261475,0.5916574597358704
1780098756738100700,5.696100830078125,0.4653719961643219,-0.33391329646110535,0.5773927569389343
1780098756748093000,5.706093017578125,0.30343785881996155,-0.14866380393505096,0.5361422896385193
1780098756758084900,5.7160849609375,0.12751692533493042,0.03410334885120392,0.4880741536617279
1780098756768077800,5.726077880859375,-0.05837990716099739,0.1936943531036377,0.4352401793003082
1780098756778069800,5.73606982421875,-0.22511056065559387,0.3370848000049591,0.3677181005477905
1780098756788062000,5.74606201171875,-0.3087436556816101,0.4133613705635071,0.2689579427242279
1780098756798053600,5.7560537109375,-0.3236091136932373,0.3668716251850128,0.18034125864505768
1780098756808045800,5.7660458984375,-0.3317832052707672,0.14450423419475555,0.15152502059936523
1780098756818037800,5.776037841796875,-0.34431925415992737,-0.2616078555583954,0.20812544226646423
1780098756828030000,5.786030029296875,-0.36121276021003723,-0.792190670967102,0.314363569021225
1780098756838021600,5.796021728515625,-0.39879903197288513,-1.2488362789154053,0.40721946954727173
1780098756848013800,5.806013916015625,-0.4573509097099304,-1.3436869382858276,0.40050211548805237
1780098756858005800,5.816005859375,-0.4718768298625946,-0.8878695964813232,0.20624341070652008
1780098756867998000,5.825998046875,-0.39705541729927063,-0.014005999080836773,-0.17387381196022034
1780098756877990000,5.835989990234375,-0.2765772044658661,0.8452264070510864,-0.6697999238967896
1780098756887981800,5.84598193359375,-0.20159897208213806,1.3532705307006836,-1.209385871887207
1780098756897973800,5.855973876953125,-0.2111213654279709,1.443497896194458,-1.7311151027679443
1780098756907966000,5.865966064453125,-0.28037506341934204,1.2076904773712158,-2.192107677459717
1780098756917958000,5.8759580078125,-0.3995736241340637,0.725811779499054,-2.640770435333252
1780098756927949800,5.88594970703125,-0.5624871253967285,0.3302101194858551,-3.110433578491211
1780098756937941800,5.895941650390625,-0.754473090171814,0.10305126011371613,-3.5591654777526855
1780098756947934000,5.905933837890625,-0.9301329255104065,-0.12444304674863815,-3.7859861850738525
1780098756957926700,5.9159267578125,-1.0618072748184204,-0.15354526042938232,-3.6819660663604736
1780098756967918800,5.9259189453125,-1.131919026374817,0.1619170606136322,-3.3626530170440674
1780098756977910800,5.935910888671875,-1.138422966003418,0.5779798030853271,-2.981245994567871
1780098756987903000,5.945903076171875,-1.0358765125274658,0.8269199728965759,-2.6223392486572266
1780098756997894700,5.955894775390625,-0.7055544853210449,0.4255813658237457,-2.4897537231445312
1780098757007886800,5.965886962890625,-0.09966210275888443,-0.7235745787620544,-2.631481647491455
1780098757017878800,5.975878662109375,0.6472347378730774,-1.685279369354248,-2.8219785690307617
1780098757027871000,5.98587109375,1.3172237873077393,-1.9917715787887573,-3.008647918701172
1780098757037862700,5.995862548828125,1.7049553394317627,-1.6938347816467285,-3.228327989578247
1780098757047854800,6.005854736328125,1.7666552066802979,-0.8916919827461243,-3.42025089263916
1780098757057846800,6.0158466796875,1.5387639999389648,0.16819101572036743,-3.436309576034546
1780098757067839000,6.0258388671875,1.0701631307601929,1.0440350770950317,-3.1709301471710205
1780098757077831000,6.035830810546875,0.5530387759208679,1.5634421110153198,-2.592844247817993
1780098757087822800,6.04582275390625,0.12509463727474213,1.9027502536773682,-1.8734960556030273
1780098757097814800,6.055814697265625,-0.1674240529537201,2.0771284103393555,-1.2724168300628662
1780098757107807000,6.065806884765625,-0.40337637066841125,1.8539577722549438,-0.863551139831543
1780098757117799000,6.075798828125,-0.6111910939216614,1.1925865411758423,-0.6130938529968262
1780098757127790600,6.08579052734375,-0.6551893353462219,0.348210871219635,-0.5693016052246094
1780098757137782800,6.09578271484375,-0.49775394797325134,-0.5084907412528992,-0.7009317874908447
1780098757147776000,6.10577587890625,-0.19144994020462036,-1.1956645250320435,-0.9402342438697815
1780098757157767700,6.115767578125,0.09249548614025116,-1.5080184936523438,-1.2514173984527588
1780098757167760000,6.125759765625,0.24385790526866913,-1.147251009941101,-1.5475249290466309
1780098757177751800,6.135751708984375,0.3126524090766907,-0.2849856913089752,-1.6984596252441406
1780098757187744000,6.145743896484375,0.3101791441440582,0.523387610912323,-1.6748138666152954
1780098757197735700,6.155735595703125,0.26003900170326233,0.8358105421066284,-1.5381076335906982
1780098757207727900,6.165727783203125,0.21431726217269897,0.6533543467521667,-1.2637968063354492
1780098757217719800,6.1757197265625,0.1911802589893341,0.2908751964569092,-0.8383065462112427
1780098757227712000,6.1857119140625,0.19964395463466644,0.06385336071252823,-0.29210612177848816
1780098757237703700,6.19570361328125,0.17838340997695923,-0.043869905173778534,0.27350908517837524
1780098757247696000,6.20569580078125,0.09959641098976135,-0.17076663672924042,0.7893771529197693
1780098757257687800,6.215687744140625,-0.050849549472332,-0.3961683213710785,1.2580270767211914
1780098757267679700,6.2256796875,-0.22714604437351227,-0.744674563407898,1.6902484893798828
1780098757277672000,6.235671875,-0.35795384645462036,-1.1428898572921753,2.151557207107544
1780098757287663600,6.24566357421875,-0.4246070683002472,-1.699092149734497,2.6004045009613037
1780098757297655800,6.25565576171875,-0.38983389735221863,-2.5678443908691406,2.9859747886657715
1780098757307647700,6.265647705078125,-0.27555790543556213,-4.227636337280273,3.2243592739105225
1780098757317640000,6.275639892578125,-0.2173832803964615,-6.423845291137695,3.021634101867676
1780098757327633000,6.2856328125,-0.34338733553886414,-4.987093448638916,-0.04573031887412071
1780098757337624800,6.295624755859375,0.14759303629398346,-2.478174924850464,-2.6394176483154297
1780098757347617000,6.305616943359375,0.8360567092895508,-1.667344093322754,-2.5011000633239746
1780098757357608700,6.315608642578125,0.6271492838859558,-1.4514940977096558,-1.8740652799606323
1780098757367601000,6.325600830078125,0.017215564846992493,-1.219021201133728,-1.474021553993225
1780098757377592800,6.3355927734375,-0.3385547697544098,-0.6390872001647949,-1.102229356765747
1780098757387585000,6.3455849609375,-0.5425953269004822,-0.06372672319412231,-0.7048021554946899
1780098757397576700,6.35557666015625,-0.7424415946006775,0.25940072536468506,-0.34124234318733215
1780098757407568600,6.365568603515625,-0.8605663180351257,0.435390830039978,-0.03044942021369934
1780098757417560800,6.375560791015625,-0.8635969758033752,0.46866971254348755,0.35287773609161377
1780098757427552800,6.385552734375,-0.8104681968688965,0.11188076436519623,0.898008406162262
1780098757437544700,6.395544677734375,-0.6354601979255676,0.044889211654663086,1.5061148405075073
1780098757447536600,6.40553662109375,-0.2095591425895691,0.6429386138916016,1.8553742170333862
1780098757457528800,6.41552880859375,0.40249091386795044,0.9319280982017517,1.7792071104049683
1780098757467520800,6.425520751953125,1.1165571212768555,0.6560385227203369,1.2461854219436646
1780098757477513000,6.435512939453125,1.5859869718551636,0.9480022192001343,0.5565070509910583
1780098757487504600,6.445504638671875,1.4375720024108887,1.8862688541412354,-0.10607881098985672
1780098757497496800,6.455496826171875,0.8309443593025208,2.1239192485809326,-0.586966335773468
1780098757507488800,6.46548876953125,0.43424490094184875,1.7888678312301636,-0.7130852937698364
1780098757517481700,6.475481689453125,0.4771689176559448,1.3905506134033203,-0.6198397874832153
1780098757527473700,6.4854736328125,0.6923790574073792,0.9308345913887024,-0.4302501380443573
1780098757537465900,6.4954658203125,0.8182751536369324,0.3261210024356842,-0.2027818262577057
1780098757547457800,6.505457763671875,0.7833057045936584,-0.3841804563999176,0.04208795353770256
1780098757557449500,6.515449462890625,0.6907967925071716,-1.1812816858291626,0.2932099401950836
1780098757567441700,6.525441650390625,0.5771426558494568,-1.9641611576080322,0.5253740549087524
1780098757577433600,6.53543359375,0.4384782612323761,-2.5864779949188232,0.7507368326187134
1780098757587425800,6.54542578125,0.27212759852409363,-2.876673936843872,0.9711313843727112
1780098757597417500,6.55541748046875,0.10427229851484299,-2.7469913959503174,1.167518138885498
1780098757607409700,6.56540966796875,-0.0803251713514328,-2.2459466457366943,1.3394092321395874
1780098757617401600,6.575401611328125,-0.2741870582103729,-1.4189311265945435,1.5017344951629639
1780098757627393800,6.585393798828125,-0.4975469708442688,-0.4733816683292389,1.6985681056976318
1780098757637385700,6.5953857421875,-0.7956175804138184,0.493548721075058,2.0429513454437256
1780098757647377700,6.605377685546875,-1.2337689399719238,1.6154028177261353,2.83693790435791
1780098757657369600,6.61536962890625,-1.669073224067688,2.6681931018829346,3.5732851028442383
1780098757667361800,6.62536181640625,-2.006904363632202,3.5841064453125,4.022148132324219
1780098757677353700,6.635353759765625,-2.093946695327759,4.2434868812561035,4.152309417724609
1780098757687346700,6.6453466796875,-1.8547661304473877,4.474717617034912,3.991912841796875
1780098757697338600,6.655338623046875,-1.524124026298523,4.189626693725586,3.745971202850342
1780098757707330800,6.665330810546875,-1.2165436744689941,3.484147787094116,3.5429205894470215
1780098757717322500,6.675322509765625,-0.9187808632850647,2.415844678878784,3.292363405227661
1780098757727314700,6.685314697265625,-0.6017051339149475,1.288501262664795,2.8160438537597656
1780098757737306600,6.695306640625,-0.2754972279071808,0.553800642490387,2.0625061988830566
1780098757747298800,6.705298828125,0.04894367232918739,0.25564178824424744,1.211777925491333
1780098757757290500,6.71529052734375,0.3313833475112915,0.14485560357570648,0.5143029689788818
1780098757767282700,6.72528271484375,0.560115396976471,0.061275143176317215,0.11846554279327393
1780098757777274600,6.735274658203125,0.7286599278450012,-0.05608024820685387,-0.008781892247498035
1780098757787266800,6.745266845703125,0.8128097057342529,-0.20085632801055908,0.048995595425367355
1780098757797258500,6.755258544921875,0.8369949460029602,-0.2976427972316742,0.2694278359413147
1780098757807250700,6.765250732421875,0.8149956464767456,-0.32535919547080994,0.6408348083496094
1780098757817242600,6.77524267578125,0.7719137072563171,-0.3965547978878021,1.0761866569519043
1780098757827234800,6.78523486328125,0.6819897294044495,-0.5097273588180542,1.4530421495437622
1780098757837226800,6.795226806640625,0.5743700265884399,-0.6379737854003906,1.7011533975601196
1780098757847218700,6.80521875,0.4857098162174225,-0.7320441603660583,1.8331894874572754
1780098757857210600,6.815210693359375,0.41353628039360046,-0.755460798740387,1.8459210395812988
1780098757867202800,6.825202880859375,0.37496259808540344,-0.6269899010658264,1.7139527797698975
1780098757877195500,6.835195556640625,0.3847838044166565,-0.3538321554660797,1.4086432456970215
1780098757887187700,6.845187744140625,0.4310733377933502,-0.023739511147141457,0.9701310992240906
1780098757897179600,6.8551796875,0.5001592040061951,0.2815871238708496,0.47950467467308044
1780098757907171800,6.865171875,0.5419374704360962,0.470828115940094,0.0806654840707779
1780098757917163500,6.87516357421875,0.5248138904571533,0.5095713138580322,-0.1465407758951187
1780098757927155700,6.88515576171875,0.4505403935909271,0.45935818552970886,-0.21158377826213837
1780098757937147600,6.895147705078125,0.3545270562171936,0.4071168005466461,-0.1610438972711563
1780098757947139800,6.905139892578125,0.25591373443603516,0.4010191261768341,-0.09164194017648697
1780098757957131500,6.915131591796875,0.11627008020877838,0.41782447695732117,-0.10987208038568497
1780098757967123700,6.925123779296875,-0.10741329938173294,0.3261389434337616,-0.21681691706180573
1780098757977115600,6.93511572265625,-0.38401293754577637,0.12015008181333542,-0.3432454466819763
1780098757987107800,6.94510791015625,-0.6354394555091858,-0.12555277347564697,-0.38433724641799927
1780098757997099500,6.955099609375,-0.7843354940414429,-0.43839216232299805,-0.2259790003299713
1780098758007091700,6.965091796875,-0.9031630158424377,-0.8646467924118042,0.15923179686069489
1780098758017083600,6.975083740234375,-0.9991308450698853,-1.184613823890686,0.5477646589279175
1780098758027075800,6.985075927734375,-0.9391018748283386,-1.0865129232406616,0.6560108661651611
1780098758037067800,6.99506787109375,-0.7188643217086792,-0.48367735743522644,0.30290496349334717
1780098758047059700,7.005059814453125,-0.4798574149608612,0.3613320589065552,-0.5073003768920898
1780098758057052700,7.015052734375,-0.31371983885765076,0.9804986119270325,-1.5170899629592896
1780098758067044600,7.025044677734375,-0.27692586183547974,1.2425812482833862,-2.4681718349456787
1780098758077036500,7.03503662109375,-0.3442883789539337,1.221191167831421,-3.2563257217407227
1780098758087028700,7.04502880859375,-0.45408374071121216,0.9282872080802917,-3.7959437370300293
1780098758097020700,7.055020751953125,-0.5812392830848694,0.49225953221321106,-4.076838970184326
1780098758107012900,7.065012939453125,-0.6968519687652588,0.12527000904083252,-4.064929962158203
1780098758117004500,7.075004638671875,-0.7172895669937134,0.17540161311626434,-3.7913246154785156
1780098758126996700,7.084996826171875,-0.6642581820487976,0.6983401775360107,-3.3664140701293945
1780098758136988700,7.09498876953125,-0.617172122001648,1.608373999595642,-2.8671865463256836
1780098758146980900,7.10498095703125,-0.5043333768844604,2.579718828201294,-2.374208927154541
1780098758156972500,7.11497265625,-0.20693738758563995,2.399320602416992,-2.144275426864624
1780098758166964700,7.12496484375,0.32411810755729675,0.47879746556282043,-2.2825868129730225
1780098758176956700,7.134956787109375,0.8605261445045471,-0.8926085233688354,-2.3945038318634033
1780098758186948900,7.144948974609375,1.1697694063186646,-1.05066978931427,-2.4272263050079346
1780098758196940500,7.1549404296875,1.1952896118164062,-0.26040107011795044,-2.4149539470672607
1780098758206932700,7.1649326171875,1.0041693449020386,0.618500292301178,-2.396014451980591
1780098758216924700,7.174924560546875,0.729695737361908,1.0818250179290771,-2.3353304862976074
1780098758226916900,7.184916748046875,0.475411981344223,1.087625503540039,-2.0280864238739014
1780098758236908800,7.19490869140625,0.29816770553588867,1.0347095727920532,-1.6248488426208496
1780098758246901800,7.20490185546875,0.08735402673482895,1.0228629112243652,-1.245697021484375
1780098758256893700,7.214893798828125,-0.22515060007572174,0.7422575950622559,-0.9552740454673767
1780098758266885600,7.2248857421875,-0.4779948890209198,0.23183399438858032,-0.8527456521987915
1780098758276877600,7.234877685546875,-0.5790240168571472,-0.38879120349884033,-0.8894544243812561
1780098758286869800,7.244869873046875,-0.5470657348632812,-0.7288244962692261,-1.0362796783447266
1780098758296861700,7.25486181640625,-0.4681810736656189,-0.94319087266922,-1.316205620765686
1780098758306854000,7.26485400390625,-0.3274373412132263,-0.9651839137077332,-1.6307889223098755
1780098758316845600,7.274845458984375,-0.1479639858007431,-0.759278416633606,-1.8156002759933472
1780098758326837800,7.284837646484375,-0.014074396342039108,-0.3995964229106903,-1.8065330982208252
1780098758336829700,7.29482958984375,0.05305857211351395,-0.12205509096384048,-1.6481671333312988
1780098758346822000,7.30482177734375,0.08155618607997894,0.021555328741669655,-1.3694401979446411
1780098758356813600,7.3148134765625,0.08859119564294815,0.050982192158699036,-1.027636170387268
1780098758366805800,7.3248056640625,0.08100821822881699,0.03245861455798149,-0.6346007585525513
1780098758376797700,7.334797607421875,0.013048877008259296,-0.03414198383688927,-0.21633747220039368
1780098758386790000,7.344789794921875,-0.11887014657258987,-0.16196973621845245,0.21825432777404785
1780098758396781600,7.354781494140625,-0.288161963224411,-0.33987104892730713,0.6540880799293518
1780098758406773500,7.3647734375,-0.4606480896472931,-0.5466359257698059,1.0740609169006348
1780098758416765700,7.374765625,-0.6051163673400879,-0.7616427540779114,1.4741324186325073
1780098758426757600,7.384757568359375,-0.6090724468231201,-1.0253263711929321,1.8636540174484253
1780098758436750600,7.39475048828125,-0.5060776472091675,-1.2841792106628418,2.2632839679718018
1780098758446742800,7.40474267578125,-0.3669600486755371,-1.619104027748108,2.631770610809326
1780098758456734700,7.414734619140625,-0.23698341846466064,-1.9073107242584229,2.9576902389526367
1780098758466726700,7.4247265625,-0.12808001041412354,-2.148391008377075,3.1870365142822266
1780098758476718600,7.434718505859375,0.01998082734644413,-2.532884120941162,3.1999874114990234
1780098758486710800,7.444710693359375,0.22689050436019897,-2.8972208499908447,2.6844594478607178
1780098758496702700,7.45470263671875,0.3918941020965576,-1.6573094129562378,0.1391426920890808
1780098758506695000,7.46469482421875,0.926624596118927,-0.848000705242157,-2.778775691986084
1780098758516686600,7.4746865234375,1.6721094846725464,-1.9959135055541992,-3.661626100540161
1780098758526678800,7.4846787109375,1.745680332183838,-2.854473829269409,-3.2068352699279785
1780098758536670700,7.494670654296875,0.9918831586837769,-2.258939504623413,-2.2214012145996094
1780098758546662700,7.50466259765625,0.11585428565740585,-0.7316167950630188,-1.0002241134643555
1780098758556658200,7.514658203125,-0.4701218605041504,0.5466173887252808,0.06647603958845139
1780098758566650000,7.524650146484375,-0.8445084691047668,0.9569609761238098,0.7462822794914246
1780098758576642300,7.534642333984375,-1.083046793937683,0.790013313293457,1.125895380973816
1780098758586634200,7.54463427734375,-1.1768133640289307,0.6234771013259888,1.3282703161239624
1780098758596626200,7.554626220703125,-1.0867105722427368,0.8241953253746033,1.3297417163848877
1780098758606618000,7.5646181640625,-0.7646953463554382,1.526585578918457,1.0952647924423218
1780098758616610300,7.5746103515625,-0.3316514492034912,2.379211902618408,0.7359636425971985
1780098758626603000,7.58460302734375,0.1354769915342331,1.9101203680038452,0.586186945438385
1780098758636595200,7.59459521484375,0.8007389307022095,-0.4128333032131195,0.5253534317016602
1780098758646587100,7.604587158203125,1.0058832168579102,0.26292523741722107,0.3551139533519745
1780098758656579300,7.614579345703125,0.7470138669013977,1.2284321784973145,0.005454761907458305
1780098758666571300,7.6245712890625,0.516914427280426,1.432140588760376,-0.27752307057380676
1780098758676563200,7.634563232421875,0.507200300693512,1.1846202611923218,-0.416365385055542
1780098758686555100,7.64455517578125,0.6177533268928528,0.7815274000167847,-0.4569947123527527
1780098758696547300,7.65454736328125,0.6921106576919556,0.2443006932735443,-0.43970760703086853
1780098758706539300,7.664539306640625,0.6626622676849365,-0.46327492594718933,-0.3659227788448334
1780098758716531200,7.67453125,0.5658076405525208,-1.3571065664291382,-0.24283039569854736
1780098758726523100,7.684523193359375,0.6637269854545593,-2.1154024600982666,-0.09665507823228836
1780098758736515300,7.694515380859375,0.9479382038116455,-2.4507040977478027,0.03522545471787453
1780098758746507300,7.70450732421875,1.2162984609603882,-2.535982608795166,0.13025858998298645
1780098758756499200,7.714499267578125,1.2802257537841797,-2.4428000450134277,0.18713732063770294
1780098758766491100,7.7244912109375,1.074324131011963,-2.120652437210083,0.21932516992092133
1780098758776483300,7.7344833984375,0.6642794013023376,-1.6038981676101685,0.30821964144706726
1780098758786475300,7.744475341796875,0.040658142417669296,-1.1031222343444824,0.5136256217956543
1780098758796467000,7.754467041015625,-0.5621097683906555,-0.8307633996009827,1.1892818212509155
1780098758806459100,7.764459228515625,-0.9602630138397217,-0.7832942008972168,2.430105209350586
1780098758816452400,7.774452392578125,-1.2174072265625,-0.6320908665657043,3.5219194889068604
1780098758826444000,7.784444091796875,-1.4089972972869873,-0.2880690097808838,4.055503845214844
1780098758836436200,7.794436279296875,-1.528259515762329,0.3344009518623352,4.143847942352295
1780098758846428200,7.80442822265625,-1.5554232597351074,1.273995041847229,3.997828483581543
1780098758856420400,7.81442041015625,-1.4523539543151855,2.2138588428497314,3.7344324588775635
1780098758866412300,7.824412353515625,-1.2217657566070557,2.878840208053589,3.4740371704101562
1780098758876404200,7.834404296875,-1.0003575086593628,2.8729336261749268,3.241819143295288
1780098758886396200,7.844396240234375,-0.8627216219902039,2.1342525482177734,2.9193387031555176
1780098758896388400,7.854388427734375,-0.7788861393928528,0.9408397674560547,2.3197572231292725
1780098758906380300,7.86438037109375,-0.6265437006950378,-0.1749136745929718,1.4701077938079834
1780098758916372200,7.874372314453125,-0.34766146540641785,-0.9122319221496582,0.6433969140052795
1780098758926364200,7.8843642578125,-0.0012802332639694214,-1.2444703578948975,0.095026895403862
1780098758936356000,7.894356201171875,0.2563851475715637,-1.2517437934875488,-0.10095939040184021
1780098758946348300,7.904348388671875,0.38594722747802734,-0.8900464773178101,0.037010688334703445
1780098758956340000,7.914340087890625,0.4197845458984375,-0.27246689796447754,0.48473092913627625
1780098758966332200,7.924332275390625,0.37041768431663513,0.2834538221359253,1.1795880794525146
1780098758976324000,7.934323974609375,0.2802382707595825,0.22415931522846222,1.8046541213989258
1780098758986316300,7.94431640625,0.25150078535079956,-0.285773903131485,2.1641697883605957
1780098758996308000,7.954307861328125,0.3445518910884857,-0.8128560781478882,2.202317476272583
1780098759006300200,7.964300048828125,0.5356798768043518,-1.1412038803100586,1.9403092861175537
1780098759016293400,7.97429345703125,0.7281902432441711,-1.1257386207580566,1.4525518417358398
1780098759026285000,7.98428515625,0.8678246140480042,-0.6868401765823364,0.891269862651825
1780098759036277200,7.99427734375,0.9019452929496765,-0.027990397065877914,0.41009312868118286
1780098759046269200,8.004269287109375,0.8181765079498291,0.5841382741928101,0.1431979537010193
1780098759056261000,8.01426123046875,0.656121551990509,0.9516246914863586,0.11992830783128738
1780098759066253300,8.02425341796875,0.48128291964530945,1.0138747692108154,0.2454109787940979
1780098759076245000,8.034244873046875,0.30207934975624084,0.8410866856575012,0.4294503331184387
1780098759086237200,8.0442373046875,0.12318473309278488,0.6138144135475159,0.5362098813056946
1780098759096229000,8.05422900390625,-0.009290489368140697,0.5083913207054138,0.43772032856941223
1780098759106221300,8.06422119140625,-0.10464071482419968,0.4304262101650238,0.16685393452644348
1780098759116213000,8.074212890625,-0.17235369980335236,0.25756362080574036,-0.12992393970489502
1780098759126205200,8.084205078125,-0.26218289136886597,-0.10080097615718842,-0.27187252044677734
1780098759136197000,8.094197021484375,-0.392941415309906,-0.6807489991188049,-0.19251272082328796
1780098759146189300,8.104189208984375,-0.5591232776641846,-1.2278236150741577,-0.022563042119145393
1780098759156181000,8.114180908203124,-0.7189289331436157,-1.374706745147705,0.06476333737373352
1780098759166173200,8.124173095703124,-0.8103269338607788,-0.9283483028411865,-0.1230984553694725
1780098759176165000,8.1341650390625,-0.8018351793289185,-0.1368187516927719,-0.6094691753387451
1780098759186157300,8.1441572265625,-0.7507370710372925,0.5042747259140015,-1.3350552320480347
1780098759196149000,8.15414892578125,-0.7476946711540222,0.7890388369560242,-2.093125343322754
1780098759206141200,8.16414111328125,-0.8315436244010925,0.8319305777549744,-2.6790547370910645
1780098759216133000,8.174133056640626,-0.9191526174545288,0.8439297080039978,-2.9572885036468506
1780098759226126000,8.1841259765625,-0.930176317691803,0.8397006392478943,-2.9974796772003174
1780098759236118000,8.194117919921876,-0.8359332084655762,0.728537380695343,-2.9901649951934814
1780098759246110200,8.204110107421876,-0.7037630081176758,0.6078864932060242,-2.979412794113159
1780098759256102100,8.21410205078125,-0.6079446077346802,0.5884078741073608,-2.9500153064727783
1780098759266094000,8.224093994140626,-0.5239260792732239,0.6208394169807434,-2.9465842247009277
1780098759276086000,8.2340859375,-0.3961004912853241,0.5727046132087708,-2.953038215637207
1780098759286078200,8.244078125,-0.18372705578804016,0.29786399006843567,-2.9726507663726807
1780098759296070100,8.254070068359376,0.12432930618524551,-0.1424688994884491,-2.984520435333252
1780098759306062300,8.264062255859375,0.39265912771224976,-0.4365156292915344,-2.9627795219421387
1780098759316054000,8.274053955078125,0.5567423701286316,-0.4877502918243408,-2.9447503089904785
1780098759326046200,8.284046142578125,0.6561573147773743,-0.22984082996845245,-2.9221043586730957
1780098759336038100,8.2940380859375,0.7491120100021362,0.2747533619403839,-2.8500306606292725
1780098759346030300,8.3040302734375,0.8087802529335022,1.0377609729766846,-2.649110794067383
1780098759356022000,8.31402197265625,0.7639501690864563,1.845663070678711,-2.2944440841674805
1780098759366014200,8.32401416015625,0.5778683423995972,2.4123823642730713,-1.8622076511383057
1780098759376006100,8.334006103515625,0.3391396403312683,2.560034990310669,-1.4515833854675293
1780098759385998300,8.343998291015625,0.07463061064481735,2.3373138904571533,-1.1761584281921387
1780098759395990000,8.353989990234375,-0.21640655398368835,1.7045702934265137,-1.0340704917907715
1780098759405982200,8.363982177734375,-0.4342350661754608,0.663799524307251,-1.0247074365615845
1780098759415974100,8.37397412109375,-0.47266262769699097,-0.5345151424407959,-1.1247080564498901
1780098759425966300,8.38396630859375,-0.34288471937179565,-1.407995581626892,-1.3108270168304443
1780098759435958300,8.393958251953125,-0.22949159145355225,-1.6439458131790161,-1.518951416015625
1780098759445951200,8.403951171875,-0.17512130737304688,-1.1173352003097534,-1.7181237936019897
1780098759455943200,8.413943115234375,-0.146749347448349,-0.24775457382202148,-1.8277136087417603
1780098759465935000,8.42393505859375,-0.11798238009214401,0.4388498067855835,-1.7960702180862427
1780098759475927000,8.433927001953125,-0.08038467168807983,0.7151790857315063,-1.631754755973816
1780098759485919200,8.443919189453124,-0.06931376457214355,0.6680172681808472,-1.3478695154190063
1780098759495911200,8.4539111328125,-0.07420199364423752,0.4443932771682739,-0.9746565222740173
1780098759505903400,8.4639033203125,-0.07454532384872437,0.23365138471126556,-0.5370795130729675
1780098759515895000,8.47389501953125,-0.06764373928308487,0.12537842988967896,-0.09105700999498367
1780098759525887200,8.48388720703125,-0.08140494674444199,0.06189868226647377,0.2999991774559021
1780098759535879200,8.493879150390624,-0.12280111759901047,-0.05061880871653557,0.6319568753242493
1780098759545871400,8.503871337890626,-0.18165996670722961,-0.2632705867290497,0.9486371874809265
1780098759555859700,8.513859619140625,-0.22965599596500397,-0.5993276834487915,1.280448079109192
1780098759565851600,8.5238515625,-0.2531953752040863,-1.0785363912582397,1.6421469449996948
1780098759575843800,8.53384375,-0.2303611934185028,-1.6322152614593506,2.0504486560821533
1780098759585835800,8.543835693359375,-0.16453413665294647,-2.2508962154388428,2.488023519515991
1780098759595827700,8.55382763671875,-0.044990696012973785,-3.0835795402526855,2.9075534343719482
1780098759605819600,8.563819580078125,0.08489568531513214,-4.275515079498291,3.1949238777160645
1780098759615811800,8.573811767578125,0.09104278683662415,-5.4352264404296875,2.938460350036621
1780098759625803800,8.5838037109375,0.018932905048131943,-3.0367560386657715,-0.3309880197048187
1780098759635795700,8.593795654296875,0.5736139416694641,-0.903114914894104,-3.74222993850708
1780098759645787600,8.60378759765625,1.3174071311950684,-1.9400990009307861,-3.8606770038604736
1780098759655779800,8.61377978515625,1.2077096700668335,-2.6666324138641357,-2.9155850410461426
1780098759665771800,8.623771728515624,0.44058957695961,-2.032996892929077,-1.85750412940979
1780098759675764700,8.6337646484375,-0.20048467814922333,-0.7536802887916565,-0.8213041424751282
1780098759685757000,8.6437568359375,-0.6821321845054626,0.25066089630126953,0.03023654967546463
1780098759695748900,8.653748779296874,-1.0376348495483398,0.6374200582504272,0.5888031721115112
1780098759705740800,8.66374072265625,-1.1844768524169922,0.6287609338760376,0.9353586435317993
1780098759715732700,8.673732666015624,-1.136838674545288,0.6201498508453369,1.2301104068756104
1780098759725724700,8.683724609375,-0.9654114842414856,0.6527846455574036,1.4752622842788696
1780098759735716900,8.693716796875,-0.7094295024871826,0.9322687387466431,1.4924529790878296
1780098759745708800,8.703708740234376,-0.3910009264945984,1.4967344999313354,1.3004324436187744
1780098759755700700,8.71370068359375,-0.052878014743328094,1.3597053289413452,1.0212045907974243
1780098759765692700,8.723692626953126,0.6072560548782349,-0.8254668116569519,0.5971781611442566
1780098759775684900,8.733684814453126,1.3647905588150024,-0.8131683468818665,0.021378498524427414
1780098759785676800,8.7436767578125,1.5042023658752441,1.2231004238128662,-0.43718892335891724
1780098759795668700,8.753668701171875,1.1836259365081787,2.1800806522369385,-0.947444498538971
1780098759805660700,8.76366064453125,0.8491194844245911,2.0292415618896484,-1.1586827039718628
1780098759815652900,8.77365283203125,0.688930332660675,1.4832922220230103,-1.0617595911026
1780098759825644800,8.783644775390625,0.6234577894210815,0.7786310315132141,-0.7829574346542358
1780098759835636700,8.79363671875,0.5220555067062378,0.012483512051403522,-0.5048914551734924
1780098759845628700,8.803628662109375,0.38581109046936035,-0.796590268611908,-0.28511714935302734
1780098759855620900,8.813620849609375,0.2718552350997925,-1.7370120286941528,-0.08855082839727402
1780098759865612800,8.82361279296875,0.2438889890909195,-2.6703362464904785,0.10031469911336899
1780098759875605000,8.83360498046875,0.24461282789707184,-3.348580837249756,0.3116794228553772
1780098759885596700,8.8435966796875,0.2540670335292816,-3.4998409748077393,0.5776388049125671
1780098759895588900,8.8535888671875,0.27325937151908875,-3.116196393966675,0.8366695642471313
1780098759905580800,8.863580810546875,0.23932170867919922,-2.4476089477539062,0.9991720914840698
1780098759915573000,8.873572998046875,-0.00572133157402277,-1.5111582279205322,1.3016579151153564
1780098759925565700,8.883565673828125,-0.5763851404190063,-0.20175592601299286,2.2103896141052246
1780098759935558000,8.893557861328125,-1.1547619104385376,1.0265717506408691,3.063687324523926
1780098759945549800,8.9035498046875,-1.6191699504852295,1.9596422910690308,3.5126287937164307
1780098759955541800,8.913541748046875,-1.9207435846328735,2.6456704139709473,3.635777711868286
1780098759965533700,8.92353369140625,-2.020833730697632,3.2274317741394043,3.5944936275482178
1780098759975526000,8.93352587890625,-1.9345402717590332,3.6017799377441406,3.523587703704834
1780098759985517800,8.943517822265624,-1.635451078414917,3.6298716068267822,3.495938777923584
1780098759995509800,8.953509765625,-1.3180103302001953,3.0907325744628906,3.4650399684906006
1780098760005501700,8.963501708984374,-1.114872932434082,2.116096019744873,3.3904755115509033
1780098760015494000,8.973493896484374,-0.9287122488021851,0.9865720272064209,3.188236713409424
1780098760025485800,8.98348583984375,-0.7125502228736877,-0.033495448529720306,2.756364107131958
1780098760035477800,8.993477783203126,-0.4481763243675232,-0.7809129357337952,2.1028494834899902
1780098760045469700,9.0034697265625,-0.1165749579668045,-1.1832478046417236,1.3320742845535278
1780098760055462000,9.0134619140625,0.23347119987010956,-1.2500081062316895,0.6219127774238586
1780098760065453800,9.023453857421876,0.5177883505821228,-1.13338041305542,0.16383033990859985
1780098760075446000,9.033446044921876,0.6711933612823486,-0.7800650000572205,0.08918939530849457
1780098760085437700,9.043437744140626,0.6812964677810669,-0.037340592592954636,0.36571791768074036
1780098760095430000,9.053429931640625,0.5746938586235046,0.8493854999542236,0.8987578749656677
1780098760105421800,9.063421875,0.37068748474121094,1.3543566465377808,1.5292644500732422
1780098760115414000,9.0734140625,0.20494404435157776,1.0016521215438843,2.02085542678833
1780098760125405700,9.08340576171875,0.23039209842681885,0.35264161229133606,2.2375431060791016
1780098760135398000,9.09339794921875,0.4495936930179596,-0.13343694806098938,2.154529333114624
1780098760145389800,9.103389892578125,0.6897078156471252,-0.43831080198287964,1.824047565460205
1780098760155382000,9.113382080078125,0.8570459485054016,-0.5842360258102417,1.3178682327270508
1780098760165373700,9.123373779296875,0.9209499359130859,-0.5291560888290405,0.7722400426864624
1780098760175366000,9.133365966796875,0.9125180840492249,-0.20330265164375305,0.33619800209999084
1780098760185357800,9.14335791015625,0.8419194221496582,0.3039707541465759,0.08519076555967331
1780098760195349800,9.153349853515625,0.6931169033050537,0.8056724667549133,0.03168599680066109
1780098760205342700,9.1633427734375,0.4663344621658325,1.1801073551177979,0.12053719162940979
1780098760215335000,9.1733349609375,0.2185177356004715,1.3968093395233154,0.24352996051311493
1780098760225326800,9.183326904296875,0.030168673023581505,1.4935590028762817,0.26497313380241394
1780098760235318800,9.19331884765625,-0.07474522292613983,1.4215420484542847,0.11458950489759445
1780098760245310700,9.203310791015625,-0.1690191924571991,1.1358803510665894,-0.1444864124059677
1780098760255303000,9.213302978515625,-0.27386704087257385,0.6831017136573792,-0.38949933648109436
1780098760265294800,9.223294921875,-0.3683456778526306,-0.006550339050590992,-0.42887139320373535
1780098760275287000,9.233287109375,-0.42122167348861694,-0.951511800289154,-0.17263615131378174
1780098760285278700,9.24327880859375,-0.45948556065559387,-1.824771761894226,0.23780693113803864
1780098760295271000,9.25327099609375,-0.567253053188324,-2.284543991088867,0.5576160550117493
1780098760305262800,9.263262939453124,-0.7795849442481995,-2.101600170135498,0.6439541578292847
1780098760315254800,9.2732548828125,-0.9323830008506775,-1.1675351858139038,0.3780316710472107
1780098760325246700,9.283246826171874,-0.8779484033584595,0.14393538236618042,-0.2766393721103668
1780098760335238700,9.29323876953125,-0.7142015695571899,1.0686475038528442,-1.1144636869430542
1780098760345230800,9.30323095703125,-0.5777227878570557,1.1971462965011597,-1.8713116645812988
1780098760355222800,9.313222900390626,-0.5615675449371338,0.8734971880912781,-2.4415476322174072
1780098760365214700,9.323214599609376,-0.6183051466941833,0.6042300462722778,-2.8215465545654297
1780098760375206700,9.33320654296875,-0.6351141929626465,0.5019217729568481,-3.0405867099761963
1780098760385198800,9.34319873046875,-0.5991835594177246,0.4065293073654175,-3.1835522651672363
1780098760395190800,9.353190673828125,-0.5407442450523376,0.3132520914077759,-3.2736310958862305
1780098760405182700,9.3631826171875,-0.4733576476573944,0.28248661756515503,-3.2831344604492188
1780098760415174700,9.373174560546875,-0.38025540113449097,0.28132548928260803,-3.243861198425293
1780098760425166800,9.383166748046875,-0.26279592514038086,0.414683073759079,-3.1219334602355957
1780098760435158800,9.39315869140625,-0.11363521218299866,0.558186948299408,-2.9574100971221924
1780098760445151000,9.40315087890625,0.09160520881414413,0.5565173029899597,-2.7471015453338623
1780098760455142700,9.413142578125,0.3154180645942688,0.4475111663341522,-2.5171961784362793
1780098760465134800,9.423134765625,0.45180344581604004,0.45517751574516296,-2.3123161792755127
1780098760475126800,9.433126708984375,0.5108300447463989,0.5964859127998352,-2.1845600605010986
1780098760485119000,9.443118896484375,0.5128528475761414,0.9667258858680725,-2.108588695526123
1780098760495110700,9.453110595703125,0.4737866222858429,1.503029465675354,-2.021885395050049
1780098760505104000,9.463103759765625,0.40929946303367615,1.9426852464675903,-1.8718397617340088
1780098760515095800,9.473095703125,0.317933052778244,2.1296255588531494,-1.6645814180374146
1780098760525087700,9.483087646484375,0.19278252124786377,2.1430952548980713,-1.4714933633804321
1780098760535079700,9.49307958984375,0.05266696214675903,1.9550073146820068,-1.327073574066162
1780098760545071900,9.50307177734375,-0.1012558564543724,1.3142449855804443,-1.2787200212478638
1780098760555064000,9.51306396484375,-0.20537906885147095,0.26795899868011475,-1.3210010528564453
1780098760565055700,9.5230556640625,-0.24074292182922363,-1.0944904088974,-1.3911415338516235
1780098760575048000,9.5330478515625,-0.1690245270729065,-2.0258212089538574,-1.5174100399017334
1780098760585040000,9.543039794921874,-0.11092451214790344,-2.3389346599578857,-1.679832100868225
1780098760595032000,9.553031982421874,-0.06839142739772797,-1.7551326751708984,-1.804245948791504
1780098760605023700,9.563023681640624,0.0012052534148097038,-0.7040387392044067,-1.8375073671340942
1780098760615016000,9.573015869140624,0.08835107088088989,0.19912496209144592,-1.7911888360977173
1780098760625007900,9.5830078125,0.1694571077823639,0.7369909882545471,-1.6430798768997192
1780098760635000000,9.593,0.22511105239391327,0.955029308795929,-1.4108834266662598
1780098760644992000,9.602991943359376,0.22631454467773438,0.8302287459373474,-1.107082724571228
1780098760654984000,9.61298388671875,0.18308797478675842,0.451487272977829,-0.7498417496681213
1780098760664976000,9.622975830078126,0.1455431878566742,0.06780371814966202,-0.36217671632766724
1780098760674968000,9.632968017578126,0.10766372829675674,-0.13791720569133759,0.02466820552945137
1780098760684960000,9.6429599609375,0.018433645367622375,-0.1909700632095337,0.38737189769744873
1780098760694952000,9.652951904296875,-0.11716918647289276,-0.22095166146755219,0.717894971370697
1780098760704943900,9.66294384765625,-0.2848285138607025,-0.2908481955528259,1.0442458391189575
1780098760714936000,9.67293603515625,-0.3849670886993408,-0.4741905927658081,1.3748447895050049
1780098760724928000,9.682927978515625,-0.33942022919654846,-0.7693260312080383,1.711912751197815
1780098760734920000,9.692919921875,-0.17959967255592346,-1.0467445850372314,2.0617525577545166
1780098760744912000,9.702911865234375,-0.028950702399015427,-1.3666623830795288,2.34871244430542
1780098760754904000,9.712904052734375,0.08690160512924194,-1.7510915994644165,2.525153398513794
1780098760764896000,9.72289599609375,0.1571505218744278,-2.2633068561553955,2.5253543853759766
1780098760774888000,9.732887939453125,0.12860623002052307,-2.879389524459839,2.1938576698303223
1780098760784879900,9.7428798828125,-0.04487070441246033,-2.6424272060394287,1.0251744985580444
1780098760794872000,9.7528720703125,-0.12296497076749802,-1.40999436378479,-0.8778027296066284
1780098760804864000,9.762864013671875,0.3265560567378998,-1.0380027294158936,-1.8359886407852173
1780098760814856000,9.77285595703125,0.7699918150901794,-1.1968309879302979,-1.6739635467529297
1780098760824848000,9.782847900390625,0.623789370059967,-1.1627808809280396,-1.2359815835952759
1780098760834839800,9.79283984375,0.05982986465096474,-0.7583535313606262,-0.7720764875411987
1780098760844832000,9.80283203125,-0.3062516748905182,-0.12212355434894562,-0.3081214427947998
1780098760854824000,9.812823974609374,-0.4554845690727234,0.25604426860809326,0.04496949166059494
1780098760864817000,9.82281689453125,-0.621835470199585,0.08428635448217392,0.1554945856332779
1780098760874809000,9.83280908203125,-0.7983841300010681,-0.24578210711479187,0.1648673266172409
1780098760884801000,9.842801025390624,-0.8622631430625916,-0.34104976058006287,0.3496783971786499
1780098760894793000,9.85279296875,-0.7555726766586304,-0.27594637870788574,0.7111119627952576
1780098760904785000,9.862784912109374,-0.49460917711257935,0.01014750450849533,0.9529225826263428
1780098760914777000,9.872777099609374,-0.10281959176063538,0.6158928275108337,0.9368919134140015
1780098760924769000,9.88276904296875,0.3160572052001953,1.236525058746338,0.7913609743118286
1780098760934761000,9.892760986328126,0.7434674501419067,0.7647570371627808,0.6489418148994446
1780098760944753000,9.9027529296875,1.2081565856933594,-0.1553071141242981,0.43177542090415955
1780098760954744800,9.912744873046876,1.1119022369384766,0.7574396729469299,0.2019515484571457
1780098760964737000,9.922737060546876,0.6687881350517273,1.3857065439224243,-0.007858766242861748
1780098760974728700,9.932728759765626,0.3770524859428406,1.4938743114471436,-0.10296424478292465
1780098760984721000,9.942720947265625,0.3718527853488922,1.3737448453903198,-0.07141087204217911
1780098760994712800,9.952712890625,0.49154406785964966,1.0849412679672241,0.053110551089048386
1780098761004705000,9.962705078125,0.5655399560928345,0.6493232250213623,0.16019369661808014
1780098761014697000,9.972697021484375,0.5565901398658752,0.02843439020216465,0.22518202662467957
1780098761024689000,9.98268896484375,0.5365588665008545,-0.7131297588348389,0.26992926001548767
1780098761034680800,9.992680908203125,0.6358242034912109,-1.319981575012207,0.31099069118499756
1780098761044673000,10.002673095703125,0.8128507137298584,-1.6171512603759766,0.3154236078262329
1780098761054665000,10.0126650390625,0.9567431807518005,-1.6882810592651367,0.24764160811901093
1780098761064657000,10.022656982421875,0.9708933234214783,-1.6560879945755005,0.13380859792232513
1780098761074648800,10.03264892578125,0.8075174689292908,-1.5789895057678223,0.059913329780101776
1780098761084641000,10.04264111328125,0.5162614583969116,-1.3375844955444336,0.12287050485610962
1780098761094633000,10.052633056640625,0.11010007560253143,-1.1600637435913086,0.32203394174575806
1780098761104625000,10.062625,-0.26746347546577454,-1.0047892332077026,0.6990286111831665
1780098761114616800,10.072616943359375,-0.5835258364677429,-0.9410384893417358,1.428215742111206
1780098761124609000,10.082609130859375,-0.9819731116294861,-1.2839959859848022,2.7972376346588135
1780098761134601000,10.09260107421875,-1.2990469932556152,-1.4012373685836792,4.118500709533691
1780098761144593000,10.102593017578124,-1.4121555089950562,-0.7721884846687317,4.849811553955078
1780098761154584800,10.112584716796874,-1.3896336555480957,0.5458431839942932,4.946079254150391
1780098761164577000,10.122576904296874,-1.3051666021347046,2.2351059913635254,4.50607442855835
1780098761174569000,10.13256884765625,-1.225799798965454,3.7502570152282715,3.756282329559326
1780098761184561000,10.142560791015624,-1.1685361862182617,4.383585453033447,2.9229233264923096
1780098761194552800,10.152552734375,-1.072440505027771,3.884608745574951,2.1552114486694336
1780098761204545000,10.162544921875,-0.9041767120361328,2.372708797454834,1.4807323217391968
1780098761214537000,10.172536865234376,-0.6145837306976318,0.6157417297363281,0.8672526478767395
1780098761224529200,10.182529052734376,-0.21904432773590088,-0.7416173219680786,0.3297782242298126
1780098761234520800,10.192520751953126,0.1533430814743042,-1.56960129737854,-0.03600643575191498
1780098761244513000,10.202512939453126,0.42157813906669617,-1.975163221359253,-0.21005500853061676
1780098761254505000,10.2125048828125,0.5855090022087097,-1.9936083555221558,-0.18948182463645935
1780098761264497200,10.2224970703125,0.6225613355636597,-1.598634958267212,0.04571252688765526
1780098761274488800,10.23248876953125,0.5344576239585876,-0.9846475720405579,0.4572819769382477
1780098761284481000,10.24248095703125,0.36299243569374084,-0.21840320527553558,1.0318495035171509
1780098761294473000,10.252472900390625,0.1652897447347641,0.339553564786911,1.643674373626709
1780098761304465000,10.26246484375,0.013841281644999981,0.3329910933971405,2.090920925140381
1780098761314456800,10.272456787109375,0.009677163325250149,-0.06989297270774841,2.327134609222412
1780098761324448800,10.28244873046875,0.14146587252616882,-0.5941009521484375,2.3039097785949707
1780098761334441000,10.29244091796875,0.3339913785457611,-1.0231198072433472,2.006150484085083
1780098761344433000,10.302432861328125,0.5400556325912476,-1.1533316373825073,1.4991352558135986
1780098761354424800,10.3124248046875,0.7049630880355835,-0.8030295372009277,0.9168110489845276
1780098761364416800,10.322416748046875,0.7492027282714844,-0.07739615440368652,0.42974892258644104
1780098761374410000,10.332409912109375,0.6418355107307434,0.7630172967910767,0.17471103370189667
1780098761384402000,10.34240185546875,0.4664938449859619,1.4542795419692993,0.125727578997612
1780098761394393900,10.352393798828125,0.32022824883461,1.8828532695770264,0.16377882659435272
1780098761404386000,10.362385986328125,0.20567730069160461,2.0064992904663086,0.11696577817201614
1780098761414378000,10.3723779296875,0.0729203149676323,1.8246643543243408,-0.03880012035369873
1780098761424370200,10.3823701171875,-0.06653140485286713,1.4073885679244995,-0.22822660207748413
1780098761434361900,10.39236181640625,-0.1882016360759735,0.7213563919067383,-0.29185083508491516
1780098761444353800,10.402353759765624,-0.2957070767879486,-0.23513640463352203,-0.08720553666353226
1780098761454346000,10.412345947265624,-0.38727959990501404,-1.180229902267456,0.2918437719345093
1780098761464338000,10.422337890625,-0.5484935641288757,-1.7741055488586426,0.6152189373970032
1780098761474329900,10.432329833984374,-0.7633746862411499,-1.7926362752914429,0.6980051398277283
1780098761484321800,10.44232177734375,-0.9016255140304565,-1.0975356101989746,0.41771331429481506
1780098761494314000,10.45231396484375,-0.8172779083251953,0.06847364455461502,-0.26606419682502747
1780098761504306000,10.462305908203126,-0.5842752456665039,1.0589747428894043,-1.1709316968917847
1780098761514297900,10.4722978515625,-0.42878633737564087,1.3636393547058105,-1.970381736755371
1780098761524289800,10.482289794921876,-0.4809015691280365,1.1265881061553955,-2.5518431663513184
1780098761534282000,10.492281982421876,-0.6254420280456543,0.7482303977012634,-2.9228503704071045
1780098761544274000,10.50227392578125,-0.6867876052856445,0.50173020362854,-3.1014673709869385
1780098761554265300,10.512265380859375,-0.6622745394706726,0.32633066177368164,-3.1670186519622803
1780098761564257300,10.52225732421875,-0.5934056043624878,0.18397648632526398,-3.158534049987793
1780098761574249200,10.532249267578125,-0.5048120617866516,0.2106991857290268,-3.067000389099121
1780098761584241400,10.542241455078125,-0.44568467140197754,0.39848339557647705,-2.9474916458129883
1780098761594233300,10.5522333984375,-0.4205324649810791,0.5139567852020264,-2.848742961883545
1780098761604225300,10.562225341796875,-0.3457721471786499,0.3267287015914917,-2.7851545810699463
1780098761614217200,10.57221728515625,-0.13646340370178223,-0.15808406472206116,-2.7381768226623535
1780098761624209400,10.58220947265625,0.14986780285835266,-0.49784812331199646,-2.6619064807891846
1780098761634201300,10.592201416015625,0.37946903705596924,-0.44706591963768005,-2.609558582305908
1780098761644193500,10.602193603515625,0.5189828872680664,-0.04458634927868843,-2.6130530834198
1780098761654185200,10.612185302734375,0.5729302763938904,0.5874373912811279,-2.580242872238159
1780098761664177400,10.622177490234375,0.5686823129653931,1.3084657192230225,-2.4289333820343018
1780098761674169300,10.63216943359375,0.5127708911895752,1.9761196374893188,-2.139249801635742
1780098761684161500,10.64216162109375,0.4115825295448303,2.5478382110595703,-1.7820450067520142
1780098761694153200,10.6521533203125,0.25682997703552246,2.847271680831909,-1.4019300937652588
1780098761704145200,10.662145263671874,0.08064238727092743,2.7482800483703613,-1.1007510423660278
1780098761714137300,10.672137451171874,-0.11708401143550873,2.2306926250457764,-0.9494271278381348
1780098761724129300,10.68212939453125,-0.3115098178386688,1.2969822883605957,-0.9098950624465942
1780098761734121200,10.692121337890624,-0.42333248257637024,-0.05479221045970917,-0.9437941908836365
1780098761744113200,10.702113037109376,-0.3808020055294037,-1.4422818422317505,-1.0643004179000854
1780098761754105300,10.712105224609376,-0.20153716206550598,-2.4091596603393555,-1.2788481712341309
1780098761764097300,10.72209716796875,-0.04309702292084694,-2.6318514347076416,-1.5496594905853271
1780098761774089200,10.732089111328126,0.015422744676470757,-1.8678350448608398,-1.7834346294403076
1780098761784081200,10.7420810546875,0.07920482754707336,-0.7130677103996277,-1.8767025470733643
1780098761794073300,10.7520732421875,0.1662217527627945,0.19729875028133392,-1.8328932523727417
1780098761804065300,10.762065185546875,0.2369309365749359,0.6395264863967896,-1.6759318113327026
1780098761814057500,10.772057373046875,0.23765158653259277,0.6934301853179932,-1.4089422225952148
1780098761824049200,10.782049072265625,0.19554130733013153,0.45474934577941895,-1.0499452352523804
1780098761834041300,10.792041259765625,0.1397496908903122,0.10622837394475937,-0.6138677000999451
1780098761844033300,10.802033203125,0.08390383422374725,-0.13899704813957214,-0.13416069746017456
1780098761854025500,10.812025390625,0.01930060423910618,-0.23745198547840118,0.3463513255119324
1780098761864017200,10.82201708984375,-0.08185481280088425,-0.30178913474082947,0.7763470411300659
1780098761874009300,10.83200927734375,-0.22481782734394073,-0.4482118785381317,1.158156156539917
1780098761884001300,10.842001220703125,-0.3520985543727875,-0.6743223667144775,1.504801869392395
1780098761893993500,10.851993408203125,-0.38090357184410095,-1.008737325668335,1.8397843837738037
1780098761903985200,10.861985107421875,-0.3259744644165039,-1.413164734840393,2.189635992050171
1780098761913977300,10.871977294921875,-0.25042060017585754,-1.9227614402770996,2.5200982093811035
1780098761923969300,10.88196923828125,-0.18045340478420258,-2.552218198776245,2.809662342071533
1780098761933961500,10.89196142578125,-0.16635090112686157,-3.384054660797119,2.9604570865631104
1780098761943953200,10.901953125,-0.23887144029140472,-4.273557186126709,2.6353988647460938
1780098761953945300,10.9119453125,-0.37949272990226746,-2.7921597957611084,0.4866843819618225
1780098761963937300,10.921937255859374,0.014647586271166801,-0.40288740396499634,-2.4020941257476807
1780098761973929500,10.931929443359374,0.8661235570907593,-0.6292710304260254,-2.9582386016845703
1780098761983921400,10.94192138671875,0.9758278727531433,-1.3715912103652954,-2.3793435096740723
1780098761993913300,10.951913330078124,0.41998299956321716,-1.5107171535491943,-1.6569100618362427
1780098762003905300,10.9619052734375,-0.18395771086215973,-0.9060916304588318,-0.9559679627418518
1780098762013897500,10.9718974609375,-0.5910400152206421,-0.01240103505551815,-0.3629741668701172
1780098762023889400,10.981889404296876,-0.8819907903671265,0.4594172537326813,-0.03862718492746353
1780098762033881300,10.99188134765625,-1.0975608825683594,0.26545602083206177,0.12975651025772095
1780098762043873300,11.001873291015626,-1.1464744806289673,-0.22281037271022797,0.3772600591182709
1780098762053865200,11.011865234375,-0.9496230483055115,-0.2232079803943634,0.6675454378128052
1780098762063857400,11.021857421875,-0.5381802320480347,0.6049826145172119,0.7441054582595825
1780098762073849000,11.03184912109375,-0.06522388756275177,1.7859188318252563,0.5610232949256897
1780098762083841300,11.04184130859375,0.3620991110801697,2.626854419708252,0.3592292070388794
1780098762093833200,11.051833251953125,0.8897930383682251,0.3988850712776184,0.41977962851524353
1780098762103825400,11.061825439453125,1.1448049545288086,-0.09994960576295853,0.388370543718338
1780098762113817000,11.071817138671875,0.7716397643089294,0.7355748414993286,0.20828014612197876
1780098762123809300,11.081809326171875,0.34453222155570984,1.216784954071045,-0.005384869407862425
1780098762133801200,11.09180126953125,0.14281055331230164,1.3723002672195435,-0.11034457385540009
1780098762143793400,11.10179345703125,0.14641156792640686,1.2549077272415161,-0.10826163738965988
1780098762153785300,11.111785400390625,0.21183212101459503,0.9230191707611084,-0.07123330980539322
1780098762163777300,11.12177734375,0.22554627060890198,0.43578386306762695,-0.025928925722837448
1780098762173769200,11.131769287109375,0.2236434370279312,-0.18649888038635254,0.035404741764068604
1780098762183761400,11.141761474609375,0.3790163993835449,-0.7008488774299622,0.12370531260967255
1780098762193753300,11.15175341796875,0.706118643283844,-0.9119800329208374,0.16845493018627167
1780098762203745300,11.161745361328125,1.021038293838501,-0.9680723547935486,0.08827067166566849
1780098762213737200,11.1717373046875,1.1528728008270264,-1.0144171714782715,-0.0831543430685997
1780098762223729400,11.1817294921875,1.0247430801391602,-1.0553901195526123,-0.24383589625358582
1780098762233721300,11.191721435546874,0.6831169128417969,-1.1730402708053589,-0.2668064832687378
1780098762243713300,11.20171337890625,0.20178444683551788,-1.3890403509140015,-0.10041949898004532
1780098762253705200,11.211705322265624,-0.1329866200685501,-2.3099467754364014,0.8110713362693787
1780098762263697400,11.221697509765624,-0.32884329557418823,-3.492568016052246,2.35170316696167
1780098762273689300,11.231689453125,-0.6483579277992249,-3.838620901107788,3.6016016006469727
1780098762283681300,11.241681396484376,-1.0077389478683472,-3.066401958465576,4.30728006362915
1780098762293673200,11.251673095703126,-1.3243844509124756,-1.0894865989685059,4.420543670654297
1780098762303665400,11.26166552734375,-1.557442545890808,1.4318217039108276,3.990354537963867
1780098762313657300,11.2716572265625,-1.6596301794052124,3.3598406314849854,3.342501640319824
1780098762323649300,11.281649169921875,-1.613121509552002,4.3431291580200195,2.8666887283325195
1780098762333641200,11.29164111328125,-1.376020908355713,4.3121795654296875,2.649862051010132
1780098762343633400,11.30163330078125,-1.0768781900405884,3.1870298385620117,2.6618258953094482
1780098762353625300,11.311625244140625,-0.8395847082138062,1.2859617471694946,2.601034641265869
1780098762363617500,11.321617431640625,-0.6426700949668884,-0.4281192123889923,2.1618595123291016
1780098762373609200,11.331609130859375,-0.393558531999588,-1.510886311531067,1.431302785873413
1780098762383601200,11.34160107421875,-0.041285134851932526,-1.966428279876709,0.6778440475463867
1780098762393593300,11.35159326171875,0.33077630400657654,-1.9243879318237305,0.11592531204223633
1780098762403585300,11.361585205078125,0.5988501906394958,-1.5187666416168213,-0.09295057505369186
1780098762413577200,11.3715771484375,0.6371212005615234,-0.6478757262229919,0.12254656106233597
1780098762423569200,11.381569091796875,0.4792128801345825,0.5145998001098633,0.6533430218696594
1780098762433561300,11.391561279296875,0.2178342491388321,1.4015945196151733,1.4003562927246094
1780098762443553300,11.40155322265625,0.016559645533561707,1.1451702117919922,2.1187856197357178
1780098762453545200,11.411545166015625,0.03397245705127716,0.3050757646560669,2.5386102199554443
1780098762463537200,11.421537109375,0.26505500078201294,-0.40720945596694946,2.538041591644287
1780098762473529300,11.431529296875,0.5268975496292114,-0.8120908737182617,2.144374132156372
1780098762483521300,11.441521240234374,0.7163684964179993,-0.979866623878479,1.5007277727127075
1780098762493513500,11.451513427734374,0.8182612657546997,-0.8766685724258423,0.8143656849861145
1780098762503505200,11.461505126953124,0.8391266465187073,-0.4330848455429077,0.3182660639286041
1780098762513497300,11.471497314453124,0.7737417817115784,0.18467609584331512,0.14137090742588043
1780098762523489300,11.4814892578125,0.6521771550178528,0.828437328338623,0.24141688644886017
1780098762533481500,11.4914814453125,0.4868371784687042,1.4085228443145752,0.4394943118095398
1780098762543473200,11.50147314453125,0.32557302713394165,1.865310788154602,0.5334791541099548
1780098762553465300,11.51146533203125,0.19381524622440338,2.0690417289733887,0.3715507686138153
1780098762563457800,11.521457763671876,0.05980304628610611,1.9655776023864746,0.012986838817596436
1780098762573449700,11.53144970703125,-0.10119542479515076,1.4868592023849487,-0.3505423665046692
1780098762583441700,11.541441650390626,-0.26413536071777344,0.6290477514266968,-0.5379340052604675
1780098762593433900,11.551433837890626,-0.3785220980644226,-0.4423576295375824,-0.4410735070705414
1780098762603425800,11.56142578125,-0.46211960911750793,-1.3867806196212769,-0.09410136193037033
1780098762613418000,11.57141796875,-0.6281914114952087,-1.967490315437317,0.27111735939979553
1780098762623409700,11.58140966796875,-0.8994526863098145,-1.9499609470367432,0.3622702956199646
1780098762633401900,11.59140185546875,-1.1026099920272827,-1.1836729049682617,-0.008351963944733143
1780098762643393800,11.601393798828125,-1.0069621801376343,-0.04880666360259056,-0.8472990393638611
1780098762653386000,11.611385986328125,-0.8453264236450195,0.8630096316337585,-1.7343884706497192
1780098762663377700,11.621377685546875,-0.8190699815750122,1.3928959369659424,-2.3026623725891113
1780098762673369900,11.631369873046875,-0.8182877898216248,1.6147733926773071,-2.614926815032959
1780098762683361800,11.64136181640625,-0.8229338526725769,1.4075146913528442,-2.8018574714660645
1780098762693354000,11.65135400390625,-0.8084776997566223,0.9620775580406189,-2.941723585128784
1780098762703345700,11.661345703125,-0.7496988773345947,0.5369276404380798,-3.0568227767944336
1780098762713337900,11.671337890625,-0.6841315627098083,0.20819266140460968,-3.1228153705596924
1780098762723329800,11.681329833984375,-0.5995058417320251,0.12290141731500626,-3.0544943809509277
1780098762733322000,11.691322021484375,-0.49191737174987793,0.2541113495826721,-2.850092649459839
1780098762743313700,11.701313720703125,-0.35907480120658875,0.47059619426727295,-2.627434492111206
1780098762753305900,11.711305908203125,-0.18656189739704132,0.6858677864074707,-2.4212422370910645
1780098762763297800,11.7212978515625,-0.045907821506261826,0.9445092082023621,-2.240342378616333
1780098762773290000,11.7312900390625,0.045690540224313736,1.3151229619979858,-2.1222493648529053
1780098762783282000,11.741281982421874,0.1335529088973999,1.7128279209136963,-2.0636863708496094
1780098762793273900,11.75127392578125,0.228266641497612,2.089627981185913,-2.0166900157928467
1780098762803265800,11.761265869140624,0.3083707392215729,2.4259495735168457,-1.9135340452194214
1780098762813257700,11.7712578125,0.3847062587738037,2.575392484664917,-1.7898997068405151
1780098762823250000,11.78125,0.3772405683994293,2.472297191619873,-1.7161743640899658
1780098762833241600,11.79124169921875,0.29041701555252075,1.9992550611495972,-1.6740529537200928
1780098762843233800,11.80123388671875,0.14855468273162842,1.1424401998519897,-1.6182376146316528
1780098762853225700,11.811225830078126,-0.003561615012586117,0.044824231415987015,-1.5238696336746216
1780098762863218000,11.821218017578126,-0.14440321922302246,-1.0188367366790771,-1.4688485860824585
1780098762873209600,11.831209716796875,-0.2636105716228485,-1.900438904762268,-1.447860836982727
1780098762883201800,11.841201904296875,-0.4353099465370178,-2.2321372032165527,-1.4478868246078491
1780098762893193700,11.85119384765625,-0.6170462369918823,-1.771903395652771,-1.5423177480697632
1780098762903186000,11.86118603515625,-0.6643878221511841,-0.7642345428466797,-1.6844635009765625
1780098762913177900,11.871177734375,-0.5007413625717163,0.007223329972475767,-1.739700436592102
1780098762923169800,11.881169677734375,-0.22137051820755005,0.2984338104724884,-1.7155026197433472
1780098762933161700,11.89116162109375,0.07207679748535156,0.222287118434906,-1.6320405006408691
1780098762943154000,11.90115380859375,0.33334246277809143,-0.04095736891031265,-1.4780393838882446
1780098762953145900,11.911145751953125,0.4962829053401947,-0.4046860337257385,-1.2715317010879517
1780098762963137800,11.9211376953125,0.5442243218421936,-0.6494717001914978,-1.0324956178665161
1780098762973129700,11.931129638671875,0.49558594822883606,-0.6531703472137451,-0.7738779187202454
1780098762983122000,11.941121826171875,0.38634008169174194,-0.4686245322227478,-0.49912455677986145
1780098762993113900,11.95111376953125,0.23001918196678162,-0.2710779011249542,-0.19621367752552032
1780098763003105800,11.961105712890625,0.046880804002285004,-0.21394707262516022,0.1322527676820755
1780098763013097700,11.97109765625,-0.13150277733802795,-0.37354525923728943,0.47951674461364746
1780098763023088600,11.981088623046874,-0.25425270199775696,-0.7540048360824585,0.8337900042533875
1780098763033080800,11.991080810546874,-0.2701382040977478,-1.1845370531082153,1.2287904024124146
1780098763043072800,12.00107275390625,-0.19559083878993988,-1.5548597574234009,1.6491583585739136
1780098763053064700,12.011064697265626,-0.12234726548194885,-1.9413416385650635,2.0825836658477783
1780098763063056600,12.021056640625,-0.04470977187156677,-2.4486985206604004,2.527557849884033
1780098763073048800,12.031048828125,0.04122564196586609,-3.1452689170837402,2.956977605819702
1780098763083040800,12.041040771484376,0.07152938097715378,-3.9059317111968994,3.1626405715942383
1780098763093033000,12.051032958984376,-0.0800473615527153,-3.4417293071746826,2.5072641372680664
1780098763103024600,12.061024658203126,-0.3033813238143921,-0.5625343322753906,0.3200024366378784
1780098763113016800,12.071016845703125,0.0119286784902215,0.7192230224609375,-1.257182240486145
1780098763123008800,12.0810087890625,0.4101185202598572,0.0039083389565348625,-1.7402551174163818
1780098763133001000,12.0910009765625,0.4618123471736908,-0.9832572937011719,-1.8400027751922607
1780098763142992600,12.10099267578125,0.2927998900413513,-1.1579056978225708,-1.6283482313156128
1780098763152984800,12.11098486328125,0.10336390882730484,-0.6650829315185547,-1.122260570526123
1780098763162976800,12.120976806640625,-0.13353586196899414,-0.07323796302080154,-0.5522245764732361
1780098763172969000,12.130968994140625,-0.3426797688007355,0.22331327199935913,-0.06515663117170334
1780098763182960600,12.140960693359375,-0.47091004252433777,0.38562288880348206,0.444738507270813
1780098763192952800,12.150952880859375,-0.543759286403656,0.37477636337280273,0.9445576071739197
1780098763202944800,12.16094482421875,-0.5682082176208496,0.3732813894748688,1.1233123540878296
1780098763212937000,12.17093701171875,-0.5700434446334839,0.690699577331543,0.975040853023529
1780098763222928600,12.1809287109375,-0.5407904386520386,1.4509376287460327,0.7525085210800171
1780098763232920800,12.1909208984375,-0.47201672196388245,1.9109408855438232,0.6373717784881592
1780098763242912800,12.200912841796875,-0.041772112250328064,-0.6601018905639648,1.2175841331481934
1780098763252905000,12.210905029296875,0.6914299726486206,-0.7794407606124878,1.5289756059646606
1780098763262897000,12.22089697265625,0.9328746795654297,1.2882435321807861,1.2041550874710083
1780098763272888800,12.230888916015624,0.5801999568939209,2.5494515895843506,0.631777822971344
1780098763282880800,12.240880859375,0.33355218172073364,2.8768913745880127,0.34711289405822754
1780098763292873000,12.250873046875,0.36359450221061707,2.612727403640747,0.2885039150714874
1780098763302865000,12.260864990234374,0.49946799874305725,2.0035648345947266,0.3091599941253662
1780098763312856800,12.27085693359375,0.5560367703437805,1.196765422821045,0.315195769071579
1780098763322848800,12.280848876953126,0.5502234101295471,0.18246901035308838,0.33693942427635193
1780098763332841000,12.290841064453126,0.5843116044998169,-0.9492257833480835,0.36048203706741333
1780098763342833000,12.3008330078125,0.7126317024230957,-1.8903930187225342,0.36445456743240356
1780098763352824600,12.310824462890626,0.8674516677856445,-2.4550602436065674,0.3010486960411072
1780098763362816800,12.320816650390626,0.9669325947761536,-2.6456148624420166,0.164438396692276
1780098763372808700,12.33080859375,0.9312848448753357,-2.5645370483398438,0.030068598687648773
1780098763382801000,12.34080078125,0.7341057062149048,-2.175400495529175,-0.0021804168354719877
1780098763392792600,12.35079248046875,0.4147423803806305,-1.6396152973175049,0.1052006408572197
1780098763402784800,12.36078466796875,0.031171025708317757,-1.247605323791504,0.6593290567398071
1780098763412776700,12.370776611328125,-0.40177053213119507,-1.09292733669281,1.8094700574874878
1780098763422769000,12.380768798828125,-0.7233946323394775,-0.7985068559646606,2.8956797122955322
1780098763432760800,12.3907607421875,-0.9159286022186279,-0.25644972920417786,3.4782791137695312
1780098763442752800,12.400752685546875,-1.060580849647522,0.4993289113044739,3.641566276550293
1780098763452744700,12.41074462890625,-1.176034688949585,1.2178268432617188,3.565540313720703
1780098763462737000,12.42073681640625,-1.1592057943344116,1.7154524326324463,3.391068935394287
1780098763472728800,12.430728759765625,-1.0515501499176025,2.0939207077026367,3.2458972930908203
1780098763482720800,12.440720703125,-0.9402263164520264,2.3434836864471436,3.1120450496673584
1780098763492711700,12.450711669921875,-0.8623067736625671,2.2831499576568604,2.8694005012512207
1780098763502703900,12.460703857421874,-0.8268640637397766,1.8007656335830688,2.4782795906066895
1780098763512695800,12.47069580078125,-0.756007730960846,1.0519236326217651,1.9503651857376099
1780098763522688000,12.48068798828125,-0.5711615085601807,0.308295875787735,1.391089677810669
1780098763532679700,12.4906796875,-0.2509949505329132,-0.1570957899093628,0.9487034678459167
1780098763542672000,12.500671875,0.10030971467494965,-0.27851030230522156,0.7208803296089172
1780098763552663800,12.510663818359374,0.3687339723110199,-0.20302645862102509,0.6696392297744751
1780098763562656500,12.520656494140624,0.5277189016342163,-0.08894526213407516,0.7760034203529358
1780098763572648400,12.5306484375,0.5767032504081726,0.03419078141450882,1.0263376235961914
1780098763582640400,12.540640380859376,0.5536834001541138,0.08297086507081985,1.338269591331482
