time,seconds_elapsed,z,y,x
1778948857252477200,0.130477294921875,1.497075080871582,0.6807715892791748,0.5305390954017639
1778948857268803000,0.146802978515625,2.8209800720214844,-0.937157154083252,0.565448522567749
1778948857285148400,0.1631484375,3.1359920501708984,-0.4837362766265869,1.3850317001342773
1778948857301477000,0.17947705078125,1.2665443420410156,-0.1452348232269287,1.781286358833313
1778948857317807400,0.195807373046875,2.9614992141723633,-0.8862366676330566,2.14219331741333
1778948857334125000,0.212125,1.8750200271606445,-1.9099681377410889,3.535489082336426
1778948857350473200,0.22847314453125,-1.1796612739562988,-2.583097219467163,3.947373867034912
1778948857366802700,0.244802734375,-3.8761844635009766,-3.761451005935669,3.5903844833374023
1778948857383135200,0.26113525390625,-2.966529369354248,-2.9653544425964355,1.4334132671356201
1778948857399465700,0.2774658203125,-0.3928709030151367,2.8104169368743896,-1.7531769275665283
1778948857415797200,0.29379736328125,-0.48226261138916016,-0.8131277561187744,2.4288101196289062
1778948857432129000,0.31012890625,-1.3667874336242676,-3.0702993869781494,3.261171817779541
1778948857448459000,0.326458984375,-6.528810501098633,-0.9969158172607422,0.6624499559402466
1778948857464792600,0.34279248046875,-9.139668464660645,0.9149127006530762,-2.9901163578033447
1778948857481123000,0.359123046875,-7.686282634735107,-0.34044551849365234,-3.1208581924438477
1778948857497454300,0.375454345703125,-5.451574325561523,0.8598370552062988,-1.266961693763733
1778948857513784600,0.39178466796875,-1.032867431640625,-0.7178747653961182,-0.221360445022583
1778948857530117400,0.408117431640625,-1.7621545791625977,-2.898782968521118,-0.45029139518737793
1778948857546449000,0.424448974609375,-3.380237102508545,-2.4483566284179688,-0.9186956882476807
1778948857562790100,0.4407900390625,-4.677768230438232,-2.266007423400879,-1.2200260162353516
1778948857579098000,0.45709814453125,-5.9823150634765625,-2.2533349990844727,-1.3126380443572998
1778948857595442200,0.473442138671875,-7.602042198181152,-2.981279134750366,-1.48909592628479
1778948857611774500,0.4897744140625,-8.032112121582031,-3.1414577960968018,-1.7957406044006348
1778948857628106500,0.5061064453125,-7.161594390869141,-3.084596633911133,-2.049534797668457
1778948857644426000,0.522426025390625,-6.186046600341797,-5.185508728027344,-2.6093602180480957
1778948857660768300,0.538768310546875,-5.184463024139404,-8.053717613220215,-2.894815444946289
1778948857677109200,0.555109130859375,-3.052511692047119,-7.009312629699707,-3.018998622894287
1778948857693446100,0.571446044921875,-2.720348596572876,-2.565115213394165,-0.7176675796508789
1778948857709775000,0.587775146484375,2.14699387550354,-0.9694884419441223,2.8014354705810547
1778948857726121500,0.60412158203125,5.8884596824646,-1.8076419830322266,6.6080522537231445
1778948857742436000,0.62043603515625,8.327802658081055,-0.6894292831420898,9.338566780090332
1778948857758757600,0.636757568359375,8.858920097351074,-0.9278368949890137,11.334370613098145
1778948857775088000,0.653088134765625,6.777480602264404,0.5952181220054626,12.912074089050293
1778948857791419600,0.669419677734375,4.537508010864258,3.0884811878204346,14.878355026245117
1778948857807754500,0.68575439453125,3.8538761138916016,5.292163372039795,16.35008430480957
1778948857824083000,0.7020830078125,4.415953636169434,5.657292366027832,16.13817024230957
1778948857840413400,0.718413330078125,3.822394609451294,5.992846488952637,14.756781578063965
1778948857856745500,0.734745361328125,3.426795482635498,5.719182968139648,11.974164009094238
1778948857873097500,0.751097412109375,2.555253028869629,3.9679031372070312,8.921512603759766
1778948857889420000,0.767419921875,1.0666042566299438,1.879596471786499,5.404097557067871
1778948857905748700,0.783748779296875,0.1004401445388794,0.6894840002059937,2.5549850463867188
1778948857922073900,0.800073974609375,-0.8663767576217651,0.06552386283874512,2.045769691467285
1778948857938401300,0.8164013671875,-0.4748528003692627,0.20183062553405762,1.0511207580566406
1778948857954731000,0.83273095703125,-1.4793860912322998,-0.027058124542236328,0.1651325225830078
1778948857971063300,0.849063232421875,0.227996826171875,-0.07510542869567871,-0.7338800430297852
1778948857987388200,0.86538818359375,-3.397078275680542,0.224900484085083,-2.8072218894958496
1778948858003733000,0.88173291015625,-4.931974411010742,0.07218742370605469,-6.051311492919922
1778948858020046600,0.898046630859375,0.30530285835266113,-0.2293226718902588,-5.513289451599121
1778948858036386800,0.91438671875,-0.14920377731323242,0.4854013919830322,-5.452703475952148
1778948858052732200,0.930732177734375,-1.5481603145599365,0.04141545295715332,-5.942378044128418
1778948858069054700,0.9470546875,0.5715413093566895,1.1531132459640503,-6.098235130310059
1778948858085384400,0.963384521484375,-1.835822582244873,2.0417356491088867,-6.218197822570801
1778948858101719600,0.979719482421875,-0.04851102828979492,0.8339295387268066,-7.8063764572143555
1778948858118035700,0.99603564453125,-3.9993855953216553,0.014265060424804688,-4.634109020233154
1778948858134393600,1.0123935546875,-2.347618341445923,0.1290583610534668,-1.957601547241211
1778948858150725000,1.02872509765625,-0.1453852653503418,2.6703290939331055,-0.22944355010986328
1778948858167027700,1.04502783203125,-1.317117691040039,2.2394981384277344,-0.091888427734375
1778948858183373800,1.061373779296875,-0.5535504817962646,0.6416020393371582,-1.0373029708862305
1778948858199712000,1.0777119140625,0.06761479377746582,-2.3422436714172363,-0.7796626091003418
1778948858216033000,1.094032958984375,-1.2207605838775635,1.5141339302062988,-0.2362675666809082
1778948858232362800,1.11036279296875,-2.2030081748962402,-3.587167739868164,-3.575035810470581
1778948858248701700,1.12670166015625,4.017441749572754,-8.360532760620117,-5.881145477294922
1778948858265044000,1.1430439453125,2.149949312210083,-1.1287431716918945,-1.4508299827575684
1778948858281361400,1.159361328125,2.8312315940856934,5.184410095214844,5.485030174255371
1778948858297693700,1.175693603515625,4.215912818908691,3.941398859024048,10.090338706970215
1778948858314026500,1.192026611328125,0.14158844947814941,23.697521209716797,24.40387725830078
1778948858330358000,1.20835791015625,-3.9612491130828857,0.43094635009765625,22.760717391967773
1778948858346704100,1.2247041015625,-5.780573844909668,2.4577341079711914,8.018926620483398
1778948858363016400,1.241016357421875,-1.8266880512237549,0.330533504486084,4.026952266693115
1778948858379353900,1.257353759765625,0.43946170806884766,1.275217056274414,4.139057159423828
1778948858395683800,1.273683837890625,-0.2739090919494629,0.3046102523803711,3.2595911026000977
1778948858412008400,1.290008544921875,-2.827554225921631,-0.4779047966003418,0.4246029853820801
1778948858428352000,1.30635205078125,-4.072995185852051,-3.024777412414551,-0.8571815490722656
1778948858444676000,1.322676025390625,-2.2434988021850586,-4.069645881652832,-1.0886774063110352
1778948858461011700,1.33901171875,0.6101526021957397,-5.621591567993164,-0.548802375793457
1778948858477338600,1.355338623046875,0.9250774383544922,-3.5938892364501953,0.39569759368896484
1778948858493677800,1.371677734375,2.34175705909729,3.742016315460205,0.17565584182739258
1778948858510007000,1.388007080078125,0.2936304211616516,-1.020960807800293,1.9118223190307617
1778948858526335500,1.40433544921875,2.0361886024475098,-3.628228187561035,2.179717540740967
1778948858542653400,1.4206533203125,1.834532380104065,-3.9423513412475586,2.1151247024536133
1778948858558985200,1.436985107421875,7.1125993728637695,-7.7562408447265625,1.9503817558288574
1778948858575320800,1.45332080078125,3.555027961730957,-4.254042625427246,0.892430305480957
1778948858591659800,1.46965966796875,1.2834646701812744,2.054037570953369,0.0576934814453125
1778948858607994400,1.485994384765625,-1.371459722518921,0.8201417922973633,-1.9496595859527588
1778948858624324000,1.502323974609375,0.1536111831665039,1.177591323852539,-3.8160083293914795
1778948858640656400,1.518656494140625,0.6196417808532715,1.311408519744873,-5.43619441986084
1778948858656987000,1.53498681640625,2.0135836601257324,4.2258076667785645,-4.611814498901367
1778948858673318100,1.551318115234375,2.1760306358337402,3.599194049835205,-4.253187656402588
1778948858689651700,1.567651611328125,2.0309767723083496,3.3236451148986816,-2.3440048694610596
1778948858705981000,1.58398095703125,2.7222282886505127,3.6357421875,-0.3559286594390869
1778948858722329000,1.6003291015625,2.4275383949279785,4.45460844039917,-0.12218856811523438
1778948858738645800,1.616645751953125,1.081608772277832,4.76084041595459,-0.4792160987854004
1778948858754979000,1.63297900390625,-0.4762122631072998,5.2945685386657715,-1.2626205682754517
1778948858771303200,1.64930322265625,-0.6638870239257812,5.870328426361084,-3.169933557510376
1778948858787642000,1.66564208984375,-2.010807514190674,1.3084583282470703,-0.7442280054092407
1778948858803966700,1.681966796875,0.5277431011199951,-5.62778377532959,2.1880195140838623
1778948858820304100,1.69830419921875,0.8209725618362427,-7.2168474197387695,3.522976875305176
1778948858836632600,1.714632568359375,-6.542393684387207,-6.3669023513793945,1.8781150579452515
1778948858852964000,1.730964111328125,-11.889567375183105,-3.976694107055664,0.9827200174331665
1778948858869307100,1.74730712890625,-5.277041435241699,4.507169723510742,1.4906057119369507
1778948858885633500,1.763633544921875,0.9466263055801392,5.855694770812988,-0.609909176826477
1778948858901972700,1.77997265625,3.2441563606262207,0.9706010818481445,-1.8881334066390991
1778948858918297900,1.7962978515625,4.491898536682129,-3.7173280715942383,1.0556640625
1778948858934625800,1.812625732421875,4.855274200439453,-6.945101737976074,2.4008994102478027
1778948858950954200,1.828954345703125,-1.4561164379119873,-4.476596832275391,0.5614979267120361
1778948858967284500,1.845284423828125,2.8062517642974854,1.4054317474365234,-1.2309999465942383
1778948858983615700,1.86161572265625,1.0871100425720215,5.634918212890625,-3.5319888591766357
1778948858999946000,1.877946044921875,3.9746928215026855,6.106671333312988,-4.002394199371338
1778948859016279000,1.894279052734375,4.493151664733887,7.860001564025879,-2.695058822631836
1778948859032609500,1.910609619140625,5.37636137008667,8.687332153320312,-3.5617446899414062
1778948859048940800,1.92694091796875,5.485218048095703,10.127681732177734,-5.179373741149902
1778948859065326800,1.943326904296875,6.720524311065674,9.733129501342773,-3.778636932373047
1778948859081622500,1.95962255859375,7.269554138183594,0.9875726699829102,0.688971996307373
1778948859097946000,1.975946044921875,7.052748680114746,-3.2698049545288086,1.248490810394287
1778948859114275800,1.99227587890625,6.4748382568359375,1.285654067993164,-0.8305338621139526
1778948859130598000,2.008597900390625,3.6590819358825684,1.8569364547729492,0.8486849069595337
1778948859146927600,2.024927734375,4.95618200302124,0.6877012252807617,-2.6911284923553467
1778948859163252200,2.041252197265625,-0.49547696113586426,-20.25644302368164,5.151163578033447
1778948859179583500,2.05758349609375,3.892333507537842,-41.516178131103516,0.8984178900718689
1778948859195924500,2.073924560546875,0.06501948833465576,-5.5069074630737305,-1.4452931880950928
1778948859212256300,2.09025634765625,-2.7975921630859375,7.204039573669434,-0.2526397705078125
1778948859228573400,2.106573486328125,-7.313228607177734,7.062211513519287,1.8631752729415894
1778948859244922600,2.122922607421875,-6.649719715118408,4.939610481262207,0.8771300315856934
1778948859261250000,2.13925,-3.3357667922973633,0.8114376068115234,0.8539619445800781
1778948859277583000,2.1555830078125,-0.3796268701553345,-0.7391872406005859,1.8688130378723145
1778948859293911800,2.171911865234375,0.41454243659973145,-0.7778911590576172,2.342883586883545
1778948859310245400,2.188245361328125,-0.11004829406738281,-0.16698265075683594,2.195399284362793
1778948859326576000,2.204576171875,-0.7910679578781128,-0.41788768768310547,2.102753162384033
1778948859342907400,2.220907470703125,-1.9107599258422852,-0.9777240753173828,2.535950183868408
1778948859359239200,2.2372392578125,-2.3229222297668457,-1.4205121994018555,3.3249776363372803
1778948859375571200,2.2535712890625,-1.6305549144744873,-0.739192008972168,4.566247463226318
1778948859391898000,2.269898193359375,-0.41627800464630127,-1.0924005508422852,6.429455757141113
1778948859408237000,2.286237060546875,-0.4109489917755127,-1.5957870483398438,7.958626747131348
1778948859424562700,2.302562744140625,-2.6054062843322754,-2.1347713470458984,7.249561786651611
1778948859440913400,2.318913330078125,-7.01191520690918,-2.8079729080200195,4.949331283569336
1778948859457244400,2.335244384765625,-9.665175437927246,-2.6438302993774414,4.686254024505615
1778948859473562400,2.351562255859375,-4.625565528869629,-1.6473197937011719,5.848760604858398
1778948859489900300,2.367900390625,-5.190761566162109,-1.7247095108032227,7.404013633728027
1778948859506208800,2.384208740234375,-5.4890456199646,-1.672795295715332,6.313643455505371
1778948859522554600,2.4005546875,-2.3753745555877686,-2.9230947494506836,5.7156081199646
1778948859538884400,2.41688427734375,0.4951561689376831,-2.263970375061035,3.2650206089019775
1778948859555214300,2.43321435546875,1.201431393623352,-2.547138214111328,-0.43743041157722473
1778948859571548400,2.44954833984375,2.757422924041748,-5.310851097106934,-2.274214029312134
1778948859587879400,2.46587939453125,4.177237510681152,-6.860814094543457,-2.0385589599609375
1778948859604211500,2.48221142578125,3.995253086090088,-5.929250717163086,-2.277578592300415
1778948859620542000,2.4985419921875,2.8250741958618164,-4.525046348571777,-2.9065916538238525
1778948859636891000,2.514890869140625,1.837712049484253,-4.925163269042969,-3.7366340160369873
1778948859653208300,2.531208251953125,-0.33299338817596436,-4.834333419799805,-2.8108842372894287
1778948859669547300,2.54754736328125,0.3182671070098877,-3.1218481063842773,-1.1032822132110596
1778948859685869000,2.563869140625,1.0186939239501953,-1.2253608703613281,0.531777560710907
1778948859702206700,2.580206787109375,2.37446928024292,0.5813274383544922,1.0459063053131104
1778948859718520600,2.5965205078125,3.800205707550049,1.306412696838379,1.4749150276184082
1778948859734850800,2.612850830078125,4.508842468261719,0.904444694519043,1.689799189567566
1778948859751192000,2.629192138671875,3.212902069091797,1.1661806106567383,0.6286253929138184
1778948859767526000,2.64552587890625,5.254734039306641,1.352403163909912,0.16453707218170166
1778948859783845600,2.661845703125,5.158597946166992,3.013871669769287,-0.17511117458343506
1778948859800189000,2.67818896484375,6.240760326385498,4.215808391571045,-0.5729504823684692
1778948859816504000,2.694504150390625,6.01331901550293,5.189689636230469,-1.919715166091919
1778948859832867600,2.71086767578125,6.7273406982421875,6.229206085205078,-3.9276559352874756
1778948859849180000,2.727179931640625,7.040894031524658,7.78847074508667,-5.58394193649292
1778948859865510000,2.743510009765625,6.732321262359619,8.53276538848877,-5.1266303062438965
1778948859881844000,2.759843994140625,5.7524566650390625,8.40296745300293,-4.010689735412598
1778948859898162000,2.776161865234375,3.178283214569092,6.165195941925049,-3.142618179321289
1778948859914508300,2.79250830078125,-2.1601474285125732,3.377629280090332,-1.7080726623535156
1778948859930841300,2.80884130859375,-14.864562034606934,-3.7385177612304688,-0.8197522163391113
1778948859947170000,2.825170166015625,-13.419469833374023,-14.6065673828125,4.549720287322998
1778948859963503900,2.84150390625,-8.961773872375488,-19.226150512695312,11.070662498474121
1778948859979833900,2.857833740234375,-6.5986223220825195,-5.367833137512207,5.955517768859863
1778948859996166100,2.874166259765625,-2.2154808044433594,3.1816625595092773,-1.1575028896331787
1778948860012498200,2.890498291015625,1.8205493688583374,6.244916915893555,-5.931872844696045
1778948860028832500,2.90683251953125,-4.444675445556641,2.1956567764282227,-6.660274028778076
1778948860045172700,2.9231728515625,-4.38630485534668,-5.913259506225586,-0.6979172229766846
1778948860061478000,2.939477783203125,7.381350040435791,-14.12479019165039,2.8902151584625244
1778948860077821400,2.955821533203125,10.851491928100586,-6.3454179763793945,1.6457198858261108
1778948860094139000,2.972138916015625,9.176527976989746,5.774110794067383,-2.4457645416259766
1778948860126805200,3.00480517578125,5.821256637573242,5.466011047363281,-4.9884490966796875
1778948860143147500,3.0211474609375,9.695453643798828,2.028841495513916,-4.093117713928223
1778948860159480600,3.03748046875,7.434417724609375,-1.3698196411132812,-3.280409574508667
1778948860175811800,3.053811767578125,3.8901686668395996,-2.884990692138672,-2.730355978012085
1778948860192144000,3.070143798828125,3.092416286468506,-4.275083541870117,-2.010805368423462
1778948860208474600,3.086474609375,1.920971393585205,-6.985745429992676,-1.2168320417404175
1778948860224805600,3.1028056640625,3.8668441772460938,-5.861146926879883,2.681652784347534
1778948860241137200,3.11913720703125,-1.303006887435913,-2.5702524185180664,6.768975734710693
1778948860257470200,3.13547021484375,-0.19720281660556793,2.4928321838378906,8.382223129272461
1778948860273800400,3.151800537109375,8.057073593139648,2.5437159538269043,4.554737567901611
1778948860290132500,3.168132568359375,-0.06127369403839111,2.486084461212158,2.8321781158447266
1778948860306463700,3.184463623046875,-4.864804744720459,3.041426658630371,0.21260201930999756
1778948860322792400,3.20079248046875,-4.348282814025879,2.413717269897461,0.357666015625
1778948860339114800,3.21711474609375,-0.6000661849975586,2.413905143737793,0.4758688807487488
1778948860355457000,3.23345703125,-0.39320850372314453,1.625152587890625,0.4073107838630676
1778948860371792100,3.249792236328125,-3.569645643234253,1.2149381637573242,-1.5442968606948853
1778948860388121000,3.26612109375,-7.620553493499756,0.3648853302001953,-2.9412930011749268
1778948860404451600,3.28245166015625,-4.988053798675537,-0.8776702880859375,-0.12680059671401978
1778948860420787500,3.298787353515625,-0.0991816520690918,0.0685586929321289,1.7263295650482178
1778948860437108000,3.31510791015625,0.992626428604126,0.2013998031616211,2.3938393592834473
1778948860453447700,3.33144775390625,-0.6077926158905029,-1.0718460083007812,2.6488037109375
1778948860469761500,3.347761474609375,-2.1028506755828857,-1.040787696838379,2.858074188232422
1778948860486112500,3.364112548828125,-2.3254785537719727,-0.4441986083984375,3.5919086933135986
1778948860502441000,3.38044091796875,-2.3672661781311035,0.098175048828125,5.09199333190918
1778948860518771500,3.396771484375,0.2769014835357666,-1.5793790817260742,7.351192474365234
1778948860535103000,3.41310302734375,2.7243494987487793,-3.4411582946777344,9.107698440551758
1778948860551435800,3.429435791015625,-0.5775384902954102,-3.40799617767334,6.929577827453613
1778948860567769000,3.44576904296875,-8.460861206054688,-3.4937801361083984,4.709871292114258
1778948860584098600,3.4620986328125,-8.887504577636719,-4.061161994934082,5.206770896911621
1778948860600430000,3.47843017578125,-4.312660217285156,-3.3021907806396484,7.666089057922363
1778948860616762000,3.49476220703125,-3.382740020751953,-2.6242055892944336,8.71487808227539
1778948860633089800,3.51108984375,-4.424990653991699,-3.6223840713500977,7.3718180656433105
1778948860649426400,3.527426513671875,-5.875631332397461,-3.8871307373046875,4.695979595184326
1778948860665751800,3.543751708984375,-3.984013319015503,-2.4221954345703125,1.226306676864624
1778948860682091000,3.560091064453125,0.6172647476196289,-1.1611309051513672,-0.322356641292572
1778948860698433000,3.57643310546875,4.727313995361328,-4.17108154296875,-2.0979247093200684
1778948860714735600,3.592735595703125,8.000070571899414,-6.723468780517578,-2.3896965980529785
1778948860731084500,3.60908447265625,6.167507648468018,-5.563214302062988,-2.9904890060424805
1778948860747404500,3.625404541015625,1.3270833492279053,-4.596362113952637,-4.563769817352295
1778948860763743200,3.6417431640625,-1.4312779903411865,-4.662083625793457,-5.788878917694092
1778948860780075000,3.658074951171875,-1.1501123905181885,-3.2287092208862305,-3.98958158493042
1778948860796407800,3.67440771484375,0.97979336977005,-1.4609222412109375,-0.6440809965133667
1778948860812756200,3.690756103515625,1.9916898012161255,1.053969383239746,1.4536699056625366
1778948860829066500,3.70706640625,-0.005230903625488281,1.7475409507751465,1.8948445320129395
1778948860845401600,3.723401611328125,4.84051513671875,1.4801206588745117,2.8126766681671143
1778948860861732900,3.73973291015625,3.447887420654297,2.2192835807800293,3.0972461700439453
1778948860878052600,3.756052490234375,2.843522310256958,1.9641237258911133,2.160175085067749
1778948860894396400,3.772396484375,3.7981951236724854,1.818603515625,1.127678632736206
1778948860910726700,3.7887265625,5.088584899902344,2.804981231689453,0.9146828055381775
1778948860927058400,3.805058349609375,6.216997146606445,3.892580986022949,-0.3754716217517853
1778948860943379200,3.821379150390625,6.279844284057617,4.948062419891357,-2.0235753059387207
1778948860959732000,3.83773193359375,6.378332138061523,5.402225017547607,-3.142695188522339
1778948860976051700,3.8540517578125,6.382451057434082,5.586274147033691,-3.4877331256866455
1778948860992388000,3.87038818359375,6.214720249176025,6.319540977478027,-3.9311318397521973
1778948861008718600,3.886718505859375,4.553447723388672,6.686337471008301,-3.0172364711761475
1778948861025035000,3.903034912109375,3.482508420944214,5.960852146148682,-2.092092990875244
1778948861041378300,3.91937841796875,-0.9525589942932129,3.530970573425293,-1.11051607131958
1778948861057698000,3.935697998046875,-13.173151969909668,-3.5710535049438477,-1.9400376081466675
1778948861074043000,3.95204296875,-14.121114730834961,-11.991535186767578,2.2933313846588135
1778948861090386000,3.968385986328125,-5.3033037185668945,-13.439891815185547,6.0505523681640625
1778948861106701300,3.984701416015625,-5.491009712219238,-6.507994651794434,6.500030994415283
1778948861123037200,4.001037109375,-4.368014335632324,-1.62103271484375,0.6018984913825989
1778948861139368700,4.01736865234375,-0.38681507110595703,2.51462984085083,-2.8094370365142822
1778948861155698400,4.033698486328125,1.803609848022461,6.43750524520874,-3.6589272022247314
1778948861172032000,4.050031982421875,-0.025955677032470703,5.1015543937683105,-2.813620090484619
1778948861188363000,4.066363037109375,-1.149143934249878,-3.0424060821533203,-0.6471308469772339
1778948861204696000,4.082696044921875,3.933365821838379,-16.02901840209961,0.8972986936569214
1778948861221025300,4.099025390625,-1.2351903915405273,-15.663044929504395,-3.501525640487671
1778948861237358300,4.1153583984375,9.299394607543945,3.5823068618774414,-1.6752917766571045
1778948861253685000,4.13168505859375,5.798175811767578,9.834136962890625,-4.4325079917907715
1778948861270023700,4.148023681640625,4.477667808532715,8.976173400878906,-6.097163677215576
1778948861286351600,4.1643515625,9.52590560913086,5.689257621765137,-4.498439311981201
1778948861302683600,4.18068359375,10.026932716369629,0.1415843963623047,-3.20815110206604
1778948861319012000,4.19701220703125,6.711688041687012,-1.2221479415893555,-2.352752208709717
1778948861335336700,4.213336669921875,4.212884902954102,-2.2427921295166016,-2.060565233230591
1778948861351673600,4.229673583984375,2.989077568054199,-3.816974639892578,-1.5187232494354248
1778948861368011500,4.246011474609375,0.6576564908027649,-9.840786933898926,-0.8513867855072021
1778948861384340500,4.262340576171875,-0.500140905380249,-8.157719612121582,4.41889762878418
1778948861400687900,4.27868798828125,-4.090215682983398,-2.058805465698242,11.909700393676758
1778948861417008600,4.295008544921875,3.699674129486084,1.4856433868408203,11.995612144470215
1778948861433355800,4.311355712890625,0.874976396560669,2.17440128326416,6.896596908569336
1778948861449680400,4.327680419921875,-4.511181354522705,3.9780397415161133,2.718262195587158
1778948861466010400,4.34401025390625,-5.555848121643066,3.018604278564453,1.057077407836914
1778948861482341400,4.36034130859375,0.3643375635147095,1.5566177368164062,0.9930211901664734
1778948861498657500,4.376657470703125,1.923598051071167,2.1137337684631348,1.0320695638656616
1778948861515002000,4.393002197265625,0.8579460382461548,1.064682960510254,0.06462818384170532
1778948861531327500,4.409327392578125,-6.166999816894531,-1.3742570877075195,-4.485311985015869
1778948861547655000,4.425655029296875,-14.981691360473633,1.3498497009277344,-5.440976142883301
1778948861563988000,4.441988037109375,-3.2525453567504883,0.6368951797485352,0.06669342517852783
1778948861580318500,4.458318359375,2.377876043319702,0.6420164108276367,2.158595085144043
1778948861596655000,4.474655029296875,1.164095163345337,0.46572399139404297,3.5594358444213867
1778948861612990200,4.490990234375,-1.3531451225280762,-0.13161754608154297,4.040204048156738
1778948861629332000,4.50733203125,-2.178943157196045,-0.38318538665771484,3.950326442718506
1778948861645656300,4.52365625,-1.8078089952468872,-0.7824211120605469,4.80505895614624
1778948861661990400,4.539990478515625,-0.14692974090576172,-2.7342567443847656,4.899083614349365
1778948861678290700,4.556290771484375,-2.5363118648529053,-2.7860536575317383,5.813384532928467
1778948861694646500,4.572646484375,-4.619049549102783,-3.0657567977905273,8.91250991821289
1778948861710967600,4.588967529296875,-3.8515655994415283,-2.3663463592529297,9.57668685913086
1778948861727303200,4.60530322265625,-5.517695426940918,-3.5761337280273438,9.70763874053955
1778948861743632600,4.621632568359375,-5.948884963989258,-3.5662288665771484,10.031830787658691
1778948861759965700,4.637965576171875,-6.144162178039551,-3.9629335403442383,9.216188430786133
1778948861776296400,4.65429638671875,-6.290004253387451,-5.889904975891113,6.084965705871582
1778948861792625700,4.670625732421875,-4.443561553955078,-4.872652053833008,1.685804843902588
1778948861808977700,4.686977783203125,0.5053900480270386,-2.6191844940185547,-0.485798180103302
1778948861825303300,4.70330322265625,3.8033785820007324,-4.815798759460449,-1.9009833335876465
1778948861841636900,4.719636962890625,6.747589588165283,-8.656943321228027,-2.8031787872314453
1778948861857966300,4.73596630859375,5.394165992736816,-9.068195343017578,-2.9473869800567627
1778948861874294800,4.752294677734375,0.37067732214927673,-6.705266952514648,-4.414477825164795
1778948861890615800,4.76861572265625,-2.003016471862793,-4.392337799072266,-5.555203437805176
1778948861906947800,4.78494775390625,-0.231856107711792,-2.0349435806274414,-5.725112438201904
1778948861923280100,4.801280029296875,0.9935857057571411,-1.8442277908325195,-1.3554162979125977
1778948861939611600,4.817611572265625,2.772442579269409,-0.6323747634887695,1.3453081846237183
1778948861955941400,4.83394140625,2.4260470867156982,1.9819178581237793,2.772106409072876
1778948861972274000,4.85027392578125,6.43007755279541,1.739023208618164,3.6717352867126465
1778948861988600000,4.86660009765625,3.6669974327087402,2.092522621154785,3.3219146728515625
1778948862004949000,4.882948974609375,2.6048152446746826,2.3717446327209473,1.2815196514129639
1778948862021265400,4.899265380859375,3.120511531829834,3.017566680908203,0.033444732427597046
1778948862037606000,4.91560595703125,5.651766777038574,3.9706177711486816,0.7551003694534302
1778948862053925000,4.931925048828125,6.474203109741211,5.639771938323975,-0.3205748498439789
1778948862070261800,4.94826171875,5.831793308258057,6.698376178741455,-1.9062883853912354
1778948862086595000,4.964594970703125,5.993041038513184,6.72683048248291,-3.523221731185913
1778948862102926000,4.980926025390625,7.139675140380859,7.975081443786621,-4.925115585327148
1778948862119244800,4.997244873046875,6.035776138305664,9.198038101196289,-4.609533309936523
1778948862135587000,5.013587158203125,3.7788197994232178,8.169340133666992,-3.4332377910614014
1778948862151921200,5.029921142578125,1.1285231113433838,5.569411277770996,-2.5204155445098877
1778948862168252200,5.046252197265625,-9.15302562713623,-0.5536384582519531,-3.003814458847046
1778948862184582000,5.062581787109375,-15.321816444396973,-12.809261322021484,-0.6724808216094971
1778948862200921300,5.07892138671875,-10.406460762023926,-18.45770263671875,2.946573257446289
1778948862217229300,5.095229248046875,-9.885053634643555,-9.202635765075684,8.018364906311035
1778948862233575000,5.111574951171875,-2.7464115619659424,1.2873754501342773,2.4873130321502686
1778948862249911600,5.12791162109375,-0.041539669036865234,7.330673694610596,-1.3545352220535278
1778948862266241300,5.1442412109375,1.0282584428787231,10.761109352111816,-1.388562798500061
1778948862282573300,5.1605732421875,0.5389804840087891,5.129096031188965,0.429537296295166
1778948862298904800,5.17690478515625,8.392732620239258,-9.391271591186523,1.4013265371322632
1778948862315234000,5.193234130859375,-0.8977756500244141,-30.9810848236084,-4.693630695343018
1778948862331566800,5.20956689453125,4.917850494384766,-12.519194602966309,1.094420075416565
1778948862347896800,5.225896728515625,6.545497417449951,8.000222206115723,-3.892467737197876
1778948862364232700,5.242232666015625,6.122908592224121,10.3297119140625,-6.46467399597168
1778948862380561700,5.258561767578125,10.059511184692383,6.277909278869629,-6.29119348526001
1778948862396889600,5.2748896484375,11.470341682434082,2.813783645629883,-5.660218715667725
1778948862413227300,5.291227294921875,7.211662292480469,3.7529525756835938,-4.836530685424805
1778948862429557000,5.307556884765625,6.755166530609131,-2.5297412872314453,-4.592557907104492
1778948862445886700,5.32388671875,3.6511495113372803,-4.324017524719238,-3.8540148735046387
1778948862462236700,5.340236572265625,-1.727547287940979,-3.62772274017334,-4.120237350463867
1778948862478547700,5.356547607421875,0.6077123880386353,-7.423980712890625,-0.4303790330886841
1778948862494883000,5.372883056640625,1.9318032264709473,-3.5979413986206055,3.993891716003418
1778948862511215000,5.389215087890625,-6.185058116912842,0.07626914978027344,10.15824031829834
1778948862527542500,5.40554248046875,4.194815158843994,1.5109519958496094,9.317529678344727
1778948862543876400,5.42187646484375,3.550680160522461,0.990936279296875,5.540043830871582
1778948862560208000,5.438207763671875,-2.1477909088134766,3.272709846496582,2.364511489868164
1778948862576542000,5.4545419921875,-6.473358631134033,3.21773624420166,1.2758938074111938
1778948862592867800,5.470867919921875,-6.422112464904785,2.0946407318115234,0.9545176029205322
1778948862609213000,5.487212890625,-6.962666988372803,2.1051416397094727,0.6633491516113281
1778948862625550000,5.503550048828125,-4.362565040588379,1.173203468322754,0.4539527893066406
1778948862641877200,5.519877197265625,-2.745187759399414,0.7268257141113281,0.9136978387832642
1778948862658180400,5.536180419921875,-0.8334152698516846,0.9874610900878906,1.8494352102279663
1778948862674528500,5.552528564453125,0.06840085983276367,0.3614664077758789,1.6186169385910034
1778948862690859500,5.568859619140625,-1.5310826301574707,-1.3023014068603516,1.7070914506912231
1778948862707190300,5.585190185546875,-3.302990436553955,-2.8848228454589844,2.090658187866211
1778948862723523000,5.601523193359375,-3.971390962600708,-2.4078426361083984,2.4895148277282715
1778948862739854300,5.617854248046875,-2.0403127670288086,-1.7005548477172852,3.3176040649414062
1778948862756185000,5.63418505859375,0.2718791961669922,-2.9727659225463867,4.733279228210449
1778948862772517600,5.650517578125,-1.59052574634552,-3.734262466430664,6.4871063232421875
1778948862788865300,5.666865234375,-5.423647403717041,-4.08082389831543,7.143251419067383
1778948862805178400,5.683178466796875,-5.099498748779297,-4.049330711364746,6.504396438598633
1778948862821526000,5.699526123046875,-7.072118282318115,-4.23033332824707,5.48852014541626
1778948862837856300,5.715856201171875,-8.312772750854492,-4.555569648742676,5.746479511260986
1778948862854183400,5.732183349609375,-4.729124069213867,-3.0518407821655273,5.789300918579102
1778948862870493200,5.7484931640625,-2.5901906490325928,-2.8299121856689453,5.917792320251465
1778948862886837000,5.7648369140625,-3.431004047393799,-3.0261011123657227,3.035412311553955
1778948862903170000,5.781170166015625,-3.3521156311035156,-2.5938501358032227,-0.3268972635269165
1778948862919500300,5.797500244140625,5.59232234954834,-4.4496965408325195,-1.6364072561264038
1778948862935832800,5.813832763671875,9.61812686920166,-5.1915788650512695,-1.468904733657837
1778948862952163300,5.830163330078125,7.521744251251221,-4.7913818359375,-2.114591598510742
1778948862968504000,5.846504150390625,0.32928305864334106,-3.4618635177612305,-2.8081300258636475
1778948862984825300,5.862825439453125,-2.075819969177246,-4.185654640197754,-4.149294376373291
1778948863001158000,5.879157958984375,-1.6237541437149048,-4.1830902099609375,-3.697995901107788
1778948863017499600,5.895499755859375,1.5566046237945557,-2.558269500732422,-2.498417377471924
1778948863033826600,5.91182666015625,3.9710988998413086,-1.031041145324707,-1.3289446830749512
1778948863050148400,5.9281484375,3.744692802429199,0.2752513885498047,-0.9667267799377441
1778948863066467800,5.9444677734375,0.6764777898788452,3.2685470581054688,0.032414861023426056
1778948863082814000,5.96081396484375,3.8518619537353516,2.489157199859619,1.3987183570861816
1778948863099149600,5.977149658203125,2.180981397628784,2.5337915420532227,2.201547145843506
1778948863115475000,5.993474853515625,2.766709327697754,2.5104236602783203,2.660706043243408
1778948863131797200,6.00979736328125,2.9061760902404785,2.574767589569092,2.0601181983947754
1778948863148139800,6.026139892578125,4.456893444061279,4.017803192138672,1.182981014251709
1778948863164470500,6.042470458984375,5.543008804321289,5.406383991241455,-0.8348828554153442
1778948863180808400,6.058808349609375,4.9092817306518555,6.343369960784912,-2.684204339981079
1778948863197136600,6.07513671875,7.0083723068237305,6.526485443115234,-3.893476963043213
1778948863213451000,6.091450927734375,6.011340141296387,7.460939407348633,-4.44811487197876
1778948863229793300,6.107793212890625,4.057923793792725,7.363151550292969,-3.7728564739227295
1778948863246130700,6.124130615234375,1.6035048961639404,5.778491973876953,-2.7540857791900635
1778948863262459000,6.140458984375,-5.266772270202637,1.5567970275878906,-1.649986982345581
1778948863278795000,6.156794921875,-13.590187072753906,-5.784904479980469,-1.0548813343048096
1778948863295124500,6.17312451171875,-12.747603416442871,-14.36140251159668,3.399064779281616
1778948863311456000,6.1894560546875,-11.068137168884277,-13.172322273254395,8.783263206481934
1778948863327786000,6.205785888671875,-3.9380435943603516,-3.058966636657715,6.289071559906006
1778948863344120800,6.222120849609375,-1.4158209562301636,2.686229705810547,0.5473953485488892
1778948863360456200,6.238456298828125,0.1862320899963379,7.039096832275391,-2.148149013519287
1778948863376786200,6.2547861328125,3.0556864738464355,7.880403995513916,-0.4229253828525543
1778948863393128700,6.271128662109375,8.01706600189209,2.5049891471862793,-0.34630775451660156
1778948863409457000,6.287456787109375,10.722188949584961,-10.84095573425293,-2.9832351207733154
1778948863425786600,6.30378662109375,-16.990581512451172,-23.792238235473633,-6.937365531921387
1778948863442125800,6.320125732421875,6.566718101501465,-5.297842979431152,-2.276890993118286
1778948863458423600,6.336423583984375,3.9650778770446777,5.741315841674805,-2.2383453845977783
1778948863474772500,6.3527724609375,5.229529857635498,8.187314987182617,-3.329241991043091
1778948863491103200,6.369103271484375,6.986685752868652,6.767107009887695,-3.077362537384033
1778948863507434500,6.3854345703125,7.787034034729004,4.536938190460205,-3.3119118213653564
1778948863523766300,6.401766357421875,8.490936279296875,1.3962593078613281,-3.219205379486084
1778948863540097800,6.418097900390625,8.612432479858398,-6.114386558532715,-2.8519487380981445
1778948863556433000,6.434432861328125,2.286850690841675,-4.127026557922363,-3.28220796585083
1778948863572757500,6.450757568359375,0.7415902614593506,-5.613260269165039,-1.6055623292922974
1778948863589089000,6.467089111328125,1.7841204404830933,-3.278353691101074,1.7587535381317139
1778948863605421800,6.483421875,-4.95120906829834,-0.4500284194946289,4.96958065032959
1778948863621755000,6.4997548828125,-2.0853214263916016,2.880357265472412,7.243813514709473
1778948863638095600,6.516095703125,4.880581855773926,3.154236316680908,4.077655792236328
1778948863654402000,6.532402099609375,1.1309401988983154,2.9793243408203125,2.5648255348205566
1778948863670736400,6.548736328125,-3.8515892028808594,2.5318846702575684,0.6489243507385254
1778948863687078700,6.56507861328125,-5.555822372436523,1.018021583557129,0.002354443073272705
1778948863703417300,6.581417236328125,-5.553869247436523,0.9468307495117188,-0.2768517732620239
1778948863719743000,6.597742919921875,-5.573067665100098,-0.8468723297119141,-1.0317261219024658
1778948863736075500,6.614075439453125,-4.914566993713379,-0.07676315307617188,-0.6072542667388916
1778948863752407300,6.6304072265625,-1.8295336961746216,0.9854097366333008,0.9664267897605896
1778948863768737800,6.64673779296875,0.6332921981811523,0.0010700225830078125,1.6740894317626953
1778948863785107500,6.663107421875,-1.214518666267395,-0.7097015380859375,2.2400050163269043
1778948863801397800,6.679397705078125,-2.8893775939941406,-0.2799949645996094,2.3481764793395996
1778948863817746000,6.695745849609375,-2.649060010910034,-1.708247184753418,2.4828732013702393
1778948863834082300,6.712082275390625,-1.1830689907073975,-2.7887325286865234,2.763298988342285
1778948863850386000,6.728385986328125,-1.2177891731262207,-2.638875961303711,3.4849588871002197
1778948863866715000,6.74471484375,-1.128096103668213,-2.5882749557495117,3.8620622158050537
1778948863883059000,6.761058837890625,-3.9698612689971924,-2.093348503112793,4.595946311950684
1778948863899390200,6.77739013671875,-8.19205379486084,-3.3824357986450195,5.712663650512695
1778948863915720200,6.79372021484375,-6.868396759033203,-3.6256208419799805,6.5721354484558105
1778948863932053200,6.81005322265625,-4.933748245239258,-3.618588447570801,6.91362190246582
1778948863948388000,6.82638818359375,-6.542243003845215,-3.67569637298584,6.960261821746826
1778948863964715000,6.842715087890625,-5.776270866394043,-2.5461416244506836,6.5262298583984375
1778948863981061000,6.85906103515625,-3.333876848220825,-2.1382017135620117,5.236134052276611
1778948863997399600,6.875399658203125,-2.9405272006988525,-3.096766471862793,2.330509662628174
1778948864013716500,6.891716552734375,-4.3528032302856445,-3.2323551177978516,-1.1244279146194458
1778948864030040000,6.9080400390625,3.885648727416992,-4.912646293640137,-2.2124054431915283
1778948864046369300,6.924369384765625,8.641730308532715,-5.911388397216797,-2.219813108444214
1778948864062706000,6.940705810546875,7.244326591491699,-5.2251176834106445,-2.1994805335998535
1778948864079037200,6.957037109375,0.8612103462219238,-3.072843551635742,-2.330264091491699
1778948864095366700,6.97336669921875,-1.0010707378387451,-3.298095703125,-3.619719982147217
1778948864111686400,6.989686279296875,-1.5180500745773315,-3.739187240600586,-3.1477551460266113
1778948864128018200,7.00601806640625,0.5337777733802795,-2.728562355041504,-1.0857632160186768
1778948864144362800,7.02236279296875,2.899324893951416,-1.2612838745117188,0.01987507939338684
1778948864160692500,7.0386923828125,1.8888802528381348,0.13090229034423828,0.921042799949646
1778948864177027300,7.05502734375,0.9026028513908386,1.9499640464782715,1.0636093616485596
1778948864193357300,7.071357421875,2.9983201026916504,1.2650470733642578,1.3723505735397339
1778948864209688000,7.08768798828125,2.815781354904175,1.4710264205932617,0.8366813659667969
1778948864226017000,7.10401708984375,1.6987409591674805,1.248213768005371,0.2829442024230957
1778948864242350300,7.120350341796875,3.14094877243042,1.9261040687561035,-0.07760435342788696
1778948864258685400,7.136685546875,5.092430591583252,3.501997947692871,-0.4509727358818054
1778948864275014100,7.15301416015625,4.57679557800293,5.498550891876221,-0.5379374623298645
1778948864291345700,7.169345703125,4.30720329284668,6.665521621704102,-2.533879041671753
1778948864307677400,7.185677490234375,4.376893520355225,7.727062225341797,-3.6273093223571777
1778948864324005400,7.20200537109375,4.586246967315674,8.489181518554688,-3.21152400970459
1778948864340359200,7.218359130859375,2.9207537174224854,7.486469268798828,-2.5999350547790527
1778948864356683300,7.234683349609375,0.8417909741401672,5.312746524810791,-1.29535710811615
1778948864373001000,7.2510009765625,-3.8958356380462646,1.6313610076904297,-1.2084927558898926
1778948864389335000,7.2673349609375,-11.544105529785156,-4.380218505859375,-1.867856740951538
1778948864405665000,7.2836650390625,-12.562917709350586,-9.712030410766602,2.5303869247436523
1778948864421998300,7.299998291015625,-8.573826789855957,-12.153620719909668,7.069949626922607
1778948864438316500,7.316316650390625,-3.9427216053009033,-5.267714500427246,4.753881931304932
1778948864454659800,7.332659912109375,-3.1690127849578857,0.7391242980957031,0.1239166259765625
1778948864470992100,7.3489921875,0.2713909149169922,5.29145622253418,-2.7655017375946045
1778948864487324000,7.365323974609375,2.172417163848877,3.987198829650879,-4.260021209716797
1778948864503656200,7.38165625,3.4015727043151855,-5.283166885375977,-3.240419864654541
1778948864519986400,7.397986328125,3.779832124710083,-18.656417846679688,-6.091353416442871
1778948864536336000,7.4143359375,3.1507468223571777,-6.255008697509766,-6.749263286590576
1778948864552667400,7.43066748046875,9.070268630981445,6.789821624755859,-3.030026912689209
1778948864568982000,7.44698193359375,6.865459442138672,8.042542457580566,-4.508252143859863
1778948864585327000,7.4633271484375,8.487605094909668,4.957357883453369,-3.9978277683258057
1778948864601637600,7.4796376953125,10.047922134399414,-0.037751197814941406,-3.3042197227478027
1778948864617971000,7.495970947265625,7.10759162902832,-1.5133333206176758,-2.867239475250244
1778948864634304800,7.5123046875,3.6877529621124268,-2.32973575592041,-2.5730276107788086
1778948864650646300,7.528646240234375,1.744734764099121,-3.2430076599121094,-2.836662530899048
1778948864666968300,7.54496826171875,1.1082382202148438,-4.978772163391113,-2.814790964126587
1778948864683301400,7.56130126953125,2.9880905151367188,-4.376975059509277,1.8675618171691895
1778948864699622000,7.577621826171875,-1.994894027709961,-1.9154443740844727,5.249248504638672
1778948864715966200,7.59396630859375,-4.600373268127441,1.1989221572875977,10.122274398803711
1778948864732296200,7.610296142578125,0.5706186294555664,1.8924565315246582,6.363882541656494
1778948864748625400,7.62662548828125,-0.6096209287643433,1.4646434783935547,3.4958882331848145
1778948864764960500,7.64296044921875,-2.7128243446350098,1.6141929626464844,2.121459722518921
1778948864781288700,7.659288818359375,-3.427107572555542,2.4180169105529785,0.6027144193649292
1778948864797618200,7.6756181640625,-2.460984706878662,1.0198040008544922,0.157853364944458
1778948864813972000,7.691971923828125,-2.7043027877807617,0.6917123794555664,-0.32463908195495605
1778948864830269400,7.70826953125,-4.036257743835449,0.9518728256225586,-0.03835093975067139
1778948864846615600,7.724615478515625,-3.3430306911468506,1.1476020812988281,-0.365220844745636
1778948864862948600,7.740948486328125,-2.5374250411987305,1.828016757965088,-0.4528043270111084
1778948864879278000,7.757278076171875,-0.5083200931549072,1.1160240173339844,-0.23727798461914062
1778948864895606800,7.773606689453125,-1.1550171375274658,0.7692756652832031,-0.08782458305358887
1778948864911944400,7.7899443359375,-2.8708736896514893,0.028568267822265625,0.6369733214378357
1778948864928261400,7.806261474609375,-3.2978479862213135,-1.4203557968139648,1.4173921346664429
1778948864944605200,7.822605224609375,-2.3144619464874268,-2.8256330490112305,2.0192224979400635
1778948864960939300,7.838939208984375,-0.8639845848083496,-2.572829246520996,3.5665194988250732
1778948864977266400,7.855266357421875,-0.9448080062866211,-1.2638349533081055,5.6698408126831055
1778948864993600500,7.8716005859375,-0.10164785385131836,-1.229140281677246,8.480476379394531
1778948865009965300,7.88796533203125,-1.7064268589019775,-2.5291948318481445,9.265531539916992
1778948865026247000,7.904246826171875,-8.71200180053711,-3.393495559692383,5.879031181335449
1778948865042593800,7.92059375,-13.757556915283203,-4.221958160400391,4.568678855895996
1778948865058922500,7.936922607421875,-5.919807434082031,-3.2749996185302734,6.678463935852051
1778948865075258400,7.95325830078125,-1.421950340270996,-2.385451316833496,8.065394401550293
1778948865091588900,7.9695888671875,-4.138201713562012,-2.811349868774414,5.2547607421875
1778948865107920400,7.98592041015625,-7.002289295196533,-4.749747276306152,2.3545241355895996
1778948865124251400,8.00225146484375,-1.4748777151107788,-3.2068700790405273,0.07191550731658936
1778948865140583000,8.0185830078125,4.911189079284668,-3.7724075317382812,-1.0194892883300781
1778948865156915700,8.034915771484375,6.701808929443359,-7.348036766052246,-1.8931124210357666
1778948865173246000,8.051245849609375,4.448934555053711,-8.424592971801758,-2.3372535705566406
1778948865189577500,8.067577392578125,1.3090295791625977,-6.011319160461426,-3.5932140350341797
1778948865205909200,8.0839091796875,-1.1818777322769165,-3.5296630859375,-4.827038288116455
1778948865222237000,8.10023681640625,-1.6913485527038574,-3.1174917221069336,-4.654120922088623
1778948865238574800,8.116574951171875,0.42112255096435547,-2.087087631225586,-1.9566996097564697
1778948865254905600,8.132905517578125,2.4808359146118164,-1.094583511352539,0.4790493845939636
1778948865271232000,8.14923193359375,0.7031078934669495,1.6156558990478516,1.4331151247024536
1778948865287571000,8.165571044921874,2.3598978519439697,1.621145248413086,2.4859280586242676
1778948865303897000,8.18189697265625,2.110405206680298,1.4304656982421875,2.917915105819702
1778948865320230000,8.19822998046875,1.3437812328338623,1.6174077987670898,2.177492380142212
1778948865336571100,8.214571044921875,2.5923304557800293,2.4266929626464844,0.8044008016586304
1778948865352910800,8.230910888671875,3.9040942192077637,3.2713656425476074,0.09058868885040283
1778948865369238000,8.247238037109375,5.929389953613281,4.985774993896484,-0.8399826288223267
1778948865385551000,8.263551025390624,5.6081671714782715,5.921162128448486,-2.2457029819488525
1778948865401886500,8.279886474609375,4.598414421081543,6.474204063415527,-3.0443153381347656
1778948865418214700,8.296214599609375,5.926321983337402,7.769077301025391,-4.3657546043396
1778948865434549800,8.3125498046875,4.5158257484436035,8.570688247680664,-4.3604536056518555
1778948865450880300,8.32888037109375,3.9938809871673584,8.651564598083496,-4.020655632019043
1778948865467212000,8.3452119140625,1.8430311679840088,6.594156265258789,-3.3449535369873047
1778948865483543800,8.361543701171875,-3.2442221641540527,2.859038829803467,-2.492427349090576
1778948865499875300,8.377875244140625,-8.335347175598145,-5.842311859130859,-2.1645967960357666
1778948865516226300,8.394226318359374,-13.107709884643555,-15.417838096618652,2.1999237537384033
1778948865532551200,8.41055126953125,-15.942182540893555,-12.187806129455566,8.464149475097656
1778948865548882000,8.4268818359375,-5.21118688583374,-1.0315933227539062,7.519200801849365
1778948865565200400,8.443200439453125,-1.3310233354568481,4.168245315551758,1.196413516998291
1778948865581544400,8.45954443359375,1.0203442573547363,4.696252822875977,-2.670984983444214
1778948865597849000,8.47584912109375,1.0753941535949707,-2.2146806716918945,-0.15000712871551514
1778948865614191900,8.49219189453125,8.762648582458496,-17.386459350585938,5.267433166503906
1778948865630531600,8.508531494140625,-4.460577011108398,-20.720130920410156,1.9577209949493408
1778948865646859300,8.524859375,6.4316182136535645,1.627913475036621,-2.3103065490722656
1778948865663189000,8.54118896484375,0.3388770818710327,11.839462280273438,-7.893947601318359
1778948865679522000,8.55752197265625,3.280151605606079,11.270834922790527,-8.813420295715332
1778948865695854300,8.573854248046874,10.798135757446289,4.120582103729248,-7.163323402404785
1778948865712183800,8.590183837890624,11.948983192443848,0.16812419891357422,-5.350406169891357
1778948865728515800,8.606515869140624,7.6896586418151855,-1.4015121459960938,-4.316080093383789
1778948865744850000,8.622849853515625,3.715244770050049,-1.5139846801757812,-4.20064640045166
1778948865761191200,8.639191162109375,1.3546265363693237,-2.0643749237060547,-4.8788299560546875
1778948865777506000,8.655506103515625,-1.6035614013671875,-4.938807487487793,-5.96185827255249
1778948865793859800,8.67185986328125,-1.8340147733688354,-8.22751522064209,-1.2972732782363892
1778948865810170400,8.68817041015625,-2.5984182357788086,-3.01284122467041,3.537080764770508
1778948865826487800,8.70448779296875,-2.8041043281555176,0.5303783416748047,7.975953102111816
1778948865842839600,8.720839599609375,6.204529285430908,1.6077375411987305,9.546041488647461
1778948865859167700,8.737167724609375,3.9490973949432373,2.201364040374756,5.985984802246094
1778948865875498800,8.753498779296875,-2.7334816455841064,2.7134485244750977,4.042336463928223
1778948865891830500,8.76983056640625,-4.735550880432129,2.0744290351867676,1.8929641246795654
1778948865908178700,8.7861787109375,-5.807191848754883,0.9011287689208984,0.8859630823135376
1778948865924492800,8.802492919921875,-5.697813034057617,0.34003543853759766,0.8606985807418823
1778948865940844000,8.818843994140625,-5.14143705368042,0.19190311431884766,-0.7220746278762817
1778948865957170400,8.83517041015625,-3.0277774333953857,1.1635456085205078,-0.4543112516403198
1778948865973502000,8.851501953125,-2.1653757095336914,1.3297452926635742,1.084391713142395
1778948865989831200,8.8678310546875,-1.2534031867980957,0.9379148483276367,1.3325625658035278
1778948866006148400,8.8841484375,-2.264578342437744,-0.5068511962890625,1.95396089553833
1778948866022480100,8.900480224609375,-4.934095859527588,-1.1977510452270508,2.6635634899139404
1778948866038817000,8.916817138671876,-3.363492727279663,-0.8241157531738281,2.6313891410827637
1778948866055144200,8.933144287109375,-1.9640159606933594,-1.2849750518798828,4.2737507820129395
1778948866071477500,8.9494775390625,-1.9099444150924683,-1.7850980758666992,6.070197582244873
1778948866087807000,8.965806884765625,-3.5166735649108887,-2.6667604446411133,7.798357009887695
1778948866104139500,8.982139404296875,-5.666258811950684,-2.963955879211426,7.934398174285889
1778948866120468000,8.998468017578125,-7.767086982727051,-3.650557518005371,6.308230400085449
1778948866136806400,9.014806396484374,-7.219407081604004,-3.5046329498291016,6.789261817932129
1778948866153134600,9.031134521484375,-5.551239967346191,-3.1364755630493164,7.933791637420654
1778948866169466600,9.047466552734376,-5.780477523803711,-6.874635696411133,7.11997652053833
1778948866185798400,9.06379833984375,-6.254136085510254,-4.844966888427734,1.6480448246002197
1778948866202129400,9.08012939453125,-3.142179489135742,-3.097574234008789,-1.5146796703338623
1778948866218458600,9.096458740234375,4.313823699951172,-5.855687141418457,-3.0781214237213135
1778948866234793000,9.11279296875,8.00653076171875,-8.552867889404297,-2.8539798259735107
1778948866251122700,9.129122802734376,7.419719219207764,-8.322553634643555,-4.157293796539307
1778948866267454000,9.145453857421876,1.4355268478393555,-5.699607849121094,-5.298494338989258
1778948866283773000,9.16177294921875,-3.5310564041137695,-5.093085289001465,-7.184497833251953
1778948866300134700,9.178134765625,-3.660167694091797,-3.433608055114746,-6.476513385772705
1778948866316463400,9.19446337890625,-0.22697317600250244,-2.330972671508789,-1.736619234085083
1778948866332803300,9.21080322265625,2.923245906829834,-0.4519796371459961,0.06518028676509857
1778948866349124000,9.2271240234375,3.4952592849731445,0.46604156494140625,1.8507733345031738
1778948866365451000,9.243450927734376,6.785808563232422,1.4985389709472656,3.19970440864563
1778948866381793500,9.25979345703125,3.3255116939544678,1.7959165573120117,0.5303277969360352
1778948866398090200,9.27609033203125,2.9621477127075195,2.695079803466797,-1.1086684465408325
1778948866414438000,9.29243798828125,4.046197891235352,3.582207202911377,-0.9221065044403076
1778948866430769200,9.30876904296875,5.4779229164123535,4.263519287109375,0.32489871978759766
1778948866447101200,9.32510107421875,6.236620903015137,5.293468952178955,-0.2507854104042053
1778948866463432400,9.341432373046874,5.3134870529174805,5.769867420196533,-2.0034444332122803
1778948866479762000,9.357761962890624,5.442234039306641,7.561435699462891,-2.749497175216675
1778948866496098300,9.374098388671875,5.731019973754883,9.502967834472656,-1.9644651412963867
1778948866512441300,9.39044140625,4.75229549407959,9.918441772460938,-0.08308202773332596
1778948866528772900,9.40677294921875,2.029756546020508,8.149385452270508,0.8842184543609619
1778948866545102300,9.423102294921875,-3.669740676879883,4.689123153686523,1.226141095161438
1778948866561418500,9.43941845703125,-9.108144760131836,-1.943434715270996,0.9199326634407043
1778948866577751000,9.4557509765625,-11.114856719970703,-10.135079383850098,3.848680257797241
1778948866594081800,9.472081787109374,-11.427871704101562,-13.452432632446289,3.6986019611358643
1778948866610418000,9.48841796875,-6.178898334503174,-8.29265308380127,0.9615920186042786
1778948866626747100,9.5047470703125,-2.5856776237487793,-1.5311460494995117,-4.018214702606201
1778948866643078000,9.521077880859375,-1.587052822113037,2.2700138092041016,-7.879675388336182
1778948866659400400,9.537400390625,-4.8046417236328125,-1.3767986297607422,-8.936975479125977
1778948866675739600,9.55373974609375,-7.4131760597229,-13.097304344177246,-2.9531197547912598
1778948866692071000,9.57007080078125,8.061530113220215,-12.713825225830078,-0.32519853115081787
1778948866708404700,9.58640478515625,10.482902526855469,4.23463249206543,-3.3678653240203857
1778948866724722700,9.60272265625,10.543466567993164,11.533056259155273,-4.406888484954834
1778948866741075200,9.6190751953125,6.020173072814941,10.361930847167969,-6.169060230255127
1778948866757406700,9.63540673828125,10.183311462402344,6.3472137451171875,-3.7355408668518066
1778948866773747500,9.65174755859375,11.74957275390625,-1.8085365295410156,-1.5843716859817505
1778948866790058800,9.668058837890625,9.742856979370117,-5.1254119873046875,-1.881937026977539
1778948866806392600,9.684392578125,6.052341938018799,-5.756400108337402,-1.857931137084961
1778948866822726000,9.700725830078126,3.621251106262207,-7.292696952819824,-1.7697691917419434
1778948866839055600,9.7170556640625,1.3728265762329102,-9.250970840454102,-0.8354544639587402
1778948866855373600,9.73337353515625,1.5662003755569458,-5.4392194747924805,2.605076313018799
1778948866871719400,9.749719482421876,-6.416048049926758,-0.7896699905395508,7.252082347869873
1778948866888050700,9.76605078125,-4.252808094024658,1.473799705505371,7.4995503425598145
1778948866904381700,9.782381591796875,-0.3266798257827759,1.4142236709594727,4.018976211547852
1778948866920708900,9.798708984375,0.513762354850769,1.786893367767334,1.4694463014602661
1778948866937047300,9.81504736328125,-0.30577027797698975,1.700490951538086,1.1418827772140503
1778948866953376500,9.83137646484375,-0.9760459065437317,2.492509365081787,0.4499779939651489
1778948866969721300,9.847721435546875,-0.2557399272918701,3.223392963409424,0.580830454826355
1778948866986036000,9.864035888671875,2.910278797149658,3.532266139984131,0.9379932880401611
1778948867002370600,9.88037060546875,0.38343262672424316,2.881563186645508,1.6703591346740723
1778948867018702800,9.896702880859374,-6.025083541870117,0.31566333770751953,2.0212013721466064
1778948867035032000,9.913031982421876,-5.3896355628967285,0.4832887649536133,0.8976584672927856
1778948867051363600,9.929363525390626,-4.346775054931641,0.3574857711791992,0.7327821254730225
1778948867067683300,9.945683349609375,-3.15826678276062,0.4370574951171875,0.898359477519989
1778948867084028000,9.96202783203125,-2.879460334777832,-1.1268377304077148,1.6099745035171509
1778948867100359000,9.97835888671875,-4.653098106384277,-2.9410018920898438,2.3466923236846924
1778948867116690400,9.9946904296875,-4.841996192932129,-2.6391773223876953,1.9934213161468506
1778948867133022500,10.0110224609375,-3.641177177429199,-1.7290573120117188,3.902679443359375
1778948867149352400,10.0273525390625,-0.492509126663208,-0.9098186492919922,6.9122490882873535
1778948867165683500,10.043683349609376,-1.1613359451293945,-1.7821159362792969,9.16357421875
1778948867182015200,10.06001513671875,-6.302538871765137,-3.496018409729004,10.574950218200684
1778948867198334500,10.07633447265625,-7.02422571182251,-5.01944637298584,8.332986831665039
1778948867214678800,10.0926787109375,-6.148896217346191,-4.180606842041016,6.171518802642822
1778948867231010800,10.1090107421875,-6.463670253753662,-4.687070846557617,6.286616325378418
1778948867247342600,10.125342529296875,-6.062505722045898,-5.946478843688965,5.68182373046875
1778948867263672000,10.141672119140624,-4.5944905281066895,-4.6899518966674805,4.649994850158691
1778948867280019000,10.15801904296875,-4.378531455993652,-1.7187786102294922,0.46119794249534607
1778948867296353300,10.174353271484375,-4.258783340454102,-2.184244155883789,-2.814544677734375
1778948867312680000,10.190679931640625,2.755568504333496,-6.173672676086426,-4.021989822387695
1778948867329037000,10.207037109375,8.858104705810547,-9.934943199157715,-3.6604714393615723
1778948867345342700,10.2233427734375,7.607130527496338,-7.077967643737793,-3.6283159255981445
1778948867361660400,10.239660400390624,2.0268115997314453,-3.604349136352539,-4.35418701171875
1778948867377989000,10.255989013671876,-3.3058128356933594,-3.662424087524414,-5.782999515533447
1778948867394314000,10.27231396484375,-1.9005019664764404,-1.9359207153320312,-4.6378254890441895
1778948867410662000,10.288661865234374,1.6244170665740967,-1.760390281677246,-0.34358441829681396
1778948867426987300,10.3049873046875,2.806932210922241,0.9975118637084961,2.516244411468506
1778948867443319800,10.32131982421875,7.000731468200684,1.4365262985229492,6.529569149017334
1778948867459650800,10.33765087890625,3.6406893730163574,0.24283409118652344,6.63316535949707
1778948867475981000,10.35398095703125,0.026815414428710938,0.26003360748291016,2.9406518936157227
1778948867492287700,10.370287841796875,2.5292060375213623,1.2419710159301758,0.28280317783355713
1778948867508657700,10.38665771484375,5.058680534362793,2.9803390502929688,0.5375989675521851
1778948867524965600,10.402965576171875,7.473816394805908,5.004900932312012,-0.3695102334022522
1778948867541308000,10.419307861328125,6.626709461212158,5.9104766845703125,-2.0749497413635254
1778948867557627400,10.43562744140625,6.930769920349121,6.424825191497803,-3.729957103729248
1778948867573969000,10.451968994140625,6.659790992736816,8.336553573608398,-4.306426525115967
1778948867590304000,10.468303955078126,6.067387580871582,10.12748908996582,-4.04005765914917
1778948867606636300,10.48463623046875,4.731307029724121,10.41004467010498,-3.9266793727874756
1778948867622951700,10.50095166015625,1.8715152740478516,8.041425704956055,-3.3365914821624756
1778948867639297300,10.51729736328125,-1.9837278127670288,4.217545986175537,-4.128536701202393
1778948867655626200,10.533626220703125,-13.084249496459961,-5.57383918762207,-3.0480949878692627
1778948867671960600,10.549960693359376,-13.621642112731934,-18.562877655029297,1.3735482692718506
1778948867688286500,10.566286376953125,-16.068578720092773,-15.311756134033203,6.435503005981445
1778948867704636000,10.582635986328125,-7.550843238830566,-2.2401533126831055,7.744571208953857
1778948867720938500,10.5989384765625,-0.2623598575592041,5.020467758178711,-0.2666139602661133
1778948867737305000,10.61530517578125,-0.8465063571929932,3.291351795196533,-3.5203754901885986
1778948867753629200,10.631629150390625,-1.6897469758987427,-4.90131950378418,0.5243513584136963
1778948867769945900,10.64794580078125,13.856542587280273,-21.475967407226562,5.481564521789551
1778948867786276600,10.664276611328125,-2.068960666656494,-13.909621238708496,1.2032653093338013
1778948867802615600,10.680615478515625,5.737991809844971,6.900928497314453,-4.529311180114746
1778948867818941400,10.69694140625,-0.6814689636230469,13.099079132080078,-8.481124877929688
1778948867835276800,10.71327685546875,6.917764186859131,9.229857444763184,-7.562209129333496
1778948867851605200,10.729605224609376,13.33808708190918,4.554176330566406,-6.445768356323242
1778948867867955200,10.745955078125,10.794525146484375,-0.0030364990234375,-4.6542863845825195
1778948867884280300,10.7622802734375,6.540436744689941,-1.9704818725585938,-3.7455945014953613
1778948867900597200,10.77859716796875,3.339236259460449,-3.5093374252319336,-3.147714376449585
1778948867916930000,10.794929931640626,1.7155662775039673,-4.5015716552734375,-4.4921875
1778948867933263400,10.811263427734374,-2.0477185249328613,-7.2327985763549805,-4.546692848205566
1778948867949592600,10.827592529296876,0.24069461226463318,-5.771595001220703,1.2806262969970703
1778948867965924900,10.8439248046875,-0.010631382465362549,-0.9839620590209961,4.859518527984619
1778948867982256600,10.860256591796874,0.855221152305603,1.5890388488769531,9.133445739746094
1778948867998589000,10.8765888671875,4.32606315612793,1.250269889831543,6.861314296722412
1778948868014910700,10.89291064453125,2.2148516178131104,1.4353837966918945,3.633634090423584
1778948868031251700,10.909251708984375,-2.7346534729003906,2.5054683685302734,1.9867368936538696
1778948868047583700,10.925583740234375,-4.656219005584717,1.7202367782592773,0.7332866191864014
1778948868063914800,10.941914794921875,-6.417713165283203,0.4186258316040039,0.4969046115875244
1778948868080244000,10.958243896484374,-8.929935455322266,-0.20734405517578125,-1.143319845199585
1778948868096577300,10.974577392578125,-6.78243350982666,0.7592859268188477,-1.4453306198120117
1778948868112909000,10.990908935546875,-1.6319594383239746,1.3189501762390137,2.223785400390625
1778948868129228000,11.00722802734375,1.8071680068969727,0.7012195587158203,2.899658203125
1778948868145570000,11.023570068359374,-1.1001635789871216,0.03893280029296875,2.8506665229797363
1778948868161889800,11.039889892578126,-4.935602188110352,-0.06264686584472656,3.6214632987976074
1778948868178218000,11.056218017578125,-3.8218579292297363,-0.19645118713378906,4.173144817352295
1778948868194564400,11.072564453125,-2.872373580932617,-0.6885671615600586,5.603639125823975
1778948868210898000,11.08889794921875,0.41341328620910645,-3.018167495727539,7.613286018371582
1778948868227228700,11.105228759765625,-3.891303539276123,-4.294862747192383,9.111392974853516
1778948868243560200,11.121560302734375,-7.686417102813721,-4.029345512390137,8.845646858215332
1778948868259894800,11.137894775390626,-3.464181900024414,-3.631542205810547,8.007704734802246
1778948868276234500,11.154234375,-2.8761186599731445,-2.755220413208008,8.684380531311035
1778948868292555500,11.170555419921875,-7.508878707885742,-6.056769371032715,6.010481834411621
1778948868308899000,11.186899169921874,-6.555248737335205,-6.149270057678223,2.3908326625823975
1778948868325228800,11.203228759765626,-5.94694709777832,-3.054035186767578,-0.28022587299346924
1778948868341560600,11.219560546875,-3.278987407684326,-2.3544082641601562,-2.274996757507324
1778948868357885200,11.23588525390625,1.910412073135376,-4.895793914794922,-3.2924702167510986
1778948868374215000,11.25221484375,7.123997211456299,-7.524594306945801,-3.261274576187134
1778948868390540300,11.268540283203125,7.6548871994018555,-7.125127792358398,-3.357571601867676
1778948868406874000,11.2848740234375,3.538951873779297,-6.995297431945801,-4.5816731452941895
1778948868423205600,11.30120556640625,-3.015702724456787,-6.336387634277344,-5.7483625411987305
1778948868439537400,11.317537353515625,-2.400519609451294,-3.391735076904297,-5.71101188659668
1778948868455873300,11.333873291015625,-0.28788816928863525,-0.8218326568603516,-1.329741358757019
1778948868472214300,11.35021435546875,-1.6485486030578613,-0.19002723693847656,1.2849600315093994
1778948868488528600,11.366528564453125,3.9154372215270996,2.1849780082702637,3.4541635513305664
1778948868504862700,11.38286279296875,7.526740074157715,1.9422416687011719,4.555735111236572
1778948868521193000,11.39919287109375,0.9824252724647522,1.4086036682128906,2.5935583114624023
1778948868537526300,11.4155263671875,1.5399194955825806,2.1651902198791504,0.5093448162078857
1778948868553857500,11.431857421875,4.757486820220947,3.236217975616455,-0.13755804300308228
1778948868570172400,11.44817236328125,5.617716312408447,4.154264450073242,-0.9218472242355347
1778948868586523600,11.464523681640625,5.532904624938965,5.224359512329102,-0.9473081827163696
1778948868602844000,11.480843994140624,5.9931230545043945,6.158695220947266,-1.9246782064437866
1778948868619183400,11.497183349609376,5.763689041137695,7.099702835083008,-3.1484744548797607
1778948868635514400,11.513514404296876,6.0401835441589355,7.828656196594238,-3.8040101528167725
1778948868651848000,11.529847900390624,4.936858177185059,8.837623596191406,-3.984213352203369
1778948868668174300,11.54617431640625,3.597795009613037,8.652778625488281,-2.99904203414917
1778948868684509200,11.56250927734375,1.2544171810150146,6.311208724975586,-2.0060226917266846
1778948868700841700,11.578841796875,-5.766467571258545,1.1308403015136719,-2.4904918670654297
1778948868717184000,11.59518408203125,-16.883460998535156,-12.48904037475586,-2.860062599182129
1778948868733504500,11.61150439453125,-13.524797439575195,-21.288223266601562,2.562814712524414
1778948868749831700,11.627831787109375,-11.480522155761719,-10.892536163330078,8.976253509521484
1778948868766165800,11.644165771484374,-4.274787902832031,0.4998340606689453,1.8700684309005737
1778948868782496300,11.660496337890624,-0.09684538841247559,6.21889066696167,-4.344988822937012
1778948868798827300,11.6768271484375,0.9726774096488953,10.153183937072754,-5.81887149810791
1778948868815157000,11.693156982421876,1.4927453994750977,6.910893440246582,-2.120563507080078
1778948868831493600,11.70949365234375,10.03746223449707,-4.6453094482421875,1.6847326755523682
1778948868847824100,11.72582421875,11.44247055053711,-25.533594131469727,1.3548272848129272
1778948868864154400,11.742154296875,-9.425909042358398,-16.559032440185547,1.124014973640442
1778948868880486100,11.758486083984375,2.592055320739746,5.867585182189941,-2.0073912143707275
1778948868896817400,11.7748173828125,4.603592395782471,10.543792724609375,-5.921306610107422
1778948868913149000,11.79114892578125,6.4508771896362305,7.142301559448242,-5.883986473083496
1778948868929491700,11.80749169921875,8.475334167480469,4.75278377532959,-5.13584566116333
1778948868945815300,11.823815185546875,7.482159614562988,2.264014720916748,-3.952970266342163
1778948868962143000,11.84014306640625,4.799725532531738,0.11591434478759766,-3.0810139179229736
1778948868978474800,11.856474853515625,3.3668649196624756,-1.3649663925170898,-2.6406962871551514
1778948868994793200,11.872793212890626,3.359621047973633,-2.9849023818969727,-3.1107542514801025
1778948869011137500,11.889137451171875,2.26552414894104,-6.770349502563477,-3.4353394508361816
1778948869027469000,11.905468994140625,2.0087032318115234,-6.161467552185059,1.3591291904449463
1778948869043800300,11.92180029296875,1.6728490591049194,-0.8278007507324219,2.8194563388824463
1778948869060131600,11.938131591796875,0.18613994121551514,1.2572593688964844,4.654042720794678
1778948869076461800,11.9544619140625,0.9127105474472046,2.2803120613098145,5.511041164398193
1778948869092781300,11.97078125,0.6496374607086182,1.9983930587768555,4.012487888336182
1778948869109126000,11.9871259765625,1.4368646144866943,2.372957229614258,3.6396901607513428
1778948869125456000,12.003455810546875,-1.8350627422332764,2.4723339080810547,2.384680986404419
1778948869141785300,12.019785400390624,-6.236372947692871,1.7461628913879395,1.8979005813598633
1778948869158121500,12.03612158203125,-9.503973007202148,-0.9521493911743164,1.7429163455963135
1778948869174452000,12.052451904296875,-5.381077766418457,-0.42595386505126953,0.3160633444786072
1778948869190771200,12.068771240234375,-3.57346510887146,0.4774198532104492,0.7325993776321411
1778948869207115300,12.085115234375,-3.276618242263794,-0.2700014114379883,1.734292984008789
1778948869223443000,12.10144287109375,-3.907379150390625,-1.1555538177490234,2.5602974891662598
1778948869239793000,12.11779296875,-3.6324706077575684,-2.0164527893066406,3.743837356567383
1778948869256105700,12.134105712890625,-2.492478370666504,-1.7775907516479492,4.995895862579346
1778948869272461800,12.1504619140625,-1.5993062257766724,-2.1988143920898438,6.523542404174805
1778948869288778000,12.166778076171875,-0.4741542339324951,-2.4503631591796875,8.862592697143555
1778948869305126700,12.183126708984375,-3.5528621673583984,-3.57271671295166,8.025739669799805
1778948869321431000,12.19943115234375,-5.828306198120117,-4.156817436218262,4.510385513305664
1778948869337764400,12.215764404296875,-7.2189836502075195,-3.902240753173828,4.333616256713867
1778948869354103000,12.23210302734375,-5.787106513977051,-3.5810184478759766,6.405989646911621
1778948869370430500,12.248430419921876,-4.5397539138793945,-3.220438003540039,6.879190921783447
1778948869386758100,12.264758056640625,-4.948243141174316,-4.232477188110352,5.92570686340332
1778948869403075800,12.281075927734374,-5.603470325469971,-3.564605712890625,3.3637115955352783
1778948869419409400,12.297409423828125,-7.217450141906738,-1.8651924133300781,-0.8821675777435303
1778948869435759600,12.313759521484375,-1.575088381767273,-3.894063949584961,-3.105410099029541
1778948869452099000,12.33009912109375,6.914901256561279,-7.030862808227539,-3.215700149536133
1778948869468430600,12.3464306640625,8.08184814453125,-7.527522087097168,-1.8706343173980713
1778948869484763600,12.362763671875,5.950345993041992,-5.678990364074707,-3.49456787109375
1778948869501100000,12.37910009765625,-2.2135350704193115,-5.324711799621582,-5.057915687561035
1778948869517406000,12.395406005859375,-4.185418605804443,-5.965832710266113,-5.590317726135254
1778948869533743600,12.41174365234375,-0.3723985552787781,-3.1832141876220703,-4.101932525634766
1778948869550072600,12.428072509765625,2.462454080581665,-1.0747699737548828,-1.527693510055542
1778948869566403800,12.44440380859375,-1.7624611854553223,0.6854639053344727,0.3313961625099182
1778948869582739000,12.460739013671875,6.083658218383789,1.7263522148132324,2.7318263053894043
1778948869599069200,12.477069091796874,6.039430618286133,2.5060110092163086,4.1578497886657715
1778948869615398100,12.493398193359376,0.5178242921829224,1.8972654342651367,1.953930139541626
1778948869631729700,12.509729736328126,2.2432498931884766,1.7666192054748535,0.6135832667350769
1778948869648064800,12.526064697265625,4.770770072937012,2.677001476287842,0.7297663688659668
1778948869664394200,12.542394287109374,6.913618087768555,3.6945157051086426,0.3982617259025574
1778948869680724000,12.558723876953126,6.2491679191589355,5.19896936416626,-0.9785667657852173
1778948869697060400,12.575060302734375,6.564125061035156,6.491008758544922,-3.075468063354492
1778948869713401900,12.59140185546875,5.807038307189941,7.934600353240967,-3.7894837856292725
1778948869729718500,12.607718505859374,5.886353969573975,9.90774917602539,-3.992565631866455
1778948869746050600,12.624050537109374,3.7359800338745117,9.499197959899902,-3.450455904006958
1778948869762383400,12.64038330078125,1.8119148015975952,7.496042251586914,-3.418808698654175
1778948869778716200,12.656716064453125,-2.9540934562683105,3.055868148803711,-4.434225082397461
1778948869795032800,12.67303271484375,-16.301366806030273,-8.47909164428711,-1.4333631992340088
1778948869811376000,12.689376220703124,-13.71816349029541,-17.879344940185547,3.5566442012786865
1778948869827711000,12.7057109375,-14.45866870880127,-13.836737632751465,8.524667739868164
1778948869844053200,12.72205322265625,-3.9895710945129395,-0.32913780212402344,4.074247360229492
1778948869860382700,12.7383828125,-0.009979248046875,5.529325485229492,-2.294213056564331
1778948869876714000,12.7547138671875,1.5511268377304077,6.067262172698975,-4.2995100021362305
1778948869893032200,12.7710322265625,-1.543601155281067,0.5496788024902344,-1.4527586698532104
1778948869909362000,12.78736181640625,5.595582962036133,-14.407496452331543,3.6076343059539795
1778948869925692200,12.803692138671876,-5.351059913635254,-24.070362091064453,-3.414057731628418
1778948869942028300,12.8200283203125,10.10000228881836,1.775552749633789,-0.5505586266517639
1778948869958346500,12.836346435546876,5.29888916015625,10.961822509765625,-5.521886348724365
1778948869974690000,12.85268994140625,3.9054114818573,10.07580852508545,-6.439895153045654
1778948869991021800,12.869021728515625,9.760603904724121,4.803309917449951,-5.070706367492676
1778948870007352000,12.88535205078125,10.573698043823242,0.5747652053833008,-4.15620756149292
1778948870023684000,12.90168408203125,7.598392486572266,-1.3767175674438477,-3.2208046913146973
1778948870040000300,12.918000244140625,3.647634506225586,-1.1906728744506836,-2.533919334411621
1778948870056337700,12.934337646484375,1.3922173976898193,-0.8898639678955078,-2.755930185317993
1778948870072678000,12.950677978515625,-0.08122451603412628,-5.028104782104492,-4.0560994148254395
1778948870089010700,12.9670107421875,2.0026588439941406,-6.62833309173584,0.14456164836883545
1778948870105328600,12.98332861328125,2.9577786922454834,-3.545121192932129,3.628171920776367
1778948870121672700,12.999672607421875,-2.1322219371795654,-0.7432956695556641,6.679455757141113
1778948870137988400,13.01598828125,0.7181757688522339,2.2853922843933105,9.19984245300293
1778948870154333000,13.0323330078125,3.6374783515930176,2.1041512489318848,4.923508167266846
1778948870170672400,13.04867236328125,-0.15645742416381836,1.660719394683838,3.175300121307373
1778948870186995500,13.064995361328124,-3.656209945678711,2.3635048866271973,1.4175796508789062
1778948870203330600,13.08133056640625,-3.1350340843200684,1.7033534049987793,1.0951277017593384
1778948870219689500,13.097689453125,-1.983222246170044,1.387068271636963,0.9059171080589294
1778948870235990000,13.113989990234375,-6.185286998748779,-0.05581188201904297,0.5609826445579529
1778948870252335900,13.1303359375,-7.940245628356934,-0.7135496139526367,0.14286696910858154
1778948870268672500,13.146672607421875,-3.7460665702819824,0.9941349029541016,0.7721257209777832
1778948870285000200,13.163000244140624,-1.1285282373428345,0.5205621719360352,2.0055136680603027
1778948870301329000,13.179328857421876,-0.5447437763214111,-0.03198719024658203,2.060757875442505
1778948870317650000,13.19564990234375,-3.291597366333008,-0.9229583740234375,2.8511874675750732
1778948870333974800,13.211974853515626,-4.5434889793396,-1.3316154479980469,3.3901901245117188
1778948870350304000,13.228303955078125,-2.3236007690429688,-1.570958137512207,3.8402085304260254
1778948870366649300,13.2446494140625,-1.291612982749939,-2.145047187805176,5.6595258712768555
1778948870382974000,13.260973876953125,-0.18218994140625,-2.3348464965820312,7.662973403930664
1778948870399307000,13.27730712890625,-2.4261462688446045,-2.7863054275512695,8.899593353271484
1778948870415639800,13.293639892578126,-5.982972145080566,-2.786762237548828,7.88969612121582
1778948870431993900,13.309993896484375,-7.790489196777344,-3.582029342651367,6.334498405456543
1778948870448298500,13.326298583984375,-5.885967254638672,-3.5017242431640625,7.361701965332031
1778948870464630000,13.342630126953125,-4.374195098876953,-2.378744125366211,8.180450439453125
1778948870480968400,13.358968505859375,-5.764468669891357,-5.992806434631348,6.872615814208984
1778948870497296000,13.3752958984375,-6.405221462249756,-4.288215637207031,2.7536768913269043
1778948870513628400,13.39162841796875,-8.48818588256836,-3.144503593444824,-0.6529907584190369
1778948870529959200,13.407959228515624,-1.5116549730300903,-4.418537139892578,-3.551713466644287
1778948870546289200,13.4242890625,9.059429168701172,-7.090291976928711,-2.8005073070526123
1778948870562620700,13.44062060546875,11.660179138183594,-8.257308959960938,-2.418840169906616
1778948870578952400,13.456952392578126,5.904089450836182,-5.482623100280762,-3.2970099449157715
1778948870595271000,13.47327099609375,-2.4917216300964355,-4.166802406311035,-5.21041202545166
1778948870611615500,13.489615478515624,-5.168421745300293,-4.387199401855469,-6.037723064422607
1778948870627949300,13.50594921875,-0.28112924098968506,-2.5172319412231445,-2.436176061630249
1778948870644276200,13.522276123046876,2.472583770751953,-0.7723484039306641,1.7774059772491455
1778948870660609300,13.538609375,4.226046562194824,0.545414924621582,2.4063994884490967
1778948870676941600,13.554941650390624,4.083712100982666,2.189958095550537,4.057680130004883
1778948870693271800,13.571271728515624,4.34217643737793,1.3479528427124023,4.464156150817871
1778948870709604000,13.58760400390625,0.8659732341766357,1.1404438018798828,1.997687816619873
1778948870725933800,13.603933837890626,1.2576404809951782,2.0476393699645996,0.08725345134735107
1778948870742267000,13.620266845703124,3.500576972961426,3.4063730239868164,0.13111799955368042
1778948870758596000,13.63659619140625,6.784175872802734,5.031220436096191,0.03211498260498047
1778948870774935600,13.652935546875,6.483314514160156,6.048510551452637,-0.9931937456130981
1778948870791260000,13.669260009765624,6.261272430419922,6.541013240814209,-2.559328079223633
1778948870807611100,13.685611083984375,5.348374366760254,7.28359842300415,-3.2045786380767822
1778948870823937300,13.701937255859375,5.158942222595215,9.001733779907227,-3.622208833694458
1778948870840253700,13.718253662109374,3.8116655349731445,9.038147926330566,-3.0805540084838867
1778948870856599800,13.734599853515626,1.8013781309127808,6.825403690338135,-2.2368204593658447
1778948870872932000,13.75093212890625,-3.584850788116455,2.589144229888916,-2.552661418914795
1778948870889259800,13.767259765625,-13.905652046203613,-7.420819282531738,-1.9367868900299072
1778948870905566500,13.78356640625,-14.958688735961914,-17.075450897216797,3.3891468048095703
1778948870921911800,13.799911865234375,-12.128508567810059,-11.15043830871582,7.34053373336792
1778948870938231600,13.8162314453125,-5.4331817626953125,-0.7784605026245117,3.5649185180664062
1778948870954561000,13.83256103515625,-1.243613600730896,3.8479747772216797,-1.87887704372406
1778948870970913500,13.84891357421875,-0.9097845554351807,2.7917747497558594,-5.3379316329956055
1778948870987232500,13.865232421875,-4.23477840423584,-5.959637641906738,-0.7362070083618164
1778948871003568400,13.881568359375,7.704986095428467,-19.828250885009766,7.170705318450928
1778948871019895800,13.897895751953126,2.1955161094665527,-13.252096176147461,0.05508905649185181
1778948871036235000,13.914235107421876,9.838669776916504,6.681058883666992,-4.11265754699707
1778948871052563700,13.930563720703125,2.4269795417785645,12.459383010864258,-9.077366828918457
1778948871068882200,13.946882080078124,4.832646369934082,8.610136985778809,-7.888566017150879
1778948871085224400,13.963224365234375,12.06631851196289,2.2322874069213867,-6.433572292327881
1778948871101557200,13.97955712890625,10.508513450622559,-0.4130115509033203,-4.648627281188965
1778948871117888500,13.995888427734375,5.164709568023682,-1.0736637115478516,-3.323634624481201
1778948871134217500,14.012217529296874,2.07080340385437,-1.0031137466430664,-2.8865103721618652
1778948871150552600,14.028552490234375,2.3887529373168945,-2.2356443405151367,-3.247485399246216
1778948871166880800,14.044880859375,0.9493777751922607,-6.23869514465332,-4.5064921379089355
1778948871183213800,14.0612138671875,1.625159502029419,-7.824695587158203,0.6852942109107971
1778948871199545600,14.077545654296875,1.446357250213623,-2.2877025604248047,3.9009199142456055
1778948871215888600,14.093888671875,-2.2466206550598145,0.20262813568115234,7.258543968200684
1778948871232206000,14.1102060546875,1.5319715738296509,2.0946645736694336,8.346038818359375
1778948871248544300,14.126544189453124,2.333983898162842,1.775590419769287,5.135601997375488
1778948871264882400,14.14288232421875,-0.6545193195343018,3.296802520751953,3.0437722206115723
1778948871281213700,14.159213623046876,0.661489725112915,2.69022798538208,2.319113254547119
1778948871297534200,14.1755341796875,-2.1754965782165527,2.421844482421875,2.178490161895752
1778948871313849300,14.191849365234376,-7.6493821144104,0.48381900787353516,1.2997967004776
1778948871330196700,14.20819677734375,-11.012126922607422,-1.5973176956176758,-0.4639856815338135
1778948871346527500,14.224527587890625,-4.651366233825684,0.48282527923583984,-0.7852903604507446
1778948871362859800,14.24085986328125,-1.5473471879959106,0.5763635635375977,1.6043083667755127
1778948871379190300,14.257190185546875,-0.7557547092437744,0.09130668640136719,2.1265127658843994
1778948871395520500,14.2735205078125,-2.9933969974517822,-1.0138702392578125,2.886345386505127
1778948871411853600,14.289853515625,-4.331352710723877,-1.2236900329589844,3.851289749145508
1778948871428181800,14.306181640625,-2.757307767868042,-0.6531229019165039,4.739508628845215
1778948871444519000,14.322518798828124,-2.3405938148498535,-0.8044090270996094,6.466403007507324
1778948871460849000,14.338848876953126,-0.7411553859710693,-2.3940582275390625,8.753740310668945
1778948871477177600,14.355177490234375,-1.2863008975982666,-3.7153120040893555,9.25912094116211
1778948871493511000,14.371510986328126,-6.982473373413086,-4.555743217468262,7.402528762817383
1778948871509841000,14.3878408203125,-6.609818458557129,-4.471550941467285,6.801226615905762
1778948871526171000,14.4041708984375,-4.2179765701293945,-3.303434371948242,7.6753082275390625
1778948871542507500,14.420507568359374,-6.166059494018555,-3.556881904602051,7.201930522918701
1778948871558830600,14.43683056640625,-7.445185661315918,-5.510215759277344,4.289204120635986
1778948871575162400,14.453162353515625,-8.352865219116211,-3.9249305725097656,0.8901221752166748
1778948871591501800,14.469501708984374,-6.729708194732666,-2.832876205444336,-2.265501022338867
1778948871607825400,14.485825439453125,5.855525970458984,-3.9842567443847656,-4.968969345092773
1778948871624161500,14.50216162109375,11.416497230529785,-8.831141471862793,-3.830106496810913
1778948871640492300,14.5184921875,8.376790046691895,-7.462932586669922,-2.7789230346679688
1778948871656824000,14.534823974609376,-0.21849332749843597,-4.84306526184082,-4.152959823608398
1778948871673154800,14.55115478515625,-5.416805744171143,-6.441082954406738,-6.061753273010254
1778948871689487600,14.567487548828124,-1.3375005722045898,-4.963308334350586,-5.275783538818359
1778948871705805600,14.5838056640625,1.9983165264129639,-1.789292335510254,-0.9762369394302368
1778948871722148400,14.6001484375,2.146104574203491,0.4060087203979492,2.0095913410186768
1778948871738480600,14.616480712890626,2.8161439895629883,2.589991569519043,2.3795864582061768
1778948871754811000,14.632810791015626,5.620232105255127,2.308234214782715,2.3986527919769287
1778948871771142700,14.649142578125,2.5300872325897217,2.3438282012939453,1.2834852933883667
1778948871787478500,14.665478515625,1.8913750648498535,2.340737819671631,-0.10946838557720184
1778948871803813400,14.6818134765625,2.619298219680786,2.719161033630371,-0.17035183310508728
1778948871820152300,14.69815234375,5.069233417510986,3.5986948013305664,0.8653637766838074
1778948871836471300,14.71447119140625,5.732967376708984,5.3656744956970215,-0.1322118043899536
1778948871852812800,14.730812744140625,5.310670852661133,6.362313270568848,-1.7733373641967773
1778948871869142000,14.74714208984375,5.046703338623047,6.717083930969238,-2.788592576980591
1778948871885456000,14.763455810546875,5.2125444412231445,8.64095687866211,-3.6422009468078613
1778948871901781200,14.77978125,4.338978290557861,9.65733528137207,-2.9301652908325195
1778948871918124000,14.7961240234375,2.957815647125244,8.668143272399902,-1.8288698196411133
1778948871934457000,14.81245703125,-0.1451815366744995,5.6661376953125,-1.0472511053085327
1778948871950788000,14.8287880859375,-9.837297439575195,-1.0009450912475586,-1.9603053331375122
1778948871967106800,14.84510693359375,-17.384769439697266,-12.0108003616333,1.8336290121078491
1778948871983450400,14.861450439453124,-10.989234924316406,-16.841350555419922,5.415743827819824
1778948871999779600,14.877779541015625,-6.911105632781982,-7.694365501403809,5.8094916343688965
1778948872016123000,14.894122802734374,-3.5301976203918457,0.13165760040283203,-0.1642182469367981
1778948872032445000,14.91044482421875,-0.9540791511535645,4.813689231872559,-4.607949256896973
1778948872048775400,14.926775390625,-1.538663625717163,3.654834270477295,-5.051987648010254
1778948872065105000,14.94310498046875,-3.516167640686035,-7.8627777099609375,0.8879395723342896
1778948872081440000,14.95943994140625,7.550355911254883,-23.697708129882812,4.554802417755127
1778948872097772800,14.975772705078125,0.4385765790939331,-7.0572357177734375,-2.9578373432159424
1778948872114099700,14.992099609375,9.794325828552246,8.972904205322266,-4.212915420532227
1778948872130448400,15.008448486328126,3.5553197860717773,12.91869068145752,-8.086216926574707
1778948872146765000,15.02476513671875,6.677626132965088,8.914555549621582,-7.171013832092285
1778948872163092500,15.041092529296876,11.689719200134277,1.9732365608215332,-5.493262767791748
1778948872179435300,15.057435302734374,10.197813987731934,-1.568568229675293,-3.9231314659118652
1778948872195771100,15.073771240234375,4.949326038360596,-2.092559814453125,-3.1262803077697754
1778948872212087600,15.090087646484376,2.283968210220337,-1.4288644790649414,-2.464935302734375
1778948872228428500,15.106428466796874,1.5062408447265625,-2.3121137619018555,-2.8257458209991455
1778948872244775000,15.12277490234375,-0.09342652559280396,-7.006251335144043,-4.070940971374512
1778948872261095400,15.139095458984375,2.3667643070220947,-7.300144195556641,1.7179409265518188
1778948872277416200,15.155416259765625,2.3833167552948,-2.554250717163086,4.8300065994262695
1778948872293746700,15.17174658203125,-0.16706490516662598,-0.09295654296875,8.800333023071289
1778948872310079000,15.188078857421875,1.8345166444778442,0.8029890060424805,8.04379653930664
1778948872326411300,15.204411376953125,0.29829835891723633,2.1942429542541504,4.202484130859375
1778948872342739500,15.220739501953124,-2.074591875076294,2.5790576934814453,3.3337299823760986
1778948872359070500,15.237070556640624,-0.19263076782226562,2.5048866271972656,2.0946617126464844
1778948872375406300,15.25340625,0.8254613876342773,2.309591770172119,1.9346671104431152
1778948872391748400,15.269748291015626,-2.987593650817871,1.6752138137817383,1.501089334487915
1778948872408081400,15.286081298828124,-9.137800216674805,-0.41335391998291016,0.10433930158615112
1778948872424409900,15.302409912109376,-5.8233489990234375,-0.14865493774414062,-1.5704576969146729
1778948872440742700,15.31874267578125,-3.8444995880126953,1.361356258392334,0.4876890182495117
1778948872457057500,15.3350576171875,-1.709428310394287,0.5511856079101562,1.4197055101394653
1778948872473392400,15.351392333984375,-3.142519950866699,-0.8008718490600586,1.9976872205734253
1778948872489721600,15.3677216796875,-3.501255512237549,-1.9715099334716797,3.0388708114624023
1778948872506055000,15.384054931640625,-1.4324344396591187,-2.163876533508301,4.207847595214844
1778948872522386000,15.400385986328125,-0.864875078201294,-1.4196901321411133,6.149909019470215
1778948872538719000,15.416718994140625,-1.3850717544555664,-1.1437253952026367,8.875166893005371
1778948872555046700,15.433046630859375,-1.146970510482788,-1.3048267364501953,11.726730346679688
1778948872571378700,15.449378662109375,-4.041977405548096,-3.1572980880737305,10.841377258300781
1778948872587710200,15.465710205078125,-8.155959129333496,-4.761447906494141,7.676266670227051
1778948872604042800,15.482042724609375,-8.245651245117188,-4.790750503540039,6.613918781280518
1778948872620372200,15.498372314453125,-6.65660285949707,-3.0883665084838867,7.013110160827637
1778948872636707800,15.514707763671876,-6.4047746658325195,-5.180371284484863,7.322499752044678
1778948872653035800,15.531035888671875,-6.455999851226807,-4.317462921142578,3.3657422065734863
1778948872669368300,15.547368408203125,-7.157011985778809,-3.1112546920776367,-0.6637055277824402
1778948872685699000,15.563698974609375,-0.07281875610351562,-5.118107795715332,-3.1666836738586426
1778948872702017800,15.580017822265624,9.816276550292969,-8.744535446166992,-2.9571845531463623
1778948872718349300,15.596349365234374,10.00411605834961,-9.1690673828125,-3.061840772628784
1778948872734694700,15.612694580078125,3.905795097351074,-7.701948165893555,-4.633179187774658
1778948872751022800,15.62902294921875,-5.758269309997559,-7.002192497253418,-6.809598922729492
1778948872767360300,15.6453603515625,-2.9238290786743164,-4.867968559265137,-7.312708377838135
1778948872783667700,15.661667724609375,1.682822823524475,-0.36147499084472656,-5.408209800720215
1778948872800018400,15.678018310546875,2.9864251613616943,0.3830833435058594,-0.768204927444458
1778948872816362000,15.694362060546876,1.247873306274414,0.8661899566650391,1.7742443084716797
1778948872832693800,15.71069384765625,6.408265590667725,2.2684707641601562,4.914484977722168
1778948872849025800,15.72702587890625,4.668942451477051,2.3178038597106934,6.280455589294434
1778948872865339400,15.74333935546875,0.7682414054870605,1.9015130996704102,2.762657403945923
1778948872881674000,15.759674072265625,2.2757623195648193,2.0650110244750977,1.3019534349441528
1778948872897988400,15.77598828125,6.472226142883301,3.959806442260742,1.234931468963623
1778948872914341400,15.79234130859375,6.516528129577637,5.582314491271973,-0.5783605575561523
1778948872930668000,15.80866796875,6.8755292892456055,6.2275872230529785,-2.212940216064453
1778948872946997800,15.824997802734375,6.681591033935547,7.398160934448242,-3.3805112838745117
1778948872963332400,15.841332275390625,6.900821685791016,8.901351928710938,-3.9601025581359863
1778948872979661800,15.857661865234375,5.347373962402344,9.834197044372559,-2.809291362762451
1778948872995993900,15.873993896484375,4.953600883483887,9.103117942810059,-1.6794052124023438
1778948873012327200,15.8903271484375,0.9403561353683472,5.819516181945801,-0.6128710508346558
1778948873028644900,15.906644775390625,-8.658147811889648,-0.744450569152832,-1.4845144748687744
1778948873045003800,15.923003662109375,-18.470027923583984,-14.686034202575684,-1.4280805587768555
1778948873061302300,15.93930224609375,-12.58029556274414,-19.409420013427734,3.578627109527588
1778948873077653000,15.955653076171876,-9.373281478881836,-7.481783866882324,7.335264682769775
1778948873093978400,15.971978271484375,-2.301304578781128,0.6506938934326172,0.05313994735479355
1778948873110304000,15.988303955078125,-0.3852654695510864,3.183777332305908,-5.4177632331848145
1778948873126652000,16.00465185546875,-3.0268874168395996,-2.959928512573242,-6.104877948760986
1778948873142977300,16.020977294921874,-0.7459509372711182,-14.579010009765625,2.667971611022949
1778948873159311400,16.037311279296876,8.253028869628906,-11.46673583984375,3.5099356174468994
1778948873175651800,16.05365185546875,6.00671911239624,3.9169254302978516,-3.7755277156829834
1778948873191985400,16.0699853515625,6.665719032287598,11.06601619720459,-6.016576766967773
1778948873208314000,16.086314208984376,3.075571060180664,9.887763977050781,-7.70704984664917
1778948873224646000,16.10264599609375,8.754457473754883,4.864253997802734,-5.56175422668457
1778948873240949800,16.11894970703125,10.80746841430664,-0.996882438659668,-4.030572414398193
1778948873257299500,16.135299560546876,7.807372093200684,-3.0445804595947266,-3.4721083641052246
1778948873273628200,16.151628173828126,3.3016343116760254,-1.771596908569336,-2.8471407890319824
1778948873289959200,16.167959228515624,2.479205369949341,0.21947479248046875,-2.638136863708496
1778948873306290000,16.1842900390625,0.2915000915527344,-2.3565711975097656,-2.5372695922851562
1778948873322620000,16.200619873046875,0.5653430223464966,-6.108176231384277,-0.11694192886352539
1778948873338952700,16.21695263671875,4.744772911071777,-4.679048538208008,4.647371768951416
1778948873355283000,16.233282958984375,-1.499537467956543,-1.624354362487793,7.895557403564453
1778948873371614700,16.24961474609375,-0.5680447816848755,0.7941484451293945,9.99162769317627
1778948873387934000,16.265933837890625,-0.7486598491668701,1.1351861953735352,7.413548946380615
1778948873404277800,16.28227783203125,-1.149951457977295,2.6373867988586426,4.167872428894043
1778948873420609800,16.29860986328125,-3.389616012573242,2.856797218322754,2.8915069103240967
1778948873436940300,16.314940185546874,-1.0312702655792236,2.7132720947265625,1.5663728713989258
1778948873453272000,16.33127197265625,0.8631789684295654,2.0366501808166504,1.0209276676177979
1778948873469603000,16.34760302734375,-2.4507315158843994,0.8829126358032227,-0.05913221836090088
1778948873485934600,16.3639345703125,-7.779036521911621,-2.895517349243164,-0.8908721208572388
1778948873502265300,16.380265380859374,-6.28173303604126,-0.7659912109375,-1.7489511966705322
1778948873518595800,16.396595947265624,-2.61262583732605,0.09732341766357422,0.972934901714325
1778948873534934500,16.4129345703125,-1.023841381072998,0.3882484436035156,1.9071381092071533
1778948873551259000,16.4292587890625,-2.63030743598938,-0.6568593978881836,2.940099000930786
1778948873567591400,16.44559130859375,-4.248581886291504,-1.408961296081543,4.092571258544922
1778948873583921400,16.46192138671875,-2.397881507873535,-1.599003791809082,4.842552185058594
1778948873600232000,16.47823193359375,-0.9429888725280762,-1.1564397811889648,6.112889289855957
1778948873616585000,16.4945849609375,-0.49309515953063965,-1.6322851181030273,8.183778762817383
1778948873632916200,16.510916259765626,-0.7639544010162354,-2.76296329498291,9.524761199951172
1778948873649248000,16.527248046875,-3.947917938232422,-3.509878158569336,7.253714561462402
1778948873665576700,16.54357666015625,-7.770954132080078,-3.990184783935547,5.2285237312316895
1778948873681910000,16.559909912109376,-6.348019599914551,-3.647130012512207,6.196306228637695
1778948873698252000,16.576251953125,-4.306453704833984,-2.199422836303711,7.8307695388793945
1778948873714573000,16.592572998046876,-5.3595452308654785,-4.356690406799316,9.01333999633789
1778948873730908200,16.608908203125,-4.79078483581543,-5.314319610595703,5.235091209411621
1778948873747231000,16.62523095703125,-5.885753631591797,-3.1416702270507812,1.0927075147628784
1778948873763582000,16.64158203125,-5.209496974945068,-2.767035484313965,-1.9083268642425537
1778948873779911000,16.657910888671875,3.045008420944214,-5.467399597167969,-3.485743761062622
1778948873796241000,16.674240966796877,8.781404495239258,-8.25687313079834,-2.6602587699890137
1778948873812560100,16.69056005859375,8.369041442871094,-7.007421493530273,-2.9221229553222656
1778948873828880000,16.7068798828125,2.2599422931671143,-5.602250099182129,-4.419096946716309
1778948873845226500,16.7232265625,-4.14639139175415,-6.077696800231934,-5.8787055015563965
1778948873861539800,16.739539794921875,-1.844543218612671,-4.362344741821289,-5.583357334136963
1778948873877886000,16.755885986328124,1.4592293500900269,-1.525273323059082,-1.753849983215332
1778948873894211800,16.7722119140625,3.3841748237609863,-0.6847457885742188,2.374978542327881
1778948873910553900,16.788553955078125,2.6501197814941406,1.8736729621887207,2.935108184814453
1778948873926865700,16.80486572265625,5.083336353302002,1.351785659790039,3.82428240776062
1778948873943211300,16.821211181640624,2.663498878479004,0.9281978607177734,2.5467793941497803
1778948873959540500,16.83754052734375,2.1910808086395264,1.4730262756347656,0.5188903212547302
1778948873975872500,16.85387255859375,4.244654178619385,2.586793899536133,0.7317305207252502
1778948873992204800,16.870204833984374,6.4232401847839355,4.194318771362305,0.6133302450180054
1778948874008536000,16.8865361328125,5.9792890548706055,5.955960273742676,-0.9273877143859863
1778948874024867600,16.90286767578125,7.1599321365356445,6.713072776794434,-2.680469512939453
1778948874041196000,16.919196044921875,6.501431465148926,7.612783432006836,-3.622278928756714
1778948874057527000,16.935527099609374,6.584080696105957,9.054848670959473,-3.82784104347229
1778948874073865000,16.951864990234377,5.569482803344727,10.043783187866211,-4.024478435516357
1778948874090190800,16.96819091796875,3.8662214279174805,9.356271743774414,-3.499384880065918
1778948874106524200,16.984524169921876,1.6335397958755493,7.4695329666137695,-2.1016592979431152
1778948874122855000,17.00085498046875,-4.670792102813721,2.6296000480651855,-2.637582302093506
1778948874139185200,17.01718505859375,-16.90282440185547,-10.715189933776855,-2.4610447883605957
1778948874155532800,17.03353271484375,-13.095473289489746,-22.534439086914062,3.0023036003112793
1778948874171861500,17.049861572265623,-11.74696159362793,-13.57369613647461,8.536036491394043
1778948874188192300,17.066192138671877,-4.210572242736816,0.8742475509643555,3.6193902492523193
1778948874204524800,17.08252490234375,-0.8541582822799683,5.5415120124816895,-3.8007426261901855
1778948874220855300,17.098855224609373,0.3022270202636719,10.303106307983398,-4.602177619934082
1778948874237171200,17.115171142578124,1.0298075675964355,8.819009780883789,-1.580967664718628
1778948874253505300,17.13150537109375,5.497719764709473,3.426124095916748,-1.493470311164856
1778948874269836500,17.14783642578125,14.209272384643555,-15.149181365966797,-1.5456448793411255
1778948874286167800,17.164167724609374,-13.246667861938477,-36.394779205322266,2.8335118293762207
1778948874302499300,17.180499267578124,1.5778465270996094,-8.782245635986328,-0.1505347043275833
1778948874318830300,17.196830322265626,2.955489158630371,7.071951866149902,-4.059187889099121
1778948874335164400,17.213164306640625,3.2251901626586914,10.417933464050293,-4.675019264221191
1778948874351504400,17.22950439453125,8.098814964294434,7.994946002960205,-5.331489562988281
1778948874367821000,17.245821044921875,8.724425315856934,6.070207118988037,-3.9108543395996094
1778948874384156000,17.262156005859374,8.984134674072266,3.093656539916992,-3.2636423110961914
1778948874400487000,17.27848681640625,7.2486572265625,-0.7887468338012695,-2.9830715656280518
1778948874416816600,17.294816650390626,4.632653713226318,-2.397690773010254,-2.562112808227539
1778948874433146400,17.311146484375,0.4352750778198242,-4.270721435546875,-3.845795154571533
1778948874449484000,17.327484130859375,-1.1856188774108887,-7.736169815063477,-3.3597426414489746
1778948874465813800,17.343813720703125,-0.3206290006637573,-3.051051139831543,0.597490131855011
1778948874482141400,17.360141357421874,0.2650716304779053,1.5010766983032227,2.7473721504211426
1778948874498467800,17.3764677734375,-2.8009350299835205,1.440791130065918,5.240427017211914
1778948874514805200,17.39280517578125,1.884098768234253,1.6026878356933594,7.19488525390625
1778948874531157800,17.40915771484375,1.993220567703247,1.2244758605957031,6.6841654777526855
1778948874547454000,17.425453857421875,0.48835134506225586,2.0275826454162598,4.677887916564941
1778948874563799600,17.441799560546876,-2.77864408493042,2.926097869873047,4.011014938354492
1778948874580129000,17.45812890625,-3.9585487842559814,2.348479747772217,4.024352073669434
1778948874596451600,17.47445166015625,-4.361165523529053,1.3897576332092285,4.239041805267334
1778948874612793300,17.49079345703125,-3.513422727584839,0.5786333084106445,3.7766902446746826
1778948874629124900,17.507124755859376,-2.5070788860321045,0.04242992401123047,2.556786060333252
1778948874645453800,17.523453857421874,-3.5292277336120605,-0.3714618682861328,2.033447027206421
1778948874661778000,17.53977783203125,-4.147604465484619,-1.3688039779663086,1.8590607643127441
1778948874678118400,17.556118408203126,-4.5489420890808105,-2.243311882019043,2.700100898742676
1778948874694450400,17.572450439453124,-5.190206527709961,-1.9026203155517578,4.789124488830566
1778948874710780200,17.5887802734375,-3.885526180267334,-2.1263227462768555,6.9737772941589355
1778948874727129000,17.605129150390624,-0.9245235919952393,-1.9195070266723633,9.151742935180664
1778948874743440600,17.621440673828126,-0.8481993675231934,-2.0415353775024414,10.257538795471191
1778948874759778600,17.637778564453125,-4.318544387817383,-3.940258026123047,9.705986022949219
1778948874776118000,17.654117919921877,-8.429483413696289,-4.398122787475586,5.445496559143066
1778948874792449300,17.67044921875,-11.137880325317383,-3.90779972076416,5.434055328369141
1778948874808767000,17.68676708984375,-4.827267646789551,-2.966078758239746,7.629242420196533
1778948874825099300,17.703099365234376,-4.905510425567627,-5.078157424926758,5.728384017944336
1778948874841430300,17.71943017578125,-5.554815292358398,-3.6669540405273438,0.3143072724342346
1778948874857761500,17.735761474609376,-0.8649873733520508,-3.4199581146240234,-1.7563974857330322
1778948874874093800,17.75209375,5.63383674621582,-6.673620223999023,-3.321519374847412
1778948874890424800,17.7684248046875,5.5868730545043945,-8.741130828857422,-2.021717071533203
1778948874906754300,17.78475439453125,4.296570777893066,-7.418071746826172,-3.4346439838409424
1778948874923075600,17.80107568359375,-1.2506060600280762,-8.010900497436523,-4.798638820648193
1778948874939407600,17.81740771484375,-4.511568069458008,-9.43233871459961,-5.899068355560303
1778948874955748600,17.83374853515625,0.09977823495864868,-5.956104278564453,-5.275062561035156
1778948874972077800,17.850077880859374,3.862630844116211,-1.8202085494995117,-2.9067015647888184
1778948874988414200,17.866414306640625,3.1113390922546387,-0.028313636779785156,0.2860841751098633
1778948875004760600,17.882760498046874,4.945900917053223,0.9012794494628906,0.7596445679664612
1778948875021070300,17.8990703125,6.816244602203369,1.599151611328125,3.1713521480560303
1778948875037406700,17.91540673828125,2.7597615718841553,2.7335572242736816,3.567652702331543
1778948875053741000,17.931740966796873,1.7848137617111206,2.164030075073242,3.080409049987793
1778948875070068700,17.94806884765625,5.957303047180176,2.7756848335266113,3.4092514514923096
1778948875086400000,17.96439990234375,6.325326442718506,5.056029319763184,-0.324736624956131
1778948875102731800,17.980731689453126,7.9082136154174805,7.495927333831787,-3.217139959335327
1778948875119061500,17.9970615234375,7.78253698348999,8.93742847442627,-4.303931713104248
1778948875135394800,18.013394775390626,7.060250282287598,11.709381103515625,-3.882075548171997
1778948875151738400,18.02973828125,6.171966552734375,12.837498664855957,-2.821941614151001
1778948875168070100,18.046070068359374,4.654138088226318,11.362899780273438,-2.254051923751831
1778948875184398800,18.06239892578125,1.3559130430221558,8.229939460754395,-2.1380391120910645
1778948875200732000,18.07873193359375,-13.392522811889648,0.2333049774169922,-2.7277307510375977
1778948875217046300,18.09504638671875,-17.018943786621094,-12.508834838867188,4.188647270202637
1778948875233381000,18.111381103515626,-12.513856887817383,-23.447160720825195,6.3326005935668945
1778948875249713700,18.127713623046876,-8.308451652526855,-11.164138793945312,10.083855628967285
1778948875266044000,18.1440439453125,0.15231752395629883,1.4250783920288086,0.8140512108802795
1778948875282375000,18.160375,2.8731632232666016,7.890739440917969,-5.659749984741211
1778948875298704600,18.17670458984375,-0.49393224716186523,7.312159061431885,-7.641148090362549
1778948875315039500,18.19303955078125,-5.915027618408203,-2.453913688659668,-3.891622543334961
1778948875331381800,18.2093818359375,3.475944757461548,-23.28167724609375,0.8077912330627441
1778948875347714300,18.22571435546875,-4.10207462310791,-20.851818084716797,-2.140052556991577
1778948875364042500,18.24204248046875,16.260526657104492,6.192185401916504,0.26466384530067444
1778948875380358000,18.25835791015625,7.430047035217285,12.365788459777832,-7.149406909942627
1778948875396693200,18.274693359375,7.385496139526367,10.388209342956543,-8.199914932250977
1778948875413026800,18.29102685546875,13.486637115478516,4.988254070281982,-4.7345356941223145
1778948875429356000,18.30735595703125,12.611576080322266,-0.5584840774536133,-2.5673828125
1778948875445686300,18.323686279296876,9.002313613891602,-3.664125442504883,-2.1989030838012695
1778948875462017000,18.34001708984375,4.571962833404541,-4.250330924987793,-2.2600011825561523
1778948875478336300,18.356336181640625,4.3520941734313965,-4.170842170715332,-2.355217695236206
1778948875494679300,18.37267919921875,1.8637219667434692,-8.309755325317383,-2.9612832069396973
1778948875511013600,18.389013671875,3.963270902633667,-8.758522033691406,1.3112239837646484
1778948875527353600,18.405353515625,1.7011374235153198,-2.7510318756103516,4.862163543701172
1778948875543673900,18.421673828125,-3.5589919090270996,1.18646240234375,10.43781852722168
1778948875560003600,18.438003662109374,0.6305007934570312,0.8607215881347656,9.384714126586914
1778948875576323800,18.45432373046875,-2.0265004634857178,3.120610237121582,6.81473445892334
1778948875592667000,18.4706669921875,0.3678257465362549,2.8671374320983887,3.39274001121521
1778948875608999700,18.486999755859376,-2.8618078231811523,2.451213836669922,2.8934807777404785
1778948875625329000,18.503328857421874,0.3724898099899292,2.1940126419067383,1.8891448974609375
1778948875641660700,18.51966064453125,2.255807399749756,3.3459019660949707,1.6416985988616943
1778948875657988400,18.53598828125,-2.6670732498168945,2.2300710678100586,2.164185047149658
1778948875674321200,18.552321044921875,-10.271036148071289,-1.0784120559692383,1.0261622667312622
1778948875690657300,18.5686572265625,-5.775256156921387,-0.20151805877685547,0.009292960166931152
1778948875706997800,18.584997802734375,-1.9059650897979736,0.6619415283203125,2.205859661102295
1778948875723334100,18.601334228515626,-1.0115426778793335,0.31360530853271484,2.721648693084717
1778948875739652600,18.617652587890625,-1.70267653465271,-0.16799449920654297,3.420675754547119
1778948875755977500,18.6339775390625,-3.0744152069091797,-1.4084453582763672,3.6578683853149414
1778948875772324600,18.65032470703125,-1.579529881477356,-0.9294061660766602,3.43713641166687
1778948875788655900,18.66665576171875,-0.9736676216125488,-0.9217319488525391,5.292719841003418
1778948875804969000,18.682968994140627,-0.08337211608886719,-1.2506113052368164,8.327484130859375
1778948875821303300,18.69930322265625,2.189697742462158,-1.3280210494995117,11.7286376953125
1778948875837639200,18.71563916015625,-0.18973064422607422,-1.916921615600586,11.998390197753906
1778948875853964000,18.731964111328125,-7.635989189147949,-3.9351911544799805,7.622591018676758
1778948875870301000,18.748301025390624,-14.53042221069336,-4.30092716217041,5.6712188720703125
1778948875886633200,18.76463330078125,-8.419694900512695,-2.7635812759399414,8.055049896240234
1778948875902959900,18.7809599609375,-2.276337146759033,-1.0108251571655273,9.275951385498047
1778948875919292400,18.79729248046875,-4.321994304656982,-3.140899658203125,6.471233367919922
1778948875935623700,18.813623779296876,-3.8704376220703125,-3.1509323120117188,0.840076744556427
1778948875951952600,18.82995263671875,-2.7178831100463867,-4.563660621643066,-1.4422540664672852
1778948875968287200,18.846287353515624,2.1716339588165283,-8.693989753723145,-2.152111768722534
1778948875984634400,18.86263427734375,6.1486430168151855,-10.59930419921875,-3.0034234523773193
1778948876000946000,18.87894580078125,5.406733512878418,-11.358257293701172,-3.8323285579681396
1778948876017280300,18.8952802734375,1.6230604648590088,-10.936549186706543,-5.747710227966309
1778948876033608200,18.911608154296875,-3.5573558807373047,-7.842802047729492,-7.11952018737793
1778948876049945600,18.927945556640626,-2.325045585632324,-2.503173828125,-6.3699469566345215
1778948876066272300,18.944272216796875,1.6472110748291016,-0.7011384963989258,-2.4578983783721924
1778948876082603000,18.96060302734375,0.3203244209289551,-0.7471742630004883,0.5843851566314697
1778948876098936300,18.976936279296876,7.1296706199646,0.3742561340332031,3.383105516433716
1778948876115265500,18.993265625,3.5670056343078613,0.9244489669799805,5.136996269226074
1778948876131615500,19.009615478515624,1.892561674118042,-0.2265777587890625,1.0888398885726929
1778948876147942400,19.0259423828125,3.9969122409820557,-1.0319528579711914,0.8823099136352539
1778948876164275200,19.042275146484375,7.625773906707764,0.8300762176513672,0.41113555431365967
1778948876180605400,19.05860546875,7.175464153289795,3.807804584503174,-1.2349650859832764
1778948876196908000,19.074907958984376,7.67894983291626,6.337973117828369,-2.4894063472747803
1778948876213254100,19.091254150390625,9.442113876342773,8.26449203491211,-2.44940447807312
1778948876229585700,19.107585693359376,9.894028663635254,10.290740966796875,-3.1670475006103516
1778948876245915600,19.12391552734375,8.751835823059082,11.224637031555176,-2.4320006370544434
1778948876262248000,19.140248046875,7.523298263549805,10.820223808288574,-1.684949517250061
1778948876278578700,19.15657861328125,5.833220481872559,9.770179748535156,-1.15324068069458
1778948876294915800,19.172915771484377,3.6219470500946045,7.626713752746582,-1.365350604057312
1778948876311239000,19.189239013671877,-3.7522060871124268,1.5205774307250977,-3.0146148204803467
1778948876327588400,19.20558837890625,-12.367341041564941,-6.135226249694824,-4.5437822341918945
1778948876343914800,19.221914794921876,-16.53130340576172,-17.957794189453125,0.9436766505241394
1778948876360249900,19.238249755859375,-14.813767433166504,-18.74860382080078,7.967898368835449
1778948876376563200,19.254563232421877,-5.105207443237305,-5.672060966491699,1.577488660812378
1778948876392897300,19.270897216796875,3.5048444271087646,-0.5409669876098633,-5.370194435119629
1778948876409215500,19.287215576171874,-4.628892421722412,-1.8613872528076172,-11.218485832214355
1778948876425560600,19.303560546875,-6.4710798263549805,-3.8980331420898438,-6.845658302307129
1778948876441874700,19.319874755859374,-0.5164263248443604,-12.588133811950684,2.362555980682373
1778948876458212400,19.33621240234375,11.005881309509277,-6.713624000549316,6.050336837768555
1778948876474554400,19.352554443359374,12.396085739135742,8.28458023071289,-1.024268388748169
1778948876490885000,19.368885009765624,8.202674865722656,11.041912078857422,-4.21086311340332
1778948876507213300,19.38521337890625,6.5635576248168945,8.13235092163086,-4.6950788497924805
1778948876523547600,19.401547607421875,9.627447128295898,2.2626805305480957,-3.497884511947632
1778948876539878400,19.41787841796875,9.643115997314453,-3.882622718811035,-2.267246961593628
1778948876556209700,19.434209716796875,6.055551528930664,-5.542264938354492,-2.4365599155426025
1778948876572540200,19.4505400390625,4.826632499694824,-2.624453544616699,-1.8721246719360352
1778948876588871000,19.466870849609375,3.6756985187530518,-1.421152114868164,-0.908945620059967
1778948876605198300,19.4831982421875,1.7637207508087158,-4.551645278930664,-0.23832809925079346
1778948876621536800,19.499536865234376,1.9974207878112793,-5.8530778884887695,1.7371277809143066
1778948876637865200,19.515865234375,3.262045383453369,-2.378737449645996,4.70034646987915
1778948876654193000,19.53219287109375,-2.4531922340393066,0.3036775588989258,7.943258762359619
1778948876670531600,19.548531494140626,0.36116957664489746,0.25324440002441406,8.372344017028809
1778948876686873300,19.564873291015626,-0.4585845470428467,2.802849769592285,5.883974552154541
1778948876703206700,19.58120654296875,-0.09134995937347412,2.7567429542541504,2.905226469039917
1778948876719533300,19.597533203125,-1.9181950092315674,2.7908806800842285,2.041257619857788
1778948876735864300,19.6138642578125,-0.48326051235198975,2.108381748199463,2.013223648071289
1778948876752181500,19.630181396484375,1.1730983257293701,2.568826198577881,1.916631817817688
1778948876768513000,19.646512939453125,-3.424476146697998,0.4496736526489258,3.030531167984009
1778948876784838700,19.662838623046873,-5.491017818450928,-1.959726333618164,2.9858579635620117
1778948876801180000,19.679179931640626,-4.849033832550049,-1.8031682968139648,3.125967025756836
1778948876817508900,19.6955087890625,-2.6089940071105957,-0.1770153045654297,2.297778606414795
1778948876833839000,19.711839111328125,-2.9259393215179443,-0.7554655075073242,2.0733156204223633
1778948876850171600,19.728171630859375,-4.355621337890625,-1.4105567932128906,2.2309279441833496
1778948876866501600,19.744501708984377,-4.689084053039551,-0.5380382537841797,1.1256541013717651
1778948876882833700,19.760833740234375,-1.992213249206543,-2.5269784927368164,2.7830770015716553
1778948876899164200,19.7771640625,-0.6184842586517334,-1.6503324508666992,5.076482772827148
1778948876915494100,19.793494140625,-0.42114853858947754,-0.4121265411376953,7.338757514953613
1778948876931826700,19.80982666015625,-1.4413355588912964,-0.6958131790161133,8.923483848571777
1778948876948156700,19.82615673828125,-2.0587658882141113,-1.9035491943359375,9.9662446975708
1778948876964506000,19.842506103515625,-3.6417295932769775,-4.031396865844727,9.023749351501465
1778948876980812800,19.858812744140625,-5.6838178634643555,-2.9591665267944336,4.8777289390563965
1778948876997156000,19.875156005859374,-10.390359878540039,-2.9820632934570312,4.081697463989258
1778948877013483000,19.89148291015625,-7.9270219802856445,-3.0255088806152344,5.658379554748535
1778948877029813800,19.907813720703125,-4.691003799438477,-3.9595041275024414,7.406530380249023
1778948877046145000,19.92414501953125,-2.1911251544952393,-4.316775321960449,4.550543785095215
1778948877062475800,19.940475830078125,-1.6928703784942627,-3.526998519897461,0.2192995548248291
1778948877078807600,19.9568076171875,3.9548521041870117,-6.295039176940918,-1.969711184501648
1778948877095136500,19.973136474609376,7.79734468460083,-9.138285636901855,-2.3426785469055176
1778948877111471600,19.9894716796875,6.773477554321289,-8.252363204956055,-2.9653189182281494
1778948877127798000,20.005798095703124,1.996200442314148,-6.763970375061035,-4.307104587554932
1778948877144146200,20.022146240234374,-2.6789631843566895,-5.906713485717773,-5.415877342224121
1778948877160493600,20.03849365234375,-0.8717480897903442,-3.5906457901000977,-5.401899337768555
1778948877176791600,20.05479150390625,3.2207882404327393,-0.43705272674560547,-3.4566004276275635
1778948877193124400,20.071124267578124,2.3456788063049316,0.07351398468017578,0.6809166669845581
1778948877209457700,20.087457763671875,6.9251508712768555,0.7989721298217773,5.4591522216796875
1778948877225785600,20.10378564453125,3.5555009841918945,0.4677848815917969,6.592220306396484
1778948877242119700,20.12011962890625,1.4784202575683594,-0.46991539001464844,4.747081279754639
1778948877258450000,20.136449951171876,3.3648550510406494,1.5962581634521484,2.429781436920166
1778948877274786600,20.15278662109375,7.863590240478516,3.685856819152832,1.8363031148910522
1778948877291103000,20.16910302734375,8.282842636108398,6.1779937744140625,-0.5164506435394287
1778948877307460900,20.1854609375,8.56444263458252,7.004742622375488,-2.844265937805176
1778948877323771100,20.201771240234375,8.690686225891113,7.437722206115723,-3.9757320880889893
1778948877340120300,20.218120361328126,7.45805549621582,9.504436492919922,-3.827481508255005
1778948877356433200,20.23443310546875,7.470674991607666,11.225276947021484,-3.8714864253997803
1778948877372768500,20.2507685546875,5.15352725982666,10.530517578125,-3.415532112121582
1778948877389097500,20.267097412109376,2.930337429046631,8.252847671508789,-2.4125173091888428
1778948877405429000,20.283428955078126,-3.4854073524475098,3.6335673332214355,-2.9267659187316895
1778948877421760000,20.299760009765624,-15.11246395111084,-7.182548522949219,-1.9545350074768066
1778948877438094000,20.316093994140626,-10.726731300354004,-22.440628051757812,0.9517330527305603
1778948877454423300,20.33242333984375,-16.495990753173828,-18.797428131103516,8.951623916625977
1778948877470773200,20.348773193359374,-4.770954132080078,-2.2661170959472656,7.154982089996338
1778948877487086300,20.36508642578125,0.41326451301574707,4.79469633102417,-1.4382436275482178
1778948877503428600,20.3814287109375,1.6844241619110107,10.737154960632324,-4.376330852508545
1778948877519745000,20.3977451171875,1.12419855594635,9.767529487609863,-1.7020843029022217
1778948877536084000,20.414083984375,4.4543657302856445,3.678226947784424,1.0859668254852295
1778948877552409000,20.4304091796875,17.945905685424805,-17.914878845214844,1.6120936870574951
1778948877568742400,20.446742431640626,-20.192827224731445,-37.35027313232422,1.0009746551513672
1778948877585068300,20.463068359375,4.531787872314453,-4.312649726867676,1.1200518608093262
1778948877601407500,20.479407470703126,5.806341648101807,9.61441421508789,-5.474489212036133
1778948877617735200,20.495735107421876,7.327970027923584,10.907079696655273,-5.873191833496094
1778948877634067000,20.51206689453125,9.096494674682617,6.570438385009766,-5.300804615020752
1778948877650384100,20.528384033203125,9.429115295410156,4.151330471038818,-4.331521034240723
1778948877666744600,20.54474462890625,6.698635578155518,2.6354732513427734,-3.567742109298706
1778948877683065300,20.5610654296875,5.609889030456543,-0.35883331298828125,-3.4966955184936523
1778948877699394600,20.57739453125,4.908862590789795,-2.296940803527832,-3.2851665019989014
1778948877715720700,20.593720703125,1.7072198390960693,-3.4007997512817383,-5.21735954284668
1778948877732055600,20.6100556640625,-0.23455101251602173,-7.900903701782227,-3.1891884803771973
1778948877748382500,20.626382568359375,2.0990090370178223,-3.4149370193481445,2.183896780014038
1778948877764718300,20.64271826171875,0.5283578038215637,-0.2670097351074219,5.277541160583496
1778948877781046300,20.65904638671875,1.4427825212478638,1.332707405090332,9.213194847106934
1778948877797378000,20.6753779296875,5.8163251876831055,1.4706716537475586,9.876822471618652
1778948877813710000,20.6917099609375,4.218597412109375,0.7130231857299805,7.7559051513671875
1778948877830036700,20.70803662109375,-0.12808561325073242,1.8527441024780273,5.119140625
1778948877846369300,20.724369384765627,-6.144845008850098,1.355398178100586,2.7327778339385986
1778948877862694100,20.740694091796875,-11.606738090515137,-0.3008003234863281,2.6854498386383057
1778948877879033300,20.757033447265623,-9.612617492675781,-0.838862419128418,3.142819881439209
1778948877895363800,20.77336376953125,-1.9576809406280518,0.40223026275634766,2.4270782470703125
1778948877911697400,20.789697509765624,-0.30644989013671875,0.5154933929443359,2.3885321617126465
1778948877928025300,20.806025390625,-2.1702382564544678,-0.6386327743530273,3.0696005821228027
1778948877944375300,20.822375244140623,-2.865891456604004,-0.256134033203125,3.980623245239258
1778948877960686600,20.8386865234375,-2.1312472820281982,-0.49147510528564453,3.7419519424438477
1778948877977020200,20.855020263671875,-2.2529802322387695,-1.7562618255615234,4.539435386657715
1778948877993347300,20.871347412109376,-2.3262317180633545,-1.517648696899414,7.001317977905273
