time,seconds_elapsed,z,y,x
1778948857252477200,0.130477294921875,-0.9535606503486633,-1.0543533563613892,2.699871778488159
1778948857268803000,0.146802978515625,-1.3391693830490112,-1.546558141708374,2.8035659790039062
1778948857285148400,0.1631484375,-1.6936239004135132,-1.9750800132751465,2.4077253341674805
1778948857301477000,0.17947705078125,-1.8270978927612305,-1.9851592779159546,1.9330830574035645
1778948857317807400,0.195807373046875,-1.823127269744873,-1.4117095470428467,1.1823296546936035
1778948857334125000,0.212125,-1.7107281684875488,-0.593913733959198,-0.08032877743244171
1778948857350473200,0.22847314453125,-1.507768154144287,-0.096211276948452,-1.0390818119049072
1778948857366802700,0.244802734375,-1.0711522102355957,-0.6679811477661133,-1.1064296960830688
1778948857383135200,0.26113525390625,-0.3628539443016052,-1.4645494222640991,-0.5878050923347473
1778948857399465700,0.2774658203125,0.6418666839599609,-1.244027018547058,-0.3767511546611786
1778948857415797200,0.29379736328125,0.9390525817871094,-0.8391761183738708,-0.6404922008514404
1778948857432129000,0.31012890625,1.321606993675232,-0.4584543704986572,-0.9796751141548157
1778948857448459000,0.326458984375,1.8515325784683228,-0.8275696635246277,-1.120937705039978
1778948857464792600,0.34279248046875,1.492038369178772,-1.9602665901184082,-0.7055493593215942
1778948857481123000,0.359123046875,0.8400924205780029,-3.014772653579712,0.04993823543190956
1778948857497454300,0.375454345703125,0.21044307947158813,-3.08166241645813,0.799011766910553
1778948857513784600,0.39178466796875,-0.23365595936775208,-1.963779091835022,0.3813326358795166
1778948857530117400,0.408117431640625,-0.1014036312699318,-0.9766207933425903,-0.7499898076057434
1778948857546449000,0.424448974609375,0.2744311988353729,-0.43615779280662537,-1.5990924835205078
1778948857562790100,0.4407900390625,0.5044219493865967,-0.6846272349357605,-1.7948747873306274
1778948857579098000,0.45709814453125,0.5274821519851685,-1.6235270500183105,-1.3029755353927612
1778948857595442200,0.473442138671875,0.5971207618713379,-3.0779972076416016,-0.247094988822937
1778948857611774500,0.4897744140625,0.7640396952629089,-4.761847496032715,1.1562151908874512
1778948857628106500,0.5061064453125,0.9601274728775024,-5.9785380363464355,2.3993258476257324
1778948857644426000,0.522426025390625,1.3246612548828125,-6.601009845733643,3.209944248199463
1778948857660768300,0.538768310546875,2.3438899517059326,-6.936680316925049,3.6424367427825928
1778948857677109200,0.555109130859375,3.7149770259857178,-6.5306077003479,3.6554176807403564
1778948857693446100,0.571446044921875,4.555680274963379,-5.992893695831299,3.126102924346924
1778948857709775000,0.587775146484375,4.6578474044799805,-5.325828552246094,1.9879082441329956
1778948857726121500,0.60412158203125,4.377307415008545,-4.301560401916504,0.8805622458457947
1778948857742436000,0.62043603515625,3.978259801864624,-3.227659225463867,0.7930558323860168
1778948857758757600,0.636757568359375,3.773620128631592,-2.1641428470611572,1.4340062141418457
1778948857775088000,0.653088134765625,3.7647624015808105,-1.2599095106124878,1.982105016708374
1778948857791419600,0.669419677734375,3.526219606399536,-0.6782131195068359,1.9879082441329956
1778948857807754500,0.68575439453125,3.0164525508880615,-0.5971207618713379,1.7603609561920166
1778948857824083000,0.7020830078125,2.3568708896636963,-0.38117989897727966,1.8463401794433594
1778948857840413400,0.718413330078125,1.7453947067260742,-0.0809396430850029,2.163990020751953
1778948857856745500,0.734745361328125,1.1203268766403198,0.2941316068172455,2.3637430667877197
1778948857873097500,0.751097412109375,0.5145012736320496,0.9330966472625732,2.1368067264556885
1778948857889420000,0.767419921875,0.28099802136421204,1.5717562437057495,1.722181797027588
1778948857905748700,0.783748779296875,0.285121351480484,2.291661024093628,1.3336715698242188
1778948857922073900,0.800073974609375,0.39385536313056946,2.4689645767211914,0.9674578309059143
1778948857938401300,0.8164013671875,0.5160284042358398,2.1322250366210938,1.126282811164856
1778948857954731000,0.83273095703125,0.5484042763710022,1.4217888116836548,1.4373658895492554
1778948857971063300,0.849063232421875,0.6247624158859253,1.239292860031128,1.6035212278366089
1778948857987388200,0.86538818359375,0.7041749358177185,1.04289972782135,1.5586227178573608
1778948858003733000,0.88173291015625,1.1244502067565918,-0.19624045491218567,1.274264931678772
1778948858020046600,0.898046630859375,1.0053315162658691,-0.10277807712554932,1.4827226400375366
1778948858036386800,0.91438671875,0.9990701079368591,0.5997169613838196,1.2428053617477417
1778948858052732200,0.930732177734375,1.1823296546936035,0.9863946437835693,1.0074695348739624
1778948858069054700,0.9470546875,1.4854716062545776,1.0291552543640137,0.2217440903186798
1778948858085384400,0.963384521484375,1.5373951196670532,1.3800972700119019,-0.3747658133506775
1778948858101719600,0.979719482421875,1.4972307682037354,1.894140362739563,-0.7032586336135864
1778948858118035700,0.99603564453125,1.8099937438964844,1.8380935192108154,-1.0151053667068481
1778948858134393600,1.0123935546875,2.2479841709136963,0.6149885654449463,-1.6659822463989258
1778948858150725000,1.02872509765625,2.3434317111968994,0.4193589985370636,-1.8057177066802979
1778948858167027700,1.04502783203125,1.9685132503509521,-0.016493361443281174,-1.5150985717773438
1778948858183373800,1.061373779296875,1.5567901134490967,-0.13026700913906097,-1.0374019145965576
1778948858199712000,1.0777119140625,1.993406057357788,-0.33567044138908386,-1.1896600723266602
1778948858216033000,1.094032958984375,1.9900462627410889,-0.70692378282547,-1.1606439352035522
1778948858232362800,1.11036279296875,1.8955148458480835,-1.3897184133529663,-0.865290641784668
1778948858248701700,1.12670166015625,3.59295654296875,-1.1024590730667114,-0.4150829315185547
1778948858265044000,1.1430439453125,3.3840408325195312,-1.2794572114944458,-0.2382374405860901
1778948858281361400,1.159361328125,2.643366575241089,-0.5195409059524536,-0.4980078935623169
1778948858297693700,1.175693603515625,1.868789553642273,1.2426526546478271,-0.9369145631790161
1778948858314026500,1.192026611328125,-1.0803152322769165,1.273043155670166,-1.1388055086135864
1778948858330358000,1.20835791015625,-1.1044443845748901,0.9894489645957947,-2.074345588684082
1778948858346704100,1.2247041015625,0.3459024429321289,0.6824892163276672,-1.6146695613861084
1778948858363016400,1.241016357421875,0.36682456731796265,-1.2467759847640991,-1.5082262754440308
1778948858379353900,1.257353759765625,0.47510045766830444,-1.7881553173065186,-1.8012888431549072
1778948858395683800,1.273683837890625,0.5493205785751343,-1.7670804262161255,-2.166586399078369
1778948858412008400,1.290008544921875,0.523511528968811,-1.991878867149353,-2.300060272216797
1778948858428352000,1.30635205078125,0.4616613984107971,-2.4946210384368896,-1.8777997493743896
1778948858444676000,1.322676025390625,0.708450973033905,-3.0827314853668213,-1.1725558042526245
1778948858461011700,1.33901171875,0.8304712772369385,-3.1836769580841064,-0.37339138984680176
1778948858477338600,1.355338623046875,1.0219775438308716,-3.056617021560669,-0.15057829022407532
1778948858493677800,1.371677734375,1.2119566202163696,-2.8124237060546875,-0.5765040516853333
1778948858510007000,1.388007080078125,1.0137308835983276,-2.465452194213867,-0.7235698699951172
1778948858526335500,1.40433544921875,1.123533844947815,-1.9792033433914185,-1.2139419317245483
1778948858542653400,1.4206533203125,1.2119566202163696,-1.8623753786087036,-1.863444447517395
1778948858558985200,1.436985107421875,1.1766791343688965,-0.9017898440361023,-1.6948456764221191
1778948858575320800,1.45332080078125,0.940121591091156,0.40882155299186707,-1.3895657062530518
1778948858591659800,1.46965966796875,0.33169981837272644,0.46303585171699524,-1.5851953029632568
1778948858607994400,1.485994384765625,-0.3171917796134949,0.3956879675388336,-1.277471899986267
1778948858624324000,1.502323974609375,0.4024074673652649,-0.6241515874862671,-0.9135489463806152
1778948858640656400,1.518656494140625,1.4395039081573486,-1.697441816329956,-0.3738495409488678
1778948858656987000,1.53498681640625,1.690264105796814,-1.5708400011062622,0.22113321721553802
1778948858673318100,1.551318115234375,0.9993755221366882,-1.6777414083480835,0.36071592569351196
1778948858689651700,1.567651611328125,0.48609602451324463,-1.871996521949768,0.5451972484588623
1778948858705981000,1.58398095703125,0.34086281061172485,-1.7843374013900757,0.8706356883049011
1778948858722329000,1.6003291015625,0.6200281977653503,-1.3904820680618286,1.1548407077789307
1778948858738645800,1.616645751953125,1.1779009103775024,-1.0453431606292725,1.3909401893615723
1778948858754979000,1.63297900390625,1.637271523475647,-0.9024006724357605,1.7371480464935303
1778948858771303200,1.64930322265625,1.422552466392517,-0.8729264140129089,1.9605720043182373
1778948858787642000,1.66564208984375,1.0528262853622437,-0.8996517658233643,1.9827158451080322
1778948858803966700,1.681966796875,0.8150469660758972,-1.0175487995147705,1.2373075485229492
1778948858820304100,1.69830419921875,0.6638578176498413,0.0013744467869400978,0.22098049521446228
1778948858836632600,1.714632568359375,0.19074267148971558,0.299476683139801,-1.1391109228134155
1778948858852964000,1.730964111328125,-0.7530441284179688,-0.5760459303855896,-1.4382822513580322
1778948858869307100,1.74730712890625,-0.8242099285125732,-1.006400465965271,-0.5239696502685547
1778948858885633500,1.763633544921875,-0.31062498688697815,-0.5560401082038879,-0.45555275678634644
1778948858901972700,1.77997265625,-0.34926220774650574,0.16554448008537292,-0.518471896648407
1778948858918297900,1.7962978515625,-0.2871066629886627,1.1485793590545654,-0.1336267739534378
1778948858934625800,1.812625732421875,0.03084869496524334,2.9892690181732178,0.7884743213653564
1778948858950954200,1.828954345703125,0.46013423800468445,2.1545217037200928,0.4804455041885376
1778948858967284500,1.845284423828125,0.2513710558414459,1.8920023441314697,0.08170322328805923
1778948858983615700,1.86161572265625,0.327729195356369,0.7617489695549011,-0.0074830991216003895
1778948858999946000,1.877946044921875,0.5577199459075928,-0.9332493543624878,-0.007941247895359993
1778948859016279000,1.894279052734375,0.7194465398788452,-1.1716395616531372,0.9387471675872803
1778948859032609500,1.910609619140625,0.6400340795516968,-0.8767443299293518,2.168724298477173
1778948859048940800,1.92694091796875,0.028557950630784035,-0.9246972799301147,2.5138630867004395
1778948859065326800,1.943326904296875,-1.1140655279159546,-1.8118263483047485,1.739438772201538
1778948859081622500,1.95962255859375,-1.2348641157150269,-1.8929187059402466,0.5192354321479797
1778948859097946000,1.975946044921875,0.08139779418706894,0.0809396430850029,1.388802170753479
1778948859114275800,1.99227587890625,0.9865473508834839,1.3946053981781006,3.425121545791626
1778948859130598000,2.008597900390625,1.6206254959106445,1.0118982791900635,3.0072896480560303
1778948859146927600,2.024927734375,1.8402315378189087,-0.09926560521125793,1.800678014755249
1778948859163252200,2.041252197265625,2.412154197692871,-0.5265658497810364,1.2278391122817993
1778948859179583500,2.05758349609375,2.8432722091674805,0.12263119965791702,0.8730791807174683
1778948859195924500,2.073924560546875,1.1155925989151,0.9118691086769104,1.5541938543319702
1778948859212256300,2.09025634765625,0.49037206172943115,2.3941335678100586,2.4471261501312256
1778948859228573400,2.106573486328125,0.07284568250179291,2.473546028137207,2.0783162117004395
1778948859244922600,2.122922607421875,0.1437060534954071,1.547932505607605,0.7626652717590332
1778948859261250000,2.13925,0.35124751925468445,1.126588225364685,-0.06963863968849182
1778948859277583000,2.1555830078125,0.4550946056842804,1.3029755353927612,-0.27809640765190125
1778948859293911800,2.171911865234375,0.5752823352813721,1.5766432285308838,-0.29794952273368835
1778948859310245400,2.188245361328125,0.6861543655395508,1.8263343572616577,-0.17241671681404114
1778948859326576000,2.204576171875,0.7870998978614807,1.8040378093719482,-0.056352317333221436
1778948859342907400,2.220907470703125,0.879187822341919,1.332755208015442,0.08750644326210022
1778948859359239200,2.2372392578125,0.8072584271430969,0.44486260414123535,0.3680463135242462
1778948859375571200,2.2535712890625,0.5500841736793518,-0.45433104038238525,0.7116580009460449
1778948859391898000,2.269898193359375,0.31673362851142883,-0.8338310718536377,1.0083857774734497
1778948859408237000,2.286237060546875,0.20143280923366547,-0.5209153294563293,1.2713632583618164
1778948859424562700,2.302562744140625,-0.014202617108821869,0.13637566566467285,1.3422236442565918
1778948859440913400,2.318913330078125,-0.1693623960018158,0.483957976102829,0.7295258045196533
1778948859457244400,2.335244384765625,-0.08720101416110992,-0.20616702735424042,-0.5274821519851685
1778948859473562400,2.351562255859375,-0.09178250283002853,-0.8443684577941895,-1.3190107345581055
1778948859489900300,2.367900390625,-0.40485092997550964,-1.2475395202636719,-1.4697418212890625
1778948859506208800,2.384208740234375,-0.7883216142654419,-1.7869335412979126,-1.8058704137802124
1778948859522554600,2.4005546875,-1.0314459800720215,-1.9714148044586182,-2.419942617416382
1778948859538884400,2.41688427734375,-1.2232576608657837,-1.9362901449203491,-2.707813024520874
1778948859555214300,2.43321435546875,-1.3487904071807861,-1.8347337245941162,-2.663067102432251
1778948859571548400,2.44954833984375,-1.1630873680114746,-1.5919147729873657,-2.5613579750061035
1778948859587879400,2.46587939453125,-0.7970264554023743,-1.1812607049942017,-2.4969117641448975
1778948859604211500,2.48221142578125,-0.47051894664764404,-0.6221662759780884,-2.560441732406616
1778948859620542000,2.4985419921875,-0.2220495194196701,-0.22800545394420624,-2.4628560543060303
1778948859636891000,2.514890869140625,-0.15363261103630066,0.09773843735456467,-2.208583354949951
1778948859653208300,2.531208251953125,-0.3706424832344055,0.33918291330337524,-1.9895881414413452
1778948859669547300,2.54754736328125,-0.6201809644699097,0.5850561857223511,-2.0079140663146973
1778948859685869000,2.563869140625,-0.6568328738212585,0.5007568001747131,-1.9822577238082886
1778948859702206700,2.580206787109375,-0.5722280144691467,0.0708603709936142,-1.8854355812072754
1778948859718520600,2.5965205078125,-0.8020660877227783,-1.93598473072052,-0.9920451641082764
1778948859734850800,2.612850830078125,-1.1293370723724365,-2.3267858028411865,-0.8286387324333191
1778948859751192000,2.629192138671875,-1.3981177806854248,-2.510045289993286,-0.6520986557006836
1778948859767526000,2.64552587890625,-1.6059647798538208,-2.9127581119537354,-0.5656611919403076
1778948859783845600,2.661845703125,-1.4046846628189087,-3.1511483192443848,-0.5951354503631592
1778948859800189000,2.67818896484375,-1.1447614431381226,-3.3896913528442383,-0.4268420934677124
1778948859816504000,2.694504150390625,-0.7738135457038879,-3.250108480453491,-0.23258693516254425
1778948859832867600,2.71086767578125,-0.4665483236312866,-3.1308372020721436,0.0630718395113945
1778948859849180000,2.727179931640625,-0.22159136831760406,-2.6419920921325684,0.41340306401252747
1778948859865510000,2.743510009765625,0.01038470957428217,-1.9631681442260742,0.9204211831092834
1778948859881844000,2.759843994140625,0.3165809214115143,-1.4448490142822266,1.3897184133529663
1778948859898162000,2.776161865234375,0.5795583724975586,-0.8817839622497559,1.733482837677002
1778948859914508300,2.79250830078125,0.7877107262611389,-0.5230533480644226,1.920560359954834
1778948859930841300,2.80884130859375,1.153160810470581,-0.29474249482154846,1.1859948635101318
1778948859947170000,2.825170166015625,1.0505355596542358,0.8585711121559143,-0.08460483700037003
1778948859963503900,2.84150390625,-0.5697845816612244,-0.2050980031490326,-0.36132678389549255
1778948859979833900,2.857833740234375,-0.8210029006004333,-1.5644259452819824,-0.788627028465271
1778948859996166100,2.874166259765625,-0.8594874143600464,-1.8643606901168823,-0.8046622276306152
1778948860012498200,2.890498291015625,-0.679740309715271,-0.9946413636207581,-0.44852781295776367
1778948860028832500,2.90683251953125,-0.29245173931121826,0.15042556822299957,-0.14294247329235077
1778948860045172700,2.9231728515625,-0.15546520054340363,0.446389764547348,-0.1258382350206375
1778948860061478000,2.939477783203125,0.12568552792072296,1.1088731288909912,-0.35262197256088257
1778948860077821400,2.955821533203125,0.3550654351711273,1.9274325370788574,-0.4352414906024933
1778948860094139000,2.972138916015625,0.08949175477027893,2.431701898574829,-0.5204572081565857
1778948860118653400,2.9966533203125,-0.12782354652881622,2.925281047821045,0.5141957998275757
1778948860135008500,3.013008544921875,0.4579962193965912,2.887254476547241,0.9569203853607178
1778948860151313000,3.02931298828125,1.4865405559539795,3.589444160461426,1.1308642625808716
1778948860167623200,3.045623046875,2.339919328689575,3.8814377784729004,1.5625933408737183
1778948860183977700,3.061977783203125,2.8325822353363037,3.04852294921875,2.0499110221862793
1778948860200307500,3.078307373046875,2.7844765186309814,1.2308934926986694,1.761888027191162
1778948860216647400,3.0946474609375,1.8981109857559204,-2.621680974960327,0.6766859889030457
1778948860232970800,3.110970703125,0.7733554244041443,-5.120883464813232,0.6633996367454529
1778948860249298000,3.1272978515625,-0.2054034322500229,-6.262132167816162,2.7001771926879883
1778948860265636600,3.14363671875,-0.5218316316604614,-3.702301502227783,4.517959117889404
1778948860281963800,3.1599638671875,-0.5818491578102112,1.7087428569793701,3.6784777641296387
1778948860298289700,3.17628955078125,-0.6656904220581055,3.503617525100708,2.2397375106811523
1778948860314633500,3.192633544921875,-0.7658722996711731,2.948035717010498,1.5222761631011963
1778948860330956000,3.2089560546875,-0.6620252132415771,2.3206770420074463,1.2234103679656982
1778948860347292700,3.225292724609375,-0.6310238242149353,2.6262624263763428,1.0140362977981567
1778948860363624200,3.241624267578125,-0.24404066801071167,2.9750664234161377,1.0651962757110596
1778948860379956000,3.2579560546875,0.22128593921661377,2.328618288040161,1.3173309564590454
1778948860396286200,3.2742861328125,0.6250678896903992,0.4579962193965912,1.4621059894561768
1778948860412618500,3.290618408203125,0.8414669036865234,-0.3608686327934265,1.0009026527404785
1778948860428952800,3.306952880859375,0.874453604221344,0.45982882380485535,0.3715587854385376
1778948860445277000,3.32327685546875,0.8060367107391357,1.4692835807800293,-0.04566217586398125
1778948860461602800,3.339602783203125,0.6452264189720154,1.877036213874817,-0.14645494520664215
1778948860477930200,3.35593017578125,0.4505131244659424,1.772578239440918,0.012980886735022068
1778948860494275600,3.372275634765625,0.3927863538265228,1.081842303276062,0.11285735666751862
1778948860510605000,3.38860498046875,0.3098613917827606,-0.40026944875717163,0.06902777403593063
1778948860526943500,3.404943603515625,0.0529925599694252,-0.6392704844474792,0.609338104724884
1778948860543270400,3.4212705078125,-0.16310101747512817,0.4879286289215088,1.1157454252243042
1778948860559591700,3.437591796875,-0.09025534242391586,1.0525208711624146,1.0334312915802002
1778948860575933000,3.453932861328125,0.08017606288194656,-0.04566217586398125,0.394008070230484
1778948860592251000,3.4702509765625,0.16279558837413788,-0.8210029006004333,-0.651029646396637
1778948860608582400,3.48658251953125,-0.16340644657611847,-0.640644907951355,-1.1684324741363525
1778948860624932900,3.502932861328125,-0.7935139536857605,-1.0152580738067627,-1.4460707902908325
1778948860641259300,3.51925927734375,-1.027169942855835,-1.698510766029358,-1.9158260822296143
1778948860657590500,3.535590576171875,-1.0932960510253906,-2.263713836669922,-2.567924737930298
1778948860673918000,3.55191796875,-1.0546588897705078,-2.3932173252105713,-3.081509828567505
1778948860690257200,3.568257080078125,-1.1965322494506836,-1.966986060142517,-2.8539624214172363
1778948860706584800,3.584584716796875,-1.0051788091659546,-1.105513334274292,-2.6503915786743164
1778948860722914800,3.600914794921875,-0.5496259927749634,-0.009773843921720982,-2.7656924724578857
1778948860739247600,3.61724755859375,-0.2194533348083496,0.4720461070537567,-2.671619176864624
1778948860755577300,3.633577392578125,-0.12629638612270355,0.04337143152952194,-2.11588454246521
1778948860771911200,3.6499111328125,-0.34956762194633484,-0.4870123267173767,-1.6865988969802856
1778948860788239600,3.666239501953125,-0.7032586336135864,-0.25763240456581116,-1.7331774234771729
1778948860804574500,3.682574462890625,-0.5838344693183899,0.813825249671936,-1.9784398078918457
1778948860820900900,3.69890087890625,-0.41263946890830994,1.492343783378601,-2.059837579727173
1778948860837238000,3.715238037109375,-0.801913321018219,-1.0456485748291016,-0.8436049222946167
1778948860853567500,3.7315673828125,-1.244943380355835,-2.344959020614624,-0.42088615894317627
1778948860869886500,3.747886474609375,-1.4584407806396484,-2.4168882369995117,-0.7136433124542236
1778948860886230000,3.76422998046875,-1.5184582471847534,-2.690556049346924,-0.7765624523162842
1778948860902546400,3.78054638671875,-1.327257513999939,-3.3599116802215576,-0.8691084980964661
1778948860918897700,3.796897705078125,-1.0381654500961304,-3.9300014972686768,-0.8732318878173828
1778948860935224000,3.81322412109375,-0.6991352438926697,-3.7151296138763428,-0.6820310354232788
1778948860951556600,3.829556640625,-0.5193881988525391,-3.3484578132629395,-0.3604104816913605
1778948860967887400,3.845887451171875,-0.40485092997550964,-3.0921998023986816,-0.02626720629632473
1778948860984219600,3.8622197265625,-0.17180584371089935,-2.7511844635009766,0.38957929611206055
1778948861000552000,3.878552001953125,-0.026419922709465027,-2.1426098346710205,0.8797986507415771
1778948861016882400,3.89488232421875,0.17608191072940826,-1.5708400011062622,1.3810136318206787
1778948861033214700,3.911214599609375,0.28466320037841797,-0.8121453523635864,1.6279559135437012
1778948861049545500,3.92754541015625,0.3724750876426697,-0.4167627990245819,1.5399912595748901
1778948861065877500,3.94387744140625,0.7973318696022034,-0.2840523421764374,0.16019940376281738
1778948861082226700,3.960226806640625,0.3240640163421631,-0.3646865487098694,-0.1797471046447754
1778948861098540800,3.976540771484375,-0.2041817009449005,-0.546571671962738,-0.4392121136188507
1778948861114863400,3.99286328125,-0.4434881806373596,-1.3220651149749756,-0.7371616363525391
1778948861131206000,4.009205810546875,-0.7348709106445312,-2.2479841709136963,-0.7913759350776672
1778948861147531800,4.02553173828125,-0.741895854473114,-2.233017921447754,-0.5169447064399719
1778948861163865000,4.041864990234375,-0.5974262356758118,-1.3087787628173828,-0.008246680721640587
1778948861180183800,4.058183837890625,-0.39477166533470154,-0.21105393767356873,0.5059491395950317
1778948861196528000,4.074528076171875,-0.023976460099220276,1.295186996459961,0.5684100985527039
1778948861212870000,4.090869873046875,0.6467535495758057,2.7794368267059326,0.05619960278272629
1778948861229191700,4.107191650390625,0.3352122902870178,1.6146695613861084,-1.0482447147369385
1778948861245516800,4.123516845703125,-0.36911532282829285,2.0674734115600586,-0.8213083148002625
1778948861261855700,4.139855712890625,-0.5290092825889587,1.9892827272415161,-0.06780604273080826
1778948861278171000,4.1561708984375,-0.35873061418533325,2.191937208175659,0.7611380815505981
1778948861294518000,4.17251806640625,0.6557638645172119,3.403282880783081,1.2870930433273315
1778948861310850300,4.188850341796875,1.9611828327178955,4.4035749435424805,1.5387696027755737
1778948861327166700,4.205166748046875,2.699108123779297,4.313930511474609,1.9848538637161255
1778948861343513300,4.221513427734375,3.088076591491699,3.7313175201416016,2.2873849868774414
1778948861359842000,4.237842041015625,2.9413161277770996,2.2817344665527344,1.9266690015792847
1778948861376174800,4.2541748046875,1.9065104722976685,-2.143526077270508,0.6239988207817078
1778948861392503600,4.270503662109375,0.4308127164840698,-5.5399370193481445,1.7750216722488403
1778948861408859000,4.28685888671875,-0.394618958234787,-5.247332572937012,4.500854969024658
1778948861425185300,4.303185302734375,-0.168751522898674,-0.17821992933750153,4.070958614349365
1778948861441515300,4.319515380859375,-0.4308127164840698,2.0948095321655273,2.0282254219055176
1778948861457845800,4.335845703125,-0.8576548099517822,1.4651602506637573,0.9660834074020386
1778948861474176500,4.352176513671875,-0.9621127843856812,0.6846272349357605,0.9248499870300293
1778948861490502100,4.368502197265625,-0.9396634697914124,1.7599027156829834,0.854905903339386
1778948861506822100,4.384822265625,-0.9251554012298584,3.3901493549346924,0.9549350738525391
1778948861523158500,4.401158447265625,-0.4190535545349121,4.543004989624023,1.578781247138977
1778948861539490000,4.417489990234375,0.6716463565826416,2.864194393157959,2.154674530029297
1778948861555820800,4.43382080078125,0.979827880859375,-1.5972598791122437,1.3490959405899048
1778948861572152600,4.450152587890625,1.129489779472351,-2.255620002746582,0.6108652353286743
1778948861588484600,4.466484619140625,1.117730736732483,-0.4251621961593628,0.3182607889175415
1778948861604842500,4.482842529296875,0.8900306820869446,1.0680978298187256,0.1719585657119751
1778948861621154000,4.499154052734375,0.5978843569755554,1.556179165840149,0.18448130786418915
1778948861637483500,4.5154833984375,0.43905940651893616,1.5477797985076904,0.4095851480960846
1778948861653802500,4.531802490234375,0.3520110845565796,1.2585351467132568,0.5820018649101257
1778948861670138600,4.548138671875,0.3568980097770691,1.3060299158096313,0.6682865619659424
1778948861686461000,4.5644609375,0.24404066801071167,0.21013765037059784,0.6826419234275818
1778948861702804500,4.580804443359375,0.1618792861700058,-1.1775954961776733,0.6754642724990845
1778948861719144700,4.597144775390625,-0.03787364438176155,-0.3674354553222656,0.038637228310108185
1778948861735466000,4.613466064453125,-0.3147483170032501,0.02382374368607998,-0.8666650652885437
1778948861751799800,4.6297998046875,-0.7932085394859314,-1.100015640258789,-1.370781660079956
1778948861768132000,4.646132080078125,-1.289994716644287,-2.141082763671875,-1.8771889209747314
1778948861784463400,4.66246337890625,-1.4888312816619873,-2.4915666580200195,-2.682767391204834
1778948861800806100,4.67880615234375,-1.4020884037017822,-2.426356792449951,-3.316845655441284
1778948861817137000,4.695136962890625,-1.4480561017990112,-1.6965254545211792,-3.224604845046997
1778948861833454600,4.71145458984375,-1.3406964540481567,-0.9195048809051514,-2.953991651535034
1778948861849798100,4.727798095703125,-0.8726209998130798,0.08277224004268646,-2.9801061153411865
1778948861866139000,4.744138916015625,-0.09422596544027328,1.0323622226715088,-2.839454412460327
1778948861882464300,4.76046435546875,0.4867068827152252,0.5143485069274902,-2.2550089359283447
1778948861898779100,4.776779052734375,0.48747047781944275,-0.5601634383201599,-1.6704109907150269
1778948861915112700,4.79311279296875,-0.14019356667995453,-0.6374378800392151,-1.7765488624572754
1778948861931441400,4.80944140625,-0.4694499373435974,-0.1595885455608368,-2.1041252613067627
1778948861947779600,4.825779541015625,-0.17180584371089935,0.1976149082183838,-2.0974059104919434
1778948861964108800,4.84210888671875,-0.6285803318023682,-1.6071864366531372,-0.8917105197906494
1778948861980440300,4.8584404296875,-1.1276572942733765,-1.758681058883667,-0.6317873597145081
1778948861996787000,4.874786865234375,-1.3416128158569336,-1.4815009832382202,-0.7379252314567566
1778948862013114000,4.891114013671875,-1.6436856985092163,-1.868789553642273,-0.6774495840072632
1778948862029435100,4.90743505859375,-1.7035504579544067,-3.0836477279663086,-0.7548767328262329
1778948862045764900,4.923764892578125,-1.3448197841644287,-3.6813793182373047,-0.8119926452636719
1778948862062096400,4.940096435546875,-1.0319041013717651,-3.58486270904541,-0.5716171264648438
1778948862078433000,4.95643310546875,-0.8391761183738708,-3.528204917907715,-0.1713477075099945
1778948862094760700,4.9727607421875,-0.5314527750015259,-3.517056703567505,0.3735440969467163
1778948862111094500,4.989094482421875,-0.2646573781967163,-2.9688050746917725,0.9511171579360962
1778948862127423700,5.005423828125,-0.03436116874217987,-2.437505006790161,1.4811954498291016
1778948862143750100,5.021750244140625,0.24892759323120117,-1.9243782758712769,1.906968593597412
1778948862160091400,5.03809130859375,0.35292738676071167,-1.2067643404006958,2.0057759284973145
1778948862176417500,5.05441748046875,0.7852672934532166,-0.5108360648155212,0.5453499555587769
1778948862192748500,5.07074853515625,0.4095851480960846,0.3439171314239502,-0.5581781268119812
1778948862209081300,5.087081298828125,-0.7519751191139221,-0.42989641427993774,-0.5671883821487427
1778948862225411000,5.1034111328125,-0.7157813310623169,-2.2117903232574463,-0.9616546034812927
1778948862241743600,5.11974365234375,-0.7826710939407349,-2.6204590797424316,-1.1398745775222778
1778948862258062600,5.1360625,-0.8168795704841614,-2.1901047229766846,-0.8422304391860962
1778948862274405000,5.152405029296875,-0.8208501935005188,-0.4381431043148041,-0.06994406878948212
1778948862290726400,5.168726318359375,-0.8539896011352539,1.2049317359924316,0.8000807762145996
1778948862307070500,5.185070556640625,-0.0074830991216003895,3.450472354888916,1.0227410793304443
1778948862323400200,5.201400146484375,0.7915286421775818,2.945439577102661,-0.6953173875808716
1778948862339733000,5.21773291015625,-0.22220222651958466,1.4314099550247192,-1.1968377828598022
1778948862356064300,5.234064208984375,-0.6737843751907349,1.1148290634155273,-0.6592763066291809
1778948862372395800,5.250395751953125,-0.47082439064979553,1.4840971231460571,0.2102903574705124
1778948862388714200,5.26671435546875,0.5381723046302795,2.621680974960327,1.1846203804016113
1778948862405058000,5.28305810546875,1.6244434118270874,3.9933788776397705,2.0054705142974854
1778948862421390000,5.29939013671875,2.1904101371765137,4.220620632171631,2.766455888748169
1778948862437720800,5.315720947265625,3.0256154537200928,4.6326494216918945,2.9689579010009766
1778948862454081500,5.33208154296875,3.333491563796997,3.8657078742980957,2.645962715148926
1778948862470392000,5.34839208984375,2.1952970027923584,-0.7203628420829773,1.1895073652267456
1778948862486713900,5.3647138671875,1.3457361459732056,-4.961905479431152,0.05864306539297104
1778948862503047700,5.381047607421875,0.22999076545238495,-6.396522521972656,1.292590856552124
1778948862519379500,5.39737939453125,-0.4271475374698639,-5.238933086395264,4.224743843078613
1778948862535713500,5.413713623046875,-0.24755313992500305,-0.048105638474226,4.330118179321289
1778948862552028000,5.43002783203125,-0.2396118938922882,3.249803066253662,2.2988386154174805
1778948862568372200,5.446372314453125,-0.5899431109428406,3.83272123336792,1.4057536125183105
1778948862584717800,5.4627177734375,-0.7588473558425903,3.453221321105957,1.521665334701538
1778948862601054700,5.4790546875,-0.4662429094314575,2.6981918811798096,1.4379768371582031
1778948862617380900,5.495380859375,-0.2217440903186798,1.7718145847320557,1.0719157457351685
1778948862633697300,5.511697265625,0.0682641938328743,1.5714508295059204,0.8243626356124878
1778948862650027300,5.52802734375,0.33047810196876526,1.4576772451400757,0.5387831330299377
1778948862666363000,5.54436279296875,0.4815145432949066,1.5309810638427734,0.2883284091949463
1778948862682694400,5.5606943359375,0.4124867618083954,1.6774359941482544,0.06765332818031311
1778948862699026000,5.57702587890625,0.2912299931049347,1.4350751638412476,0.02825251780450344
1778948862715354000,5.59335400390625,0.2483167201280594,0.9066767692565918,0.4329507350921631
1778948862731681800,5.609681884765625,0.32391130924224854,0.18738290667533875,0.8336783647537231
1778948862748023300,5.626023193359375,0.242513507604599,-0.29245173931121826,0.7991644740104675
1778948862764344000,5.642343994140625,0.14706580340862274,0.27000242471694946,0.7215845584869385
1778948862780685300,5.658685302734375,0.1563815027475357,0.3098613917827606,0.49556443095207214
1778948862797033200,5.675033203125,-0.08124507963657379,-0.30894508957862854,0.37720927596092224
1778948862813359400,5.691359375,-0.19058994948863983,0.14156801998615265,-0.06688974797725677
1778948862829689600,5.707689697265625,-0.2816088795661926,0.023518312722444534,-0.8909469842910767
1778948862846008800,5.7240087890625,-0.45295658707618713,-1.034500241279602,-1.7289013862609863
1778948862862352600,5.7403525390625,-0.8633053302764893,-0.9506590366363525,-2.4411702156066895
1778948862878667300,5.756667236328125,-1.3100005388259888,-0.9964739084243774,-2.8345675468444824
1778948862895010300,5.77301025390625,-1.459815263748169,-2.3351850509643555,-2.8826730251312256
1778948862911335000,5.7893349609375,-1.3700180053710938,-3.0301971435546875,-2.774702548980713
1778948862927663600,5.80566357421875,-1.0445796251296997,-1.1914926767349243,-2.576324224472046
1778948862943988000,5.821988037109375,-0.6780604124069214,0.8133670687675476,-2.713310718536377
1778948862960328400,5.838328369140625,-0.2929098904132843,1.8072447776794434,-2.741257905960083
1778948862976660200,5.85466015625,-0.15745051205158234,0.9535606503486633,-2.3177754878997803
1778948862992991500,5.870991455078125,-0.052381694316864014,-0.4297437071800232,-1.7223345041275024
1778948863009323800,5.88732373046875,-0.24617868661880493,-1.2690725326538086,-1.5322027206420898
1778948863025654300,5.903654296875,-0.4917465150356293,-0.8483390808105469,-1.7017178535461426
1778948863042004500,5.92000439453125,-0.46563202142715454,0.4824308156967163,-1.872912883758545
1778948863058315800,5.936315673828125,-0.2866485118865967,1.217454433441162,-1.7768542766571045
1778948863074648300,5.9526484375,-0.6296493411064148,-1.2811371088027954,-0.6606507897377014
1778948863090981600,5.968981689453125,-1.0294606685638428,-2.2463042736053467,-0.5917757153511047
1778948863107313200,5.985313232421875,-1.2258538007736206,-2.3322834968566895,-0.9207266569137573
1778948863123652000,6.001652099609375,-1.5178474187850952,-2.328007459640503,-0.7180721163749695
1778948863139976200,6.01797607421875,-1.6076445579528809,-3.01202392578125,-0.5360342264175415
1778948863156306200,6.03430615234375,-1.2501357793807983,-3.5301902294158936,-0.6107125282287598
1778948863172643600,6.0506435546875,-0.8628471493721008,-3.3539557456970215,-0.42271876335144043
1778948863188970200,6.06697021484375,-0.6239988207817078,-3.322648763656616,0.005345070734620094
1778948863205300000,6.083300048828125,-0.3399465084075928,-2.791654109954834,0.42928555607795715
1778948863221634600,6.099634521484375,-0.036193765699863434,-2.2062926292419434,0.9024006724357605
1778948863237962200,6.115962158203125,0.23594669997692108,-1.567785620689392,1.40269935131073
1778948863254296600,6.132296630859375,0.49327367544174194,-0.827111542224884,1.7592918872833252
1778948863270632200,6.148632080078125,0.7961101531982422,-0.4167627990245819,1.3112221956253052
1778948863286958600,6.16495849609375,0.5239696502685547,0.8063421249389648,-0.17043140530586243
1778948863303277300,6.18127734375,-0.70692378282547,-0.08735372871160507,-0.04108068719506264
1778948863319624000,6.1976240234375,-0.8480336666107178,-2.0453295707702637,-0.4057672321796417
1778948863335939800,6.21393994140625,-0.7631233930587769,-2.3802363872528076,-0.8371908068656921
1778948863352285400,6.230285400390625,-0.779464066028595,-2.1488711833953857,-0.7935139536857605
1778948863368619500,6.24661962890625,-0.6827946305274963,-1.2759448289871216,-0.3695734739303589
1778948863384960300,6.262960205078125,-0.7559457421302795,0.5233588218688965,0.42149701714515686
1778948863401288700,6.279288818359375,-0.5557346343994141,2.4332289695739746,1.212720274925232
1778948863417630000,6.2956298828125,0.875064492225647,4.433354377746582,1.0998629331588745
1778948863433946000,6.311946044921875,1.2870930433273315,1.608102798461914,-0.4512766897678375
1778948863450296600,6.328296630859375,-0.07513642311096191,1.5774067640304565,-0.4720461070537567
1778948863466590000,6.34458984375,-0.5207626223564148,1.0571023225784302,-0.1950187236070633
1778948863482934800,6.360934814453125,-0.29626965522766113,0.9941831827163696,0.21044307947158813
1778948863499270400,6.3772705078125,0.5199990272521973,1.3406964540481567,1.096961259841919
1778948863515602200,6.393602294921875,1.236696720123291,1.7423404455184937,1.814269781112671
1778948863531937300,6.409937255859375,1.867567777633667,2.635730743408203,2.1679606437683105
1778948863548263400,6.426263427734375,2.7936394214630127,3.58486270904541,2.3576343059539795
1778948863564611800,6.44261181640625,2.135737657546997,1.1696542501449585,1.7756325006484985
1778948863580920300,6.45892041015625,1.2965614795684814,-2.6204590797424316,0.8197811841964722
1778948863597257700,6.4752578125,0.48319441080093384,-4.280638217926025,0.9265298843383789
1778948863613592000,6.491592041015625,-0.13530665636062622,-4.831485748291016,2.780200481414795
1778948863629927400,6.507927490234375,-0.285121351480484,-3.210402250289917,3.9370265007019043
1778948863646252800,6.524252685546875,-0.28649580478668213,0.7067710757255554,3.0440943241119385
1778948863662570800,6.54057080078125,-0.28038713335990906,2.7682886123657227,1.6884315013885498
1778948863678906000,6.556906005859375,-0.5493205785751343,3.029128074645996,1.310611367225647
1778948863695245300,6.573245361328125,-0.5795583724975586,2.5842654705047607,1.4275920391082764
1778948863711578000,6.589578125,-0.6009386777877808,2.126727342605591,1.2935070991516113
1778948863727906300,6.60590625,-0.15577064454555511,1.8185458183288574,1.112385630607605
1778948863744244500,6.622244384765625,0.2252565622329712,1.3103059530258179,0.759305477142334
1778948863760573400,6.638573486328125,0.5048801302909851,1.2819007635116577,0.44745880365371704
1778948863776921600,6.654921630859375,0.8970556259155273,1.69148588180542,0.18509216606616974
1778948863793247200,6.671247314453125,1.0151053667068481,1.423926830291748,0.08460483700037003
1778948863809582300,6.687582275390625,0.6650795340538025,0.6898195743560791,0.2454151064157486
1778948863825904400,6.703904296875,0.28496864438056946,0.12629638612270355,0.5293147563934326
1778948863842250000,6.72025,0.152105450630188,0.09453139454126358,0.7545713186264038
1778948863858560300,6.736560302734375,0.08918632566928864,0.342237263917923,1.0329731702804565
1778948863874893000,6.75289306640625,0.023365596309304237,0.8127561807632446,1.071763038635254
1778948863891224300,6.769224365234375,-0.056810468435287476,0.6247624158859253,0.6101016402244568
1778948863907558100,6.78555810546875,-0.04260785132646561,-0.17760907113552094,-0.25244006514549255
1778948863923884800,6.801884765625,-0.235030397772789,0.01114829070866108,-0.8452847599983215
1778948863940219100,6.81821923828125,-0.6009386777877808,0.28756481409072876,-1.092837929725647
1778948863956552200,6.83455224609375,-0.8306240439414978,-0.555429220199585,-1.6493362188339233
1778948863972897300,6.850897216796875,-1.0592403411865234,-1.250899314880371,-2.39520263671875
1778948863989225200,6.86722509765625,-1.291063666343689,-1.36650550365448,-2.825098991394043
1778948864005544400,6.88354443359375,-1.3005321025848389,-2.012190103530884,-2.975830078125
1778948864021890300,6.899890380859375,-1.225395679473877,-2.838996171951294,-2.8489227294921875
1778948864038220300,6.91622021484375,-0.978606104850769,-1.4521794319152832,-2.6426031589508057
1778948864054536700,6.93253662109375,-0.5432119369506836,0.7299839854240417,-2.6933047771453857
1778948864070872000,6.9488720703125,-0.09437867999076843,1.7971655130386353,-2.593733787536621
1778948864087201500,6.965201416015625,-0.020463986322283745,1.0183123350143433,-2.0951151847839355
1778948864103520800,6.981520751953125,-0.13545936346054077,-0.15485434234142303,-1.5800029039382935
1778948864119865900,6.997865966796875,-0.38240164518356323,-0.8552113175392151,-1.462716817855835
1778948864136197000,7.014197021484375,-0.4121813178062439,-0.5829181671142578,-1.6380351781845093
1778948864152528400,7.0305283203125,-0.3448334336280823,0.4329507350921631,-1.7554739713668823
1778948864168859100,7.046859130859375,-0.31749722361564636,0.6768386960029602,-1.602146863937378
1778948864185189400,7.063189453125,-0.6899722814559937,-1.0386236906051636,-0.8533787727355957
1778948864201509600,7.079509521484375,-1.0584768056869507,-1.8762725591659546,-0.4977024495601654
1778948864217854200,7.095854248046875,-1.3116804361343384,-1.6209309101104736,-0.5115996599197388
1778948864234184200,7.11218408203125,-1.5496124029159546,-2.054034471511841,-0.3553708493709564
1778948864250519000,7.12851904296875,-1.5590808391571045,-2.699413537979126,-0.32620203495025635
1778948864266840800,7.1448408203125,-1.299310326576233,-2.9683468341827393,-0.5207626223564148
1778948864283180800,7.161180908203125,-0.9056077003479004,-2.838996171951294,-0.394008070230484
1778948864299510800,7.1775107421875,-0.5551238059997559,-2.6392433643341064,-0.0933096632361412
1778948864315841800,7.193841796875,-0.25763240456581116,-2.4938573837280273,0.37751471996307373
1778948864332174600,7.210174560546875,0.04260785132646561,-2.283566951751709,0.8162686824798584
1778948864348523300,7.226523193359375,0.2854267954826355,-2.026392698287964,1.1995866298675537
1778948864364828200,7.242828125,0.45234572887420654,-1.5848898887634277,1.45004141330719
1778948864381172000,7.259171875,0.7150177955627441,-1.1102476119995117,1.1690434217453003
1778948864397501400,7.27550146484375,0.5564982295036316,-0.16081027686595917,-0.08292495459318161
1778948864413832000,7.29183203125,-0.3962988257408142,-0.9955576062202454,0.04505131021142006
1778948864430162000,7.308161865234375,-0.4619668424129486,-1.8697057962417603,-0.23640485107898712
1778948864446495500,7.32449560546875,-0.5485569834709167,-2.1252002716064453,-0.7063129544258118
1778948864462826800,7.34082666015625,-0.6377432942390442,-2.222175121307373,-0.8460483551025391
1778948864479154400,7.357154541015625,-0.6885978579521179,-1.092837929725647,-0.6166684627532959
1778948864495488000,7.373488037109375,-0.7742717266082764,1.1830933094024658,-0.04199698567390442
1778948864511824000,7.389823974609375,-0.6760751008987427,2.735759973526001,0.10186178237199783
1778948864528142300,7.406142333984375,0.370947927236557,2.5692992210388184,-0.41462478041648865
1778948864544501800,7.422501708984375,-0.04795292019844055,1.9520199298858643,-0.6951646208763123
1778948864560825300,7.438825439453125,-0.08979719132184982,2.3684773445129395,-0.2863430976867676
1778948864577156900,7.455156982421875,0.14095716178417206,2.6844472885131836,0.5158756971359253
1778948864593495600,7.47149560546875,1.0183123350143433,3.25820255279541,1.2663236856460571
1778948864609806800,7.487806884765625,2.225076675415039,3.7844629287719727,1.796249270439148
1778948864626142200,7.50414208984375,2.992628812789917,3.8980839252471924,2.3359487056732178
1778948864642473000,7.520472900390625,3.341127395629883,3.357926368713379,2.7043004035949707
1778948864658804500,7.536804443359375,2.621528148651123,1.5943583250045776,2.5888469219207764
1778948864675134500,7.553134521484375,1.3153456449508667,-1.6487252712249756,1.642922043800354
1778948864691468000,7.569468017578125,0.4509712755680084,-3.5083518028259277,0.9995282292366028
1778948864707798800,7.585798828125,-0.09514226019382477,-3.6613736152648926,2.339155673980713
1778948864724128000,7.6021279296875,0.22647829353809357,-1.4909693002700806,3.763388156890869
1778948864740465200,7.618465087890625,-0.04138612002134323,1.200502872467041,2.869539499282837
1778948864756795600,7.634795654296875,-0.5908594131469727,1.8405369520187378,1.490511178970337
1778948864773139000,7.651138916015625,-0.6873761415481567,1.4521794319152832,0.8943067193031311
1778948864789470200,7.66747021484375,-0.7855727076530457,1.528690218925476,1.2907582521438599
1778948864805799400,7.68379931640625,-0.6759223937988281,2.0276143550872803,1.4498887062072754
1778948864822130400,7.70013037109375,-0.5094616413116455,2.543031930923462,1.2250902652740479
1778948864838451200,7.716451171875,-0.35811975598335266,2.5448646545410156,0.9352346658706665
1778948864854765800,7.732765869140625,-0.06520986557006836,2.245082378387451,0.6569855809211731
1778948864871113500,7.749113525390625,0.18096883594989777,1.840842366218567,0.2742784917354584
1778948864887446000,7.765446044921875,0.4683809280395508,1.8700112104415894,0.07208210229873657
1778948864903776300,7.7817763671875,0.584750771522522,1.8222110271453857,0.11453723162412643
1778948864920095000,7.798094970703125,0.5227479338645935,1.2764029502868652,0.1840231567621231
1778948864936439600,7.814439453125,0.5633704662322998,0.5586362481117249,0.24205535650253296
1778948864952771600,7.830771484375,0.6557638645172119,-0.013133603148162365,0.23716843128204346
1778948864969102800,7.847102783203125,0.6542366743087769,-0.32162055373191833,0.10766500234603882
1778948864985432600,7.8634326171875,0.41462478041648865,-0.7281513810157776,0.2405281960964203
1778948865001763300,7.879763427734375,-0.12293662875890732,-0.23915374279022217,1.0835222005844116
1778948865018095400,7.896095458984375,-0.3930917978286743,0.9106473922729492,1.3223705291748047
1778948865034425000,7.912425048828125,-0.39645153284072876,0.9462302923202515,0.18738290667533875
1778948865050760000,7.928760009765625,-0.2580905556678772,-0.7820602059364319,-1.4471397399902344
1778948865067078400,7.945078369140625,-0.5103778839111328,-1.0074695348739624,-2.07159686088562
1778948865083422000,7.961421875,-0.9582948684692383,-0.23686300218105316,-2.3354904651641846
1778948865099741000,7.977740966796875,-1.254717230796814,-0.6965391039848328,-2.6784913539886475
1778948865116086000,7.9940859375,-1.3822352886199951,-2.1730003356933594,-3.031724214553833
1778948865132416000,8.010416015625,-1.5402966737747192,-1.878868818283081,-3.084716796875
1778948865148748500,8.02674853515625,-1.4143058061599731,-0.0858265683054924,-2.869844913482666
1778948865165067300,8.0430673828125,-0.880104124546051,1.5010485649108887,-2.704911231994629
1778948865181411800,8.059411865234376,-0.2681698501110077,1.8738291263580322,-2.5085182189941406
1778948865197742600,8.07574267578125,0.10048733651638031,1.1259773969650269,-2.074498414993286
1778948865214075600,8.09207568359375,-0.07651086896657944,-0.00733038317412138,-1.5998560190200806
1778948865230406000,8.108406005859376,-0.4518875777721405,-0.6198754906654358,-1.3431400060653687
1778948865246736100,8.124736083984375,-0.5966626405715942,-0.2554943859577179,-1.4259121417999268
1778948865263050200,8.14105029296875,-0.5392413139343262,0.873842716217041,-1.2666290998458862
1778948865279400700,8.157400634765626,-0.7313584089279175,-0.34315356612205505,-0.36392298340797424
1778948865295727900,8.173727783203125,-1.2307407855987549,-1.4963144063949585,-0.009162978269159794
1778948865312066600,8.190066650390625,-1.3507757186889648,-1.3510812520980835,-0.40424007177352905
1778948865328369700,8.20636962890625,-1.326341152191162,-1.8545868396759033,-0.5904012322425842
1778948865344747000,8.2227470703125,-1.508837103843689,-2.8564059734344482,-0.3799581825733185
1778948865361054700,8.2390546875,-1.2487612962722778,-3.6748125553131104,-0.4889976382255554
1778948865377383200,8.255383056640625,-0.8199338912963867,-3.6841282844543457,-0.579405665397644
1778948865393723100,8.27172314453125,-0.48380526900291443,-3.3432655334472656,-0.32528573274612427
1778948865410056000,8.288055908203125,-0.23808473348617554,-3.344181776046753,0.11820242553949356
1778948865426373400,8.304373291015626,-0.056352317333221436,-3.02317214012146,0.5606215596199036
1778948865442717200,8.32071728515625,0.17272214591503143,-2.7510316371917725,1.069472312927246
1778948865459050500,8.337050537109375,0.3419318199157715,-2.238668441772461,1.5369369983673096
1778948865475374000,8.3533740234375,0.5149593949317932,-1.5279266834259033,1.863444447517395
1778948865491711000,8.3697109375,0.6966918110847473,-0.887739896774292,1.626123309135437
1778948865508041200,8.386041259765625,0.4239404797554016,2.109928607940674,-0.11713340878486633
1778948865524384800,8.402384765625,-0.9769262671470642,1.7172949314117432,-0.30573806166648865
1778948865540724200,8.41872412109375,-1.0546588897705078,-1.6649131774902344,-0.5158756971359253
1778948865557047300,8.43504736328125,-0.8307767510414124,-2.1306979656219482,-0.759305477142334
1778948865573381600,8.451381591796874,-0.8822421431541443,-1.7185167074203491,-0.6837109327316284
1778948865589696000,8.467696044921874,-0.7964155673980713,-0.34025195240974426,0.014508049935102463
1778948865606031000,8.484031005859375,-0.6204863786697388,1.2209669351577759,0.607810914516449
1778948865622360000,8.500360107421875,0.22098049521446228,3.4987306594848633,0.1598939746618271
1778948865638695200,8.516695068359375,0.25931230187416077,2.592970132827759,-1.833817481994629
1778948865655023600,8.533023681640625,-0.2646573781967163,1.4535537958145142,-1.7941112518310547
1778948865671356200,8.549356201171875,-0.9005680680274963,-0.45662176609039307,-0.6298020482063293
1778948865687688200,8.565688232421875,-0.6551529765129089,-1.1439979076385498,0.6023131608963013
1778948865704018700,8.582018798828125,0.8743008971214294,0.5032002329826355,1.39323091506958
1778948865720351200,8.598351318359375,2.3156373500823975,3.1285462379455566,1.7898352146148682
1778948865736681500,8.614681396484375,3.248886823654175,4.571715354919434,2.1656699180603027
1778948865753030400,8.631030517578125,3.559053659439087,4.634634494781494,2.3692407608032227
1778948865769346000,8.647345947265626,3.1804699897766113,3.459177255630493,2.1264219284057617
1778948865785689600,8.663689697265625,1.9961549043655396,-0.8413141369819641,0.5196936130523682
1778948865801991200,8.6799912109375,1.2904528379440308,-5.128519058227539,0.46334129571914673
1778948865818326300,8.696326171875,0.21792617440223694,-7.184080600738525,2.328160047531128
1778948865834666200,8.712666259765625,-0.46105054020881653,-6.261521339416504,4.184732437133789
1778948865851005200,8.729005126953124,-0.26908615231513977,-0.2539672255516052,3.880826950073242
1778948865867334700,8.745334716796876,-0.3885102868080139,3.165350914001465,2.0473148822784424
1778948865883664100,8.7616640625,-0.5874996781349182,3.30554461479187,0.7967209815979004
1778948865899995000,8.777994873046875,-0.7544185519218445,3.3255503177642822,1.0436632633209229
1778948865916345000,8.794344970703126,-0.7186829447746277,2.998432159423828,1.531133770942688
1778948865932674000,8.810674072265625,-0.3637702465057373,2.3542747497558594,1.5447255373001099
1778948865949005000,8.827005126953125,0.05451972410082817,1.8639025688171387,1.3464996814727783
1778948865965347000,8.84334716796875,0.3550654351711273,1.3671164512634277,0.7241807579994202
1778948865981668400,8.85966845703125,0.5592471361160278,0.9275988936424255,0.17531833052635193
1778948865997980000,8.87597998046875,0.6126978397369385,0.8985827565193176,0.022602014243602753
1778948866014310400,8.892310302734375,0.6571382880210876,0.7991644740104675,0.32559117674827576
1778948866030650000,8.908650146484375,0.6013968586921692,0.13439035415649414,0.8349000811576843
1778948866046980400,8.92498046875,0.499382346868515,-0.2854267954826355,0.8926268219947815
1778948866063311400,8.941311279296874,0.46013423800468445,-0.30711251497268677,0.5838344693183899
1778948866079648800,8.957648681640626,0.2015855312347412,0.037110064178705215,0.4271475374698639
1778948866095972900,8.973972900390624,-0.13866640627384186,0.44913867115974426,0.38835757970809937
1778948866112306000,8.990305908203124,-0.328340083360672,0.5545129179954529,-0.17073683440685272
1778948866128630800,9.006630859375,-0.5114469528198242,-0.13515393435955048,-0.9527970552444458
1778948866144971300,9.02297119140625,-0.8944594264030457,-1.002277135848999,-1.6957619190216064
1778948866161281800,9.03928173828125,-1.621999979019165,-1.2487612962722778,-2.2566888332366943
1778948866177631200,9.05563134765625,-1.7234035730361938,-1.4219415187835693,-2.900388240814209
1778948866193960200,9.071960205078126,-1.6255123615264893,-2.054187059402466,-3.3130276203155518
1778948866210297300,9.08829736328125,-1.5680910348892212,-2.228283643722534,-3.2534682750701904
1778948866226626800,9.104626708984375,-1.2542591094970703,-0.9376781582832336,-2.9962940216064453
1778948866242957300,9.120957275390625,-0.7472409009933472,0.5485569834709167,-3.034014940261841
1778948866259286000,9.1372861328125,-0.10751228034496307,1.4999796152114868,-2.8345675468444824
1778948866275623400,9.15362353515625,0.31001409888267517,0.9761626720428467,-2.20583438873291
1778948866291953200,9.169953125,0.18936823308467865,-0.4639521539211273,-1.687362551689148
1778948866308299800,9.1862998046875,-0.2961169183254242,-1.6281086206436157,-1.9257526397705078
1778948866324629000,9.20262890625,-0.26710084080696106,-1.2247848510742188,-2.358703374862671
1778948866340960500,9.21896044921875,0.004734205547720194,-0.3854559659957886,-2.3018929958343506
1778948866357287000,9.235286865234375,-0.5658139586448669,-1.695914626121521,-1.130711555480957
1778948866373610200,9.2516103515625,-0.8724682927131653,-1.4521794319152832,-1.0644327402114868
1778948866389942000,9.26794189453125,-0.8987354636192322,-1.4146112203598022,-1.1395691633224487
1778948866406267100,9.28426708984375,-1.0219775438308716,-1.7078264951705933,-0.9973902106285095
1778948866422603500,9.300603515625,-1.0693196058273315,-2.4385740756988525,-0.9419541954994202
1778948866438930200,9.31693017578125,-0.8872817754745483,-2.7197248935699463,-0.8629998564720154
1778948866455271200,9.333271240234374,-0.6948592066764832,-2.526386022567749,-0.6085745096206665
1778948866471597800,9.349597900390625,-0.40653082728385925,-2.738814353942871,-0.24923302233219147
1778948866487929600,9.3659296875,-0.14905111491680145,-3.0188961029052734,0.266184538602829
1778948866504278800,9.38227880859375,-0.020922135561704636,-2.883131265640259,0.9440922141075134
1778948866520605400,9.39860546875,-0.004581489134579897,-2.372905969619751,1.5960382223129272
1778948866536938000,9.41493798828125,0.001527163083665073,-1.5280793905258179,1.8254181146621704
1778948866553270500,9.4312705078125,-0.06291911751031876,-0.3871358633041382,1.531133770942688
1778948866569581600,9.44758154296875,-0.3032945990562439,1.384678840637207,0.5050328373908997
1778948866585919000,9.4639189453125,-0.10567969083786011,0.7464773058891296,0.19013181328773499
1778948866602248400,9.48024853515625,-0.16890424489974976,-1.223868489265442,-0.2739730477333069
1778948866618581000,9.4965810546875,-0.4280638098716736,-2.0946569442749023,-0.8118399381637573
1778948866634915600,9.51291552734375,-0.7367035150527954,-2.3990204334259033,-1.1340713500976562
1778948866651244500,9.52924462890625,-0.9576839804649353,-1.7641788721084595,-0.8439103364944458
1778948866667575800,9.545575927734374,-0.7006624341011047,-0.4508185386657715,-0.7334964275360107
1778948866683907600,9.561907470703124,-0.4827362596988678,0.6801984310150146,-1.040150761604309
1778948866700238000,9.578238037109376,-0.06062837690114975,1.3941471576690674,-0.8093964457511902
1778948866716570400,9.5945703125,-0.1537853181362152,2.2006421089172363,-0.5461135506629944
1778948866732897500,9.6108974609375,-0.13698652386665344,2.4808764457702637,0.07070764899253845
1778948866749252900,9.6272529296875,0.10690141469240189,2.6342036724090576,0.8614727258682251
1778948866765577200,9.6435771484375,0.9634872078895569,3.798970937728882,1.737911581993103
1778948866781908000,9.659907958984375,2.233934164047241,4.701982498168945,2.5665502548217773
1778948866798216200,9.67621630859375,2.995530366897583,5.188384056091309,3.0222558975219727
1778948866814560000,9.69256005859375,3.053715467453003,5.184413433074951,3.3936619758605957
1778948866830891500,9.7088916015625,2.012342929840088,3.39411997795105,2.9710958003997803
1778948866847203600,9.72520361328125,0.8055785298347473,-0.4834998548030853,1.7313448190689087
1778948866863539700,9.741539794921875,0.08078692853450775,-2.7377452850341797,1.5205962657928467
1778948866879887000,9.75788720703125,0.017409659922122955,-2.7036895751953125,2.733469247817993
1778948866896194800,9.77419482421875,0.37827831506729126,-1.3019065856933594,2.492788314819336
1778948866912547800,9.7905478515625,0.16432274878025055,-0.11545353382825851,1.5425875186920166
1778948866928878600,9.806878662109375,-0.4970915913581848,0.7299839854240417,1.059393048286438
1778948866945208800,9.823208740234374,-0.6429356932640076,1.0149526596069336,0.8978192210197449
1778948866961544700,9.839544677734375,-0.5348125100135803,0.9720393419265747,0.7009678483009338
1778948866977899000,9.85589892578125,-0.3901901841163635,1.7017178535461426,0.722348153591156
1778948866994196700,9.87219677734375,-0.30634891986846924,3.740327835083008,0.927446186542511
1778948867010539800,9.888539794921876,-0.21303924918174744,5.030933380126953,1.6232216358184814
1778948867026867500,9.904867431640625,0.1414152979850769,3.992309808731079,2.2198843955993652
1778948867043199000,9.921198974609375,0.34376442432403564,2.34175181388855,1.8781051635742188
1778948867059508500,9.937508544921876,0.5325217843055725,0.9589056968688965,1.0858129262924194
1778948867075860500,9.953860595703125,0.607200026512146,0.27458393573760986,0.5022839307785034
1778948867092190000,9.97018994140625,0.7606799602508545,-0.026572637259960175,0.3926336467266083
1778948867108525000,9.986525146484375,0.879187822341919,-0.4938845634460449,0.8518515825271606
1778948867124854800,10.002854736328125,0.7144069075584412,-0.8219192028045654,1.2154691219329834
1778948867141187300,10.019187255859375,0.7783950567245483,-0.608727216720581,1.0118982791900635
1778948867157520000,10.035519775390625,0.7157813310623169,0.6611089110374451,0.3260493278503418
1778948867173851000,10.051850830078125,0.2942843437194824,1.8594738245010376,-0.06185010448098183
1778948867190180000,10.06818017578125,-0.35705074667930603,0.7609853744506836,0.2396118938922882
1778948867206513400,10.084513427734375,-0.39095374941825867,-0.6484334468841553,0.01863138936460018
1778948867222828000,10.100828125,-0.5157229900360107,-0.7535023093223572,-0.7234171628952026
1778948867239175200,10.117175048828125,-0.841619610786438,-0.9318749308586121,-1.6626224517822266
1778948867255503600,10.133503662109375,-1.2160799503326416,-1.3182471990585327,-2.5746443271636963
1778948867271842600,10.149842529296874,-1.52273428440094,-1.7805194854736328,-3.134960412979126
1778948867288186400,10.166186279296875,-1.3753631114959717,-2.0115792751312256,-3.6005923748016357
1778948867304516000,10.18251611328125,-1.1549934148788452,-2.303725481033325,-3.6195292472839355
1778948867320844500,10.198844482421874,-0.7867944240570068,-1.3019065856933594,-3.0473012924194336
1778948867337179600,10.2151796875,-0.14217889308929443,0.9387471675872803,-2.8716773986816406
1778948867353511200,10.23151123046875,0.21212296187877655,2.649475336074829,-3.126255512237549
1778948867369839400,10.24783935546875,0.25564709305763245,2.568840980529785,-2.975982666015625
1778948867386156500,10.264156494140625,0.12293662875890732,0.7993171811103821,-2.476600408554077
1778948867402491000,10.280490966796876,-0.26022860407829285,-0.607810914516449,-2.3044891357421875
1778948867418819800,10.29681982421875,-0.1059851199388504,-1.1989758014678955,-1.979508876800537
1778948867435156000,10.313156005859375,-0.7447974681854248,-3.026531934738159,-0.46929723024368286
1778948867451484000,10.32948388671875,-1.392925500869751,-1.5676329135894775,-0.7234171628952026
1778948867467817500,10.3458173828125,-1.6525431871414185,-0.40072759985923767,-1.0936014652252197
1778948867484165400,10.362165283203124,-1.8040378093719482,-1.5158621072769165,-0.8536841869354248
1778948867500475400,10.378475341796875,-1.8235855102539062,-2.9524643421173096,-0.8329147696495056
1778948867516810800,10.394810791015624,-1.4385876655578613,-3.811035633087158,-0.8000807762145996
1778948867533143300,10.411143310546874,-0.9663888216018677,-3.573561668395996,-0.7441865801811218
1778948867549461500,10.42746142578125,-0.6670648455619812,-3.545003652572632,-0.5546656250953674
1778948867565801200,10.44380126953125,-0.4683809280395508,-3.2925636768341064,-0.03940080851316452
1778948867582140200,10.46014013671875,-0.27519479393959045,-2.802955150604248,0.6407976150512695
1778948867598468600,10.476468505859375,-0.08078692853450775,-2.1041252613067627,1.3761266469955444
1778948867614798300,10.49279833984375,0.09697485715150833,-1.3503175973892212,1.980883240699768
1778948867631129900,10.5091298828125,0.32589662075042725,-0.7684684991836548,2.4659101963043213
1778948867647463200,10.525463134765625,0.5815436840057373,0.07040221989154816,2.493093729019165
1778948867663785500,10.541785400390625,0.8684976696968079,2.160935878753662,0.5871942043304443
1778948867680125400,10.55812548828125,-0.5180137157440186,1.8469511270523071,-0.003512475173920393
1778948867696457000,10.57445703125,-0.930347740650177,-1.2724323272705078,-0.5062545537948608
1778948867712788200,10.590788330078125,-0.5934556126594543,-2.45063853263855,-0.827722430229187
1778948867729137400,10.607137451171875,-0.5951354503631592,-1.3959797620773315,-0.7411322593688965
1778948867745459500,10.62345947265625,-0.44028112292289734,0.017867809161543846,-0.27947086095809937
1778948867761763600,10.639763671875,-0.5691736936569214,1.335809588432312,0.33597588539123535
1778948867778113500,10.656113525390625,0.2252565622329712,4.165642738342285,-0.13515393435955048
1778948867794432500,10.6724326171875,-0.1693623960018158,2.947882890701294,-1.6172657012939453
1778948867810776600,10.688776611328125,-0.8323038816452026,1.6536122560501099,-1.2279918193817139
1778948867827109600,10.705109619140625,-1.2359330654144287,-0.5934556126594543,-0.19853121042251587
1778948867843439600,10.721439697265625,-0.2551889419555664,-0.7258606553077698,0.9728028774261475
1778948867859759000,10.737759033203124,1.0977247953414917,1.687362551689148,1.6727017164230347
1778948867876128800,10.754128662109375,2.370157241821289,3.872274875640869,2.249511241912842
1778948867892446700,10.77044677734375,3.2056679725646973,4.628831386566162,2.6345090866088867
1778948867908762600,10.7867626953125,3.5220963954925537,4.209014415740967,2.7650816440582275
1778948867925095700,10.803095703125,2.752864122390747,2.1255056858062744,1.9491182565689087
1778948867941428200,10.81942822265625,1.4608842134475708,-2.8536570072174072,0.7431175708770752
1778948867957746700,10.83574658203125,0.6217080950737,-6.089257717132568,0.9669997096061707
1778948867974088000,10.852087890625,-0.3367394804954529,-6.442795753479004,2.4219279289245605
1778948867990424000,10.868424072265626,-0.4948008358478546,-2.652224063873291,3.914119005203247
1778948868006756600,10.884756591796876,-0.45005497336387634,1.683544635772705,3.177262783050537
1778948868023086000,10.901086181640625,-0.4970915913581848,3.366631031036377,1.7192802429199219
1778948868039414000,10.9174140625,-0.7881689071655273,3.604562997817993,1.2217304706573486
1778948868055751000,10.9337509765625,-0.9352346658706665,4.076609134674072,1.7505871057510376
1778948868072069000,10.950069091796875,-0.5088507533073425,3.9788708686828613,1.7765488624572754
1778948868088413200,10.9664130859375,0.30772337317466736,2.900693655014038,0.950506329536438
1778948868104747800,10.982747802734375,0.7771732807159424,1.3574953079223633,0.18157969415187836
1778948868121060900,10.999060791015625,0.940732479095459,0.8859072923660278,-0.014508049935102463
1778948868137406200,11.01540625,1.0089967250823975,1.5583171844482422,-0.0682641938328743
1778948868153735200,11.031735107421875,0.8694139719009399,1.7160731554031372,0.20631973445415497
1778948868170071800,11.04807177734375,0.6621779203414917,0.9686795473098755,0.8767443299293518
1778948868186400500,11.064400390625,0.517250120639801,-0.06673702597618103,1.018770456314087
1778948868202730200,11.080730224609376,0.23411411046981812,-0.9060658812522888,1.1125383377075195
1778948868219063600,11.0970634765625,-0.0705549344420433,0.826500654220581,1.0580185651779175
1778948868235392300,11.113392333984375,-0.08109235763549805,1.3461942672729492,0.05925392732024193
1778948868251731700,11.129731689453125,-0.16554448008537292,-0.5012149214744568,-0.5236642360687256
1778948868268073200,11.1460732421875,-0.5161811113357544,-0.9990701079368591,-0.49144110083580017
1778948868284403200,11.1624033203125,-1.0787880420684814,-0.8681922554969788,-0.7782423496246338
1778948868300733400,11.1787333984375,-1.226617455482483,-1.3631458282470703,-2.1372647285461426
1778948868317062000,11.195061767578125,-1.3187053203582764,-1.8991800546646118,-2.90008282661438
1778948868333395500,11.2113955078125,-1.2822061777114868,-2.0108156204223633,-3.0783026218414307
1778948868349727500,11.2277275390625,-1.1914926767349243,-1.6698001623153687,-3.1584787368774414
1778948868366042000,11.2440419921875,-1.0853548049926758,-0.8400924205780029,-3.006678819656372
1778948868382377700,11.260377685546874,-1.0016663074493408,0.42348232865333557,-3.031571388244629
1778948868398695400,11.2766953125,-0.9103419184684753,1.6647604703903198,-3.1813862323760986
1778948868415039200,11.293039306640624,-0.5664247870445251,2.227978229522705,-2.6256515979766846
1778948868431371300,11.309371337890624,-0.35811975598335266,1.1349875926971436,-1.9750800132751465
1778948868447702300,11.325702392578124,-0.5007568001747131,0.13316862285137177,-1.887420892715454
1778948868464049400,11.34204931640625,-0.39675697684288025,0.007941247895359993,-1.967902421951294
1778948868480363500,11.358363525390626,-0.5268712639808655,-2.2408063411712646,-0.9581421613693237
1778948868496695800,11.37469580078125,-1.5613715648651123,-3.5799758434295654,0.1667662113904953
1778948868513029000,11.391029052734375,-1.7658586502075195,-0.9248499870300293,-0.6409503817558289
1778948868529361000,11.40736083984375,-1.3723087310791016,-0.8071057200431824,-1.098183035850525
1778948868545691000,11.42369091796875,-1.2435688972473145,-2.135432243347168,-1.0126618146896362
1778948868562020000,11.44002001953125,-1.2009611129760742,-2.9103147983551025,-1.0042624473571777
1778948868578344200,11.45634423828125,-0.9547823667526245,-3.2592716217041016,-0.8752171993255615
1778948868594684400,11.472684326171875,-0.6688974499702454,-3.5042285919189453,-0.5803219676017761
1778948868611017500,11.489017578125,-0.39935314655303955,-3.469409227371216,-0.2548835277557373
1778948868627348700,11.5053486328125,-0.2393064647912979,-3.179553508758545,0.3168863356113434
1778948868643679200,11.52167919921875,-0.10506882518529892,-2.6418395042419434,0.8987354636192322
1778948868660012000,11.538011962890625,0.07727445662021637,-2.1931588649749756,1.4590516090393066
1778948868676343300,11.55434326171875,0.2054034322500229,-1.737911581993103,1.95965576171875
1778948868692673800,11.570673828125,0.2165517359972,-1.2093604803085327,2.115579128265381
1778948868709002800,11.587002685546874,0.42959097027778625,-0.5459607839584351,1.28434419631958
1778948868725355800,11.603355712890625,0.21059578657150269,1.783879280090332,-0.6316346526145935
1778948868741681000,11.619680908203126,-0.8266534209251404,0.5624541640281677,-0.42791110277175903
1778948868757975800,11.635975830078126,-0.722348153591156,-1.5134186744689941,-0.8156577944755554
1778948868774321000,11.65232080078125,-0.7115052938461304,-2.1374175548553467,-1.1143709421157837
1778948868790660000,11.66866015625,-0.7246388792991638,-2.0916025638580322,-0.9017898440361023
1778948868806994200,11.684994140625,-0.521984338760376,-0.7852672934532166,-0.21349740028381348
1778948868823325400,11.701325439453125,-0.41004329919815063,0.7823656797409058,0.7811439037322998
1778948868839654400,11.717654296875,0.0025961773935705423,3.4582607746124268,1.4407256841659546
1778948868855977000,11.73397705078125,0.8425359129905701,5.606215953826904,0.46593746542930603
1778948868872320500,11.750320556640625,-0.09117163717746735,2.5767822265625,-1.0221302509307861
1778948868888648000,11.76664794921875,-0.50335294008255,0.9746354818344116,-0.7240280508995056
1778948868904989200,11.7829892578125,-0.6275113224983215,0.45662176609039307,0.09117163717746735
1778948868921312800,11.799312744140625,0.18219055235385895,0.8029823899269104,0.9902125597000122
1778948868937658000,11.815658203125,1.0899362564086914,1.6559029817581177,1.5639677047729492
1778948868953971200,11.83197119140625,1.9837849140167236,2.6149613857269287,2.185828447341919
1778948868970311200,11.848311279296874,2.6056456565856934,2.8794660568237305,2.774549961090088
1778948868986648600,11.864648681640626,2.867248773574829,2.708118438720703,3.294548988342285
1778948869002967800,11.8809677734375,2.3130412101745605,1.877036213874817,3.009274959564209
1778948869019283000,11.897282958984375,1.2909109592437744,-1.1039862632751465,1.2483031749725342
1778948869035634400,11.913634521484376,0.7440338730812073,-3.9015963077545166,0.6050620079040527
1778948869051952600,11.92995263671875,0.022449297830462456,-4.311334133148193,0.8541423082351685
1778948869068298000,11.946298095703124,-0.37140607833862305,-2.2602014541625977,2.094046115875244
1778948869084630000,11.962630126953124,-0.21533000469207764,1.0714576244354248,3.109456777572632
1778948869100958000,11.9789580078125,-0.3156646192073822,2.4804184436798096,2.3907737731933594
1778948869117291800,11.995291748046874,-0.5073235630989075,3.7704129219055176,1.5173892974853516
1778948869133621200,12.011621337890626,-0.8516988754272461,4.877606391906738,1.6300939321517944
1778948869149954000,12.0279541015625,-0.8897252082824707,5.100724697113037,2.1841487884521484
1778948869166289200,12.0442890625,-0.30512720346450806,3.829514265060425,1.93766450881958
1778948869182617900,12.060617919921874,0.2652682363986969,2.5696046352386475,0.8121453523635864
1778948869198948600,12.076948486328124,0.5942191481590271,1.7146987915039062,0.04734205827116966
1778948869215275300,12.093275146484375,0.8559749126434326,1.2203559875488281,0.09315694868564606
1778948869231613400,12.109613525390625,0.8462010622024536,0.6995934247970581,0.41263946890830994
1778948869247960800,12.1259609375,0.759916365146637,0.15683965384960175,0.49357911944389343
1778948869264286700,12.14228662109375,0.7192938327789307,-0.04932736977934837,0.4943426847457886
1778948869280619500,12.15861962890625,0.4931209683418274,0.12186761945486069,0.5590944290161133
1778948869296952300,12.174952392578126,-0.006108652334660292,0.6606507897377014,0.6611089110374451
1778948869313279500,12.191279541015625,-0.14019356667995453,0.5792529582977295,0.6113234162330627
1778948869329614000,12.207614013671876,-0.11820242553949356,0.20570887625217438,0.21441370248794556
1778948869345928400,12.223928466796876,-0.2756529450416565,-0.5467243790626526,-0.3020728528499603
1778948869362261500,12.240261474609374,-0.6013968586921692,-1.1142182350158691,-0.811687171459198
1778948869378592500,12.256592529296874,-1.0459539890289307,-0.8246681094169617,-1.8128952980041504
1778948869394932500,12.272932373046874,-1.4924964904785156,-0.6988298296928406,-2.7508788108825684
1778948869411256800,12.2892568359375,-1.6168075799942017,-1.3138184547424316,-3.012481927871704
1778948869427589600,12.305589599609375,-1.443169116973877,-2.44559907913208,-3.3174564838409424
1778948869443937300,12.321937255859375,-1.244943380355835,-2.183537721633911,-3.037069320678711
1778948869460266200,12.338266357421874,-0.9416487812995911,-0.42500948905944824,-2.749809980392456
1778948869476595700,12.354595703125,-0.598647952079773,1.2680035829544067,-3.1328225135803223
1778948869492911600,12.37091162109375,-0.4453207552433014,2.3044891357421875,-3.199559450149536
1778948869509243100,12.3872431640625,-0.48197266459465027,1.4092661142349243,-2.5702154636383057
1778948869525575400,12.403575439453125,-0.43447789549827576,-0.046731192618608475,-2.104888916015625
1778948869541907500,12.419907470703125,-0.5117523670196533,-0.2200642079114914,-2.1737639904022217
1778948869558231800,12.436231689453125,-0.42439863085746765,0.5656611919403076,-2.400853157043457
1778948869574571500,12.452571533203125,-0.547182559967041,-1.9799669981002808,-1.325730323791504
1778948869590908000,12.468907958984374,-1.2305880784988403,-2.27516770362854,-0.5393940210342407
1778948869607217000,12.485216796875,-1.4188872575759888,-0.5612324476242065,-0.7832819819450378
1778948869623565800,12.50156591796875,-1.6239852905273438,-1.256244421005249,-0.8885034918785095
1778948869639896800,12.517896728515625,-1.632842779159546,-2.3148739337921143,-0.684779942035675
1778948869656228400,12.534228271484375,-1.4280502796173096,-3.3570098876953125,-0.7623597979545593
1778948869672560400,12.550560302734375,-0.9439395070075989,-3.3768630027770996,-0.6565274000167847
1778948869688889900,12.566889892578125,-0.543059229850769,-3.2931745052337646,-0.3810271918773651
1778948869705233400,12.5832333984375,-0.2845104932785034,-3.1415271759033203,-0.06062837690114975
1778948869721574700,12.59957470703125,-0.08567385375499725,-2.9805643558502197,0.58062744140625
1778948869737879800,12.6158798828125,0.13439035415649414,-2.420706272125244,1.1838568449020386
1778948869754214100,12.632214111328125,0.3927863538265228,-1.7235562801361084,1.8072447776794434
1778948869770543400,12.64854345703125,0.6203336715698242,-0.9512699246406555,2.3237314224243164
1778948869786880000,12.6648798828125,1.0009026527404785,0.16233743727207184,1.747685432434082
1778948869803208400,12.68120849609375,0.8500189781188965,1.6250542402267456,-0.40943244099617004
1778948869819544300,12.69754443359375,-0.5183191895484924,0.5206099152565002,-0.24862214922904968
1778948869835874300,12.713874267578126,-0.7961101531982422,-2.1290180683135986,-0.5549710988998413
1778948869852219600,12.7302197265625,-0.8446739315986633,-2.568077564239502,-0.907898485660553
1778948869868532500,12.746532470703125,-0.8848382830619812,-1.8179349899291992,-0.7082982659339905
1778948869884881700,12.762881591796875,-0.560468852519989,-0.1495092660188675,-0.19456058740615845
1778948869901220400,12.779220458984375,-0.5141957998275757,1.2359330654144287,0.3049744665622711
1778948869917542100,12.795542236328124,0.21578814089298248,3.1468722820281982,0.27748554944992065
1778948869933846800,12.8118466796875,0.5229006409645081,1.7076737880706787,-0.9527970552444458
1778948869950193700,12.828193603515626,-0.23105977475643158,1.782352089881897,-0.8315402865409851
1778948869966519800,12.844519775390625,-0.5700899958610535,1.6375770568847656,-0.10705413669347763
1778948869982860800,12.86086083984375,-0.27122417092323303,1.582904577255249,0.7579310536384583
1778948869999186400,12.8771865234375,0.8978192210197449,2.808147430419922,1.6045902967453003
1778948870015518200,12.893518310546876,2.1449005603790283,3.908773899078369,1.98500657081604
1778948870031851000,12.90985107421875,3.014925479888916,4.6185994148254395,2.21698260307312
1778948870048166100,12.926166259765624,3.4219143390655518,4.562552452087402,2.3162481784820557
1778948870064516400,12.942516357421875,2.9831604957580566,3.1173980236053467,2.1597139835357666
1778948870080846600,12.9588466796875,1.533729910850525,-0.5804746747016907,1.5277739763259888
1778948870097175600,12.975175537109376,0.4118759036064148,-3.735593795776367,1.103833556175232
1778948870113508000,12.991508056640624,-0.4297437071800232,-4.851186275482178,1.1104003190994263
1778948870129835800,13.007835693359375,-0.43875396251678467,-4.119369983673096,2.471255302429199
1778948870146172400,13.02417236328125,0.08750644326210022,-0.5109887719154358,3.5297319889068604
1778948870162502100,13.040502197265624,-0.26710084080696106,2.364964723587036,2.574186086654663
1778948870178833700,13.056833740234374,-0.5647448897361755,2.8773279190063477,1.5277739763259888
1778948870195163000,13.073162841796876,-0.717308521270752,2.431854486465454,1.2044734954833984
1778948870211496000,13.089495849609374,-0.7991644740104675,2.8736627101898193,1.3894129991531372
1778948870227844600,13.1058447265625,-0.5404630303382874,3.849061965942383,1.463022232055664
1778948870244172300,13.12217236328125,-0.16691893339157104,3.648392677307129,1.4534010887145996
1778948870260505300,13.13850537109375,0.2854267954826355,2.2319488525390625,0.9442449808120728
1778948870276820700,13.15482080078125,0.588263213634491,1.281595230102539,0.2356412708759308
1778948870293167000,13.1711669921875,0.8121453523635864,1.1823296546936035,-0.15974126756191254
1778948870309470500,13.187470458984375,0.8083274364471436,1.3602441549301147,-0.1595885455608368
1778948870325812200,13.203812255859376,0.7677049040794373,0.8768970370292664,0.25671613216400146
1778948870342147800,13.22014794921875,0.7029531598091125,0.00045814894838258624,0.6583600044250488
1778948870358478800,13.236478759765625,0.5685628056526184,-0.4967861473560333,0.6998988389968872
1778948870374809000,13.25280908203125,0.4521929919719696,-0.4121813178062439,0.7324274182319641
1778948870391140900,13.269140869140625,0.18112154304981232,0.2376265823841095,0.7137960195541382
1778948870407473200,13.28547314453125,-0.2255619913339615,0.6375905871391296,0.6569855809211731
1778948870423820000,13.301820068359374,-0.3240640163421631,0.21380282938480377,0.3303253948688507
1778948870440129500,13.318129638671875,-0.4291328489780426,-0.3833179473876953,-0.5699372887611389
1778948870456467500,13.334467529296875,-0.7913759350776672,-0.5844452977180481,-1.2289081811904907
1778948870472798200,13.350798095703125,-1.5189164876937866,-0.8724682927131653,-1.7873916625976562
1778948870489129500,13.36712939453125,-1.5277739763259888,-1.516014814376831,-2.573269844055176
1778948870505448200,13.3834482421875,-1.5253305435180664,-1.9996674060821533,-3.120757818222046
1778948870521793000,13.39979296875,-1.1617130041122437,-3.0393600463867188,-3.469409227371216
1778948870538124000,13.4161240234375,-0.8575021028518677,-2.7374398708343506,-3.2209396362304688
1778948870554455300,13.432455322265625,-0.7286095023155212,-0.18555031716823578,-2.8544206619262695
1778948870570776000,13.448776123046875,-0.3761402666568756,2.439795732498169,-3.165503740310669
1778948870587116800,13.46511669921875,-0.1837177276611328,3.2029192447662354,-3.0195069313049316
1778948870603449900,13.481449951171875,-0.08628471940755844,1.342987298965454,-2.255314588546753
1778948870619781000,13.497781005859375,-0.18585574626922607,-1.2780828475952148,-1.8110626935958862
1778948870636114200,13.5141142578125,-0.20143280923366547,-1.9698877334594727,-1.8742872476577759
1778948870652443400,13.530443359375,0.027030786499381065,-0.9729556441307068,-1.8309158086776733
1778948870668764700,13.5467646484375,-0.13668109476566315,-0.5051855444908142,-1.3687963485717773
1778948870685105400,13.56310546875,-1.2878566980361938,-1.3894129991531372,-0.23365595936775208
1778948870701437000,13.57943701171875,-1.623068928718567,-0.5583308339118958,-0.5071708559989929
1778948870717780200,13.5957802734375,-1.6371188163757324,-0.7956519722938538,-0.5994115471839905
1778948870734099000,13.612098876953125,-1.6691893339157104,-2.230879783630371,-0.4812090992927551
1778948870750433800,13.628433837890626,-1.4624114036560059,-3.5337026119232178,-0.5181664228439331
1778948870766763800,13.644763671875,-1.0238101482391357,-3.4973561763763428,-0.5424483418464661
1778948870783095000,13.661094970703125,-0.7061602473258972,-3.176193952560425,-0.2669481039047241
1778948870799427800,13.677427734375,-0.49877145886421204,-2.9439122676849365,0.057879481464624405
1778948870815767000,13.69376708984375,-0.23060162365436554,-2.757751226425171,0.6041457056999207
1778948870832099800,13.710099853515626,-0.04612032696604729,-2.353205680847168,1.154382586479187
1778948870848434700,13.7264345703125,0.08185594528913498,-1.990351676940918,1.6446019411087036
1778948870864762400,13.742762451171876,0.2808452844619751,-1.4792101383209229,2.0482311248779297
1778948870881102300,13.759102294921876,0.617584764957428,-0.6198754906654358,1.7043139934539795
1778948870897426400,13.775426513671874,0.40424007177352905,1.7655532360076904,-0.3854559659957886
1778948870913743000,13.7917431640625,-0.5378668308258057,0.6272059082984924,-0.21991148591041565
1778948870930066200,13.808066162109375,-0.7197519540786743,-1.5402966737747192,-0.44028112292289734
1778948870946406000,13.824406005859375,-0.8367326855659485,-2.0671679973602295,-0.6575964093208313
1778948870962743300,13.840743408203124,-0.8973610401153564,-1.6479617357254028,-0.5754350423812866
1778948870979071700,13.85707177734375,-0.6319400668144226,-0.4488332271575928,-0.1794416606426239
1778948870995401500,13.8734013671875,-0.5699372887611389,0.7921395301818848,0.16065755486488342
1778948871011734300,13.889734375,0.11820242553949356,2.6757423877716064,-0.47510045766830444
1778948871028063500,13.9060634765625,-0.007024950347840786,2.0978639125823975,-1.5204435586929321
1778948871044398800,13.92239892578125,-0.34987306594848633,1.8403842449188232,-1.1633929014205933
1778948871060732000,13.93873193359375,-0.8840747475624084,0.8918632864952087,-0.07788532227277756
1778948871077060400,13.955060302734376,-0.28619036078453064,0.9204211831092834,1.1504119634628296
1778948871093391400,13.971391357421876,1.2918273210525513,2.7507262229919434,1.8197675943374634
1778948871109732600,13.987732666015624,2.5056164264678955,4.251774787902832,2.1537580490112305
1778948871126054400,14.004054443359376,3.2484285831451416,4.25208044052124,2.6302330493927
1778948871142385700,14.0203857421875,3.3906075954437256,3.3316590785980225,3.0995302200317383
1778948871158718700,14.03671875,3.0048460960388184,2.417651891708374,2.861903667449951
1778948871175047000,14.053046875,1.6644550561904907,-0.6126978397369385,1.286940336227417
1778948871191379500,14.06937939453125,0.8660541772842407,-4.243222713470459,0.2393064647912979
1778948871207735800,14.08573583984375,-0.27840182185173035,-5.287038803100586,1.024420976638794
1778948871224053500,14.102053466796875,-0.4495968222618103,-3.38602614402771,3.280651807785034
1778948871240392000,14.118391845703124,-0.24633140861988068,-0.4560109078884125,3.539353132247925
1778948871256717000,14.134717041015625,-0.194713294506073,1.4196507930755615,2.311361312866211
1778948871273050400,14.15105029296875,-0.5644394755363464,2.161241292953491,1.3318389654159546
1778948871289379300,14.16737939453125,-0.9349292516708374,3.84997820854187,1.2473868131637573
1778948871305694700,14.18369482421875,-0.9062185883522034,5.079344749450684,1.5839735269546509
1778948871322030300,14.2000302734375,-0.5684100985527039,4.804149627685547,1.8031214475631714
1778948871338348800,14.216348876953125,0.12828169763088226,2.975371837615967,1.2618948221206665
1778948871354694100,14.232694091796875,0.5740606188774109,1.6562083959579468,0.35735616087913513
1778948871371024100,14.249024169921874,0.8148942589759827,1.2012665271759033,-0.25961771607398987
1778948871387356200,14.265356201171874,0.802524209022522,1.254717230796814,-0.3778201639652252
1778948871403672600,14.281672607421875,0.7313584089279175,0.9781479835510254,0.05467243865132332
1778948871420021500,14.298021484375,0.7012733221054077,0.3683517575263977,0.6792821288108826
1778948871436338200,14.314338134765626,0.5601634383201599,-0.30802878737449646,0.7631233930587769
1778948871452680700,14.3306806640625,0.2822197377681732,-0.9995282292366028,0.892779529094696
1778948871469011200,14.34701123046875,-0.11453723162412643,-0.2021963894367218,1.1378892660140991
1778948871485343500,14.363343505859374,-0.17699819803237915,1.2741122245788574,0.3856086730957031
1778948871501674200,14.37967431640625,-0.3536909818649292,0.6420193910598755,-0.3248275816440582
1778948871517988900,14.39598876953125,-0.6675229668617249,-0.48197266459465027,-0.6336199641227722
1778948871534338600,14.412338623046875,-1.1435397863388062,-0.9298896193504333,-0.983340322971344
1778948871550670000,14.428670166015625,-1.4981470108032227,-1.3362677097320557,-2.0917553901672363
1778948871567011000,14.445010986328125,-1.611920714378357,-1.6606371402740479,-3.0668489933013916
1778948871583333000,14.4613330078125,-1.5656476020812988,-2.5731170177459717,-3.2950072288513184
1778948871599662800,14.477662841796874,-1.0693196058273315,-3.124575614929199,-3.264005661010742
1778948871615995400,14.493995361328125,-1.0273226499557495,-0.9871582388877869,-2.716517686843872
1778948871632328000,14.510327880859375,-0.7754934430122375,1.5380059480667114,-2.763707160949707
1778948871648659000,14.526658935546875,-0.39965859055519104,2.733163833618164,-3.1474831104278564
1778948871664982800,14.542982666015625,-0.07009678333997726,1.3382530212402344,-2.7928760051727295
1778948871681338600,14.559338623046875,0.03451388701796532,-0.9427177906036377,-2.0557143688201904
1778948871697648600,14.575648681640626,-0.2643519341945648,-1.3431400060653687,-1.851074457168579
1778948871713979400,14.5919794921875,-0.2845104932785034,-0.23716843128204346,-2.1059579849243164
1778948871730318000,14.608318115234376,-0.11835514008998871,0.13072516024112701,-2.1038198471069336
1778948871746651100,14.624651123046876,-0.8006916046142578,-1.2289081811904907,-0.8539896011352539
1778948871762974700,14.640974609375,-1.0911580324172974,-0.7287622094154358,-0.8162686824798584
1778948871779312400,14.6573125,-1.3556627035140991,-0.6989825367927551,-0.6656904220581055
1778948871795657000,14.673656982421875,-1.6548339128494263,-1.354135513305664,-0.4473060667514801
1778948871811986200,14.689986083984374,-1.589624047279358,-2.4552202224731445,-0.5746715068817139
1778948871828313000,14.70631298828125,-1.2056952714920044,-2.9306259155273438,-0.6908885836601257
1778948871844654600,14.722654541015626,-0.7742717266082764,-2.8454103469848633,-0.6404922008514404
1778948871860981000,14.73898095703125,-0.531758189201355,-2.8466320037841797,-0.3723223805427551
1778948871877312000,14.75531201171875,-0.235030397772789,-2.83853816986084,0.12553280591964722
1778948871893626000,14.771626220703125,-0.03756821155548096,-2.500576972961426,0.750142514705658
1778948871909959200,14.787959228515625,0.16294831037521362,-2.2267565727233887,1.3119858503341675
1778948871926286800,14.804286865234374,0.3300199508666992,-1.7904460430145264,1.742034912109375
1778948871942629400,14.82062939453125,0.4101960062980652,-0.9944885969161987,1.8640552759170532
1778948871958940400,14.8369404296875,0.7252497673034668,0.5163338780403137,0.4466952085494995
1778948871975284200,14.8532841796875,0.041691552847623825,0.6933320760726929,-0.2942843437194824
1778948871991616800,14.86961669921875,-0.5783366560935974,-0.545655369758606,-0.05925392732024193
1778948872007949300,14.88594921875,-0.7660250067710876,-1.3017538785934448,-0.4882340431213379
1778948872024279300,14.902279296875,-0.940732479095459,-1.7600555419921875,-0.6893614530563354
1778948872040610300,14.9186103515625,-1.0073168277740479,-1.4582880735397339,-0.4922046661376953
1778948872056967700,14.9349677734375,-0.8022187948226929,-0.16814066469669342,-0.026114489883184433
1778948872073270800,14.951270751953125,-0.5783366560935974,1.5163202285766602,0.11789698898792267
1778948872089593000,14.967593017578125,0.30711251497268677,2.5996897220611572,-0.7035640478134155
1778948872105934800,14.983934814453125,-0.028405234217643738,1.4526375532150269,-1.4101824760437012
1778948872122268400,15.000268310546875,-0.323147714138031,1.7956384420394897,-0.7449501752853394
1778948872138599200,15.01659912109375,-0.6357579827308655,1.3356568813323975,0.33368512988090515
1778948872154936000,15.03293603515625,0.009773843921720982,2.0114264488220215,1.3506230115890503
1778948872171260200,15.04926025390625,1.4746286869049072,3.7362046241760254,2.001041889190674
1778948872187611600,15.065611572265626,2.741410493850708,4.8392744064331055,2.2459988594055176
1778948872203911700,15.08191162109375,3.322648763656616,4.638605117797852,2.5897631645202637
1778948872220269800,15.098269775390625,3.43336820602417,4.009871959686279,2.9611692428588867
1778948872236599300,15.114599365234374,2.9219212532043457,2.736370801925659,2.8293750286102295
1778948872252933000,15.13093310546875,1.4818063974380493,-1.107040524482727,1.3968961238861084
1778948872269252600,15.147252685546874,0.5264131426811218,-4.631580352783203,0.6032294034957886
1778948872285573000,15.163572998046876,-0.4486805200576782,-5.01459264755249,1.3344351053237915
1778948872301907000,15.179906982421874,-0.19074267148971558,-1.4376713037490845,3.3118059635162354
1778948872318230500,15.19623046875,0.03741549700498581,1.187827467918396,2.9744555950164795
1778948872334577000,15.212576904296874,-0.4360050559043884,1.54945969581604,1.7040085792541504
1778948872350913800,15.228913818359375,-0.6243042945861816,1.3904820680618286,0.9454666972160339
1778948872367222000,15.245221923828124,-0.875064492225647,2.6091582775115967,1.1047497987747192
1778948872383586800,15.2615869140625,-0.9143125414848328,4.26628303527832,1.2652546167373657
1778948872399915000,15.2779150390625,-0.8142833709716797,4.937623977661133,1.715462327003479
1778948872416245800,15.294245849609375,-0.299018532037735,3.902359962463379,1.9726365804672241
1778948872432568600,15.310568603515625,0.3998112976551056,2.560441732406616,1.0380127429962158
1778948872448878800,15.32687890625,0.7637342810630798,1.3982704877853394,0.0065668015740811825
1778948872465212400,15.34321240234375,0.9857838153839111,1.015868902206421,-0.4558582007884979
1778948872481559000,15.35955908203125,1.0261008739471436,0.6075055003166199,-0.16951510310173035
1778948872497885000,15.375885009765625,0.9353874325752258,0.23167064785957336,0.36942076683044434
1778948872514219300,15.39221923828125,0.7363980412483215,0.19517144560813904,0.4105014503002167
1778948872530542300,15.408542236328126,0.5705481171607971,0.3119994103908539,0.3052799105644226
1778948872546882300,15.42488232421875,0.20387627184391022,0.3010038435459137,0.5581781268119812
1778948872563212800,15.441212890625,-0.34697145223617554,0.6623306274414062,0.7209737300872803
1778948872579545600,15.457545654296876,-0.4905247986316681,0.6343835592269897,0.432034432888031
1778948872595876000,15.4738759765625,-0.5592471361160278,-0.266642689704895,-0.31352660059928894
1778948872612207900,15.490207763671876,-0.7363980412483215,-1.1339186429977417,-1.0836749076843262
1778948872628534500,15.506534423828125,-1.2560917139053345,-1.5349516868591309,-1.8712329864501953
1778948872644870000,15.522869873046876,-1.5085316896438599,-1.8712329864501953,-2.691014051437378
1778948872661199600,15.53919970703125,-1.806328535079956,-2.126880168914795,-3.276986598968506
1778948872677536500,15.55553662109375,-1.7064520120620728,-2.6731462478637695,-3.481626510620117
1778948872693865500,15.571865478515624,-1.5723671913146973,-1.9283488988876343,-3.121368646621704
1778948872710196500,15.588196533203124,-1.107040524482727,0.5568036437034607,-2.9830076694488525
1778948872726527700,15.60452783203125,-0.5832235813140869,2.344500780105591,-3.4735324382781982
1778948872742859000,15.62085888671875,-0.060933809727430344,2.3774874210357666,-3.322496175765991
1778948872759188000,15.63718798828125,0.44058656692504883,0.03191770985722542,-2.2739458084106445
1778948872775539500,15.65353955078125,0.45662176609039307,-1.5804611444473267,-1.6545284986495972
1778948872791869400,15.669869384765626,-0.014508049935102463,-1.3810136318206787,-1.870163917541504
1778948872808192500,15.686192626953124,0.029016099870204926,-0.432034432888031,-2.183537721633911
1778948872824524800,15.70252490234375,-0.15164729952812195,-1.5694655179977417,-1.2528846263885498
1778948872840870000,15.718869873046875,-0.9607383012771606,-1.5505287647247314,-0.6820310354232788
1778948872857192700,15.735192626953125,-1.3596333265304565,-0.6831000447273254,-0.8866708874702454
1778948872873507000,15.751507080078126,-1.7145460844039917,-1.641547679901123,-0.7579310536384583
1778948872889841000,15.7678408203125,-1.567480206489563,-3.380833625793457,-0.9039278626441956
1778948872906172400,15.78417236328125,-1.1496484279632568,-3.671147346496582,-0.9621127843856812
1778948872922504000,15.80050390625,-0.7678576111793518,-3.555846691131592,-0.736245334148407
1778948872938833200,15.816833251953126,-0.5068654417991638,-3.4904839992523193,-0.41630467772483826
1778948872955165700,15.833165771484374,-0.3130684494972229,-3.1033482551574707,0.18768835067749023
1778948872971497200,15.849497314453124,-0.18417587876319885,-2.447889804840088,0.8762862086296082
1778948872987830000,15.865830078125,0.01237002108246088,-1.951561689376831,1.6139060258865356
1778948873004161000,15.8821611328125,0.06734789162874222,-1.2516628503799438,1.9953913688659668
1778948873020489200,15.8984892578125,0.06414084881544113,-0.6140722632408142,2.027003526687622
1778948873036840200,15.914840087890624,0.3880521357059479,0.9556986689567566,0.7980954647064209
1778948873053169200,15.931169189453126,0.04489859566092491,1.5909985303878784,-0.06551529467105865
1778948873069480200,15.947480224609375,-0.46822822093963623,-0.29993483424186707,-0.03985895588994026
1778948873085817000,15.963817138671875,-0.5149593949317932,-1.9260581731796265,-0.6899722814559937
1778948873102135000,15.980135009765625,-0.7244861721992493,-2.168877124786377,-0.9639453291893005
1778948873118480100,15.996480224609375,-0.6476698517799377,-1.4019356966018677,-0.6768386960029602
1778948873134809600,16.0128095703125,-0.2776382565498352,-0.2096794992685318,-0.15790866315364838
1778948873151142000,16.029141845703126,-0.10201449692249298,1.7192802429199219,-0.4547891616821289
1778948873167474200,16.04547412109375,-0.1437060534954071,2.2547035217285156,-0.8765916228294373
1778948873183817700,16.061817626953125,-0.4311181604862213,2.559983491897583,-0.6136141419410706
1778948873200155600,16.07815576171875,-0.43875396251678467,2.214081048965454,0.006719517521560192
1778948873216482800,16.09448291015625,-0.22586742043495178,1.7780760526657104,0.8165740966796875
1778948873232781000,16.110781005859376,0.7596109509468079,3.0802879333496094,1.5792393684387207
1778948873249118500,16.127118408203124,2.1316142082214355,4.643950462341309,2.121993064880371
1778948873265460000,16.1434599609375,3.0330986976623535,5.124548435211182,2.45369291305542
1778948873281782800,16.15978271484375,3.2423200607299805,4.431674480438232,2.7736337184906006
1778948873298122200,16.176122314453124,2.796693801879883,3.419471025466919,2.9347493648529053
1778948873314456000,16.1924560546875,1.7918205261230469,0.4905247986316681,2.696817398071289
1778948873330785300,16.208785400390624,0.8680394887924194,-3.2924108505249023,1.7182111740112305
1778948873347119400,16.225119384765627,0.16462817788124084,-4.568966388702393,1.036943793296814
1778948873363452700,16.24145263671875,-0.20295998454093933,-2.613434314727783,2.080148935317993
1778948873379778000,16.257778076171874,0.29794952273368835,1.0213667154312134,2.8040242195129395
1778948873396107500,16.274107421875,-0.019853120669722557,1.922087550163269,2.121840476989746
1778948873412446500,16.290446533203124,-0.5427537560462952,1.4147639274597168,1.4934128522872925
1778948873428788000,16.3067880859375,-0.8565858006477356,0.6261368989944458,1.201724648475647
1778948873445104600,16.323104736328126,-0.9375254511833191,1.493565559387207,1.3173309564590454
1778948873461437400,16.3394375,-0.8897252082824707,3.4347424507141113,1.3009902238845825
1778948873477768200,16.355768310546875,-0.7964155673980713,4.713741779327393,1.6459764242172241
1778948873494103300,16.372103271484374,0.05543602257966995,3.9103012084960938,1.6117680072784424
1778948873510430500,16.388430419921875,0.607810914516449,2.066098928451538,0.7773260474205017
1778948873526750000,16.40475,0.7898487448692322,0.9645562171936035,-0.01970040425658226
1778948873543094000,16.421093994140627,0.874453604221344,0.7547240257263184,-0.2623666226863861
1778948873559425800,16.43742578125,0.9330966472625732,0.43157628178596497,0.164170041680336
1778948873575755300,16.45375537109375,0.8972083330154419,-0.1592831164598465,0.6879869699478149
1778948873592088300,16.47008837890625,0.7579310536384583,-0.5050328373908997,0.669966459274292
1778948873608419000,16.486419189453127,0.5267185568809509,-0.3199406862258911,0.5894849896430969
1778948873624763600,16.502763671875,0.17012597620487213,0.156686931848526,0.8038986921310425
1778948873641081000,16.5190810546875,-0.2021963894367218,0.7446447610855103,0.8759807348251343
1778948873657413600,16.53541357421875,-0.21212296187877655,0.835358202457428,0.2672535479068756
1778948873673743000,16.5517431640625,-0.2819143235683441,-0.17806722223758698,-0.37827831506729126
1778948873690076000,16.568075927734377,-0.5390886068344116,-0.8127561807632446,-0.7000515460968018
1778948873706407200,16.5844072265625,-1.1678216457366943,-0.8671231865882874,-1.242347240447998
1778948873722735000,16.600735107421876,-1.5180001258850098,-1.3910928964614868,-2.1345160007476807
1778948873739073000,16.617072998046876,-1.5590808391571045,-1.6991217136383057,-2.8906142711639404
1778948873755420200,16.633420166015625,-1.479362964630127,-2.171625852584839,-3.2780556678771973
1778948873771742500,16.649742431640625,-1.2119566202163696,-2.584876298904419,-3.235905885696411
1778948873788077300,16.666077392578124,-1.012050986289978,-1.4039210081100464,-2.7811167240142822
1778948873804408800,16.682408935546874,-0.6012440919876099,0.5012149214744568,-2.866943359375
1778948873820742700,16.69874267578125,-0.29016098380088806,1.853365182876587,-3.3622024059295654
1778948873837066000,16.71506591796875,-0.06994406878948212,1.5268577337265015,-3.043483257293701
1778948873853385500,16.731385498046876,0.13744467496871948,-0.42699480056762695,-2.2423336505889893
1778948873869721600,16.7477216796875,-0.05314527451992035,-1.6879733800888062,-1.9952386617660522
1778948873886051600,16.764051513671873,-0.24174992740154266,-1.3142765760421753,-2.1172590255737305
1778948873902381000,16.780381103515627,-0.15500704944133759,-0.38896843791007996,-2.0004310607910156
1778948873918716200,16.796716064453125,-0.698677122592926,-1.051146388053894,-0.9923505783081055
1778948873935043800,16.8130439453125,-1.3533719778060913,-1.1797335147857666,-0.751669704914093
1778948873951376400,16.82937646484375,-1.6339118480682373,-1.13758385181427,-0.9250026941299438
1778948873967698000,16.845697998046877,-1.8626807928085327,-2.0842721462249756,-0.7177666425704956
1778948873984039000,16.862038818359373,-1.7050776481628418,-3.1868839263916016,-0.773202657699585
1778948874000370200,16.8783701171875,-1.2194397449493408,-3.344028949737549,-0.7767151594161987
1778948874016717800,16.8947177734375,-0.8002334833145142,-3.3904547691345215,-0.60429847240448
1778948874033043700,16.911043701171874,-0.5768095254898071,-3.123506784439087,-0.3355177342891693
1778948874049361400,16.927361328125,-0.38637226819992065,-2.796999216079712,0.19135354459285736
1778948874065693700,16.943693603515626,-0.15012013912200928,-2.2742512226104736,0.8446739315986633
1778948874082027000,16.960027099609373,0.08521570265293121,-1.6291775703430176,1.4662293195724487
1778948874098355000,16.97635498046875,0.22647829353809357,-1.1406381130218506,1.9075794219970703
1778948874114689000,16.99268896484375,0.247094988822937,-0.7246388792991638,2.185675859451294
1778948874131020000,17.00902001953125,0.46150869131088257,-0.1966986060142517,1.7096590995788574
1778948874147355600,17.025355712890626,0.574976921081543,1.5796974897384644,-0.2788599729537964
1778948874163663600,17.04166357421875,-0.7438811659812927,0.8695666790008545,-0.2561052441596985
1778948874180008700,17.0580087890625,-0.8252789378166199,-1.170875906944275,-0.536797821521759
1778948874196359400,17.074359375,-0.8202393054962158,-1.700037956237793,-0.9980010986328125
1778948874212689700,17.090689697265624,-0.6863071322441101,-1.5598443746566772,-0.841008722782135
1778948874229005000,17.107005126953126,-0.5345070958137512,-0.6125451326370239,-0.18845193088054657
1778948874245334800,17.123334716796876,-0.32879820466041565,0.8941540122032166,0.7324274182319641
1778948874261657600,17.13965771484375,-0.03878994286060333,2.3012821674346924,1.8500053882598877
1778948874278007300,17.15600732421875,0.9552405476570129,5.980676174163818,2.288912057876587
1778948874294331100,17.1723310546875,1.1016954183578491,5.05078649520874,0.5467243790626526
1778948874310670000,17.188670166015626,-0.11621711403131485,2.428800106048584,-0.5099197626113892
1778948874326992100,17.2049921875,-0.82207190990448,0.38637226819992065,-0.503047525882721
1778948874343344400,17.221344482421873,-0.7249443531036377,-0.5338962078094482,0.057879481464624405
1778948874359676200,17.23767626953125,0.012064588256180286,0.2451096773147583,1.241125464439392
1778948874375980500,17.25398046875,0.7307475209236145,1.42637038230896,2.3093760013580322
1778948874392321500,17.270321533203123,1.4477506875991821,2.995072364807129,3.084411382675171
1778948874408650500,17.286650390625,2.213928461074829,4.471075534820557,3.1561880111694336
1778948874424970800,17.302970703125,2.5497515201568604,5.364313125610352,2.711019992828369
1778948874441314800,17.319314697265625,1.807550311088562,3.3731977939605713,1.4738651514053345
1778948874457641700,17.335641845703126,1.006400465965271,-0.4392121136188507,0.45524731278419495
1778948874473965600,17.351965576171875,0.5053382515907288,-2.6540567874908447,0.5242751240730286
1778948874490312200,17.368312255859376,-0.11133018881082535,-3.338378667831421,0.9250026941299438
1778948874506644500,17.38464453125,-0.33719760179519653,-2.3302981853485107,1.9446895122528076
1778948874522971600,17.4009716796875,-0.05207626149058342,0.9065240025520325,2.5138630867004395
1778948874539297300,17.41729736328125,0.05146539583802223,3.0754010677337646,1.7446311712265015
1778948874555635200,17.43363525390625,-0.1745547503232956,3.911370277404785,1.1293370723724365
1778948874571947800,17.44994775390625,-0.5022839307785034,4.138917446136475,1.0387763977050781
1778948874588296700,17.466296630859375,-0.5287038683891296,4.032016277313232,1.2687671184539795
1778948874604629000,17.48262890625,-0.3455969989299774,3.3707544803619385,1.2846496105194092
1778948874620959200,17.498959228515623,-0.10949759185314178,2.707813024520874,1.0415252447128296
1778948874637290800,17.515290771484374,-0.004886921960860491,2.426509380340576,0.8252789378166199
1778948874653621800,17.531621826171875,0.13759739696979523,2.1282544136047363,0.8463537693023682
1778948874669951700,17.54795166015625,0.36819902062416077,1.610698938369751,0.8171849846839905
1778948874686284800,17.564284912109375,0.5638286471366882,0.7053966522216797,0.5676465034484863
1778948874702615000,17.580614990234373,0.831845760345459,-0.4769330322742462,0.17928895354270935
1778948874718945800,17.59694580078125,0.7298312783241272,-0.598953366279602,0.14294247329235077
1778948874735293200,17.613293212890625,0.14324790239334106,0.7582364678382874,0.1609629988670349
1778948874751624000,17.6296240234375,-0.551916778087616,1.938580870628357,0.17379115521907806
1778948874767953000,17.645952880859376,-0.7267768979072571,1.4633276462554932,0.29565876722335815
1778948874784285400,17.662285400390626,-0.45402559638023376,0.003054326167330146,-0.242513507604599
1778948874800610600,17.678610595703127,-0.6241515874862671,-1.5202908515930176,-1.6401731967926025
1778948874816934400,17.694934326171875,-1.391703724861145,-1.5135713815689087,-2.4136812686920166
1778948874833265200,17.71126513671875,-1.6502524614334106,-1.2800681591033936,-2.9294042587280273
1778948874849596700,17.7275966796875,-1.7854063510894775,-1.4633276462554932,-3.213303804397583
1778948874865928200,17.74392822265625,-1.720807433128357,-1.6071864366531372,-2.996141195297241
1778948874882259500,17.760259521484375,-1.3112221956253052,-0.7063129544258118,-2.7954721450805664
1778948874898590000,17.77658984375,-0.8778133392333984,0.2054034322500229,-2.91733980178833
1778948874914908700,17.79290869140625,-0.6152940392494202,0.8982773423194885,-2.8984029293060303
1778948874931253000,17.8092529296875,-0.4389066696166992,0.5757405161857605,-2.5670084953308105
1778948874947585800,17.825585693359375,-0.30146199464797974,-0.45952337980270386,-2.4014639854431152
1778948874963915800,17.841915771484373,-0.3588833212852478,-0.18219055235385895,-2.676811456680298
1778948874980246500,17.85824658203125,-0.4456261992454529,1.1343767642974854,-2.8402180671691895
1778948874996594700,17.8745947265625,-0.1944078654050827,0.6281222105026245,-2.143678903579712
1778948875012898300,17.890898193359376,-0.8659014701843262,-1.5627460479736328,-0.694248378276825
1778948875029236700,17.90723681640625,-1.2116512060165405,-1.5940529108047485,-0.6768386960029602
1778948875045570300,17.9235703125,-1.4674509763717651,-1.8159496784210205,-0.8614727258682251
1778948875061903000,17.939903076171873,-1.702786922454834,-3.1361820697784424,-0.7895433306694031
1778948875078223000,17.95622314453125,-1.310916781425476,-3.545309066772461,-0.9265298843383789
1778948875094566000,17.97256591796875,-0.8746063113212585,-3.77423095703125,-0.7834346890449524
1778948875110899500,17.9888994140625,-0.6174320578575134,-3.897167444229126,-0.6435465216636658
1778948875127225300,18.005225341796876,-0.2617557644844055,-3.7643043994903564,-0.03940080851316452
1778948875143559200,18.02155908203125,0.11163562536239624,-3.232546091079712,0.8193230032920837
1778948875159902500,18.03790234375,0.33200526237487793,-2.588388681411743,1.5152512788772583
1778948875176222700,18.05422265625,0.5522221922874451,-1.829694151878357,2.0722076892852783
1778948875192570400,18.0705703125,0.7851145267486572,-0.655458390712738,2.3075435161590576
1778948875208892000,18.086891845703125,1.2560917139053345,1.1256719827651978,0.3101668357849121
1778948875225214500,18.10321435546875,0.12064588814973831,0.9237809777259827,-0.1963931769132614
1778948875241535200,18.11953515625,-0.9112582206726074,-1.162629246711731,-0.2376265823841095
1778948875257878500,18.13587841796875,-0.9642508029937744,-2.9051222801208496,-0.8057312369346619
1778948875274207700,18.152207763671875,-1.1218540668487549,-2.7462973594665527,-1.0926852226257324
1778948875290538800,18.168538818359377,-1.109789490699768,-1.5990924835205078,-0.7029531598091125
1778948875306872300,18.184872314453123,-0.6359107494354248,-0.31261029839515686,-0.2814561724662781
1778948875323220500,18.201220458984373,-0.3588833212852478,0.7066183686256409,-0.12965615093708038
1778948875339523600,18.217523681640625,0.4534147381782532,2.3988678455352783,-0.593913733959198
1778948875355876600,18.233876708984376,0.07269296050071716,1.1577423810958862,-1.4903584718704224
1778948875372205300,18.250205322265625,-0.3845396637916565,2.333810567855835,-0.8578075170516968
1778948875388528000,18.266528076171873,-0.46242499351501465,2.054187059402466,0.1033889427781105
1778948875404858600,18.282858642578127,0.076052725315094,2.548987865447998,1.0546588897705078
1778948875421190000,18.29918994140625,1.1630873680114746,4.637994289398193,1.7913622856140137
1778948875437522000,18.31552197265625,2.4164302349090576,5.38722038269043,2.4106268882751465
1778948875453850600,18.3318505859375,3.313943862915039,5.274210453033447,2.9549078941345215
1778948875470183700,18.34818359375,3.6586246490478516,4.60103702545166,3.3099732398986816
1778948875486517200,18.364517333984374,3.2200233936309814,3.8033998012542725,3.316845655441284
1778948875502845200,18.38084521484375,1.6070337295532227,0.2635883390903473,1.9750800132751465
1778948875519195000,18.39719482421875,0.403323769569397,-2.6064093112945557,0.9671524167060852
1778948875535504400,18.41350439453125,-0.44852781295776367,-2.7687466144561768,1.8316794633865356
1778948875551828200,18.429828125,-0.10537425428628922,-0.24724771082401276,3.2624785900115967
1778948875568170500,18.44617041015625,0.27580565214157104,1.46424400806427,2.6363415718078613
1778948875584502800,18.462502685546873,-0.33246341347694397,1.0236574411392212,1.7304285764694214
1778948875600833500,18.47883349609375,-0.5462662577629089,0.8316930532455444,1.0879509449005127
1778948875617160700,18.49516064453125,-0.6123924255371094,0.5763513445854187,1.0929906368255615
1778948875633497000,18.5114970703125,-0.6559165716171265,1.9225456714630127,1.2021827697753906
1778948875649830700,18.52783056640625,-0.7538077235221863,4.1998515129089355,1.2640329599380493
1778948875666159000,18.5441591796875,-0.6140722632408142,5.115996360778809,1.6082555055618286
1778948875682489600,18.560489501953125,0.07559457421302795,3.363424062728882,1.425454020500183
1778948875698821400,18.5768212890625,0.4433354437351227,1.5789339542388916,0.5148066878318787
1778948875715140400,18.593140380859374,0.5268712639808655,0.8726209998130798,-0.26481008529663086
1778948875731497200,18.609497314453126,0.5265658497810364,0.8639161586761475,-0.5141957998275757
1778948875747827000,18.625826904296876,0.6884451508522034,0.9024006724357605,-0.24648413062095642
1778948875764158000,18.642157958984374,0.8807149529457092,0.6334672570228577,0.21868975460529327
1778948875780468200,18.65846826171875,0.7802276611328125,0.2028072625398636,0.25854870676994324
1778948875796822500,18.674822509765626,0.6394231915473938,-0.699288010597229,0.08292495459318161
1778948875813135600,18.691135498046876,0.22540926933288574,-0.8000807762145996,0.6685920357704163
1778948875829471000,18.707470947265627,-0.2070833146572113,0.5668829679489136,1.1742357015609741
1778948875845802800,18.723802734375,-0.55069500207901,1.7037031650543213,1.132238745689392
1778948875862142500,18.740142578125,-0.5496259927749634,1.1737775802612305,0.36361753940582275
1778948875878462700,18.756462646484376,-0.36621370911598206,-1.3649784326553345,-1.0155634880065918
1778948875894796800,18.772796875,-0.7414376735687256,-2.2881484031677246,-1.77670156955719
1778948875911122400,18.789122314453124,-1.4818063974380493,-1.387274980545044,-2.175138473510742
1778948875927459000,18.805458984375,-1.6867516040802002,-1.3542882204055786,-2.724611759185791
1778948875943789000,18.8217890625,-2.017993450164795,-1.442100167274475,-3.092963457107544
1778948875960121300,18.838121337890627,-2.21056866645813,-1.690569519996643,-2.9805643558502197
1778948875976452400,18.854452392578125,-1.8639025688171387,-1.477835774421692,-2.6838364601135254
1778948875992780300,18.8707802734375,-1.310916781425476,-0.43188172578811646,-2.7148377895355225
1778948876009110300,18.8871103515625,-0.8037459254264832,0.8843801617622375,-2.891836166381836
1778948876025444600,18.903444580078126,-0.23640485107898712,1.493260145187378,-2.581669330596924
1778948876041775000,18.919775146484376,-0.09544769674539566,0.7958046793937683,-2.2852468490600586
1778948876058108200,18.936108154296875,-0.6056728959083557,0.5473352670669556,-2.2676844596862793
1778948876074435600,18.952435546875,-0.7787004709243774,0.671493649482727,-2.2009475231170654
1778948876090773500,18.9687734375,-1.031598687171936,-2.0647244453430176,-1.0873401165008545
1778948876107098600,18.9850986328125,-1.4370604753494263,-1.8810068368911743,-1.2035572528839111
1778948876123439900,19.00143994140625,-1.5056301355361938,-1.693318486213684,-1.638798713684082
1778948876139748900,19.017748779296873,-1.6800321340560913,-3.1143436431884766,-1.499216079711914
1778948876156107000,19.03410693359375,-1.5222761631011963,-4.77620267868042,-1.6368134021759033
1778948876172438000,19.05043798828125,-1.1239920854568481,-4.831943988800049,-1.670716404914856
1778948876188775000,19.06677490234375,-0.707840085029602,-4.641354084014893,-1.3984233140945435
1778948876205080600,19.08308056640625,-0.44180828332901,-4.677547931671143,-0.9744827747344971
1778948876221422600,19.099422607421875,-0.20799961686134338,-4.240931987762451,-0.3084869384765625
1778948876237744600,19.11574462890625,-0.12476922571659088,-3.198643207550049,0.5349652171134949
1778948876254080800,19.132080810546874,-0.10659598559141159,-2.138944625854492,1.2466232776641846
1778948876270412300,19.148412353515624,-0.07208210229873657,-1.235474944114685,1.8555032014846802
1778948876286747000,19.164746826171875,-0.0328340083360672,-0.5514585971832275,2.3160955905914307
1778948876303093500,19.181093505859376,0.22510384023189545,0.35582900047302246,2.5718953609466553
1778948876319421200,19.197421142578126,0.6334672570228577,1.1997393369674683,2.7336220741271973
1778948876335755300,19.21375537109375,1.2148582935333252,1.7547104358673096,1.5445728302001953
1778948876352070700,19.230070556640626,0.34406983852386475,0.4737260043621063,-0.1921171247959137
1778948876368403700,19.24640380859375,-0.546571671962738,-1.6545284986495972,-0.35262197256088257
1778948876384722400,19.262722412109376,-0.9147707223892212,-2.107790470123291,-0.6666067242622375
1778948876401061600,19.2790615234375,-0.7525860071182251,-1.4282029867172241,-0.6499606370925903
1778948876417395000,19.29539501953125,0.07819075137376785,-0.8860600590705872,-1.0180069208145142
1778948876433728500,19.311728515625,0.41004329919815063,-0.33078351616859436,-0.9485210180282593
1778948876450048300,19.32804833984375,-0.22189679741859436,1.8015943765640259,-1.0010554790496826
1778948876466388000,19.344387939453124,-0.22388210892677307,2.7149906158447266,-0.2606867551803589
1778948876482720800,19.360720703125,-0.20861047506332397,3.575699806213379,0.24663683772087097
1778948876499050500,19.377050537109376,0.009468411095440388,3.6283867359161377,0.7716755270957947
1778948876515380200,19.393380126953126,0.5140430927276611,3.9965858459472656,1.278388261795044
1778948876531714300,19.40971435546875,1.4121677875518799,4.831333160400391,1.7209601402282715
1778948876548044500,19.42604443359375,2.43949031829834,5.16746187210083,2.1867449283599854
1778948876564375300,19.442375244140624,3.0668489933013916,4.689459800720215,2.7120890617370605
1778948876580709600,19.458709716796875,2.9546024799346924,4.176943778991699,3.036763906478882
1778948876597037000,19.475037109375,2.417804718017578,3.4713945388793945,2.8846583366394043
1778948876613368300,19.491368408203126,1.3881912231445312,0.8956811428070068,2.325105905532837
1778948876629702400,19.507702392578125,0.46899178624153137,-1.8930714130401611,1.6256651878356934
1778948876646032000,19.524031982421874,-0.38148534297943115,-2.763707160949707,1.5436564683914185
1778948876662362600,19.540362548828124,-0.27947086095809937,-1.1549934148788452,3.048675775527954
1778948876678694100,19.556694091796874,0.3776674270629883,0.8851437568664551,3.0641000270843506
1778948876695039700,19.573039794921876,-0.054825156927108765,1.1798862218856812,2.149329423904419
1778948876711352300,19.589352294921873,-0.4915938079357147,1.0729848146438599,1.3953689336776733
1778948876727699200,19.60569921875,-0.6520986557006836,0.9387471675872803,0.8950703144073486
1778948876744032000,19.622031982421873,-0.5943718552589417,1.7172949314117432,0.7399105429649353
1778948876760362200,19.6383623046875,-0.6320928335189819,3.6215145587921143,1.1771373748779297
1778948876776693000,19.65469287109375,-0.5094616413116455,4.4011311531066895,1.9561432600021362
1778948876793008400,19.67100830078125,-0.2814561724662781,3.685044527053833,2.208430528640747
1778948876809341200,19.687341064453125,-0.10231992602348328,2.2183570861816406,1.423621416091919
1778948876825680600,19.7036806640625,0.10186178237199783,1.3413074016571045,0.5242751240730286
1778948876842004500,19.72000439453125,0.4622722864151001,0.7061602473258972,-0.016798794269561768
1778948876858323000,19.736322998046877,0.816726803779602,0.16691893339157104,0.2742784917354584
1778948876874665700,19.752665771484374,0.6470590233802795,0.056810468435287476,0.8552113175392151
1778948876890998500,19.76899853515625,0.7072292566299438,0.2347249686717987,0.3695734739303589
1778948876907321900,19.78532177734375,0.8633053302764893,0.5777258276939392,-0.48655417561531067
1778948876923660000,19.801659912109375,0.4605923891067505,1.1203268766403198,-0.5335907936096191
1778948876939992300,19.817992431640626,-0.3078760802745819,1.3255776166915894,-0.18020524084568024
1778948876956362500,19.834362548828125,-0.6834055185317993,1.017396092414856,0.2779437005519867
1778948876972666400,19.850666259765624,-0.5549710988998413,0.3312416672706604,0.5581781268119812
1778948876988969200,19.86696923828125,-0.5662720799446106,0.24755313992500305,-0.03527746722102165
1778948877005315800,19.88331591796875,-0.6543893814086914,-0.6452264189720154,-1.698510766029358
1778948877021650000,19.89964990234375,-1.0910053253173828,-1.6997325420379639,-2.624582529067993
1778948877037978000,19.91597802734375,-1.493565559387207,-1.941482424736023,-2.959031343460083
1778948877054307000,19.93230712890625,-1.6772832870483398,-1.53525710105896,-3.4439055919647217
1778948877070656800,19.94865673828125,-1.8124371767044067,-1.6840027570724487,-3.2394185066223145
1778948877086971000,19.964970947265623,-1.4549282789230347,-1.3309226036071777,-2.897486686706543
1778948877103304200,19.98130419921875,-0.6007859706878662,-0.3423899710178375,-3.0025553703308105
1778948877119650800,19.99765087890625,-0.013133603148162365,0.619111955165863,-3.1170926094055176
1778948877135983600,20.013983642578125,0.29168814420700073,0.7654141783714294,-2.771953821182251
1778948877152303900,20.030303955078125,0.5183191895484924,-0.23411411046981812,-2.246915102005005
1778948877168641000,20.04664111328125,0.3917173445224762,-0.7322747111320496,-2.194075345993042
1778948877184955100,20.062955078125,-0.15943582355976105,-0.30970868468284607,-2.2004892826080322
1778948877201293600,20.07929345703125,-0.6944010853767395,-1.7165313959121704,-1.0474811792373657
1778948877217622500,20.09562255859375,-1.2880094051361084,-1.316261887550354,-0.755793035030365
1778948877233950200,20.1119501953125,-1.6218472719192505,-1.2128729820251465,-1.096961259841919
1778948877250286300,20.128286376953124,-1.5774067640304565,-2.395508050918579,-1.1850786209106445
1778948877266613500,20.144613525390625,-1.6572774648666382,-3.997196674346924,-1.2304353713989258
1778948877282966500,20.160966552734376,-1.279915452003479,-4.320802688598633,-1.1174252033233643
1778948877299289900,20.177289794921876,-0.8611672520637512,-4.092644214630127,-0.8700248003005981
1778948877315621600,20.19362158203125,-0.608421802520752,-3.914271831512451,-0.6032294034957886
1778948877331954700,20.20995458984375,-0.4046982228755951,-3.5184311866760254,-0.1258382350206375
1778948877348267500,20.226267578125,-0.10155634582042694,-2.861140012741089,0.6368269920349121
1778948877364603000,20.242602783203125,0.11041389405727386,-1.8923077583312988,1.3200798034667969
1778948877380934100,20.25893408203125,0.2993239760398865,-1.236391305923462,1.8797850608825684
1778948877397265000,20.275264892578125,0.3295617997646332,-0.5682573914527893,2.339003086090088
1778948877413595600,20.291595703125,0.4331034719944,0.007177666760981083,1.9068158864974976
1778948877429928000,20.307927978515625,0.5674937963485718,1.7209601402282715,0.3260493278503418
1778948877446260000,20.324260009765624,-0.9098837971687317,1.669342041015625,-0.23671028017997742
1778948877462587400,20.34058740234375,-1.074817419052124,-1.5763378143310547,-0.5616905689239502
1778948877478936300,20.356936279296875,-0.8715519905090332,-2.4384212493896484,-1.09024178981781
1778948877495267800,20.373267822265625,-0.7866417169570923,-1.9094120264053345,-1.034500241279602
1778948877511579000,20.389578857421874,-0.545655369758606,-0.8304712772369385,-0.3741549551486969
1778948877527912700,20.40591259765625,-0.3136793076992035,0.790154218673706,0.6885978579521179
1778948877544245200,20.422245361328127,-0.2997821271419525,2.2800545692443848,1.816102385520935
1778948877560576800,20.43857666015625,0.7160868048667908,6.287635803222656,1.8752036094665527
1778948877576906500,20.454906494140626,0.4014911949634552,3.5885279178619385,-0.5824599862098694
1778948877593238500,20.471238525390625,-0.42562034726142883,1.706910252571106,-0.9471465349197388
1778948877609568800,20.48756884765625,-0.8089383244514465,0.6359107494354248,-0.45433104038238525
1778948877625900800,20.50390087890625,-0.36300668120384216,0.7965682744979858,0.4401284158229828
1778948877642231800,20.520231689453126,0.6044511795043945,1.7140878438949585,1.123686671257019
1778948877658564900,20.53656494140625,1.5937473773956299,3.1389310359954834,1.6998852491378784
