time,seconds_elapsed,z,y,x
1779968646669639700,0.0096396484375,-1.6948261260986328,1.4663033485412598,-0.07743367552757263
1779968646685976600,0.0259765625,-2.096564769744873,1.627988576889038,0.39752277731895447
1779968646702306600,0.042306640625,-1.7920184135437012,1.9717128276824951,0.8445308804512024
1779968646718644700,0.058644775390625,-0.7761697769165039,1.9944262504577637,1.124713659286499
1779968646734974000,0.074973876953125,-0.3610496520996094,1.571244716644287,0.45192715525627136
1779968646751307000,0.09130712890625,-0.0809774398803711,1.0098800659179688,0.4426288902759552
1779968646833959400,0.17395947265625,1.298243522644043,1.2092127799987793,0.41204601526260376
1779968646850282500,0.190282470703125,1.2863178253173828,-1.0895483493804932,1.1420575380325317
1779968646866625800,0.206625732421875,1.9755926132202148,-1.715458869934082,1.2001739740371704
1779968646882965200,0.22296533203125,-0.9631600379943848,-2.815330982208252,2.459996223449707
1779968646899288800,0.239288818359375,-3.9095358848571777,-2.2163279056549072,2.2211382389068604
1779968646915636000,0.255635986328125,-4.675931930541992,-1.8398842811584473,3.522905111312866
1779968646931978500,0.271978515625,-2.746821880340576,-0.23327302932739258,3.0946943759918213
1779968646948312600,0.2883125,-0.1852273941040039,3.1814022064208984,-0.9008561372756958
1779968646964646700,0.304646728515625,-0.44848108291625977,6.613659381866455,-6.9046173095703125
1779968646980980000,0.32097998046875,-1.037285327911377,0.39968204498291016,0.030194401741027832
1779968646997317000,0.337317138671875,-2.11141300201416,-1.7918214797973633,-0.10053360462188721
1779968647013633000,0.353633056640625,-2.6663126945495605,1.3003859519958496,-1.8318891525268555
1779968647029967000,0.369967041015625,-1.30049467086792,0.16980743408203125,0.7776552438735962
1779968647046295300,0.38629541015625,0.0953826904296875,0.5974240303039551,2.131420850753784
1779968647062635800,0.4026357421875,-0.0787515640258789,0.8156299591064453,1.4944841861724854
1779968647078977300,0.418977294921875,-0.5518674850463867,0.5075898170471191,0.20745158195495605
1779968647095310800,0.435310791015625,-1.7763376235961914,0.4462320804595947,-1.1660950183868408
1779968647111660000,0.451659912109375,-1.666764259338379,-0.6606998443603516,-1.1097581386566162
1779968647127966700,0.467966796875,-1.499730110168457,-0.27883005142211914,-0.6004968285560608
1779968647144300500,0.484300537109375,0.6812019348144531,1.4350049495697021,0.2751568555831909
1779968647160635400,0.500635498046875,1.5134143829345703,0.3012540340423584,1.6146960258483887
1779968647176941000,0.516941162109375,2.342679977416992,0.5016899108886719,0.8222832679748535
1779968647193290800,0.533290771484375,1.1829156875610352,0.11408042907714844,0.3649415969848633
1779968647209618000,0.549617919921875,0.5398283004760742,-0.16639113426208496,0.4023827910423279
1779968647225954600,0.56595458984375,0.8719139099121094,0.3492696285247803,0.1601690649986267
1779968647242284300,0.5822841796875,0.38441944122314453,0.8878827095031738,0.22907984256744385
1779968647258620000,0.598619873046875,0.949894905090332,0.9199783802032471,0.03639942407608032
1779968647274951000,0.614950927734375,0.9381065368652344,0.6211553812026978,-0.09187138080596924
1779968647291285800,0.63128564453125,1.0711116790771484,0.19547903537750244,0.2743065357208252
1779968647307612700,0.64761279296875,0.8524103164672852,-0.05962240695953369,0.2928776741027832
1779968647323950300,0.663950439453125,-0.2987632751464844,0.1730290651321411,-0.25001785159111023
1779968647340281600,0.680281494140625,-1.613607406616211,-0.08768165111541748,-0.38878554105758667
1779968647356616200,0.6966162109375,-3.008481979370117,-0.5703345537185669,-0.8206400871276855
1779968647372944400,0.7129443359375,-4.412695407867432,-0.9503035545349121,-1.0730973482131958
1779968647389281000,0.729281005859375,-5.8567214012146,-0.9141532182693481,-1.1966590881347656
1779968647405614600,0.745614501953125,-6.350034713745117,-0.9037182331085205,-1.3053019046783447
1779968647421959200,0.761959228515625,-5.455406188964844,-1.356494665145874,-1.498805046081543
1779968647438292700,0.778292724609375,-5.0731282234191895,-1.7093441486358643,-1.4331657886505127
1779968647454607600,0.794607666015625,-4.857785701751709,-1.514907717704773,-1.3749170303344727
1779968647470958300,0.810958251953125,-4.951177597045898,-1.0462857484817505,-1.4569947719573975
1779968647487286000,0.8272861328125,-5.596566677093506,-1.0076289176940918,-1.5923042297363281
1779968647503604200,0.843604248046875,-5.247190475463867,-3.0060386657714844,-1.4911153316497803
1779968647519934500,0.8599345703125,-5.119494915008545,-5.175808429718018,-1.0693988800048828
1779968647536285000,0.876284912109375,-4.6926116943359375,-4.778972148895264,-1.2526795864105225
1779968647552624600,0.892624755859375,-6.59171199798584,-3.919917583465576,-2.4158074855804443
1779968647568950500,0.908950439453125,-7.310891628265381,-5.2380805015563965,-2.14864182472229
1779968647585287200,0.925287109375,-8.189547538757324,-6.368536949157715,-1.2053742408752441
1779968647601588700,0.941588623046875,-6.718990325927734,-7.140868186950684,0.8874516487121582
1779968647617952500,0.957952392578125,-2.634047269821167,-6.897907733917236,2.036012649536133
1779968647634265300,0.974265380859375,1.1050353050231934,-6.826560974121094,5.2846479415893555
1779968647650616000,0.990615966796875,4.7929229736328125,-5.200833320617676,7.754913330078125
1779968647666917600,1.006917724609375,7.3180742263793945,-4.297112464904785,9.174154281616211
1779968647683268900,1.023268798828125,7.227572441101074,-4.2055888175964355,10.707361221313477
1779968647699600100,1.03960009765625,5.659618377685547,-2.6989808082580566,12.165397644042969
1779968647715916300,1.055916259765625,4.473267078399658,-0.06151747703552246,13.72680377960205
1779968647732252200,1.072252197265625,3.9237241744995117,3.304713010787964,15.259298324584961
1779968647748586500,1.08858642578125,3.955655097961426,5.783053874969482,16.81859588623047
1779968647764916500,1.10491650390625,4.697490215301514,6.906161308288574,15.26288890838623
1779968647781252900,1.1212529296875,3.484422206878662,7.562767505645752,12.546041488647461
1779968647797584400,1.13758447265625,1.9943135976791382,6.400232315063477,10.035311698913574
1779968647813917000,1.1539169921875,0.6079318523406982,3.5023655891418457,8.373449325561523
1779968647830247200,1.1702470703125,-2.099517822265625,1.2004101276397705,6.331811904907227
1779968647846582000,1.18658203125,-3.808830738067627,1.8849561214447021,2.24600887298584
1779968647862913000,1.2029130859375,-7.364105701446533,-0.4120063781738281,1.1760711669921875
1779968647879247400,1.219247314453125,-8.581756591796875,-1.5368618965148926,-0.5351572036743164
1779968647895579400,1.235579345703125,-3.726726531982422,0.4750552177429199,0.22963809967041016
1779968647911928600,1.251928466796875,1.8527953624725342,2.2058753967285156,3.8016481399536133
1779968647928255200,1.268255126953125,7.488307476043701,2.0393171310424805,3.6786623001098633
1779968647944590600,1.284590576171875,-1.7058584690093994,1.8175535202026367,2.2280054092407227
1779968647960917000,1.3009169921875,-6.233241558074951,1.3997397422790527,-0.1994781494140625
1779968647977259000,1.317259033203125,5.2734599113464355,0.733997106552124,1.1356759071350098
1779968647993586700,1.333586669921875,0.07240676879882812,1.8664040565490723,-0.18287897109985352
1779968648009924000,1.349924072265625,-4.255544185638428,1.8506808280944824,-2.888373374938965
1779968648026261500,1.366261474609375,-0.8342189788818359,2.024834632873535,-3.6323373317718506
1779968648042595600,1.382595703125,-5.1737189292907715,1.513174057006836,-4.271818161010742
1779968648058935800,1.398935791015625,-4.703525066375732,1.4606730937957764,-3.9961695671081543
1779968648075248600,1.41524853515625,-3.811119556427002,1.758474349975586,-2.3968300819396973
1779968648091597000,1.43159716796875,-3.4023635387420654,2.2927968502044678,-1.175015926361084
1779968648107896000,1.44789599609375,-3.442082166671753,1.2657079696655273,1.1615982055664062
1779968648124262700,1.4642626953125,-5.562532424926758,-0.7586555480957031,1.2904858589172363
1779968648140599800,1.480599853515625,-3.51882266998291,0.9787278175354004,-0.07010841369628906
1779968648156909800,1.496909912109375,-1.3496675491333008,1.0000908374786377,0.7624354362487793
1779968648173241300,1.513241455078125,2.7314624786376953,-0.38092565536499023,1.827563762664795
1779968648189579000,1.5295791015625,5.071567535400391,-1.3689374923706055,2.0389976501464844
1779968648205908000,1.545907958984375,3.971789836883545,-0.9234204292297363,1.7252373695373535
1779968648222247200,1.5622470703125,2.762448310852051,-0.06281328201293945,0.6940383911132812
1779968648238578000,1.578577880859375,3.070490837097168,-0.09375381469726562,0.47647571563720703
1779968648254909700,1.59490966796875,3.1618669033050537,-1.1538028717041016,0.5245790481567383
1779968648271255000,1.611255126953125,2.5198469161987305,-2.116424560546875,0.9385213851928711
1779968648287566800,1.62756689453125,1.2664296627044678,-1.4645171165466309,0.7347769737243652
1779968648303908600,1.64390869140625,0.5381374359130859,0.6989097595214844,-0.02724456787109375
1779968648320240400,1.660240478515625,-0.26114583015441895,0.814265251159668,0.21808385848999023
1779968648336574000,1.676573974609375,-1.8518691062927246,-1.280148983001709,2.0502686500549316
1779968648352901600,1.692901611328125,-3.99918794631958,-0.21709012985229492,1.8475513458251953
1779968648369236700,1.70923681640625,-5.284667491912842,-0.0527949333190918,1.3843660354614258
1779968648385577200,1.7255771484375,-2.188052177429199,-1.1217188835144043,1.265310287475586
1779968648401915100,1.7419150390625,-1.3340229988098145,-2.4179840087890625,1.0985527038574219
1779968648418230300,1.758230224609375,-0.1302502155303955,-1.4339756965637207,1.7186765670776367
1779968648434583600,1.77458349609375,0.3461449146270752,-1.5658745765686035,1.6477117538452148
1779968648450898200,1.790898193359375,0.7631747722625732,-0.5976576805114746,1.425429344177246
1779968648467247400,1.807247314453125,0.6386961936950684,-0.29735469818115234,0.384063720703125
1779968648483563000,1.82356298828125,-0.5365065336227417,-1.004593849182129,-0.5201129913330078
1779968648499910400,1.839910400390625,-0.6577936410903931,0.0042209625244140625,-1.0851130485534668
1779968648516249600,1.85624951171875,2.4514694213867188,0.0871586799621582,-0.6192193031311035
1779968648532576800,1.87257666015625,-1.093695878982544,3.494509696960449,-2.563973903656006
1779968648548907500,1.888907470703125,0.7000293731689453,0.9624514579772949,-2.397653579711914
1779968648565248000,1.905248046875,-1.705339789390564,2.7073419094085693,-2.5366692543029785
1779968648581570600,1.921570556640625,-7.324673652648926,1.4130423069000244,-2.8352251052856445
1779968648597896400,1.937896484375,-1.8210818767547607,4.144962787628174,-3.5388975143432617
1779968648614238000,1.954238037109375,0.02997744083404541,2.0830130577087402,-1.8363080024719238
1779968648630564000,1.970564208984375,-2.333111047744751,3.0152249336242676,-0.9333200454711914
1779968648646886100,1.98688623046875,-2.638033151626587,2.5916707515716553,-1.3068222999572754
1779968648663228400,2.003228515625,-2.2280242443084717,2.4716413021087646,-1.9109992980957031
1779968648679543000,2.01954296875,-2.790928840637207,2.406705617904663,-2.6815638542175293
1779968648695893800,2.035893798828125,-4.054150104522705,2.8818211555480957,-2.2652716636657715
1779968648712223200,2.05222314453125,-2.1292355060577393,0.6103391647338867,0.13354873657226562
1779968648728544000,2.0685439453125,-0.3604606091976166,-1.3964481353759766,0.29937744140625
1779968648744888800,2.084888916015625,1.2824465036392212,-0.17741012573242188,3.245858669281006
1779968648761221600,2.1012216796875,-0.417489230632782,-3.5518903732299805,5.595124244689941
1779968648777551000,2.117551025390625,-2.7254996299743652,-1.0366334915161133,5.699927806854248
1779968648793887700,2.1338876953125,-2.3890035152435303,0.770327091217041,3.9030251502990723
1779968648810218800,2.15021875,-2.144117832183838,5.613901138305664,-1.0390410423278809
1779968648826552600,2.166552490234375,-0.49543631076812744,-3.8445844650268555,-1.1323199272155762
1779968648842883300,2.18288330078125,-3.1518170833587646,-6.12319278717041,-1.9510347843170166
1779968648859218400,2.199218505859375,-4.072430610656738,-6.050225257873535,-0.7566640377044678
1779968648875552300,2.21555224609375,4.613809108734131,-2.428068161010742,-0.6964232921600342
1779968648891895800,2.231895751953125,-4.689670562744141,-0.26489830017089844,2.4168996810913086
1779968648908228000,2.24822802734375,1.1190176010131836,-1.1963167190551758,-1.676898717880249
1779968648924557800,2.264557861328125,3.6848719120025635,2.7798643112182617,-1.6627299785614014
1779968648940882000,2.2808818359375,1.3134772777557373,4.028256416320801,-1.0091049671173096
1779968648957224000,2.297223876953125,-1.9371901750564575,3.5185790061950684,-2.249783992767334
1779968648973561000,2.31356103515625,-0.662534236907959,3.639453411102295,-3.093998908996582
1779968648989894000,2.329893798828125,1.5817234516143799,4.223779678344727,-2.478243350982666
1779968649006208000,2.3462080078125,2.778350830078125,4.156005382537842,-1.9766955375671387
1779968649022556200,2.36255615234375,2.679548501968384,4.2179718017578125,-1.7191896438598633
1779968649038880000,2.3788798828125,1.8477497100830078,3.5406856536865234,-1.9812202453613281
1779968649055223000,2.39522314453125,2.1611931324005127,3.04740571975708,-1.6683495044708252
1779968649071554000,2.411553955078125,-0.18668924272060394,2.9820642471313477,-1.5087662935256958
1779968649087890000,2.427889892578125,3.3366641998291016,3.0053000450134277,-1.0732709169387817
1779968649104217000,2.444217041015625,0.29892635345458984,2.6762819290161133,-1.5353808403015137
1779968649120554500,2.460554443359375,-0.7476951479911804,3.435154438018799,-4.633578777313232
1779968649136880000,2.476880126953125,0.7255617380142212,1.593693733215332,-2.428262233734131
1779968649153205800,2.493205810546875,-5.174527645111084,5.268453121185303,-0.08744513988494873
1779968649169534700,2.50953466796875,-3.9999611377716064,-28.928544998168945,3.1097960472106934
1779968649185860000,2.525860107421875,3.487708330154419,-25.84785270690918,-6.698060512542725
1779968649202202400,2.542202392578125,13.0818510055542,1.377608299255371,-9.632622718811035
1779968649218535700,2.55853564453125,1.6945183277130127,1.3369321823120117,0.4914553761482239
1779968649234867000,2.574866943359375,0.6220327615737915,3.6185555458068848,3.0162060260772705
1779968649251202000,2.5912021484375,0.04911208152770996,3.422697067260742,3.075528144836426
1779968649267526700,2.607526611328125,-0.4080369472503662,1.4914608001708984,2.357761859893799
1779968649283856600,2.623856689453125,0.05338883399963379,0.7392959594726562,1.6217395067214966
1779968649300198100,2.6401982421875,0.8286442756652832,1.0946893692016602,1.6034859418869019
1779968649316520000,2.65652001953125,-1.1500529050827026,0.6903772354125977,1.5645736455917358
1779968649332861400,2.672861328125,-6.059210300445557,-1.452535629272461,0.11666184663772583
1779968649349186800,2.689186767578125,-6.369873523712158,-1.0131845474243164,-0.37959182262420654
1779968649365530400,2.7055302734375,-3.7550673484802246,1.5359506607055664,0.5245116949081421
1779968649381876700,2.721876708984375,0.7582979202270508,0.7486486434936523,0.9137920141220093
1779968649398207700,2.738207763671875,0.5482234954833984,-1.0931568145751953,1.871150255203247
1779968649414538800,2.754538818359375,-1.506168246269226,-1.083242416381836,1.8371758460998535
1779968649430872300,2.770872314453125,-3.132218599319458,-0.6497554779052734,1.212704062461853
1779968649447208000,2.7872080078125,-3.0523693561553955,-1.0956974029541016,1.089020013809204
1779968649463523800,2.80352392578125,-2.415008783340454,-1.755126953125,1.693556547164917
1779968649479868200,2.8198681640625,-1.9396852254867554,-2.253742218017578,2.521169662475586
1779968649496206000,2.8362060546875,-2.239856243133545,-2.937924385070801,3.242506265640259
1779968649512536000,2.8525361328125,-2.3124608993530273,-3.518540382385254,3.847900867462158
1779968649528868400,2.868868408203125,-2.2308437824249268,-2.888296127319336,4.175695419311523
1779968649545199600,2.88519970703125,-4.957140922546387,-4.766141891479492,3.2798213958740234
1779968649561519600,2.90151953125,-4.591530799865723,-7.9409990310668945,3.0922160148620605
1779968649577865200,2.917865234375,-1.9259703159332275,-5.312573432922363,2.3251137733459473
1779968649594204400,2.934204345703125,-2.2909295558929443,-2.318234443664551,2.2911040782928467
1779968649610529300,2.950529296875,-2.000715494155884,-0.7505016326904297,2.047503709793091
1779968649626832600,2.96683251953125,-1.586938500404358,-0.5862550735473633,1.2386378049850464
1779968649643181800,2.983181884765625,-1.1118881702423096,-1.7650585174560547,0.2429046928882599
1779968649659505200,2.999505126953125,-0.5121378302574158,-3.8696584701538086,-1.1488151550292969
1779968649675850500,3.0158505859375,0.023571491241455078,-6.378373146057129,-1.9777719974517822
1779968649692181800,3.032181640625,1.1813288927078247,-6.196837425231934,-2.545487642288208
1779968649708517000,3.04851708984375,1.8670408725738525,-3.91133975982666,-3.0662479400634766
1779968649724846600,3.0648466796875,0.6984025239944458,-1.4376153945922852,-3.5685882568359375
1779968649741196300,3.0811962890625,-2.3337388038635254,0.36960887908935547,-3.589338779449463
1779968649757508000,3.097508056640625,-2.937476396560669,0.7573671340942383,-2.540405750274658
1779968649773846800,3.1138466796875,-0.5675252676010132,1.3795757293701172,-0.15681636333465576
1779968649790177500,3.130177490234375,2.3658499717712402,0.9048185348510742,2.316295623779297
1779968649806510600,3.146510498046875,2.718248128890991,0.44863414764404297,4.444426536560059
1779968649822842400,3.16284228515625,0.06376457214355469,0.7534942626953125,4.85117244720459
1779968649839176700,3.1791767578125,1.1711593866348267,0.8234643936157227,2.9964406490325928
1779968649855506200,3.195506103515625,2.2909677028656006,2.1643805503845215,2.1469287872314453
1779968649871842600,3.211842529296875,4.414470195770264,3.6002297401428223,1.2086974382400513
1779968649888192000,3.22819189453125,4.893438339233398,5.087734222412109,-0.01547396183013916
1779968649904498700,3.244498779296875,4.359389781951904,7.272116184234619,-1.0649527311325073
1779968649920850400,3.260850341796875,3.6596789360046387,7.434823036193848,-1.3098584413528442
1779968649937185000,3.27718505859375,3.8231897354125977,5.917776584625244,-1.0755656957626343
1779968649953502000,3.293501953125,2.9063360691070557,4.8022966384887695,-1.0734052658081055
1779968649969834500,3.30983447265625,1.1067519187927246,4.269980430603027,-0.13045012950897217
1779968649986183000,3.326182861328125,-0.8682894706726074,3.2549948692321777,1.2431507110595703
1779968650002502100,3.342502197265625,-1.8552093505859375,1.2364802360534668,1.323095440864563
1779968650018851600,3.3588515625,-7.5985798835754395,0.7870650291442871,0.781801164150238
1779968650035164000,3.375163818359375,-12.010735511779785,0.7509889602661133,1.0291584730148315
1779968650051495200,3.3914951171875,-8.56714916229248,0.3479347229003906,2.3570027351379395
1779968650067831300,3.407831298828125,-5.430152893066406,-0.1596660614013672,1.58148992061615
1779968650084162800,3.424162841796875,-6.381570339202881,-1.2976946830749512,1.558290958404541
1779968650100499700,3.440499755859375,-5.989882469177246,-4.772721290588379,-2.5581719875335693
1779968650116830000,3.456829833984375,5.188445091247559,-2.3355817794799805,-7.39235258102417
1779968650133164300,3.473164306640625,14.587079048156738,7.937414646148682,-8.049261093139648
1779968650149497900,3.489497802734375,8.801703453063965,7.0331621170043945,-7.393275260925293
1779968650165808000,3.50580810546875,-7.0835652351379395,3.938586950302124,-9.208091735839844
1779968650182163500,3.52216357421875,7.990398406982422,3.0541300773620605,2.404571056365967
1779968650198493000,3.538492919921875,14.574739456176758,-0.7322969436645508,3.0785975456237793
1779968650214829300,3.554829345703125,6.156696796417236,-4.689603805541992,-1.6118522882461548
1779968650231176000,3.571176025390625,-1.6829793453216553,-9.667428970336914,-2.5079731941223145
1779968650247488800,3.58748876953125,-0.2635986804962158,-9.9732027053833,0.027058422565460205
1779968650263812400,3.603812255859375,0.5822458267211914,-5.966721534729004,0.5331240892410278
1779968650280157200,3.6201572265625,-0.5062124729156494,-1.9738874435424805,2.832826614379883
1779968650296491800,3.63649169921875,0.5629756450653076,-3.0675182342529297,3.3636231422424316
1779968650312822000,3.652822021484375,-0.4883953332901001,-6.045281410217285,2.0755014419555664
1779968650329142300,3.669142333984375,-4.034570693969727,-17.006446838378906,4.268332481384277
1779968650345478000,3.685477783203125,-1.9673799276351929,-14.77735710144043,10.164389610290527
1779968650361822700,3.70182275390625,3.005138874053955,-8.141220092773438,10.31506633758545
1779968650378151400,3.7181513671875,-0.11388146877288818,-8.295968055725098,7.155333042144775
1779968650394471000,3.734470947265625,-13.81799602508545,-3.176624298095703,0.08191168308258057
1779968650410807600,3.7508076171875,-16.659770965576172,-0.7293024063110352,-4.369420528411865
1779968650427140400,3.767140380859375,-10.882660865783691,2.6144776344299316,-3.9903390407562256
1779968650443479600,3.7834794921875,-7.35712194442749,6.557413578033447,-2.7417917251586914
1779968650459816000,3.79981591796875,-2.3127336502075195,8.262250900268555,-1.266068458557129
1779968650476152600,3.816152587890625,-6.8267107009887695,10.939016342163086,-0.07363831996917725
1779968650492482000,3.83248193359375,-10.498871803283691,10.210824012756348,2.877441883087158
1779968650508814000,3.84881396484375,-4.960672378540039,6.799415588378906,5.760331153869629
1779968650525148000,3.86514794921875,-3.3875889778137207,6.395204067230225,6.209497451782227
1779968650541481200,3.881481201171875,-4.329381465911865,7.570089817047119,4.729157447814941
1779968650557828000,3.897828125,-4.339818000793457,8.48520565032959,4.083955764770508
1779968650574157000,3.914156982421875,-5.590027809143066,9.359432220458984,5.396011829376221
1779968650590491000,3.930490966796875,-6.866456508636475,7.958425521850586,4.661086559295654
1779968650606825700,3.94682568359375,-1.446982502937317,6.470329284667969,2.8030266761779785
1779968650623138300,3.96313818359375,3.4836270809173584,2.9358129501342773,2.584848165512085
1779968650639475500,3.979475341796875,4.353230953216553,-5.908139228820801,1.6907709836959839
1779968650655808500,3.99580859375,-5.656094551086426,-23.680191040039062,1.114729881286621
1779968650672141000,4.01214111328125,-6.6670403480529785,-50.481903076171875,0.5659791231155396
1779968650688473600,4.0284736328125,4.416738510131836,-34.42624282836914,-0.920558750629425
1779968650704801500,4.044801513671875,1.186924695968628,-9.225189208984375,-2.6657564640045166
1779968650721146600,4.061146728515625,4.544106483459473,-7.000253677368164,-3.447364330291748
1779968650737466000,4.077466064453125,-4.465559482574463,-9.49763298034668,-3.4707231521606445
1779968650753805600,4.0938056640625,-4.352522850036621,-5.389568328857422,4.3236613273620605
1779968650770124800,4.110124755859375,-0.2074604034423828,-2.8418588638305664,8.522703170776367
1779968650786470400,4.126470458984375,4.788572788238525,0.780113697052002,4.41790771484375
1779968650802801000,4.14280078125,7.643157482147217,7.100724220275879,-1.4320478439331055
1779968650819137800,4.1591376953125,10.320783615112305,13.16189193725586,-2.9482667446136475
1779968650835463200,4.175463134765625,11.282779693603516,14.720675468444824,-4.144256114959717
1779968650851814700,4.191814697265625,13.02534294128418,15.139810562133789,-3.906437873840332
1779968650868145000,4.208144775390625,12.280004501342773,17.259557723999023,-2.1171116828918457
1779968650884467700,4.2244677734375,14.51997184753418,16.842918395996094,0.4707515239715576
1779968650900809000,4.24080908203125,11.782642364501953,13.894307136535645,2.3459248542785645
1779968650917128400,4.25712841796875,1.4033774137496948,9.189765930175781,2.6099987030029297
1779968650933451000,4.273450927734375,-28.34274673461914,-2.619664192199707,1.9713826179504395
1779968650949810700,4.289810791015625,-24.272274017333984,-12.520895957946777,6.429341793060303
1779968650966127000,4.306127197265625,7.288455486297607,-1.5302677154541016,6.068172931671143
1779968650982457900,4.322457763671875,16.354087829589844,5.029165744781494,2.3375887870788574
1779968650998806500,4.338806640625,21.192092895507812,-4.5379791259765625,-2.539560317993164
1779968651015137500,4.355137451171875,13.558087348937988,-13.572623252868652,-6.332637310028076
1779968651031461400,4.37146142578125,8.850836753845215,-7.250507354736328,-7.5272698402404785
1779968651047789800,4.387789794921875,2.826465368270874,-3.2420263290405273,-5.324667930603027
1779968651064154600,4.404154541015625,-5.828484535217285,2.086792469024658,-5.226132392883301
1779968651080472300,4.420472412109375,1.16335129737854,2.976325511932373,-2.604492664337158
1779968651096801500,4.436801513671875,2.3069913387298584,-6.023171424865723,-1.3789341449737549
1779968651113131800,4.4531318359375,-3.4578311443328857,-27.355241775512695,4.014279365539551
1779968651129459500,4.46945947265625,-3.295207977294922,-27.252941131591797,12.368518829345703
1779968651145774600,4.485774658203125,4.416286945343018,-12.504816055297852,13.765311241149902
1779968651162120400,4.502120361328125,-6.276214122772217,-8.302475929260254,10.691938400268555
1779968651178454800,4.518454833984375,-15.215307235717773,-5.580378532409668,1.3955477476119995
1779968651194787300,4.534787353515625,-11.632667541503906,-4.057735443115234,-7.172285556793213
1779968651211106300,4.551106201171875,-6.784536361694336,3.59690523147583,-4.786832332611084
1779968651227438000,4.56743798828125,-4.580681324005127,3.878235340118408,1.0689210891723633
1779968651243771600,4.583771728515625,-12.326226234436035,8.280574798583984,2.3118932247161865
1779968651260108300,4.6001083984375,-7.070612907409668,7.221057415008545,4.454116344451904
1779968651276444200,4.616444091796875,0.6142926216125488,5.951912879943848,9.454680442810059
1779968651292771000,4.63277099609375,-2.048893451690674,7.618040084838867,8.390595436096191
1779968651309103400,4.649103271484375,-6.015807628631592,9.865628242492676,5.527091979980469
1779968651325435600,4.665435546875,-6.230256080627441,11.00055980682373,3.791041374206543
1779968651341768200,4.681768310546875,-2.9601612091064453,11.504294395446777,3.167257308959961
1779968651358099200,4.69809912109375,-0.6897946000099182,11.25843620300293,3.0015430450439453
1779968651374433500,4.71443359375,0.29728513956069946,8.481733322143555,4.133373737335205
1779968651390766000,4.73076611328125,1.8358778953552246,5.851573944091797,5.30628776550293
1779968651407100000,4.747099853515625,-2.459510326385498,-0.2305135726928711,5.94611930847168
1779968651423430400,4.763430419921875,-2.955904006958008,-12.535964012145996,5.756955623626709
1779968651439765200,4.77976513671875,-2.624363660812378,-27.277822494506836,2.9786596298217773
1779968651456096300,4.79609619140625,2.7287445068359375,-45.30296325683594,-1.5044890642166138
1779968651472429600,4.8124296875,2.9789352416992188,-31.227252960205078,-3.3255996704101562
1779968651488763100,4.82876318359375,4.5025529861450195,-8.320533752441406,-3.577564239501953
1779968651505096000,4.845095947265625,-5.466460227966309,-2.9907960891723633,0.39084479212760925
1779968651521429800,4.8614296875,-4.171365737915039,-6.504594802856445,7.936255931854248
1779968651537761000,4.877760986328125,1.091728687286377,-7.115822792053223,8.54862117767334
1779968651554093600,4.894093505859375,2.1428914070129395,-4.423763275146484,4.248857498168945
1779968651570428200,4.91042822265625,5.772738456726074,0.9801969528198242,-1.1489520072937012
1779968651586759200,4.92675927734375,9.742576599121094,8.480300903320312,-3.8338115215301514
1779968651603092200,4.94309228515625,10.651018142700195,14.09131908416748,-2.817103385925293
1779968651619425300,4.95942529296875,12.862823486328125,15.822529792785645,-3.0953502655029297
1779968651635755300,4.97575537109375,13.345890045166016,17.89206314086914,-4.530515193939209
1779968651652103000,4.99210302734375,13.870506286621094,20.97857666015625,-4.261410713195801
1779968651668435200,5.008435302734375,13.350207328796387,17.542789459228516,-1.6703832149505615
1779968651684764700,5.0247646484375,8.955377578735352,11.327690124511719,-0.3342885971069336
1779968651701110800,5.04111083984375,4.842294692993164,6.932032585144043,1.4388909339904785
1779968651717432800,5.057432861328125,-11.401345252990723,-6.390064239501953,3.053504467010498
1779968651733759700,5.073759765625,-38.02556228637695,-16.55388069152832,3.6475296020507812
1779968651750098400,5.090098388671875,-3.5992417335510254,-3.8249692916870117,5.01123571395874
1779968651766431700,5.106431640625,21.681848526000977,9.912715911865234,4.142544746398926
1779968651782759400,5.122759521484375,24.421710968017578,4.214993953704834,-0.9324163198471069
1779968651799095600,5.139095458984375,19.869089126586914,-21.280017852783203,-6.642625331878662
1779968651815444000,5.15544384765625,5.827634811401367,-20.21693229675293,-20.52806854248047
1779968651831774700,5.171774658203125,-0.043280601501464844,-2.5155534744262695,-10.260968208312988
1779968651848088600,5.188088623046875,1.6638530492782593,3.8651676177978516,0.10134148597717285
1779968651864438800,5.204438720703125,2.7410717010498047,1.6747913360595703,2.426638126373291
1779968651880769000,5.22076904296875,2.297797441482544,-13.920975685119629,4.779623031616211
1779968651897100300,5.237100341796875,3.28788423538208,-29.475553512573242,13.295252799987793
1779968651913440000,5.25343994140625,2.216592788696289,-17.801162719726562,17.68523406982422
1779968651929769000,5.26976904296875,-10.203612327575684,-13.112906455993652,17.63124656677246
1779968651946088000,5.286087890625,-23.08038330078125,-4.341954231262207,4.931076526641846
1779968651962431700,5.302431640625,-7.229467391967773,-7.277327537536621,-5.500204086303711
1779968651978755300,5.31875537109375,-4.408252239227295,-2.904025077819824,-5.749492168426514
1779968651995090200,5.335090087890625,-4.793839454650879,3.8849267959594727,-2.087479829788208
1779968652011416600,5.35141650390625,-6.881793022155762,7.661246299743652,0.15310168266296387
1779968652027768600,5.3677685546875,-10.269691467285156,11.44899845123291,4.387613296508789
1779968652044092000,5.384091796875,-5.310302257537842,8.569662094116211,8.433060646057129
1779968652060437500,5.4004375,-3.51572322845459,7.780331611633301,8.581620216369629
1779968652076761000,5.416760986328125,-3.148953914642334,7.9807329177856445,7.025125503540039
1779968652093097500,5.433097412109375,-4.4597859382629395,9.510478019714355,5.117050647735596
1779968652109411000,5.4494111328125,-4.3006062507629395,11.007080078125,2.8452019691467285
1779968652125749200,5.465749267578125,-2.4633283615112305,8.490026473999023,2.7875781059265137
1779968652142089500,5.48208935546875,2.4328835010528564,5.887810230255127,5.011470317840576
1779968652158413600,5.49841357421875,1.3487052917480469,2.3268070220947266,6.557333469390869
1779968652174728200,5.514728271484375,-2.6410598754882812,-8.2518949508667,5.964334964752197
1779968652191067000,5.53106689453125,0.3052605986595154,-16.413646697998047,1.4625458717346191
1779968652207412200,5.547412109375,-0.5512435436248779,-24.587711334228516,-1.9772487878799438
1779968652223730200,5.563730224609375,2.834042549133301,-21.36504554748535,-0.8023502826690674
1779968652240075800,5.58007568359375,-0.040659189224243164,-24.03507423400879,2.616077423095703
1779968652256410400,5.596410400390625,3.714465856552124,-18.788562774658203,3.3492612838745117
1779968652272740900,5.612740966796875,0.5685937404632568,-11.185104370117188,8.032624244689941
1779968652289075000,5.629074951171875,-6.094829559326172,-7.762219429016113,10.117124557495117
1779968652305408300,5.645408203125,-0.6662073135375977,-3.4228763580322266,9.177855491638184
1779968652321755000,5.6617548828125,0.24141550064086914,-0.12868404388427734,3.692837953567505
1779968652338085000,5.678085205078125,4.3183722496032715,2.508932590484619,-0.3497370481491089
1779968652354420500,5.69442041015625,9.384065628051758,6.267393589019775,-0.810802698135376
1779968652370746600,5.71074658203125,12.848761558532715,10.185096740722656,-2.1746771335601807
1779968652387082500,5.72708251953125,16.54001808166504,13.679543495178223,-5.256987571716309
1779968652403419600,5.743419677734375,20.551734924316406,18.627077102661133,-8.20082950592041
1779968652419747800,5.759747802734375,19.281944274902344,22.111610412597656,-8.664292335510254
1779968652436082200,5.776082275390625,11.955941200256348,14.061037063598633,-6.906400203704834
1779968652452415200,5.792415283203125,3.6505846977233887,7.855999946594238,-6.729577541351318
1779968652468747300,5.808747314453125,-31.323062896728516,3.48726749420166,-1.9323755502700806
1779968652485078300,5.825078369140625,-26.946805953979492,-12.853225708007812,2.6862947940826416
1779968652501423400,5.84142333984375,3.926933765411377,-8.019007682800293,9.140325546264648
1779968652517748700,5.857748779296875,13.574081420898438,4.363099575042725,10.195455551147461
1779968652534077700,5.87407763671875,20.709672927856445,-12.377388000488281,9.081703186035156
1779968652550406700,5.89040673828125,19.80190086364746,-10.57701301574707,-0.7981830835342407
1779968652566743600,5.90674365234375,11.77224349975586,-3.415681838989258,-3.5765650272369385
1779968652583046700,5.923046630859375,2.8924148082733154,1.2449913024902344,-4.45755672454834
1779968652599386400,5.939386474609375,-4.252152442932129,1.220503807067871,-3.964871406555176
1779968652615732500,5.955732421875,-0.4647214412689209,-3.805657386779785,-2.928438425064087
1779968652632060400,5.972060302734375,2.460055112838745,-20.879215240478516,-2.5235655307769775
1779968652648393500,5.9883935546875,-12.767784118652344,-30.94915771484375,10.350823402404785
1779968652664723500,6.004723388671875,7.811141014099121,-15.986099243164062,15.2704496383667
1779968652681058600,6.02105859375,5.158564567565918,-12.182048797607422,13.492945671081543
1779968652697387500,6.037387451171875,-17.559967041015625,-8.28529167175293,2.5419158935546875
1779968652713727500,6.0537275390625,-16.492185592651367,-9.089323043823242,-5.962994575500488
1779968652730055400,6.070055419921875,-2.5765223503112793,1.2583770751953125,-4.724488735198975
1779968652746377700,6.086377685546875,-4.373276710510254,8.652067184448242,0.03889787197113037
1779968652762721500,6.102721435546875,-9.869003295898438,11.118453979492188,2.0213840007781982
1779968652779055000,6.11905517578125,-6.745339393615723,8.540956497192383,6.0991106033325195
1779968652795402500,6.135402587890625,-2.892824649810791,6.303455352783203,8.450754165649414
1779968652811719000,6.151718994140625,-3.052384853363037,7.743195533752441,7.484638214111328
1779968652828064500,6.168064453125,-3.8212826251983643,9.72214412689209,5.35206413269043
1779968652844396000,6.18439599609375,-4.97357177734375,12.474570274353027,3.8057122230529785
1779968652860734200,6.200734130859375,-4.358839511871338,12.946577072143555,3.297748565673828
1779968652877061600,6.2170615234375,-4.227348804473877,11.084997177124023,2.9208645820617676
1779968652893394000,6.233393798828125,-2.118102550506592,9.399313926696777,2.3695549964904785
1779968652909725700,6.2497255859375,2.132376194000244,8.191655158996582,3.8480539321899414
1779968652926061800,6.266061767578125,4.8131914138793945,5.70502233505249,5.280876159667969
1779968652942391800,6.282391845703125,-2.699510097503662,-4.922607421875,7.013401031494141
1779968652958728700,6.298728759765625,-3.9735493659973145,-23.249706268310547,6.375154972076416
1779968652975043800,6.3150439453125,-5.0724592208862305,-49.34107208251953,1.2086576223373413
1779968652991423000,6.331423095703125,2.9722065925598145,-45.29631423950195,2.749321937561035
1779968653007724300,6.347724365234375,7.12743616104126,-14.74804973602295,-0.04472768306732178
1779968653024043000,6.36404296875,3.5736024379730225,-8.157886505126953,0.26714032888412476
1779968653040389000,6.38038916015625,-1.2900571823120117,-6.475371360778809,0.1647556722164154
1779968653056722200,6.39672216796875,-1.1177196502685547,-1.3282585144042969,5.643767356872559
1779968653073055500,6.413055419921875,1.119387149810791,2.078915596008301,6.626985549926758
1779968653089367600,6.429367431640625,4.876616477966309,3.233631134033203,0.9604570865631104
1779968653105707300,6.445707275390625,7.339554309844971,5.442933082580566,-2.8824684619903564
1779968653122035700,6.46203564453125,12.91868782043457,9.829599380493164,-3.6428842544555664
1779968653138377000,6.478376953125,15.68863582611084,12.112739562988281,-5.30600118637085
1779968653154705400,6.494705322265625,11.852800369262695,15.831315994262695,-6.279470920562744
1779968653171038200,6.5110380859375,17.58192253112793,19.710371017456055,-3.9911465644836426
1779968653187370500,6.52737060546875,15.764436721801758,18.091468811035156,0.4451942443847656
1779968653203684900,6.543684814453125,8.791644096374512,11.582855224609375,3.2721636295318604
1779968653220035600,6.56003564453125,-6.240273475646973,9.867705345153809,6.369241237640381
1779968653236370000,6.576369873046875,-31.443023681640625,-8.507830619812012,6.986177921295166
1779968653252689000,6.59268896484375,-4.509283065795898,-1.9230632781982422,3.1931028366088867
1779968653269026000,6.609026123046875,20.140798568725586,6.169633865356445,-1.5893428325653076
1779968653285375500,6.62537548828125,17.423526763916016,-10.369455337524414,-8.460631370544434
1779968653301712600,6.641712646484375,-0.7935519218444824,-20.836851119995117,-7.445759296417236
1779968653318045400,6.65804541015625,2.177809238433838,-13.723983764648438,-5.585055828094482
1779968653334377700,6.674377685546875,8.872364044189453,-0.34423828125,-1.5649685859680176
1779968653350710300,6.690710205078125,3.96810245513916,2.2261552810668945,-0.43900150060653687
1779968653367044000,6.707044189453125,-0.633126974105835,3.3610787391662598,0.7319436073303223
1779968653383377400,6.72337744140625,0.9115279912948608,-4.536442756652832,2.290773630142212
1779968653399689000,6.73968896484375,6.077615737915039,-27.636268615722656,6.780069828033447
1779968653416047400,6.75604736328125,1.8838293552398682,-26.125499725341797,16.774295806884766
1779968653432374500,6.77237451171875,7.539008140563965,-19.919078826904297,19.395751953125
1779968653448705000,6.788705078125,-28.11635971069336,-9.171380996704102,6.612220287322998
1779968653465035000,6.805034912109375,-19.981693267822266,-6.0496368408203125,-6.881189823150635
1779968653481377800,6.821377685546875,-3.161466121673584,-1.5802650451660156,-8.613714218139648
1779968653497703700,6.83770361328125,-5.972682952880859,7.850322723388672,-8.4172945022583
1779968653514037800,6.854037841796875,-7.84007453918457,10.342355728149414,-1.1257590055465698
1779968653530354400,6.8703544921875,-6.093193054199219,7.588061332702637,6.218991756439209
1779968653546702300,6.886702392578125,-4.8785529136657715,8.381587028503418,9.411446571350098
1779968653563035100,6.90303515625,-5.4866108894348145,10.036462783813477,8.117349624633789
1779968653579350800,6.919350830078125,-4.615026473999023,10.450429916381836,6.133200645446777
1779968653595680500,6.935680419921875,-6.572144985198975,13.094289779663086,5.711836338043213
1779968653612024600,6.952024658203125,-6.4228925704956055,11.630159378051758,3.512969970703125
1779968653628354800,6.968354736328125,-3.0595779418945312,7.956181526184082,1.821009635925293
1779968653644682000,6.984681884765625,1.3251638412475586,6.477160453796387,3.4954023361206055
1779968653661017000,7.00101708984375,0.15714044868946075,2.3047709465026855,5.271332263946533
1779968653677350000,7.017349853515625,-2.0306406021118164,-5.9754638671875,7.1495161056518555
1779968653693684500,7.0336845703125,-1.188703179359436,-17.456233978271484,4.151928901672363
1779968653710013400,7.050013427734375,-0.11060154438018799,-36.770721435546875,1.480279564857483
1779968653726350000,7.06635009765625,1.3538198471069336,-42.031333923339844,1.6006450653076172
1779968653742666500,7.08266650390625,9.010161399841309,-19.733016967773438,-1.8999383449554443
1779968653759015200,7.09901513671875,3.63254451751709,-10.161823272705078,-4.244339466094971
1779968653775359700,7.11535986328125,0.3204212188720703,-8.590226173400879,-4.98470401763916
1779968653791694800,7.13169482421875,1.1609492301940918,-7.334831237792969,-0.02146090753376484
1779968653808009500,7.148009521484375,4.417928695678711,-2.2462081909179688,4.230974197387695
1779968653824350500,7.1643505859375,3.0345458984375,3.5364203453063965,1.246994972229004
1779968653840674800,7.1806748046875,5.524111747741699,9.230920791625977,-4.388045310974121
1779968653857009400,7.197009521484375,6.856531620025635,11.673938751220703,-3.361884355545044
1779968653873337300,7.21333740234375,12.892989158630371,13.063304901123047,-3.2143490314483643
1779968653889663700,7.229663818359375,12.98744010925293,15.100594520568848,-3.9057469367980957
1779968653905994800,7.245994873046875,18.257930755615234,20.42263412475586,-4.921343803405762
1779968653922329900,7.262329833984375,20.47826385498047,20.302143096923828,-1.2142376899719238
1779968653938660900,7.278660888671875,13.429018020629883,14.408090591430664,-0.14335650205612183
1779968653954994700,7.29499462890625,3.6614811420440674,9.154112815856934,-0.02777731418609619
1779968653971326200,7.311326171875,-19.160152435302734,1.7245635986328125,2.392214059829712
1779968653987662800,7.327662841796875,-24.476072311401367,-9.604951858520508,6.2643046379089355
1779968654004003600,7.344003662109375,8.955587387084961,-5.842229843139648,0.39860475063323975
1779968654020338000,7.360337890625,13.430656433105469,-18.63986587524414,-3.4580159187316895
1779968654036665000,7.3766650390625,15.774724960327148,-31.688993453979492,-6.352572441101074
1779968654053004800,7.3930048828125,6.084099769592285,-4.447512626647949,-8.655738830566406
1779968654069334500,7.40933447265625,6.385715484619141,2.348083972930908,-3.075626850128174
1779968654085668000,7.425668212890625,2.025927782058716,4.955643653869629,-1.4233033657073975
1779968654101994500,7.441994384765625,-0.5012264251708984,4.049915790557861,-0.2327365279197693
1779968654118336800,7.458336669921875,3.980109691619873,-4.003055572509766,-0.6348164677619934
1779968654134665000,7.4746650390625,3.310605764389038,-28.098255157470703,-1.5184069871902466
1779968654150990000,7.490989990234375,-8.465517044067383,-31.6688232421875,11.746407508850098
1779968654167316500,7.50731640625,6.858234405517578,-13.589444160461426,17.41302490234375
1779968654183651000,7.523651123046875,-7.155521869659424,-10.021733283996582,13.06935977935791
1779968654199992800,7.539992919921875,-27.966073989868164,-0.9021310806274414,2.2766005992889404
1779968654216332500,7.55633251953125,-9.253414154052734,-1.3922405242919922,-3.952476739883423
1779968654232660700,7.57266064453125,-4.092342376708984,6.976006984710693,-8.62069034576416
1779968654248994800,7.588994873046875,-7.669604301452637,12.39573860168457,-5.372103691101074
1779968654265345000,7.605344970703125,-8.345922470092773,6.576656341552734,3.6020426750183105
1779968654281671200,7.621671142578125,-2.16876482963562,7.27628231048584,9.706744194030762
1779968654298003700,7.638003662109375,-4.777874946594238,9.520774841308594,8.997346878051758
1779968654314337800,7.654337890625,-5.321512222290039,10.831304550170898,6.44674015045166
1779968654330670300,7.67067041015625,-6.516892433166504,12.05035400390625,5.478658676147461
1779968654347004400,7.68700439453125,-2.8726935386657715,11.936190605163574,3.9996509552001953
1779968654363335200,7.703335205078125,-2.604142665863037,10.830090522766113,3.8578543663024902
1779968654379645200,7.719645263671875,-1.9135254621505737,8.868046760559082,4.0222930908203125
1779968654396009000,7.736009033203125,0.9049875140190125,7.671849250793457,4.485466480255127
1779968654412329200,7.7523291015625,-0.5255905389785767,2.2005863189697266,7.198514461517334
1779968654428670000,7.768669921875,-6.559926986694336,-6.949139595031738,10.320537567138672
1779968654444987000,7.78498681640625,-7.2015485763549805,-20.396034240722656,6.8618879318237305
1779968654461330700,7.80133056640625,1.5858476161956787,-41.416648864746094,2.8669285774230957
1779968654477664000,7.8176640625,0.19220232963562012,-54.11247253417969,-1.8440110683441162
1779968654493995300,7.833995361328125,6.546583652496338,-16.266199111938477,-4.9890618324279785
1779968654510331400,7.850331298828125,4.176980495452881,-4.462471961975098,-6.1158294677734375
1779968654526660400,7.866660400390625,-3.2741589546203613,-3.6185731887817383,-3.760592222213745
1779968654542980000,7.88297998046875,2.786621570587158,-3.2593202590942383,3.866832733154297
1779968654559311400,7.899311279296875,6.082422256469727,-1.2663755416870117,5.601350784301758
1779968654575644400,7.91564453125,2.7599587440490723,2.392334461212158,1.5429584980010986
1779968654591978200,7.931978271484375,5.503054141998291,6.949946403503418,-3.181123733520508
1779968654608313900,7.94831396484375,8.143674850463867,10.238584518432617,-2.9578497409820557
1779968654624644600,7.96464453125,11.22314453125,12.881904602050781,-3.3264307975769043
1779968654640977200,7.98097705078125,13.086463928222656,14.881442070007324,-4.684682846069336
1779968654657310200,7.997310302734375,18.073570251464844,17.54676055908203,-5.038983345031738
1779968654673642800,8.013642822265625,17.304075241088867,16.599666595458984,-2.817795753479004
1779968654689975600,8.0299755859375,12.631525039672852,12.393258094787598,-2.923971176147461
1779968654706308400,8.046308349609374,3.664430618286133,10.66701602935791,0.03175836801528931
1779968654722640600,8.062640625,-34.72002410888672,-7.33182430267334,-5.111083030700684
1779968654738958000,8.0789580078125,-31.18151092529297,-14.084890365600586,-1.8539844751358032
1779968654755302700,8.095302734375,22.13236427307129,-7.303579330444336,4.819437026977539
1779968654771657700,8.11165771484375,27.83042335510254,-19.175424575805664,4.271475315093994
1779968654787965000,8.12796484375,19.138795852661133,-7.337322235107422,-5.796621322631836
1779968654804303600,8.1443037109375,6.658164024353027,3.052544593811035,-4.280133247375488
1779968654820634400,8.16063427734375,3.474043130874634,6.311097145080566,-2.861489772796631
1779968654836968400,8.176968505859374,-0.17146515846252441,4.176625728607178,-1.2754377126693726
1779968654853299200,8.19329931640625,0.6315019130706787,-1.7210712432861328,0.355002224445343
1779968654869624300,8.209624267578125,3.7806806564331055,-23.455036163330078,-4.078061580657959
1779968654885955000,8.225955078125,-13.203774452209473,-39.1522102355957,7.709197998046875
1779968654902290200,8.242290283203126,8.151690483093262,-18.746986389160156,16.502042770385742
1779968654918620400,8.258620361328125,-1.451873540878296,-8.645665168762207,13.600064277648926
1779968654934957000,8.27495703125,-24.490161895751953,-1.9444189071655273,5.952490329742432
1779968654951286800,8.291286865234374,-9.847318649291992,0.29126930236816406,0.15459364652633667
1779968654967619300,8.307619384765625,-2.281438112258911,6.68100643157959,-3.833137273788452
1779968654983951400,8.323951416015625,-8.196436882019043,14.390865325927734,-7.2012457847595215
1779968655000285400,8.340285400390625,-8.969988822937012,9.432647705078125,-0.38962292671203613
1779968655016618000,8.356617919921876,-7.6383819580078125,4.885062217712402,6.820201873779297
1779968655032949000,8.372948974609375,-3.6377909183502197,6.028009414672852,8.746326446533203
1779968655049281500,8.389281494140626,-3.814439296722412,7.305954933166504,6.804965972900391
1779968655065617200,8.4056171875,-5.222822666168213,8.610600471496582,3.719864845275879
1779968655081947400,8.421947509765625,-2.778627395629883,10.713205337524414,0.7671688795089722
1779968655098281000,8.438281005859375,-4.008565425872803,9.522820472717285,-0.7808377742767334
1779968655114613500,8.454613525390625,-2.537648916244507,7.553363800048828,0.6909791231155396
1779968655130960100,8.470960205078125,2.107466220855713,6.6810407638549805,2.3294692039489746
1779968655147292000,8.4872919921875,3.0842230319976807,2.821108818054199,3.964653491973877
1779968655163623000,8.503622802734375,-2.076002359390259,-8.497251510620117,4.834352493286133
1779968655179955200,8.519955078125,-6.283149719238281,-26.340465545654297,1.927797794342041
1779968655196288500,8.53628857421875,-3.2376015186309814,-44.64232635498047,1.601383090019226
1779968655212621000,8.55262109375,5.036436080932617,-39.72201919555664,-1.8745810985565186
1779968655228954400,8.568954345703125,8.687366485595703,-13.7760009765625,-3.0180516242980957
1779968655245301200,8.58530126953125,5.522133827209473,-5.078272819519043,-3.9331862926483154
1779968655261632300,8.60163232421875,-4.94091796875,-2.606698989868164,-2.8404107093811035
1779968655277965300,8.61796533203125,-0.021961212158203125,-1.0224905014038086,5.303411483764648
1779968655294299600,8.634299560546875,2.3432693481445312,1.510021686553955,9.59530258178711
1779968655310627800,8.6506279296875,4.712623119354248,3.8886051177978516,4.559356689453125
1779968655326952200,8.6669521484375,12.800783157348633,8.190526962280273,-0.4320716857910156
1779968655343295000,8.683294921875,12.853025436401367,12.42477035522461,-3.1625449657440186
1779968655359623200,8.699623046875,12.115427017211914,15.498344421386719,-6.644287586212158
1779968655375964200,8.715964111328125,16.72183609008789,19.16053009033203,-7.598116874694824
1779968655392295700,8.732295654296875,19.126689910888672,19.99500274658203,-5.804412841796875
1779968655408634600,8.748634521484375,12.95374870300293,15.033259391784668,-2.834388256072998
1779968655424959700,8.764959716796875,4.178896903991699,9.762223243713379,-0.4037800431251526
1779968655441275400,8.781275390625,-14.977800369262695,7.632320404052734,3.205686330795288
1779968655457626600,8.797626708984374,-25.175678253173828,-7.3526811599731445,5.679082870483398
1779968655473958100,8.813958251953125,-3.2876362800598145,-5.230253219604492,6.048628807067871
1779968655490287000,8.830287109375,18.1346435546875,-5.5745134353637695,0.940631628036499
1779968655506592800,8.8465927734375,17.51824188232422,-14.603306770324707,-1.4703240394592285
1779968655522954800,8.862954833984375,13.237170219421387,-22.572040557861328,-5.639579772949219
1779968655539271000,8.87927099609375,-1.1993796825408936,0.9041099548339844,-6.230982303619385
1779968655555621600,8.89562158203125,3.9386050701141357,3.254955291748047,-2.348935842514038
1779968655571937300,8.911937255859375,1.0928963422775269,0.9693536758422852,-2.3667478561401367
1779968655588273400,8.9282734375,2.4492595195770264,-3.2366466522216797,-1.7405672073364258
1779968655604591600,8.944591552734375,4.314386367797852,-15.77806282043457,-1.112588882446289
1779968655620926000,8.960926025390625,-10.008424758911133,-28.37795639038086,6.76000452041626
1779968655637268700,8.977268798828124,0.07830023765563965,-17.506742477416992,11.478645324707031
1779968655653604600,8.9936044921875,6.230649948120117,-10.808302879333496,12.453267097473145
1779968655669935400,9.009935302734375,-17.432209014892578,-5.4917497634887695,6.15489387512207
1779968655686269200,9.026269287109375,-17.729036331176758,-4.171809196472168,-1.39690363407135
1779968655702600700,9.0426005859375,-2.8706467151641846,1.1298103332519531,-6.018556118011475
1779968655718935600,9.058935546875,-4.896995544433594,9.826214790344238,-8.860747337341309
1779968655735274800,9.075274658203124,-8.612560272216797,11.090652465820312,-1.5797393321990967
1779968655751606500,9.0916064453125,-8.524412155151367,6.662440299987793,6.853606700897217
1779968655767928800,9.1079287109375,-5.716553211212158,6.871845245361328,10.054220199584961
1779968655784270000,9.12427001953125,-4.582440376281738,8.151167869567871,8.83510684967041
1779968655800607200,9.140607177734376,-5.787659645080566,8.91677474975586,6.413353443145752
1779968655816950000,9.156949951171875,-6.210689544677734,11.381738662719727,3.9721755981445312
1779968655833270800,9.173270751953124,-4.266738414764404,10.864012718200684,2.0476770401000977
1779968655849603600,9.189603515625,-2.058335304260254,7.878111839294434,1.3412127494812012
1779968655865920300,9.205920166015625,2.0857369899749756,5.709108829498291,2.589167833328247
1779968655882273500,9.2222734375,-0.23168139159679413,1.2705707550048828,4.130032062530518
1779968655898606000,9.238606201171875,-3.6262893676757812,-9.5047025680542,2.814563512802124
1779968655914941200,9.254941162109375,-4.0412678718566895,-26.352298736572266,-0.18306171894073486
1779968655931266000,9.27126611328125,0.4197734594345093,-46.76206588745117,-2.0194203853607178
1779968655947609600,9.287609619140625,6.085237503051758,-34.451168060302734,-2.3194668292999268
1779968655963917300,9.303917236328125,7.0339460372924805,-12.379178047180176,-3.5234787464141846
1779968655980276500,9.3202763671875,7.404138565063477,-5.463565826416016,-3.638339042663574
1779968655996603000,9.336602783203125,-4.117427349090576,-4.464849472045898,-1.8971056938171387
1779968656012934700,9.3529345703125,2.231250524520874,-5.8318281173706055,4.664203643798828
1779968656029268000,9.36926806640625,1.9173738956451416,-2.4510793685913086,7.234224796295166
1779968656045602800,9.385602783203124,3.876046895980835,3.0548810958862305,2.0367443561553955
1779968656061904000,9.40190380859375,9.110481262207031,9.348203659057617,-2.165126323699951
1779968656078253000,9.418253173828125,10.244000434875488,14.273026466369629,-2.259174108505249
1779968656094585900,9.4345859375,16.98202133178711,17.82278060913086,-4.605262279510498
1779968656110918000,9.45091796875,19.594924926757812,22.691417694091797,-6.5808305740356445
1779968656127250200,9.467250244140626,17.60052490234375,23.466777801513672,-4.081576347351074
1779968656143582500,9.48358251953125,15.102916717529297,15.117758750915527,-0.9575585126876831
1779968656159913700,9.499913818359374,6.733096122741699,9.336252212524414,0.06239637732505798
1779968656176252400,9.51625244140625,-5.513126373291016,8.216510772705078,2.9723801612854004
1779968656192579800,9.532579833984375,-41.324459075927734,-13.711603164672852,0.8616188764572144
1779968656208916000,9.548916015625,-13.058389663696289,-16.547584533691406,1.1175570487976074
1779968656225260000,9.565260009765625,18.54993438720703,-11.768465995788574,0.5020259618759155
1779968656241577000,9.581576904296876,31.647985458374023,-24.00518798828125,-0.2345881462097168
1779968656257925400,9.59792529296875,15.314142227172852,-13.666560173034668,-8.230148315429688
1779968656274257700,9.614257568359376,-1.963308334350586,6.828855991363525,-7.193618297576904
1779968656290592800,9.6305927734375,2.9770984649658203,6.487066745758057,-2.9522857666015625
1779968656306924000,9.646924072265625,2.4497263431549072,4.723951816558838,-1.1978486776351929
1779968656323256300,9.66325634765625,4.027797698974609,-1.1537504196166992,-0.9231693744659424
1779968656339587600,9.679587646484375,7.314730644226074,-20.44771385192871,-3.203596591949463
1779968656355905000,9.695905029296876,-13.697324752807617,-36.34886932373047,9.905125617980957
1779968656372255200,9.712255126953124,1.2341644763946533,-16.240787506103516,14.833616256713867
1779968656388601300,9.728601318359376,-1.473149299621582,-11.601621627807617,14.017715454101562
1779968656404919000,9.7449189453125,-29.747262954711914,-1.3729915618896484,5.672449588775635
1779968656421236200,9.761236328125,-8.007984161376953,-1.3231630325317383,-1.3756065368652344
1779968656437569500,9.777569580078126,-6.112421989440918,6.763832092285156,-7.626513481140137
1779968656453897000,9.79389697265625,-8.386982917785645,14.126447677612305,-9.329777717590332
1779968656470235000,9.81023486328125,-7.4164299964904785,6.9477362632751465,3.36332368850708
1779968656486566000,9.82656591796875,-3.5890679359436035,6.959803581237793,8.369535446166992
1779968656502900000,9.84289990234375,-2.930720329284668,8.965490341186523,7.710623741149902
1779968656519240700,9.85924072265625,-5.109416961669922,9.900622367858887,6.343425750732422
1779968656535569000,9.87556884765625,-5.179267883300781,11.089086532592773,4.5392842292785645
1779968656551900200,9.891900146484375,-3.978384256362915,12.037114143371582,2.4942541122436523
1779968656568233700,9.908233642578125,-2.216330051422119,9.994444847106934,2.2193286418914795
1779968656584551700,9.9245517578125,-0.4755477011203766,7.142726898193359,3.0237908363342285
1779968656600897800,9.940897705078125,0.6666374206542969,4.315300941467285,3.909043073654175
1779968656617230800,9.95723095703125,-0.1789170503616333,-2.6499881744384766,4.018492221832275
1779968656633564400,9.973564453125,-2.921226978302002,-14.5916109085083,1.1250685453414917
1779968656649892600,9.989892578125,-5.26737117767334,-39.3922004699707,-0.006005764007568359
1779968656666232600,10.006232666015626,1.4899957180023193,-50.68023681640625,-2.482560157775879
1779968656682572300,10.022572265625,7.775142669677734,-19.527341842651367,-4.028345108032227
1779968656698895400,10.038895263671876,5.202139854431152,-6.345063209533691,-4.458821773529053
1779968656715239000,10.055239013671875,-4.311395645141602,-6.502789497375488,-3.608422040939331
1779968656731576300,10.071576416015626,0.5850529670715332,-6.897791862487793,3.52180814743042
1779968656747903200,10.0879033203125,3.2815158367156982,-2.316608428955078,6.608813285827637
1779968656764226000,10.10422607421875,1.8758790493011475,2.6689224243164062,2.3425393104553223
1779968656780537900,10.120537841796875,5.696842193603516,7.008777141571045,-3.4284238815307617
1779968656796907500,10.136907470703125,6.997835159301758,11.853835105895996,-3.443666934967041
1779968656813229300,10.153229248046875,11.484206199645996,15.015153884887695,-3.92763352394104
1779968656829577200,10.1695771484375,11.833525657653809,16.503313064575195,-4.554445266723633
1779968656845899500,10.1858994140625,13.762805938720703,19.113338470458984,-4.988894462585449
1779968656862236700,10.202236572265624,16.640182495117188,18.658843994140625,-3.00606107711792
1779968656878572300,10.218572265625,13.945405960083008,13.942428588867188,-2.3489813804626465
1779968656894897200,10.234897216796876,5.684955596923828,9.216752052307129,-0.7044541239738464
1779968656911227600,10.2512275390625,-5.583382606506348,5.582989692687988,1.4984545707702637
1779968656927570000,10.26756982421875,-35.88151550292969,-12.56774616241455,1.589493751525879
1779968656943878400,10.28387841796875,-5.940194129943848,-17.21012306213379,-0.4438823461532593
1779968656960234200,10.300234130859375,17.44959259033203,-7.847226142883301,4.77789306640625
1779968656976548400,10.31654833984375,24.569095611572266,-14.685223579406738,-2.4114840030670166
1779968656992893700,10.332893798828126,10.207884788513184,-2.3962135314941406,-8.890668869018555
1779968657009226800,10.349226806640624,11.05768871307373,0.40310192108154297,-7.100793361663818
1779968657025562600,10.365562744140625,2.632493019104004,2.285661220550537,-4.639601707458496
1779968657041893600,10.3818935546875,-0.655308723449707,2.4256324768066406,-2.279691219329834
1779968657058210800,10.3982109375,5.579054355621338,-4.498638153076172,-3.9898483753204346
1779968657074545200,10.414545166015625,1.7895750999450684,-21.599712371826172,-5.0072479248046875
1779968657090880000,10.4308798828125,-16.09093475341797,-32.15887451171875,8.631394386291504
1779968657107210000,10.4472099609375,9.643401145935059,-14.432414054870605,14.790255546569824
1779968657123533000,10.463532958984375,-1.900261640548706,-12.06462287902832,12.012404441833496
1779968657139876000,10.4798759765625,-26.929628372192383,-4.658876419067383,7.887356281280518
1779968657156209700,10.496209716796875,-12.142423629760742,-2.5381288528442383,2.049058198928833
1779968657172546300,10.51254638671875,-1.1369798183441162,4.899175643920898,-1.0101819038391113
1779968657188859100,10.528859130859376,-7.404711723327637,12.646222114562988,-3.5125930309295654
1779968657205210000,10.545210205078124,-10.89942455291748,11.052679061889648,0.6558545827865601
1779968657221540600,10.56154052734375,-7.568767547607422,7.173096656799316,7.124650955200195
1779968657237880000,10.577880126953126,-3.9169886112213135,7.394621849060059,9.0029935836792
1779968657254204400,10.594204345703124,-4.172222137451172,8.143314361572266,6.807460308074951
1779968657270539500,10.61053955078125,-5.631406784057617,8.669923782348633,4.103282451629639
1779968657286866700,10.62686669921875,-5.212228298187256,10.1893892288208,1.0194355249404907
1779968657303223600,10.6432236328125,-2.6143996715545654,8.987149238586426,-0.8912661075592041
1779968657319536000,10.6595361328125,-1.6358704566955566,6.196531295776367,-0.021428272128105164
1779968657335871500,10.67587158203125,-1.265421748161316,2.9578394889831543,1.4379855394363403
1779968657352199400,10.692199462890626,-0.67503821849823,-3.929544448852539,2.7952468395233154
1779968657368530700,10.70853076171875,-1.2905259132385254,-15.63555908203125,-0.3405129313468933
1779968657384864500,10.724864501953125,-2.4395875930786133,-31.37381362915039,-4.2507147789001465
1779968657401197300,10.741197265625,0.7255476713180542,-36.25515365600586,-2.288008213043213
1779968657417517000,10.75751708984375,6.85725212097168,-26.56487274169922,-2.7314183712005615
1779968657433850600,10.7738505859375,4.648538112640381,-10.428852081298828,-2.9591896533966064
1779968657450186000,10.79018603515625,-1.9320263862609863,-6.747539520263672,-2.4925589561462402
1779968657466516500,10.8065166015625,-2.458878993988037,-5.7036285400390625,4.646947383880615
1779968657482850800,10.822850830078124,5.886084079742432,-4.497258186340332,8.10394287109375
1779968657499197400,10.839197509765626,2.6104695796966553,1.0441274642944336,3.4429988861083984
1779968657515539000,10.8555390625,6.322735786437988,5.038480281829834,-1.3678159713745117
1779968657531860000,10.87185986328125,9.376798629760742,9.260787010192871,-2.1611502170562744
1779968657548191000,10.88819091796875,14.079414367675781,13.99777603149414,-2.1597938537597656
1779968657564527000,10.904527099609375,13.749820709228516,17.982154846191406,-4.535950660705566
1779968657580855000,10.92085498046875,13.689730644226074,21.583423614501953,-5.051584243774414
1779968657597191200,10.937191162109375,16.62058448791504,23.42400550842285,-2.079643487930298
1779968657613523000,10.95352294921875,13.36733627319336,17.184539794921875,-0.16110602021217346
1779968657629853700,10.969853759765625,4.572752952575684,11.985015869140625,2.5653746128082275
1779968657646189300,10.986189208984374,-33.91681671142578,-9.09848403930664,5.626147747039795
1779968657662533400,11.002533447265625,-19.137123107910156,-9.125805854797363,5.510812759399414
1779968657678838500,11.018838623046875,11.9238862991333,-0.2512044906616211,1.2535408735275269
1779968657695203800,11.035203857421875,19.741897583007812,-11.037088394165039,-6.842448711395264
1779968657711526100,11.051526123046875,7.356696605682373,-29.62343406677246,-12.88282299041748
1779968657727870200,11.0678701171875,8.127702713012695,-4.468964576721191,-12.404382705688477
1779968657744183600,11.08418359375,10.405261039733887,1.2287888526916504,-4.692170143127441
1779968657760514600,11.1005146484375,7.963779449462891,3.169833183288574,-3.0785679817199707
1779968657776863200,11.11686328125,7.095257759094238,4.681519985198975,-0.09904533624649048
1779968657793200000,11.1332001953125,10.335346221923828,-3.0482263565063477,-1.3877031803131104
1779968657809528300,11.1495283203125,8.833582878112793,-19.412452697753906,-5.321540832519531
1779968657825860900,11.16586083984375,-4.638509750366211,-33.673789978027344,3.7750918865203857
1779968657842198300,11.1821982421875,-5.802486896514893,-22.645965576171875,13.430784225463867
1779968657858524200,11.198524169921875,3.226170301437378,-12.190013885498047,13.898969650268555
1779968657874855200,11.214855224609375,-18.56801414489746,-7.778079986572266,11.444232940673828
1779968657891195100,11.231195068359375,-16.8584041595459,-0.8089752197265625,6.900705337524414
1779968657907524600,11.247524658203124,-2.2420663833618164,2.6289076805114746,-0.5317028760910034
1779968657923844000,11.263843994140625,-10.691936492919922,11.680702209472656,-7.8112006187438965
1779968657940190200,11.280190185546875,-8.351461410522461,12.988622665405273,-5.214566230773926
1779968657956526600,11.296526611328124,-7.233162879943848,5.51954984664917,6.14007043838501
1779968657972850400,11.312850341796874,-3.786794900894165,7.179879188537598,9.230415344238281
1779968657989189000,11.329189208984374,-4.872193813323975,8.652660369873047,8.245058059692383
1779968658005513700,11.345513671875,-6.154572010040283,8.850509643554688,6.67426872253418
1779968658021860600,11.361860595703124,-7.295149803161621,11.028583526611328,4.386038780212402
1779968658038170000,11.378170166015625,-8.485258102416992,8.046772003173828,2.2803902626037598
1779968658054506200,11.39450634765625,-4.77041482925415,6.480439186096191,0.680042028427124
1779968658070840300,11.41084033203125,2.6839840412139893,6.968245029449463,3.0726516246795654
1779968658087170600,11.427170654296875,2.0328354835510254,2.982659339904785,5.180055618286133
1779968658103493000,11.4434931640625,0.054642051458358765,-4.752306938171387,4.882875919342041
1779968658119836000,11.4598359375,-1.197993278503418,-18.792652130126953,2.5965328216552734
1779968658136170200,11.476170166015624,-3.7727603912353516,-42.07427215576172,0.6321208477020264
1779968658152503000,11.4925029296875,1.8808051347732544,-48.24354553222656,-0.6300495266914368
1779968658168834000,11.508833984375,8.638407707214355,-16.80705451965332,-2.859365463256836
1779968658185167400,11.52516748046875,10.617847442626953,-6.727405548095703,-3.3319437503814697
1779968658201512700,11.5415126953125,-5.328948497772217,-5.861090660095215,-3.2262840270996094
1779968658217844000,11.557843994140624,3.3533449172973633,-1.8130903244018555,2.0843734741210938
1779968658234186000,11.57418603515625,4.468753814697266,1.2546558380126953,7.115776538848877
1779968658250494200,11.590494140625,2.8848841190338135,4.53004264831543,3.0109047889709473
1779968658266825200,11.6068251953125,8.001533508300781,8.338311195373535,-2.347132921218872
1779968658283160300,11.623160400390624,9.107264518737793,12.58792495727539,-3.8913800716400146
1779968658299494000,11.639493896484375,11.230035781860352,13.481363296508789,-3.7060937881469727
1779968658315816400,11.65581640625,12.479333877563477,15.28646183013916,-4.55141544342041
1779968658332149000,11.67214892578125,17.89130401611328,17.361270904541016,-4.3187079429626465
1779968658348481500,11.6884814453125,16.521703720092773,16.169281005859375,-1.8391892910003662
1779968658364812800,11.704812744140625,12.776290893554688,12.92252254486084,-2.220604181289673
1779968658381145900,11.721145751953125,3.5185747146606445,10.33839225769043,-0.9928238391876221
1779968658397481700,11.737481689453125,-23.1228084564209,-5.260422706604004,-3.4441354274749756
1779968658413814000,11.75381396484375,-36.625484466552734,-8.621992111206055,2.279674768447876
1779968658430145500,11.7701455078125,10.180999755859375,-6.97544002532959,2.1273512840270996
1779968658446478600,11.786478515625,16.096351623535156,-0.23500633239746094,5.680727005004883
1779968658462811100,11.80281103515625,24.966609954833984,-15.478121757507324,0.2071995735168457
1779968658479142100,11.81914208984375,18.654272079467773,-20.53936004638672,-6.743256568908691
1779968658495476700,11.835476806640624,7.4940338134765625,-1.6915950775146484,-7.893488883972168
1779968658511807500,11.851807373046874,1.9343245029449463,3.2743120193481445,-4.603679656982422
1779968658528142300,11.868142333984375,2.846529245376587,2.1967105865478516,-2.200129985809326
1779968658544473600,11.8844736328125,6.386573791503906,-5.900027275085449,-2.2264602184295654
1779968658560807000,11.900806884765625,0.8049577474594116,-21.308921813964844,-0.4013276696205139
1779968658577138700,11.917138671875,-14.75957202911377,-28.950359344482422,9.033069610595703
1779968658593472800,11.93347265625,6.360660552978516,-12.09969425201416,13.86461067199707
1779968658609802200,11.94980224609375,1.8371635675430298,-8.665613174438477,11.80969524383545
1779968658626140000,11.966139892578125,-21.678836822509766,-5.6851959228515625,6.700894355773926
1779968658642470700,11.982470703125,-11.971519470214844,-2.904566764831543,1.5343382358551025
1779968658658802200,11.99880224609375,-0.36896073818206787,1.367767333984375,-1.5192716121673584
1779968658675134500,12.015134521484375,-7.477526664733887,9.335824012756348,-3.4249496459960938
1779968658691467500,12.031467529296876,-8.434690475463867,11.61880111694336,-1.3641928434371948
1779968658707800300,12.04780029296875,-9.792891502380371,6.836341381072998,5.682025909423828
1779968658724134000,12.0641337890625,-3.7940938472747803,6.522198677062988,8.654433250427246
1779968658740466000,12.0804658203125,-3.1396186351776123,7.951900005340576,7.345203399658203
1779968658756814300,12.096814453125,-5.763461112976074,8.588668823242188,5.402575969696045
1779968658773139000,12.113138916015625,-4.838864326477051,9.67495346069336,3.832200050354004
1779968658789478700,12.129478759765625,-1.7936346530914307,10.413454055786133,2.777364730834961
1779968658805807900,12.145807861328125,-1.5023820400238037,8.134361267089844,2.7842254638671875
1779968658822142200,12.16214208984375,-2.037559747695923,5.788652420043945,4.082425117492676
1779968658838472400,12.178472412109375,-1.5302708148956299,-0.01676177978515625,6.766777992248535
1779968658854809000,12.19480908203125,-0.8722508549690247,-12.367391586303711,4.960146427154541
1779968658871149800,12.21114990234375,0.16003024578094482,-23.138050079345703,-1.9472730159759521
1779968658887488000,12.227488037109374,1.743687629699707,-40.46436309814453,-6.375251770019531
1779968658903803400,12.243803466796875,5.477286338806152,-30.94023323059082,-4.1000542640686035
1779968658920148000,12.26014794921875,7.382254600524902,-10.583250999450684,-4.615991592407227
1779968658936486100,12.276486083984375,1.3983585834503174,-5.999385833740234,-3.8898532390594482
1779968658952814800,12.29281494140625,-3.486184597015381,-7.538266181945801,3.0392322540283203
1779968658969144600,12.30914453125,2.820162296295166,-7.518509864807129,7.750808238983154
1779968658985484000,12.325484130859374,1.5569517612457275,-1.2925806045532227,4.100677490234375
1779968659001813800,12.341813720703126,3.5093090534210205,4.591628074645996,-0.9428600668907166
1779968659018120000,12.358119873046874,7.742351531982422,9.473540306091309,-1.9146599769592285
1779968659034461400,12.37446142578125,11.451805114746094,13.613811492919922,-0.28912073373794556
1779968659050798000,12.390798095703126,11.594169616699219,16.814268112182617,-2.292471408843994
1779968659067130400,12.40713037109375,12.038272857666016,18.61461639404297,-3.333521604537964
1779968659083454500,12.423454345703124,17.443403244018555,19.83777618408203,-3.392411470413208
1779968659099793200,12.439793212890624,16.902780532836914,17.91413688659668,-1.7211118936538696
1779968659116132900,12.4561328125,11.003252029418945,12.514216423034668,-1.4281682968139648
1779968659132460300,12.472460205078125,-6.034246921539307,7.122057914733887,0.7747553586959839
1779968659148794600,12.488794677734376,-34.340232849121094,-11.63935375213623,-2.608536958694458
1779968659165117700,12.50511767578125,-11.212891578674316,-24.00649642944336,-3.6413910388946533
1779968659181476400,12.521476318359374,17.47020149230957,-19.972488403320312,6.453546524047852
1779968659197806600,12.537806640625,30.958133697509766,-14.533349990844727,-0.20343482494354248
1779968659214123500,12.55412353515625,-1.9458184242248535,5.7623395919799805,-8.316289901733398
1779968659230472200,12.57047216796875,7.394552230834961,8.89409351348877,-4.491642475128174
1779968659246797800,12.5867978515625,12.479097366333008,5.566115379333496,-1.9205515384674072
1779968659263137000,12.603136962890625,5.140524387359619,3.9855079650878906,-1.0261905193328857
1779968659279466500,12.619466552734375,5.828593730926514,-4.031343460083008,-3.005734443664551
1779968659295809800,12.635809814453125,3.533705234527588,-22.664600372314453,-6.919728755950928
1779968659312115500,12.652115478515626,-19.385345458984375,-32.979217529296875,8.409788131713867
1779968659328466700,12.668466796875,7.011162757873535,-15.289342880249023,15.192122459411621
1779968659344795600,12.684795654296876,3.8075201511383057,-12.53611946105957,12.376904487609863
1779968659361135600,12.701135498046876,-20.845365524291992,-5.998551368713379,7.733168125152588
1779968659377440000,12.71743994140625,-15.695409774780273,-2.2737436294555664,1.0715394020080566
1779968659393800400,12.733800537109374,-1.5852456092834473,5.49674654006958,-4.647739410400391
1779968659410114600,12.750114501953124,-6.618931770324707,11.575952529907227,-7.137781620025635
1779968659426465300,12.76646533203125,-9.580781936645508,10.83253002166748,-2.5484423637390137
1779968659442793700,12.782793701171874,-8.369403839111328,6.506643295288086,4.397813320159912
1779968659459132200,12.799132080078126,-4.506435394287109,6.784435272216797,7.385787487030029
1779968659475481900,12.81548193359375,-4.656373023986816,8.482795715332031,6.553750514984131
1779968659491791600,12.83179150390625,-5.029425621032715,8.957788467407227,5.107727527618408
1779968659508125000,12.848125,-4.820464611053467,9.132553100585938,2.767524003982544
1779968659524448500,12.864448486328126,-4.212424278259277,7.574123382568359,1.3001906871795654
1779968659540785200,12.88078515625,-1.5874643325805664,6.600666046142578,1.3355602025985718
1779968659557110500,12.897110595703126,1.7943410873413086,4.3747639656066895,2.6251907348632812
1779968659573429500,12.913429443359375,1.3223905563354492,-1.8138113021850586,5.007119655609131
1779968659589778200,12.929778076171875,0.3410845100879669,-15.625316619873047,4.144718647003174
1779968659606103000,12.94610302734375,-4.80901575088501,-33.58540344238281,-0.4125169515609741
1779968659622451700,12.96245166015625,1.7904698848724365,-37.692291259765625,-3.442512035369873
1779968659638774800,12.97877490234375,8.043449401855469,-24.450828552246094,-5.368958473205566
1779968659655107000,12.995107177734376,10.123579978942871,-12.152737617492676,-5.492744445800781
1779968659671427800,13.011427734375,7.6244401931762695,-5.569910049438477,-4.835601806640625
1779968659687777000,13.027777099609375,-4.195131301879883,-5.710200309753418,-2.3434700965881348
1779968659704104700,13.044104736328125,1.2791399955749512,-5.696774482727051,3.152475357055664
1779968659720441900,13.06044189453125,0.23102664947509766,-1.1139025688171387,8.119839668273926
1779968659736772000,13.076772216796876,1.3903865814208984,6.5240278244018555,2.443312644958496
1779968659753102300,13.093102294921875,8.546592712402344,12.788091659545898,-2.0788958072662354
1779968659769464300,13.10946435546875,10.356179237365723,15.811108589172363,-0.1177760660648346
1779968659785775900,13.12577587890625,13.04349136352539,17.772153854370117,-1.2341424226760864
1779968659802098700,13.1420986328125,13.393880844116211,20.445026397705078,-3.005814552307129
1779968659818448400,13.158448486328124,14.016888618469238,18.27550506591797,-1.5568757057189941
1779968659834781400,13.174781494140625,15.694259643554688,14.770465850830078,0.7894452810287476
1779968659851110100,13.191110107421874,11.940258026123047,9.838552474975586,0.7679131031036377
1779968659867446300,13.2074462890625,3.4474477767944336,7.100558280944824,0.8069627285003662
1779968659883761700,13.22376171875,-23.52855110168457,-10.248114585876465,-1.1709171533584595
1779968659900112100,13.240112060546876,-32.29874801635742,-12.02794075012207,3.6383910179138184
1779968659916444700,13.256444580078124,7.41736364364624,-1.0939111709594727,2.450765609741211
1779968659932775000,13.27277490234375,24.333335876464844,6.392749786376953,-1.8969635963439941
1779968659949093000,13.289093017578125,16.13567352294922,-9.835518836975098,-4.895995140075684
1779968659965444400,13.3054443359375,16.374305725097656,-25.687271118164062,-9.731311798095703
1779968659981754000,13.321754150390625,14.606873512268066,-4.270098686218262,-10.830427169799805
1779968659998111700,13.33811181640625,4.636877536773682,2.0997743606567383,-3.99550199508667
1779968660014423600,13.354423583984374,2.7147114276885986,1.2130908966064453,-1.023380994796753
1779968660030764300,13.370764404296875,2.9913887977600098,-12.147899627685547,0.15698638558387756
1779968660047085800,13.3870859375,-6.001815319061279,-26.895429611206055,6.865416526794434
1779968660063426600,13.403426513671874,-2.3351380825042725,-20.91913414001465,11.587946891784668
1779968660079752200,13.419752197265625,5.0492963790893555,-9.536725997924805,13.805466651916504
1779968660096092000,13.436091796875,-16.254520416259766,-5.218654632568359,10.6624116897583
1779968660112419300,13.45241943359375,-18.07842445373535,-2.4817323684692383,2.3128504753112793
1779968660128755200,13.468755126953125,0.9359297752380371,-3.0817861557006836,-2.3897058963775635
1779968660145068500,13.485068603515625,-4.234976768493652,1.935509204864502,-5.967236042022705
1779968660161473000,13.50147314453125,-9.68406867980957,8.992904663085938,-5.055002212524414
1779968660177759500,13.517759521484376,-8.251205444335938,8.537474632263184,3.1242315769195557
1779968660194087200,13.534087158203125,-7.360647201538086,7.867820739746094,6.756302833557129
1779968660210415000,13.5504150390625,-5.581299304962158,8.741466522216797,6.859259128570557
1779968660226765800,13.566765869140625,-5.22030782699585,9.466054916381836,5.365950584411621
1779968660243089200,13.583089111328125,-5.882013320922852,10.510782241821289,3.057624578475952
1779968660259423500,13.599423583984375,-6.656642436981201,8.732109069824219,0.15540194511413574
1779968660275758000,13.615758056640624,-3.3763370513916016,5.307214736938477,-0.08197188377380371
1779968660292083200,13.632083251953125,1.2795114517211914,3.8574414253234863,1.217885971069336
1779968660308429300,13.64842919921875,-0.184555783867836,-0.7740249633789062,2.168948173522949
1779968660324750800,13.664750732421876,0.9565850496292114,-10.899129867553711,1.354575514793396
1779968660341091300,13.68109130859375,-0.8732699155807495,-23.81365203857422,-1.5118330717086792
1779968660357422800,13.6974228515625,-0.9301745891571045,-33.749114990234375,-1.7361801862716675
1779968660373759200,13.71375927734375,6.3373847007751465,-31.57936668395996,-2.8619027137756348
1779968660390091500,13.730091552734375,7.452736854553223,-16.088214874267578,-3.5995895862579346
1779968660406405600,13.746405517578125,10.137735366821289,-9.319306373596191,-3.5721771717071533
1779968660422755800,13.762755859375,-4.289553165435791,-9.34092903137207,-3.820828676223755
1779968660439067600,13.779067626953125,-0.06334495544433594,-4.391045570373535,0.7385545372962952
1779968660455429600,13.7954296875,-4.343718528747559,2.655040740966797,7.269881248474121
1779968660471749600,13.81174951171875,-0.9617185592651367,6.216676235198975,6.026678562164307
1779968660488086300,13.828086181640625,5.027039051055908,10.482330322265625,-0.6700810194015503
1779968660504399400,13.8443994140625,8.423750877380371,11.52005386352539,1.891974925994873
1779968660520743200,13.8607431640625,11.692730903625488,13.88336181640625,0.3482796549797058
1779968660537066000,13.87706591796875,9.543313980102539,16.382551193237305,-1.9452461004257202
1779968660553407200,13.8934072265625,9.539056777954102,17.190275192260742,-2.394897699356079
1779968660569735700,13.909735595703125,13.798441886901855,14.530011177062988,-0.5728346109390259
1779968660586071800,13.92607177734375,15.116548538208008,12.553633689880371,-0.16484901309013367
1779968660602399000,13.94239892578125,11.355232238769531,10.16957950592041,-0.789770245552063
1779968660618733000,13.958733154296874,0.6714181900024414,7.206772327423096,0.12104219198226929
1779968660635084500,13.97508447265625,-20.833955764770508,-7.782361030578613,-1.539916753768921
1779968660651455500,13.99145556640625,-23.966577529907227,-17.399127960205078,-5.193979263305664
1779968660667746000,14.00774609375,15.643550872802734,-7.720248222351074,-3.139954090118408
1779968660684089300,14.02408935546875,17.557130813598633,-14.18095874786377,-4.85050106048584
1779968660700391700,14.0403916015625,6.906313419342041,-5.027218818664551,-10.303593635559082
1779968660716747300,14.056747314453125,16.270788192749023,-0.8598089218139648,-3.9429688453674316
1779968660733077000,14.073076904296874,8.918523788452148,2.279101848602295,-0.8820317387580872
1779968660749392400,14.089392333984375,4.605608940124512,5.051905632019043,0.09008419513702393
1779968660765739300,14.1057392578125,5.863454818725586,0.3728904724121094,0.06680786609649658
1779968660782070300,14.1220703125,6.024535179138184,-19.068553924560547,-0.9122363328933716
1779968660798406000,14.138406005859375,-5.123734951019287,-34.21646499633789,8.950471878051758
1779968660814737000,14.15473681640625,0.36040204763412476,-21.857057571411133,14.427474975585938
1779968660831072800,14.17107275390625,-12.71006965637207,-10.94607925415039,12.458964347839355
1779968660847405000,14.187405029296874,-25.39958381652832,-2.9779272079467773,5.953330039978027
1779968660863729700,14.203729736328125,-4.409636497497559,-1.432694435119629,-0.7217870950698853
1779968660880053800,14.2200537109375,-0.10192322731018066,3.6369242668151855,-5.602971076965332
1779968660896386000,14.236385986328125,-8.874964714050293,9.57838249206543,-10.319390296936035
1779968660912721700,14.2527216796875,-7.181835174560547,6.6383280754089355,0.10227834433317184
1779968660929040000,14.269039794921875,-7.180459976196289,5.378907203674316,7.348989009857178
1779968660945375500,14.28537548828125,-6.985940933227539,8.62307357788086,8.421525001525879
1779968660961707000,14.30170703125,-4.94171142578125,9.089353561401367,7.28798770904541
1779968660978040600,14.31804052734375,-5.277587413787842,8.998291969299316,4.875238418579102
1779968660994371800,14.334371826171875,-5.856880187988281,9.91828727722168,1.6544662714004517
1779968661010707000,14.35070703125,-5.769648551940918,7.760904312133789,0.29595574736595154
1779968661027052500,14.367052490234375,-0.7746689915657043,6.703873634338379,1.4920215606689453
1779968661043383800,14.3833837890625,3.1176297664642334,5.101960182189941,3.094111919403076
1779968661059712000,14.3997119140625,1.0186882019042969,-1.1364421844482422,3.8797922134399414
1779968661076050700,14.41605078125,-0.9543111324310303,-12.003146171569824,1.914351224899292
1779968661092366600,14.43236669921875,-2.8235273361206055,-29.410892486572266,1.2565006017684937
1779968661108714500,14.448714599609374,1.8030962944030762,-43.373870849609375,-0.952819287776947
1779968661125059600,14.4650595703125,6.769272804260254,-27.451581954956055,-3.574972152709961
1779968661141423400,14.48142333984375,9.30147647857666,-9.403706550598145,-3.8873250484466553
1779968661157707800,14.497707763671874,6.9726972579956055,-3.2382164001464844,-3.5356926918029785
1779968661174058500,14.51405859375,-6.0911760330200195,-2.1954879760742188,-3.2641196250915527
1779968661190386400,14.530386474609376,0.5262565612792969,-2.3801469802856445,3.7422139644622803
1779968661206714400,14.54671435546875,1.677722454071045,-0.9905519485473633,7.523415565490723
1779968661223039000,14.5630390625,2.972527265548706,3.34220027923584,2.0329155921936035
1779968661239388400,14.579388427734376,9.705982208251953,8.520732879638672,-1.470376968383789
1779968661255691500,14.59569140625,9.984668731689453,13.51009750366211,-2.6879279613494873
1779968661272052500,14.612052490234374,10.275337219238281,16.8709716796875,-4.278984069824219
1779968661288381700,14.628381591796876,12.185680389404297,19.37009048461914,-4.832717418670654
1779968661304722400,14.644722412109376,15.472295761108398,18.145606994628906,-3.2221529483795166
1779968661321033700,14.66103369140625,15.290092468261719,15.65982437133789,-0.6399413347244263
1779968661337384700,14.677384765625,9.325551986694336,10.640405654907227,-0.5136950016021729
1779968661353710800,14.6937109375,-8.270386695861816,6.482119083404541,1.0401942729949951
1779968661370049000,14.710049072265624,-32.62916946411133,-10.34897518157959,0.9591325521469116
1779968661386382600,14.726382568359375,-6.7842698097229,-5.457756042480469,2.484200954437256
1779968661402713600,14.742713623046875,11.245248794555664,-1.6045856475830078,0.26740461587905884
1779968661419011000,14.759010986328125,16.83111572265625,-13.23106575012207,-1.678833246231079
1779968661435380500,14.77538037109375,17.92287254333496,-22.382801055908203,-6.550873279571533
1779968661451708200,14.791708251953125,10.55571460723877,-5.24593448638916,-6.615995407104492
1779968661468050200,14.80805029296875,2.42878794670105,1.1765108108520508,-2.6026153564453125
1779968661484376600,14.82437646484375,0.39151597023010254,0.5193710327148438,-0.9542691707611084
1779968661500694300,14.8406943359375,3.0091891288757324,-3.23421573638916,-0.987234354019165
1779968661517032700,14.85703271484375,6.074341773986816,-15.79166030883789,-3.236482620239258
1779968661533367300,14.8733671875,-9.395683288574219,-27.08721160888672,4.351971626281738
1779968661549694200,14.889694091796875,-0.3462400734424591,-13.54086685180664,7.018396377563477
1779968661566031400,14.90603125,5.427238464355469,-6.174798965454102,10.147661209106445
1779968661582357800,14.922357666015625,-12.440561294555664,-5.987161636352539,8.293365478515625
1779968661598693600,14.938693603515626,-18.358993530273438,-3.996615409851074,4.674737930297852
1779968661615038200,14.9550380859375,-1.8202718496322632,-2.221226692199707,0.10395221412181854
1779968661631377000,14.971376953125,-5.920928001403809,5.660611152648926,-3.182162046432495
1779968661647696400,14.9876962890625,-10.841499328613281,12.23041820526123,-5.320537567138672
1779968661664070100,15.004070068359376,-5.984717845916748,7.664302825927734,2.8382046222686768
1779968661680370700,15.02037060546875,-6.103312969207764,6.50184440612793,5.863325119018555
1779968661696700700,15.03670068359375,-4.211323261260986,7.047357559204102,6.549717426300049
1779968661713033200,15.053033203125,-3.921255111694336,8.592397689819336,4.8702778816223145
1779968661729365500,15.069365478515625,-2.41228985786438,10.432180404663086,1.9560860395431519
1779968661745702400,15.085702392578124,-2.5406885147094727,11.700798988342285,-0.7437045574188232
1779968661762017000,15.10201708984375,-3.533723831176758,8.497438430786133,-0.15585371851921082
1779968661778363400,15.11836328125,-0.2068462073802948,6.821914196014404,1.0068141222000122
1779968661794666500,15.13466650390625,-0.6564691066741943,3.9559149742126465,1.64170503616333
1779968661811006200,15.151006103515625,-2.0800986289978027,-2.556431770324707,3.4981446266174316
1779968661827345000,15.167344970703125,-2.1807236671447754,-11.017843246459961,1.9394798278808594
1779968661843666700,15.183666748046875,-2.3136918544769287,-23.70632553100586,0.234344482421875
1779968661860014000,15.20001416015625,2.1190266609191895,-34.2285041809082,-0.5007686614990234
1779968661876347100,15.21634716796875,3.0668976306915283,-35.58154296875,-0.4926098585128784
1779968661892697900,15.23269775390625,4.880294322967529,-13.190693855285645,-0.5616517663002014
1779968661909010000,15.249010009765625,0.40997791290283203,-7.313232421875,-0.28203505277633667
1779968661925343500,15.265343505859375,0.33014583587646484,-4.481435775756836,1.6402924060821533
1779968661941675000,15.281675048828125,1.798339605331421,-1.5976686477661133,5.84951639175415
1779968661957996000,15.29799609375,-0.9921064376831055,-0.599085807800293,5.7286882400512695
1779968661974330400,15.314330322265626,1.9888792037963867,2.0281643867492676,0.5311084985733032
1779968661990664200,15.330664306640625,6.520295143127441,6.275773525238037,-3.593153476715088
1779968662007003100,15.347003173828124,10.44155502319336,11.470121383666992,-4.7859086990356445
1779968662023329300,15.363329345703125,10.759273529052734,13.787371635437012,-5.196220397949219
1779968662039660000,15.379659912109375,14.258867263793945,15.372047424316406,-5.649985313415527
1779968662055995100,15.3959951171875,19.036884307861328,16.912376403808594,-5.745459079742432
1779968662072325000,15.4123251953125,15.520185470581055,14.96997356414795,-3.894556999206543
1779968662088659200,15.4286591796875,9.634048461914062,10.743528366088867,-2.4707248210906982
1779968662104991000,15.444990966796874,-0.5226550102233887,9.840310096740723,0.864560067653656
1779968662121325000,15.461324951171875,-23.52103042602539,-0.22847747802734375,-0.7040860056877136
1779968662137659000,15.477658935546875,-16.20660400390625,-6.273263931274414,1.6403342485427856
1779968662153990400,15.493990478515625,8.814083099365234,-7.199568748474121,0.31458520889282227
1779968662170322000,15.510322021484376,15.775680541992188,-12.21281623840332,-1.1809263229370117
1779968662186672000,15.526672119140626,15.239436149597168,-15.150091171264648,-4.616354942321777
1779968662202997200,15.542997314453125,10.386223793029785,-1.498870849609375,-1.8529170751571655
1779968662219333600,15.559333740234376,5.204730033874512,4.33188533782959,-0.5817553997039795
1779968662235651800,15.57565185546875,2.2836689949035645,4.3725128173828125,0.603830099105835
1779968662251997200,15.5919970703125,5.256572246551514,-4.011548042297363,-0.4667332172393799
1779968662268329700,15.608329833984374,4.777198791503906,-16.38532066345215,-3.180394172668457
1779968662284678700,15.6246787109375,-8.19130802154541,-26.33938980102539,4.509356498718262
1779968662301007400,15.64100732421875,-1.2297035455703735,-16.139509201049805,8.0848388671875
1779968662317355000,15.65735498046875,3.20953369140625,-9.073851585388184,9.228906631469727
1779968662333634000,15.673634033203125,-4.460468769073486,-7.7225236892700195,7.380046844482422
1779968662350005500,15.690005615234375,-8.344745635986328,-4.2278852462768555,3.0882129669189453
1779968662366336300,15.706336181640625,-7.065683364868164,-4.7506208419799805,-2.018411636352539
1779968662382678000,15.722677978515625,-10.556412696838379,-0.01123046875,-7.819375991821289
1779968662399004200,15.739004150390626,-5.568784713745117,8.77894115447998,-6.551366329193115
1779968662415336400,15.75533642578125,-5.418062210083008,8.16848373413086,1.1309049129486084
1779968662431666400,15.77166650390625,-5.308432102203369,8.125127792358398,6.950412273406982
1779968662448001300,15.788001220703125,-6.239182472229004,9.142242431640625,8.444304466247559
1779968662464336600,15.804336669921875,-5.841963768005371,9.86250114440918,7.960896968841553
1779968662480672000,15.820672119140625,-4.616847038269043,9.25904655456543,6.4607648849487305
1779968662496983600,15.836983642578126,-5.162327766418457,11.326391220092773,3.7061851024627686
1779968662513323000,15.853322998046876,-3.9702625274658203,11.11627197265625,1.8275951147079468
1779968662529646000,15.86964599609375,-0.509510338306427,6.817493915557861,1.4089487791061401
1779968662545989000,15.885989013671875,0.5151931047439575,3.627091407775879,2.1873855590820312
1779968662562317300,15.9023173828125,-4.423398017883301,-1.3866376876831055,3.8839030265808105
1779968662578651100,15.918651123046875,-1.9344656467437744,-8.971741676330566,1.8527231216430664
1779968662594998800,15.934998779296874,1.70596444606781,-18.77042579650879,-4.011891841888428
1779968662611333600,15.951333740234375,1.639707326889038,-24.783493041992188,-6.153363227844238
1779968662627651600,15.967651611328124,-0.878495454788208,-30.19573974609375,-5.6299591064453125
1779968662643981800,15.98398193359375,4.366942882537842,-30.399890899658203,-4.079798698425293
1779968662660327200,16.0003271484375,6.522095680236816,-12.300687789916992,-2.2624902725219727
1779968662676658200,16.016658203125,3.880847930908203,-5.294977188110352,0.6370090246200562
1779968662692989700,16.03298974609375,-1.8261609077453613,-5.457065582275391,1.999463677406311
1779968662709325600,16.04932568359375,2.059345006942749,-6.34013557434082,3.158055305480957
1779968662725656300,16.06565625,2.437211513519287,-4.6202802658081055,3.3146896362304688
1779968662741969400,16.081969482421876,4.693606376647949,0.7146754264831543,1.805435061454773
1779968662758326500,16.098326416015624,6.117888450622559,6.924380302429199,0.3791481852531433
1779968662774655700,16.11465576171875,10.811317443847656,13.105321884155273,0.7722143530845642
1779968662790985500,16.1309853515625,11.50875186920166,18.708147048950195,-0.7427117824554443
1779968662807308500,16.14730859375,15.298534393310547,23.790996551513672,-4.023890972137451
1779968662823652000,16.163652099609376,18.878822326660156,25.370695114135742,-4.949303150177002
1779968662839990800,16.17999072265625,16.194778442382812,21.777233123779297,-1.9525353908538818
1779968662856292900,16.19629296875,10.31014633178711,15.31224250793457,-0.38901975750923157
1779968662872634600,16.212634521484375,-12.816526412963867,3.628035068511963,0.8222492933273315
1779968662888966000,16.2289658203125,-30.91539192199707,-10.730202674865723,2.2324788570404053
1779968662905291000,16.245291015625,-7.058011531829834,-5.391644477844238,0.13850098848342896
1779968662921631000,16.261630859375,21.484729766845703,-6.738999366760254,-5.010432243347168
1779968662937968600,16.27796875,7.2238969802856445,-20.036483764648438,-9.8635835647583
1779968662954300000,16.2942998046875,6.435977935791016,-27.090837478637695,-12.47630500793457
1779968662970631700,16.310631591796874,14.61839485168457,-1.752293586730957,-6.928261756896973
1779968662986953000,16.326952880859373,10.114106178283691,2.8236517906188965,-0.614232063293457
1779968663003286500,16.34328662109375,5.485104560852051,6.675970077514648,0.790838897228241
1779968663019614700,16.35961474609375,7.159801483154297,6.126102447509766,0.4025592505931854
1779968663035966000,16.375966064453124,5.161622047424316,-9.248289108276367,-1.1519266366958618
1779968663052293400,16.39229345703125,0.32440316677093506,-30.072154998779297,4.800107479095459
1779968663068627700,16.408627685546875,-3.6556787490844727,-25.806915283203125,16.41874122619629
1779968663084964600,16.424964599609375,-6.062638282775879,-14.141352653503418,16.4814395904541
1779968663101306400,16.441306396484375,-14.976041793823242,-3.093703269958496,7.681763172149658
1779968663117626000,16.457626220703126,-10.33974552154541,0.3435688018798828,-0.2827807664871216
1779968663133973200,16.47397314453125,-2.993450880050659,1.0258359909057617,-1.546796441078186
1779968663150290200,16.490290283203127,-4.627771377563477,6.399136543273926,-5.118515491485596
1779968663166638600,16.506638671875,-12.609421730041504,13.386575698852539,-7.58437967300415
1779968663182948900,16.522948974609374,-6.234436511993408,7.6567792892456055,3.0938026905059814
1779968663199307300,16.539307373046874,-2.349626064300537,7.68189001083374,6.719810962677002
1779968663215633200,16.555633056640627,-4.338680267333984,9.007777214050293,6.3207783699035645
1779968663231971600,16.5719716796875,-6.371608734130859,9.6822509765625,5.01509428024292
1779968663248283400,16.588283447265624,-5.821879863739014,11.016092300415039,3.1035454273223877
1779968663264634600,16.604634521484375,-4.577583312988281,7.957719802856445,1.5287127494812012
1779968663280968000,16.620968017578125,-2.148139715194702,5.980466842651367,1.2758969068527222
1779968663297309200,16.63730908203125,1.716726303100586,4.734421730041504,2.3987679481506348
1779968663313618700,16.65361865234375,1.4877370595932007,-0.1883831024169922,2.839008092880249
1779968663329956400,16.669956298828126,-0.3456829786300659,-8.556499481201172,1.9061278104782104
1779968663346295000,16.686294921875,-5.036955833435059,-20.142017364501953,0.8316041231155396
1779968663362626300,16.702626220703124,1.1922945976257324,-35.23379898071289,-1.1497066020965576
1779968663378959400,16.71895947265625,1.6513856649398804,-41.48118591308594,-0.9199973344802856
1779968663395297000,16.735297119140625,5.269584655761719,-12.7656888961792,-3.02108097076416
1779968663411624200,16.751624267578126,1.3928766250610352,-4.3232269287109375,-3.2339882850646973
1779968663427960300,16.767960205078126,-1.826575756072998,-3.2153749465942383,0.8986051082611084
1779968663444287000,16.784286865234375,3.906999111175537,-2.174936294555664,5.622431755065918
1779968663460629500,16.80062939453125,8.712367057800293,-0.1742086410522461,6.239099979400635
1779968663476942600,16.816942626953125,4.189305782318115,3.5843982696533203,1.5444625616073608
1779968663493277400,16.83327734375,7.353714466094971,7.751081943511963,-3.4452195167541504
1779968663509606700,16.849606689453125,12.165811538696289,13.353372573852539,-7.126436710357666
1779968663525942000,16.86594189453125,11.009601593017578,16.002147674560547,-7.785956859588623
1779968663542273500,16.8822734375,11.366016387939453,15.821540832519531,-7.44425106048584
1779968663558606800,16.89860693359375,11.328374862670898,14.337282180786133,-6.700873851776123
1779968663574941700,16.914941650390624,10.735212326049805,13.08814811706543,-3.6918559074401855
1779968663591285000,16.931284912109376,4.394314765930176,11.64322566986084,-0.8144632577896118
1779968663607617800,16.94761767578125,-15.11359977722168,1.7291765213012695,1.740539312362671
1779968663623935000,16.96393505859375,-25.301734924316406,-7.122340202331543,3.983610153198242
1779968663640280600,16.980280517578127,11.885370254516602,-5.432615280151367,3.383173942565918
1779968663656616200,16.9966162109375,16.136756896972656,-6.107386589050293,-3.2302565574645996
1779968663672947500,17.012947509765624,13.41189193725586,-15.24190902709961,-4.7330827713012695
1779968663689280300,17.0292802734375,12.269763946533203,-14.958527565002441,-6.955355644226074
1779968663705612000,17.045612060546876,8.084306716918945,0.8010368347167969,-4.837620735168457
1779968663721947600,17.06194775390625,2.2059085369110107,3.277313709259033,-1.6066803932189941
1779968663738304800,17.0783046875,0.572519063949585,-0.13236522674560547,-1.4067213535308838
1779968663754612500,17.094612548828124,1.6603126525878906,-8.819371223449707,-3.4702529907226562
1779968663770945300,17.1109453125,0.5681604146957397,-20.30704116821289,0.6839866638183594
1779968663787277800,17.12727783203125,-5.627836227416992,-23.497772216796875,8.236479759216309
1779968663803586000,17.1435859375,8.964305877685547,-10.668912887573242,10.337955474853516
1779968663819938300,17.159938232421876,4.084078311920166,-7.58566951751709,9.761098861694336
1779968663836263700,17.176263671875,-18.43386459350586,-4.626082420349121,4.526125907897949
1779968663852590300,17.19259033203125,-14.9014253616333,-5.479296684265137,-1.6147313117980957
1779968663868939300,17.208939208984376,-4.172441482543945,-1.9217195510864258,-5.24094295501709
1779968663885271300,17.225271240234374,-4.639889240264893,7.460542678833008,-5.231462478637695
1779968663901584600,17.241584716796876,-4.823701858520508,9.743946075439453,0.23110821843147278
1779968663917941000,17.25794091796875,-8.870563507080078,11.032711029052734,5.178223609924316
1779968663934269400,17.27426953125,-3.245034694671631,8.554899215698242,8.73082160949707
1779968663950601700,17.290601806640623,-5.06639289855957,9.468307495117188,7.996476650238037
1779968663966917400,17.30691748046875,-5.4193501472473145,10.901222229003906,6.4886155128479
1779968663983254500,17.323254638671877,-5.655777931213379,12.616488456726074,4.187946796417236
1779968663999576300,17.339576416015625,-5.921352386474609,12.484292984008789,3.2764673233032227
1779968664015915000,17.3559150390625,-2.6312031745910645,6.990546226501465,3.1894924640655518
1779968664032250400,17.37225048828125,2.7218618392944336,2.516368865966797,3.284275531768799
1779968664048584700,17.388584716796874,1.107038140296936,-2.8075180053710938,4.8036675453186035
1779968664064912000,17.404911865234375,-1.5637264251708984,-13.039295196533203,1.2457642555236816
1779968664081265700,17.421265625,0.4104805290699005,-22.720149993896484,-4.729215621948242
1779968664097597200,17.43759716796875,2.4908676147460938,-24.138103485107422,-6.564939975738525
1779968664113931300,17.45393115234375,4.118278503417969,-22.906963348388672,-5.587708473205566
1779968664130257700,17.470257568359376,5.112004280090332,-21.230188369750977,-4.52767276763916
1779968664146591500,17.486591552734374,6.821821212768555,-14.16836166381836,-3.758190870285034
1779968664162913000,17.5029130859375,1.8270764350891113,-8.701177597045898,-1.2663023471832275
1779968664179258600,17.519258544921875,-2.4426450729370117,-9.081138610839844,0.415010929107666
1779968664195599000,17.53559912109375,3.0044050216674805,-8.118612289428711,3.3900146484375
1779968664211922700,17.551922607421876,2.3930718898773193,-3.180403709411621,3.5321474075317383
1779968664228256300,17.56825634765625,3.5488457679748535,1.1999545097351074,1.1621594429016113
1779968664244573000,17.584572998046873,6.884778022766113,6.592713832855225,-1.6155261993408203
1779968664260922000,17.600922119140623,7.3106560707092285,12.442497253417969,-3.117172956466675
1779968664277253400,17.61725341796875,9.124117851257324,13.288976669311523,-3.527477741241455
1779968664293595400,17.633595458984374,8.540953636169434,15.149410247802734,-3.847215175628662
1779968664309924000,17.649924072265627,10.772699356079102,18.334489822387695,-5.212737083435059
1779968664326252300,17.666252197265624,16.0056209564209,17.92473602294922,-2.9200475215911865
1779968664342605800,17.682605712890624,15.428422927856445,16.388343811035156,0.652373194694519
1779968664358914800,17.698914794921876,8.42245864868164,12.439149856567383,1.1886448860168457
1779968664375236900,17.71523681640625,-8.298364639282227,5.480531692504883,1.5754115581512451
1779968664391580200,17.731580078125,-29.216392517089844,-6.459527969360352,2.8261237144470215
1779968664407895800,17.747895751953124,-15.177240371704102,-16.41900634765625,0.04457354545593262
1779968664424231200,17.764231201171874,22.35846710205078,-6.515830039978027,2.2188007831573486
1779968664440564000,17.78056396484375,22.85354995727539,-10.821267127990723,-3.0035791397094727
1779968664456882200,17.796882080078124,3.3653652667999268,-9.828279495239258,-11.071932792663574
1779968664473223700,17.8132236328125,7.802273750305176,-0.8539524078369141,-11.098810195922852
1779968664489552400,17.829552490234374,9.588784217834473,-0.05160808563232422,-4.432403564453125
1779968664505886500,17.845886474609376,4.811968803405762,-0.16545963287353516,-2.662943124771118
1779968664522217500,17.862217529296874,5.949252128601074,-4.647547721862793,-2.2580742835998535
1779968664538551600,17.878551513671876,5.7045440673828125,-16.656435012817383,-4.107023239135742
1779968664554885600,17.8948857421875,-11.176924705505371,-26.972671508789062,5.343850135803223
1779968664571226000,17.91122607421875,3.9701056480407715,-16.72031593322754,12.420952796936035
1779968664587560000,17.927559814453126,-0.6243114471435547,-10.976410865783691,11.1117525100708
1779968664603881200,17.943881103515626,-16.789791107177734,-6.761127471923828,9.020018577575684
1779968664620224500,17.960224609375,-13.236995697021484,-2.630019187927246,2.313117504119873
1779968664636557800,17.976557861328125,-7.075307846069336,0.19365310668945312,-0.6448807120323181
1779968664652888800,17.992888916015627,-6.625032424926758,5.043649196624756,-0.2644480764865875
1779968664669240800,18.00924072265625,-3.6485047340393066,5.463009357452393,0.9337299466133118
1779968664685569800,18.02556982421875,-10.217121124267578,6.870348930358887,0.8578101396560669
1779968664701902000,18.041902099609374,-7.078619956970215,7.536818504333496,4.98738431930542
1779968664718231600,18.0582314453125,-4.223605632781982,6.430976390838623,8.862751960754395
1779968664734552300,18.07455224609375,-3.810152053833008,8.258065223693848,7.5725321769714355
1779968664750901000,18.09090087890625,-6.879311561584473,9.881434440612793,5.123392581939697
1779968664767230500,18.10723046875,-4.406886100769043,10.658574104309082,2.3502037525177
1779968664783548000,18.1235478515625,-0.794745922088623,9.630209922790527,0.8077220320701599
1779968664799877600,18.139877685546875,-0.44177156686782837,6.182160377502441,1.1396005153656006
1779968664816233000,18.15623291015625,-0.27231889963150024,2.15225887298584,2.2371397018432617
1779968664832531200,18.17253125,-3.352043628692627,-5.97004508972168,1.4209407567977905
1779968664848893000,18.188892822265625,-2.5810861587524414,-13.448806762695312,-2.2912731170654297
1779968664865228500,18.205228515625,0.6125410795211792,-22.247173309326172,-4.215588092803955
1779968664881553200,18.22155322265625,2.7516098022460938,-34.02960968017578,-4.8160223960876465
1779968664897880600,18.237880615234374,4.803057670593262,-34.51182556152344,-4.230244159698486
1779968664914223400,18.254223388671875,6.545300483703613,-11.429951667785645,-4.007993698120117
1779968664930560500,18.270560546875,0.6364459991455078,-4.723764419555664,-0.5502605438232422
1779968664946872000,18.2868720703125,1.282933235168457,-7.565922737121582,1.573536992073059
1779968664963210200,18.303210205078123,3.670569896697998,-5.27069091796875,2.464120388031006
1779968664979541500,18.31954150390625,2.8149209022521973,-0.24415206909179688,1.4203858375549316
1779968664995855600,18.335855712890623,2.944918394088745,4.183713912963867,-1.0133665800094604
1779968665012206600,18.35220654296875,7.4972028732299805,8.603532791137695,-3.1553115844726562
1779968665028539600,18.36853955078125,7.653629779815674,13.212581634521484,-3.2925214767456055
1779968665044871000,18.384870849609374,7.608583450317383,15.35672378540039,-4.382519245147705
1779968665061206300,18.401206298828125,7.313910484313965,16.047515869140625,-4.6485371589660645
1779968665077547000,18.417547119140625,14.252368927001953,15.188849449157715,-3.7324578762054443
1779968665093886000,18.433885986328125,16.55583381652832,14.40259075164795,-2.623274564743042
1779968665110214700,18.450214599609374,9.884772300720215,12.132745742797852,-2.12197208404541
1779968665126563600,18.4665634765625,-2.229004383087158,8.74170970916748,0.02874833345413208
1779968665142870300,18.482870361328125,-24.940673828125,-2.4338741302490234,-2.266702651977539
1779968665159197400,18.499197509765626,-3.467512607574463,-1.125905990600586,-0.36373794078826904
1779968665175574800,18.51557470703125,16.32011604309082,0.3604421615600586,-4.32338285446167
1779968665191848700,18.5318486328125,7.139443397521973,-12.02166748046875,-6.322375297546387
1779968665208210700,18.548210693359376,10.321812629699707,-27.460678100585938,-6.0863189697265625
1779968665224539000,18.564538818359374,8.759384155273438,-6.762930870056152,-2.7002182006835938
1779968665240884200,18.58088427734375,3.3523013591766357,2.4829039573669434,-0.6459660530090332
1779968665257179000,18.597178955078125,0.8750672340393066,4.328995704650879,-0.7597571611404419
1779968665273540600,18.61354052734375,0.15523183345794678,0.36051082611083984,-0.042519330978393555
1779968665289855200,18.629855224609376,3.6396536827087402,-9.957293510437012,-1.657677412033081
1779968665306192600,18.646192626953123,3.041088104248047,-19.246814727783203,1.5852915048599243
1779968665322526500,18.6625263671875,-0.22639334201812744,-19.35458755493164,8.141267776489258
1779968665338856200,18.678856201171875,5.7323479652404785,-11.298406600952148,10.806671142578125
1779968665355190000,18.69518994140625,-10.165149688720703,-6.934252738952637,7.360989570617676
1779968665371528700,18.71152880859375,-21.915935516357422,-2.552046775817871,-3.1557254791259766
1779968665387857000,18.72785693359375,-4.168097496032715,-5.300086975097656,-5.569157123565674
1779968665404200200,18.7442001953125,-3.7698521614074707,2.113776683807373,-6.647007942199707
1779968665420524500,18.760524658203124,-3.759096622467041,9.384099006652832,-4.059869289398193
1779968665436852700,18.776852783203125,-6.642806053161621,9.816373825073242,3.0706334114074707
1779968665453174800,18.7931748046875,-6.2705979347229,8.631295204162598,7.138293266296387
1779968665469506800,18.8095068359375,-5.9316816329956055,8.559925079345703,8.416900634765625
1779968665485841400,18.82584130859375,-5.385062217712402,8.923316955566406,7.5033698081970215
1779968665502173400,18.84217333984375,-5.222225666046143,10.57731819152832,4.8353657722473145
1779968665518506200,18.85850634765625,-2.6926052570343018,11.461889266967773,1.9360532760620117
1779968665534837200,18.874837158203125,-0.7461088299751282,8.885017395019531,1.9141628742218018
1779968665551172000,18.891172119140624,0.023175552487373352,5.844203948974609,2.4675841331481934
1779968665567502300,18.90750244140625,-0.47267910838127136,-0.23797130584716797,4.1877546310424805
1779968665583835100,18.923835205078124,-2.1122348308563232,-10.66252326965332,2.06449031829834
1779968665600168700,18.940168701171874,-2.163754940032959,-22.17169189453125,-3.4036166667938232
1779968665616502300,18.956502197265625,-0.16832828521728516,-34.51757049560547,-4.183777809143066
1779968665632832800,18.972832763671875,4.343236923217773,-35.11342239379883,-2.8829545974731445
1779968665649166800,18.989166748046873,7.467520713806152,-12.76293659210205,-2.5331830978393555
1779968665665496600,19.00549658203125,2.845564842224121,-4.553503036499023,-1.566870093345642
1779968665681830700,19.02183056640625,0.03801298141479492,-3.683504104614258,-0.04888105392456055
1779968665698164000,19.0381640625,3.0494914054870605,-4.821568489074707,1.413948655128479
1779968665714496800,19.054496826171874,5.443310260772705,-3.183382034301758,1.145172119140625
1779968665730830600,19.07083056640625,5.49851131439209,0.6417059898376465,0.15280616283416748
1779968665747162000,19.087162109375,5.075780391693115,5.441173553466797,-3.0174155235290527
1779968665763493600,19.10349365234375,6.104060173034668,10.117731094360352,-4.425366401672363
1779968665779826000,19.119825927734375,7.740399360656738,12.812506675720215,-3.7800307273864746
1779968665796174000,19.136174072265625,7.731829643249512,16.014999389648438,-4.144927978515625
1779968665812506400,19.15250634765625,10.931803703308105,16.129579544067383,-4.548692226409912
1779968665828835800,19.1688359375,14.44723129272461,16.15725326538086,-2.395453453063965
1779968665845170000,19.185169921875,12.231304168701172,13.465873718261719,-2.506260871887207
1779968665861503200,19.201503173828126,1.7658965587615967,11.250154495239258,-2.0725433826446533
1779968665877830000,19.217829833984375,-16.438228607177734,3.7693839073181152,-2.815232992172241
1779968665894172700,19.234172607421876,-16.65900993347168,-4.505249977111816,-0.9992538690567017
1779968665910511900,19.250511962890624,9.036687850952148,-7.522946357727051,-2.710749626159668
1779968665926820400,19.2668203125,11.801923751831055,-8.800872802734375,-0.512854814529419
1779968665943155700,19.28315576171875,15.780417442321777,-15.758228302001953,-2.0621867179870605
1779968665959496200,19.29949609375,9.127456665039062,-7.708220481872559,-1.5623095035552979
1779968665975833000,19.3158330078125,1.551979660987854,-0.6389760971069336,-1.0348694324493408
1779968665992161300,19.332161376953124,3.0863218307495117,-2.035907745361328,-2.0106539726257324
1779968666008497200,19.3484970703125,1.1777262687683105,-3.9499692916870117,-0.19353878498077393
1779968666024827000,19.364826904296876,2.2958037853240967,-12.259597778320312,0.016187727451324463
1779968666041158100,19.381158203125,-0.7013866901397705,-17.72258758544922,5.416526794433594
1779968666057495000,19.3974951171875,3.1610794067382812,-12.232370376586914,8.697216033935547
1779968666073822500,19.413822509765627,5.721336364746094,-8.174209594726562,9.748719215393066
1779968666090154200,19.430154296875,-11.57710075378418,-5.9724225997924805,4.971423149108887
1779968666106485200,19.4464853515625,-17.352649688720703,-2.7162036895751953,-1.1096168756484985
1779968666122815200,19.462815185546877,-4.280282974243164,-4.168198585510254,-1.972160816192627
1779968666139156200,19.47915625,-4.153518199920654,2.0959792137145996,-2.1361958980560303
1779968666155486500,19.495486572265627,-8.715375900268555,8.223801612854004,-2.0191268920898438
1779968666171821600,19.511821533203126,-7.178339958190918,7.811038017272949,2.2398204803466797
1779968666188152300,19.52815234375,-5.411743640899658,8.845590591430664,6.422171592712402
1779968666204485600,19.544485595703126,-5.320181369781494,8.828603744506836,6.83561897277832
1779968666220825900,19.560825927734374,-4.0099568367004395,8.420995712280273,4.165431499481201
1779968666237169400,19.57716943359375,-3.7049360275268555,8.277886390686035,0.5388815402984619
1779968666253495000,19.5934951171875,-4.414300918579102,7.914936542510986,-1.732823133468628
1779968666269810700,19.609810791015626,-0.625627338886261,6.19066047668457,-1.257228970527649
1779968666286165000,19.6261650390625,1.4858561754226685,4.745400428771973,-0.4969077706336975
1779968666302494500,19.642494384765627,-1.0109694004058838,1.120631217956543,-0.34683674573898315
1779968666318818300,19.658818359375,-0.0650181770324707,-5.014172554016113,-1.4665915966033936
1779968666335167200,19.675167236328125,0.5222193002700806,-14.5742769241333,-2.317580461502075
1779968666351491600,19.69149169921875,2.8313820362091064,-25.720050811767578,-3.2430410385131836
1779968666367825400,19.707825439453124,4.08976936340332,-32.221336364746094,-1.6956312656402588
1779968666384155400,19.7241552734375,5.569817066192627,-20.452587127685547,-1.5016705989837646
1779968666400489700,19.74048974609375,0.08386516571044922,-11.348508834838867,0.17128121852874756
1779968666416804900,19.756804931640627,0.11473369598388672,-10.215234756469727,2.0087718963623047
1779968666433143000,19.77314306640625,2.1691627502441406,-4.203479766845703,2.960690975189209
1779968666449472800,19.78947265625,1.2098684310913086,-1.3119745254516602,4.8732404708862305
1779968666465807000,19.80580712890625,2.1315832138061523,1.7932472229003906,3.1704258918762207
1779968666482137600,19.8221376953125,6.174851417541504,6.552248954772949,-2.1240854263305664
1779968666498471400,19.838471435546875,6.465739727020264,11.600422859191895,-4.826052665710449
1779968666514802700,19.854802734375,8.688521385192871,13.54212760925293,-4.248741626739502
1779968666531137800,19.8711376953125,7.673008441925049,13.746759414672852,-4.5151519775390625
1779968666547484700,19.887484619140626,6.398046493530273,12.220301628112793,-3.3647971153259277
1779968666563804700,19.9038046875,10.5774507522583,11.781559944152832,-2.227454662322998
1779968666580145400,19.9201455078125,11.302967071533203,10.60709285736084,-1.8324458599090576
1779968666596466200,19.936466064453125,7.751595497131348,8.957710266113281,-1.4554945230484009
1779968666612811000,19.95281103515625,3.015918016433716,7.247260570526123,0.44635462760925293
1779968666629146600,19.969146728515625,-12.07374382019043,-2.216930389404297,-0.4503721296787262
1779968666645476600,19.9854765625,-12.254432678222656,-0.9303760528564453,0.3086555004119873
1779968666661801000,20.001801025390623,8.973642349243164,-1.2923288345336914,-3.212963819503784
1779968666678143200,20.018143310546876,5.415862083435059,-6.338687896728516,-6.7621378898620605
1779968666694474200,20.03447412109375,1.8044641017913818,-13.61182975769043,-8.938459396362305
1779968666710805800,20.0508056640625,17.480083465576172,-10.120597839355469,-4.784371376037598
1779968666727139300,20.067139404296874,10.44974136352539,-3.315840721130371,0.364133358001709
1779968666743475200,20.08347509765625,3.242933750152588,-0.13997936248779297,0.6447646617889404
1779968666759791400,20.099791259765624,-1.3285658359527588,-1.6974678039550781,2.377366065979004
1779968666776136200,20.11613623046875,0.24215316772460938,-13.986692428588867,0.2559947967529297
1779968666792473900,20.132473876953124,-1.182266354560852,-22.275827407836914,4.757568836212158
1779968666808800300,20.14880029296875,-0.1041802167892456,-15.625922203063965,10.331783294677734
1779968666825124400,20.165124267578125,1.2596988677978516,-7.720787048339844,9.789259910583496
1779968666841467100,20.181467041015626,-3.4044175148010254,-4.748709678649902,8.209607124328613
1779968666857783000,20.197782958984376,-6.025842666625977,-1.679732322692871,1.9783775806427002
1779968666874138400,20.214138427734376,-7.917383193969727,-1.218306541442871,-2.912543535232544
1779968666890470400,20.230470458984374,-8.778456687927246,-1.7980518341064453,-7.408565998077393
1779968666906781400,20.246781494140624,-6.275479316711426,4.456239700317383,-8.425060272216797
1779968666923117600,20.26311767578125,-5.839535713195801,7.291613578796387,-4.639527320861816
1779968666939449900,20.279449951171873,-7.879126071929932,6.825953483581543,1.4010025262832642
1779968666955787300,20.295787353515625,-3.2990102767944336,6.928072452545166,6.600753307342529
1779968666972116200,20.3121162109375,-2.742706775665283,7.914524078369141,7.6538214683532715
1779968666988449800,20.32844970703125,-5.403740406036377,9.256452560424805,6.379689693450928
1779968667004781300,20.34478125,-6.244305610656738,11.182448387145996,4.502346038818359
1779968667021102000,20.36110205078125,-4.2180399894714355,11.898727416992188,2.731353282928467
1779968667037451500,20.377451416015624,-2.6700425148010254,9.607710838317871,1.954882264137268
1779968667053785900,20.393785888671875,-1.5836255550384521,7.16724967956543,1.8107616901397705
1779968667070129200,20.410129150390624,0.6457208395004272,3.711113929748535,2.659106492996216
1779968667086457900,20.426457763671873,1.5177950859069824,-3.039217948913574,3.3238112926483154
1779968667102788900,20.442788818359375,-1.07805335521698,-10.606483459472656,-0.6556161642074585
1779968667119122400,20.459122314453126,-0.12032973766326904,-28.141508102416992,-2.9500062465667725
1779968667135451600,20.47545166015625,-0.26927661895751953,-43.53123474121094,-3.2666218280792236
1779968667151795000,20.491794921875,3.727642059326172,-23.964641571044922,-5.066146373748779
1779968667168117500,20.508117431640624,3.721989154815674,-8.87560749053955,-5.265926361083984
1779968667184458800,20.524458740234376,0.9865336418151855,-4.74947452545166,-1.1573070287704468
1779968667200758000,20.540758056640627,-0.3286762237548828,-4.538234710693359,5.5472564697265625
1779968667217096200,20.55709619140625,2.0242557525634766,-5.590118408203125,5.772279739379883
1779968667233442800,20.57344287109375,3.4768285751342773,-4.405820846557617,2.156643867492676
1779968667249770000,20.58977001953125,2.7008042335510254,-0.1305408477783203,-2.0362515449523926
1779968667266102500,20.6061025390625,5.465063095092773,6.230983257293701,-4.08733606338501
1779968667282435300,20.622435302734374,9.454156875610352,10.614418029785156,-4.256126403808594
1779968667298766600,20.6387666015625,8.000345230102539,14.697566986083984,-3.8432607650756836
1779968667315120400,20.655120361328127,7.834586143493652,16.655029296875,-4.0834503173828125
1779968667331463700,20.671463623046876,9.161676406860352,17.355045318603516,-2.7374966144561768
1779968667347778600,20.687778564453126,13.018867492675781,16.219144821166992,-2.5405001640319824
1779968667364095000,20.704094970703125,11.622406005859375,15.155858993530273,-1.7055608034133911
1779968667380447500,20.720447509765624,4.512786388397217,11.981305122375488,-1.2002220153808594
1779968667396759600,20.736759521484377,-12.307697296142578,0.8066673278808594,-2.051114320755005
1779968667413097000,20.753096923828124,-20.316673278808594,-8.888662338256836,-0.6347215175628662
1779968667429428700,20.7694287109375,2.9856982231140137,-13.39450740814209,-1.097297191619873
1779968667445762300,20.78576220703125,15.902362823486328,-13.183152198791504,-1.135927438735962
1779968667462092000,20.802092041015626,14.17105484008789,-17.063796997070312,-4.2390360832214355
