time,seconds_elapsed,z,y,x
1780100314777571600,0.044571533203125,-0.30960750870257614,-0.043510640424489974,0.0912214359525591
1780100314787564800,0.054564697265625,-0.46407004840075966,0.19511399129927157,-0.008752411580458284
1780100314797557800,0.064557861328125,-0.5807599068045616,0.3574164308428764,-0.10763992518149315
1780100314807551700,0.0745517578125,-0.660756695844233,0.27982699520587917,-0.22947430686689912
1780100314817544700,0.084544677734375,-0.6532225009471178,0.19534020127058027,-0.24507125057987866
1780100314827537700,0.09453759765625,-0.5101119608685374,0.08015431768894195,-0.19822861618846654
1780100314837531000,0.10453076171875,-0.22948154032528398,-0.05686287395060062,-0.15333273195065558
1780100314847524900,0.11452490234375,0.055448915499448775,-0.2454682140082121,-0.11250796960927545
1780100314857517800,0.124517822265625,0.10798866555392742,-0.25807752021253105,0.02041150438785553
1780100314867510800,0.1345107421875,0.11466361327320336,-0.10250585022866725,0.16662512504830956
1780100314877504800,0.1445048828125,0.20317571720182895,0.012016016486287116,0.19050430554673076
1780100314887497700,0.154497802734375,0.17984218788743017,0.08803717989325523,0.1698578233592212
1780100314897490700,0.16449072265625,0.15641630411446095,0.1379962658047676,0.15233561067208648
1780100314907484000,0.17448388671875,0.26180034012794495,0.13389876735806464,0.07243815382104367
1780100314917478000,0.184477783203125,0.4464993203967809,0.053311318948864934,0.009228175866045057
1780100314927470600,0.194470703125,0.570445725800097,-0.0875765766441822,-0.05986643968075513
1780100314937463800,0.2044638671875,0.559428949484229,-0.19385200853943824,-0.12547175180707126
1780100314947456800,0.214456787109375,0.43808571231663224,-0.2082628112077713,-0.15491689586956053
1780100314957450800,0.22445068359375,0.22117431522905825,-0.18110300160348414,-0.2035860150357708
1780100314967443700,0.234443603515625,-0.06053893211483955,-0.2003372789055109,-0.2827157023847103
1780100314977436400,0.2444365234375,-0.3612555706143379,-0.26453707161545753,-0.3200665780704468
1780100314987429600,0.2544296875,-0.580311578515172,-0.1748702446937561,-0.31890476774945853
1780100314997423600,0.264423583984375,-0.618758505809307,0.06177987208664417,-0.2792381624672562
1780100315007416800,0.274416748046875,-0.3884183028280735,0.254105109450221,-0.28818686380479486
1780100315017409500,0.284409423828125,-0.05561550423800945,0.2038748053818941,-0.2929156458923593
1780100315027402800,0.29440283203125,0.1416261467397213,0.007428104174137115,-0.2255222813054919
1780100315037396700,0.304396728515625,0.12464344775676726,-0.18659984545409677,-0.0973396996371448
1780100315047389700,0.3143896484375,0.1313096276476979,-0.21069266870319842,-0.009549443709664046
1780100315057382700,0.324382568359375,0.12756108876913785,-0.11074468626379966,0.04120126750357449
1780100315067375600,0.334375732421875,0.06270283215045928,-0.008480243575572966,0.11462824969887733
1780100315077369600,0.34436962890625,-0.012177636788785457,0.057224693000316615,0.23844299154654144
1780100315087362800,0.35436279296875,-0.0855094149813056,0.11603519388735294,0.23984113137405363
1780100315097355500,0.36435546875,-0.14188450541496275,0.2115776348441839,0.06946954980641604
1780100315107348700,0.3743486328125,-0.13025368885397912,0.1803168196618557,-0.11923749706000089
1780100315117342700,0.3843427734375,-0.14515373634397982,0.02410626725256443,-0.10222217444907873
1780100315127335400,0.39433544921875,-0.08988543810844421,-0.07582242596447468,-0.07542443962283432
1780100315137328600,0.40432861328125,0.040268005241453644,-0.04787468085289001,-0.23358857378531245
1780100315147321600,0.414321533203125,-0.04695756600797176,-0.026239772149920463,-0.2531119336944073
1780100315157315800,0.42431591796875,-0.08620470376908779,-0.014208558094501495,-0.1556518590806052
1780100315167308500,0.43430859375,-0.09234043004512786,-0.054010991650819774,-0.025278818163275717
1780100315177301800,0.4443017578125,-0.09794131879210471,-0.1261848319798708,0.10018438501115888
1780100315187295700,0.454295654296875,-0.1398527073264122,-0.10847031159102916,0.10920732062868774
1780100315197288700,0.464288818359375,-0.15240473038554192,-0.05272328992784023,0.005978380289860069
1780100315207281700,0.47428173828125,-0.11133622241616248,-0.005365910947322845,-0.10894472416974603
1780100315217274600,0.484274658203125,0.01740238569974899,-0.002034136176109314,-0.20403850804362444
1780100315227268600,0.4942685546875,0.12667290775775908,-0.13954291072487832,-0.1724264682708308
1780100315237261800,0.50426171875,0.09785510181337595,-0.20963585312664507,-0.10755491377916186
1780100315247254500,0.514254638671875,0.05360562572032213,-0.0970838251799345,-0.08412311172205954
1780100315257247700,0.524247802734375,0.12307634457051753,0.08211831123828887,-0.061987560020573436
1780100315267241700,0.53424169921875,0.1535778658181429,0.1693839222371578,-0.01166519375462085
1780100315277234400,0.544234375,0.14049392783939837,0.15390987425148486,0.0640065716927871
1780100315287227600,0.5542275390625,0.14769640656411648,0.12842939603626727,0.09015815410260111
1780100315297220600,0.564220703125,0.12493687774538993,0.03394786230921745,0.04702566280812025
1780100315307214800,0.57421484375,0.17323738279491663,-0.07278232761621475,-0.037266339207440616
1780100315317207600,0.58420751953125,0.1932610569089651,-0.15007482613325118,-0.11817381335124373
1780100315327200800,0.59420068359375,0.07980038968473673,-0.16413257758021355,-0.1433267401125282
1780100315337193700,0.60419384765625,-0.014815876337885855,-0.11316402236521243,-0.14181695660408586
1780100315347187700,0.614187744140625,-0.05308569349944591,-0.05638239695727825,-0.11576225869748741
1780100315357180700,0.6241806640625,-0.13515782750844954,0.010420271727442742,-0.1135871066154912
1780100315367173600,0.634173583984375,-0.2179503847464919,0.07127952183783054,-0.11245269575808196
1780100315377166800,0.644166748046875,-0.18094634973704815,0.03745440912544727,-0.134698429835774
1780100315387160600,0.65416064453125,-0.13372808696627617,-0.0014513678520917891,-0.12649419018998742
1780100315397153500,0.664153564453125,-0.04325695792436599,-0.01317220078408718,-0.1303163057614118
1780100315407146800,0.674146728515625,0.12137684717625379,-0.04435352098941803,-0.13748963145688176
1780100315417139700,0.6841396484375,0.2109679785132408,-0.04638122742474079,-0.13175806553494185
1780100315427133400,0.694133544921875,0.22918284963965416,-0.06985270390510559,-0.07071074550654739
1780100315437126700,0.704126708984375,0.23685060778856276,-0.06704407622516155,0.0327391075739637
1780100315447119600,0.71411962890625,0.14881751954853534,-0.04660042313337326,0.10998689016643912
1780100315457112600,0.724112548828125,0.05102817644774914,-0.007388941207528114,0.13856493253819643
1780100315467106600,0.7341064453125,-0.09383972869217395,0.027457915768027304,0.1383547969188541
1780100315477099800,0.744099853515625,-0.19610475590229035,0.06765490159988403,0.08778901381846517
1780100315487092700,0.7540927734375,-0.16775398294776678,0.069991820114851,0.017991620297171173
1780100315497086700,0.764086669921875,-0.0807400086224079,0.01590542514026165,-0.02998535188641399
1780100315507079700,0.77407958984375,-0.08985533523112535,-0.025039748710393904,-0.04821490912530571
1780100315517072600,0.78407275390625,-0.11679361103922128,-0.04030921403467655,-0.0690899759043008
1780100315527065900,0.79406591796875,-0.14373217910826205,-0.02535539053082466,-0.12091496528554707
1780100315537059600,0.8040595703125,-0.15551847849190234,-0.016394085440039632,-0.13097407555039972
1780100315547052500,0.814052490234375,-0.15193857417851686,-0.021048633247613906,-0.08268073089402168
1780100315557045800,0.824045654296875,-0.10202654227912425,0.0155851071447134,-0.026137700014933943
1780100315567038500,0.83403857421875,0.002952420064806938,0.0022387188374996185,0.016311339060030877
1780100315577032400,0.844032470703125,0.12113164024353026,-0.03112052992880344,0.05722688495740294
1780100315587025700,0.854025634765625,0.12993921607732772,-0.022532734325528145,0.09883655059877783
1780100315597018600,0.8640185546875,0.0840472334742546,-0.003633388066291809,0.07958064598683268
1780100315607011600,0.874011474609375,0.05494359632581472,0.018814006063342093,0.029031887086480853
1780100315617005600,0.884005615234375,0.04427344149053097,0.04514671719372272,-0.0797286761553958
1780100315626998800,0.893998779296875,0.012713935622572899,0.019782558834552762,-0.13148344984464347
1780100315636991700,0.90399169921875,-0.008633972832560538,-0.0729237819135189,-0.15474687306489796
1780100315646984700,0.913984619140625,-0.021970132006704807,-0.13109715394079685,-0.1634701316161081
1780100315656978700,0.923978759765625,-0.06616320173740387,-0.17018062557280061,-0.14628672242928295
1780100315666971600,0.9339716796875,-0.10724106205701828,-0.15562252338826654,-0.20096753963306546
1780100315676964900,0.94396484375,-0.052877311445772644,-0.11197042866647243,-0.22162721009571104
1780100315686957600,0.95395751953125,0.0029576807618141173,-0.03890226984620094,-0.2024868946874514
1780100315696951600,0.96395166015625,0.05799100119769573,0.03649696227014065,-0.1509552622295916
1780100315706944800,0.97394482421875,0.15597615913152693,0.0788321291744709,-0.06656403762325644
1780100315716937500,0.9839375,0.2202732747361064,0.03293020969927311,0.004093443326093256
1780100315726930700,0.9939306640625,0.20587094763517377,-0.035839375144243235,0.06258852158840746
1780100315736924700,1.003924560546875,0.1961854199230671,-0.049313189223408695,0.07971932380516082
1780100315746917600,1.013917724609375,0.11355419072657823,-0.043433483535051345,0.01766242487542331
1780100315756910600,1.02391064453125,-0.0412283747062087,-0.07841945672035217,-0.0281383723128587
1780100315766903600,1.033903564453125,-0.18891133726686238,-0.03474924181997776,-0.072832669563964
1780100315776897800,1.043897705078125,-0.28798692078590393,0.025937574332952497,-0.06148107180316001
1780100315786890800,1.053890869140625,-0.28494682243764397,0.07328384739756584,-0.0230589866893366
1780100315796883500,1.063883544921875,-0.22566227429807184,0.1257102002054453,0.0030843028161674736
1780100315806876700,1.073876708984375,-0.11407558425217866,0.09284837956726551,0.03023965544104576
1780100315816870700,1.08387060546875,-0.003237666746973991,0.011633739170432091,0.052926338219270105
1780100315826863900,1.09386376953125,0.07896306207776069,-0.03125964613854885,0.023078385509550572
1780100315836856600,1.103856689453125,0.13366232825368643,-0.06423194141387939,-0.03395772611610591
1780100315846849800,1.113849853515625,0.14002046510875224,-0.09631868602633475,-0.07979929370619356
1780100315856843800,1.12384375,0.0950882674485445,-0.09001520196795464,-0.08995525194164365
1780100315866836500,1.13383642578125,0.06368336762040853,-0.06369535031914711,-0.10219868397563696
1780100315876829700,1.14382958984375,0.038216625669598575,-0.07761573912203311,-0.06393270273897797
1780100315886822700,1.15382275390625,-0.01770049186348915,-0.05554536161124706,-0.03401168479304761
1780100315896816600,1.163816650390625,-0.0630377631932497,-0.023231237983703613,-0.036271446418575944
1780100315906809600,1.1738095703125,-0.05994213526546955,0.0415706122726202,-0.05344027909077704
1780100315916802600,1.183802490234375,-0.0212450326025486,0.03919336174726486,-0.06892762494944035
1780100315926796800,1.193796875,-0.01790273643732071,0.008306056052446364,-0.057128210355900225
1780100315936789800,1.203789794921875,-0.064797758603096,-0.023434651601314544,-0.053910819211974735
1780100315946782500,1.213782470703125,-0.06720043583065272,-0.051047465670108795,-0.08851385749429463
1780100315956775700,1.223775634765625,-0.036170214533805846,-0.021753566646575927,-0.13999942232072352
1780100315966770700,1.233770751953125,0.006170213067531585,-0.019918752434849737,-0.13768719985559583
1780100315976763600,1.243763671875,0.13378010941445825,-0.052507016828656196,-0.1535778658181429
1780100315986756900,1.2537568359375,0.23120997155308723,-0.04465045810937881,-0.0891279342720285
1780100315996749600,1.26374951171875,0.23021248494833707,-0.03707973059415817,0.018857735607214272
1780100316006743600,1.27374365234375,0.25561113009899855,-0.0325689751714468,0.07897340080868452
1780100316016736800,1.28373681640625,0.2751075654685497,-0.03428513143956661,0.08577361887544394
1780100316026729500,1.2937294921875,0.21600714172422886,-0.016551321828365325,0.030571773472242054
1780100316036722700,1.30372265625,0.12997457965165377,-0.04947101013362407,-0.0828145498741418
1780100316046716700,1.313716552734375,0.04424509217888117,-0.04457973096072673,-0.20252317157723007
1780100316056710000,1.3237099609375,-0.034333354495465755,-0.009358195453882216,-0.1747226163839921
1780100316066702600,1.33370263671875,-0.14142156407833098,-0.009738134682178497,-0.13773136779088527
1780100316076695800,1.34369580078125,-0.1558861427605152,-0.02153086380660534,-0.1474009307488799
1780100316086689800,1.353689697265625,-0.24903525884002445,-0.06018588089346885,-0.12170925746839492
1780100316096682800,1.363682861328125,-0.3865194834694266,-0.12538111438155172,-0.07739796818550676
1780100316106675700,1.37367578125,-0.48175358912944793,-0.0397404742360115,-0.0873234421333298
1780100316116668700,1.383668701171875,-0.4739081363260746,0.01774316196143627,-0.12458503210041671
1780100316126662700,1.39366259765625,-0.36982612282186744,-0.02545651281774044,-0.11646759395524858
1780100316136656000,1.40365576171875,-0.15852935074567795,-0.04722293894588947,-0.029076968337222932
1780100316146648600,1.413648681640625,0.053796472117304796,-0.03513911792039871,0.0538146653611213
1780100316156641800,1.423641845703125,0.18411387385725975,0.02284136188328266,0.052605801028013224
1780100316166635800,1.4336357421875,0.2577536950856447,-0.03578267652094364,0.14202756714746356
1780100316176628500,1.44362841796875,0.2747591904222965,-0.03598258300721645,0.11895166585594415
1780100316186621700,1.45362158203125,0.15078268214166163,0.05448679246902465,0.0733409844122827
1780100316196614700,1.46361474609375,0.03459405125826597,0.11478373252153395,0.029651626420021057
1780100316206609000,1.47360888671875,-0.10146686256974935,0.05286649779081344,-0.03463957090042531
1780100316216601600,1.4836015625,-0.27128771491944786,-0.007256839260458945,-0.06012472529076039
1780100316226594600,1.493594482421875,-0.309264686614275,0.05629705676138401,-0.06449577998183667
1780100316236587800,1.503587890625,-0.180864516672492,0.07163198853731155,-0.04195844254642725
1780100316246581800,1.513581787109375,-0.003861351603269577,-0.003267477363348007,-0.0185196992918849
1780100316256574700,1.52357470703125,0.14226035299003123,-0.13198095103800295,-0.06995521443150937
1780100316266567700,1.533567626953125,0.24276363122463224,-0.19790391427874565,-0.09832513047792017
1780100316276561700,1.543561767578125,0.23983050038218498,-0.12359013931155204,-0.07721738745421171
1780100316286555000,1.553554931640625,0.1610667602688074,-0.03300269041359424,-0.07912950468584895
1780100316296547600,1.563547607421875,0.0019259996265172958,0.04431026636958122,-0.06332300987541675
1780100316306540800,1.573540771484375,-0.1417483118146658,0.0513479099214077,-0.05613017576187849
1780100316316534800,1.58353466796875,-0.22267302935421465,0.07406827577352523,-0.05436418900266289
1780100316326527500,1.593527587890625,-0.10480769743025302,0.060194064199924464,-0.021730404966697096
1780100316336520700,1.603520751953125,0.21449381455183028,0.05072773219645023,-0.046431496307253836
1780100316346513700,1.613513671875,0.42833559493571516,-0.012726795104146003,-0.007433511001616716
1780100316356508000,1.6235078125,0.4788534837737679,-0.11463760204911232,0.0362678296893835
1780100316366500600,1.63350048828125,0.4391325910210609,-0.1247422319561243,0.050998731157556175
1780100316376493600,1.64349365234375,0.32058512205183504,-0.07987666979134082,0.057950486524216825
1780100316386486800,1.65348681640625,0.2056920839369297,-0.021131050834059716,0.05714516149070113
1780100316396480800,1.663480712890625,0.13253507778942583,0.053093292284011835,0.06007116847261786
1780100316406473700,1.6734736328125,0.15816811621785162,0.1729611962020397,0.11547566030845045
1780100316416466700,1.683466796875,0.14653846870064735,0.2428010406255722,0.229883910581097
1780100316426460000,1.6934599609375,0.16001462086737156,0.23129472722709177,0.35482352827284486
1780100316436453600,1.70345361328125,0.24633681353628634,0.1677156967639923,0.42404593491777776
1780100316446446600,1.713446533203125,0.3235854729115963,0.018560323563218115,0.413045488682203
1780100316456439800,1.723439697265625,0.43976562822759147,-0.045562896779179574,0.39971846266258504
1780100316466432800,1.733432861328125,0.47363516460359095,-0.056848260903358455,0.3443136055005714
1780100316476426500,1.743426513671875,0.46116614365279673,-0.06550210748016834,0.2467045143375173
1780100316486419700,1.753419677734375,0.42999680614620445,-0.09789747965037822,0.13642645920477806
1780100316496412700,1.76341259765625,0.4152756223544478,-0.16146189706623554,-0.0072215852839872235
1780100316506405600,1.773405517578125,0.38333676178008314,-0.19939912127256393,-0.07931311762444675
1780100316516399600,1.783399658203125,0.08333557807356119,-0.36964638234078884,0.30555308221261945
1780100316526392600,1.793392578125,0.4356862499594688,-0.051800329864025114,0.05459078256646171
1780100316536385800,1.8033857421875,0.46523967670202254,0.19066227258741855,-0.28700338964127003
1780100316546378500,1.81337841796875,0.0562625699698925,0.08085632847845554,-0.10603912065504119
1780100316556372700,1.823372802734375,0.44372342594265934,0.5801181017696857,-0.08611774700484238
1780100316566365700,1.83336572265625,0.10349953744113445,-0.1471107156306505,-0.003779491139249876
1780100316576359000,1.84335888671875,-0.614541764897108,-0.6035363867580891,0.26296967616826294
1780100316586352600,1.8533525390625,0.49565936488509177,0.48349429531693455,-0.0954969761135988
1780100316596345600,1.863345703125,1.9060767824292182,0.4323012836962938,-0.6431662402264774
1780100316606338800,1.8733388671875,1.9379858323872088,-0.40673020458817477,-0.6060864365670829
1780100316616331500,1.88333154296875,1.973655696183443,-0.6363321564227342,-0.4125378314210102
1780100316626325500,1.893325439453125,1.9140286182165145,-0.687526921609044,-0.25457974122464655
1780100316636318700,1.903318603515625,1.436889829406142,-0.4500573051393032,-0.19435557414740323
1780100316646311700,1.913311767578125,0.29916999357938767,-0.11529109752178192,-0.14095153541378677
1780100316656304600,1.9233046875,-1.0490993030875921,0.029734044006466863,-0.15775080412123352
1780100316666298600,1.933298583984375,-1.6925252171635627,0.3963929349690675,-0.3513669215455651
1780100316676291600,1.94329150390625,-1.454109844276309,0.5558809016138315,-0.9926579424846916
1780100316686284800,1.953284912109375,-1.260910162165761,0.15636778879761695,-1.3421088743411003
1780100316696277500,1.963277587890625,-0.9068506405353546,-0.3195189541250467,-1.4571809222847223
1780100316706271700,1.973271728515625,-0.47360769207477565,-0.5551216076791287,-1.0657659949239342
1780100316716264700,1.9832646484375,-0.009267594560980797,-0.28568507358431816,-0.37647889524195344
1780100316726258000,1.9932578125,0.4226104952871799,-0.3758002287954092,0.09158785811215639
1780100316736250600,2.003250732421875,0.5945242282629013,-0.5082096343785524,0.18430051900316027
1780100316746244600,2.01324462890625,1.201246843841672,-0.07368775202333927,0.28294896315131335
1780100316756237800,2.02323779296875,1.5148451757460832,0.1344587393283844,0.3048370063651353
1780100316766230500,2.03323046875,1.5444564701557157,0.2184013433843851,0.7053329927388579
1780100316776223700,2.0432236328125,1.8676216718286274,0.5603115775376558,1.2170013892691582
1780100316786217700,2.0532177734375,1.9807699121028184,0.6705921534210443,1.6174094781637192
1780100316796210700,2.063210693359375,1.8681179309129714,0.5117915845185518,1.8134557818770407
1780100316806203600,2.07320361328125,1.5569184768438338,0.451958170324564,1.7353475830629468
1780100316816196600,2.083196533203125,1.062208375507593,0.4349439071595669,1.7813694756560026
1780100316826190600,2.093190673828125,1.247612873697281,0.8642910172253847,1.6540813586093484
1780100316836183800,2.103183837890625,1.3910364252477883,0.8205524132639169,0.7092566689886153
1780100316846176500,2.113176513671875,1.4404700259804726,0.8994880028128623,-0.029921529402583837
1780100316856169700,2.123169677734375,1.5332196213483809,-0.008410100948810577,-0.6883373612090945
1780100316866163700,2.133163818359375,2.9229180759906765,0.3268775001943111,-0.7227236149355769
1780100316876157000,2.143156982421875,4.14639253373146,1.4115975672394037,-0.6045858958110213
1780100316886149600,2.153149658203125,4.28550406730175,1.9191274026602505,-0.7373411922223866
1780100316896142800,2.163142822265625,3.7544092318981885,1.6314724903076887,-0.3349795581072569
1780100316906136800,2.17313671875,3.200972800827026,0.7366518947839736,0.35341947016119957
1780100316916129500,2.183129638671875,3.199971514829993,0.597835252507031,0.9546446573674678
1780100316926122800,2.193122802734375,3.5866122865915298,1.4667492533579467,1.4512535780623554
1780100316936115700,2.20311572265625,3.1989258051693437,1.8812129748076198,0.7447817174866795
1780100316946109700,2.213109619140625,1.5429577560305594,0.7812626054048538,-0.7095055291831492
1780100316956102700,2.2231025390625,-0.21126725372076033,-0.37616467819362875,-1.2484300352990627
1780100316966094800,2.2330947265625,-1.7488082453995941,-0.4598144367828965,-0.9335112684458494
1780100316976087800,2.243087890625,-2.211577732595801,-0.0019818945322185753,-1.4167641562223434
1780100316986081800,2.253081787109375,-12.409051342999934,0.9025004825018346,-3.5367633830562233
1780100316996075000,2.263074951171875,-21.500555177581308,0.8849700865082443,-6.119486504378915
1780100317006068000,2.27306787109375,-10.570309144175052,-0.020999222881626336,-3.6473859042450782
1780100317016062000,2.28306201171875,-4.663007592883706,-0.5267120902746916,0.21255027926862238
1780100317026055000,2.293054931640625,-2.6504519649416207,0.4901329296138137,0.005384323386847973
1780100317036048000,2.3030478515625,0.05019055657982826,1.6408330238491295,0.38991672469228505
1780100317046041000,2.313041015625,2.3785884959608317,2.173803151605278,1.9216168813884258
1780100317056034800,2.323034912109375,4.284717300838232,1.9687028960816562,3.4755677405983207
1780100317066027800,2.33302783203125,4.144935905182361,2.0110734265603125,2.2647154485434293
1780100317076021000,2.34302099609375,-0.3691419399499893,2.9072581500440835,0.6258975639089942
1780100317086013700,2.353013671875,-4.661161088234186,4.0796676064580675,-1.1015803086921572
1780100317096008000,2.363008056640625,-1.6379741272866726,3.6290152580350634,-1.3135241465002299
1780100317106001000,2.3730009765625,2.971304798018932,1.7124525912962854,-0.8212760513633489
1780100317115993900,2.382993896484375,4.318278794178366,0.10205752193927764,-0.7841631491519511
1780100317125986800,2.39298681640625,3.3716578687906265,-0.889086581916362,-1.3637705249205232
1780100317135980800,2.402980712890625,0.5088415025413036,-1.4632377381056547,-2.0426763331785796
1780100317145974000,2.41297412109375,-3.2447195880949495,-1.9214383099511265,-2.907354303894937
1780100317155967000,2.422967041015625,-5.6272559448987245,-1.9696730562880633,-3.2202041555196046
1780100317165960000,2.4329599609375,-4.901199093887209,-1.4555898537009953,-2.879364473207295
1780100317175954000,2.442953857421875,-3.6023791800439358,-0.7694219454854726,-2.723318755970895
1780100317185947000,2.45294677734375,-1.975729579848051,-0.13850567663162947,-2.2147357582353053
1780100317195940000,2.462940185546875,0.2326701072335243,0.04966726335808634,-1.6086567012570798
1780100317205932800,2.472932861328125,2.3275492135971785,-0.38677448114380236,-0.795535533972457
1780100317215926800,2.4829267578125,4.230253304722905,-0.8433401452638208,0.12888291195742785
1780100317225920000,2.492919921875,4.9069659868508575,-0.8168746015340089,0.8283598721444606
1780100317235912700,2.50291259765625,4.239210518160462,-0.3950086410038173,1.301530049584806
1780100317245906000,2.512906005859375,2.45164321077764,0.08785641649886965,1.6884841250792144
1780100317255900000,2.52289990234375,0.2981996872425079,0.3614814883247018,1.797973112193495
1780100317265892900,2.532892822265625,-1.5329145009219645,0.44105610642954707,1.4100396702729165
1780100317275885800,2.5428857421875,-2.483556936910748,0.3329835619844496,0.5292611171703785
1780100317285878800,2.552878662109375,-2.5730343787401915,0.260906898419559,-0.32649292132351543
1780100317295873000,2.562873046875,-2.0989719286352395,0.2549022511772811,-0.9257710295826196
1780100317305866000,2.572865966796875,-1.3490993177503348,0.14369082418456672,-1.2304381592735647
1780100317315859000,2.58285888671875,-0.5091904621094465,-0.06644932520240544,-1.0888206342317164
1780100317325852000,2.592851806640625,0.3231301303595304,-0.32087738299667834,-0.8033221692606807
1780100317335846000,2.602845947265625,0.8789256917774677,-0.28886428814232346,0.2015242967329919
1780100317345838800,2.6128388671875,1.0349521197915077,-0.0032242227435111998,1.8289571562610565
1780100317355831800,2.622831787109375,1.0589052423089742,0.16493015769869088,2.024741448037326
1780100317365825000,2.632824951171875,1.0006564669579268,0.23178528722301125,1.1878883997704832
1780100317375819000,2.642819091796875,0.8637544261306523,0.14983824089840053,0.258370694472827
1780100317385811700,2.652811767578125,0.5861199725329875,-0.024135054955631494,-0.641089141691476
1780100317395805000,2.662804931640625,0.2142319487452507,-0.2616121240794658,-1.3404174141228198
1780100317405798000,2.6727978515625,-0.22143968816697596,-0.4876525840401649,-1.7162167661353944
1780100317415791900,2.6827919921875,-0.6548550705850124,-0.5970799040950835,-1.5767546655617652
1780100317425784800,2.692784912109375,-0.9793921451330184,-0.4757904429413378,-0.8118402606286108
1780100317435777800,2.70277783203125,-0.967007295334339,-0.402918683476001,-0.5133803515473381
1780100317445771000,2.71277099609375,-0.6865624604910612,-0.2958332503721118,-0.5630775351196528
1780100317455765000,2.722764892578125,-0.33538989247381684,-0.15331556162014603,-0.9275294175572693
1780100317465758000,2.732758056640625,-0.02069499750435352,-0.08553864107578993,-0.8113886444035917
1780100317475751000,2.7427509765625,0.3237684282630682,0.0516145980335772,-0.23149569315928964
1780100317485743900,2.752743896484375,0.626015345069766,0.15447525304928422,0.08710674890903755
1780100317495737900,2.76273779296875,0.7749082679420709,0.2594261583425104,0.07249315367760137
1780100317505730800,2.772730712890625,0.6397597927838563,0.3170440884441137,0.15910654784543438
1780100317515724000,2.78272412109375,0.2747404857218265,0.2951119503602385,0.2506908622936346
1780100317525717000,2.792717041015625,-0.15186404763758182,0.21539850830659268,0.3149757942700758
1780100317535710700,2.802710693359375,-0.4361310711175203,0.08349486028850078,0.45612939159460364
1780100317545704000,2.812703857421875,-0.4443389274924993,-0.08246376367509364,0.5718754663422704
1780100317555697000,2.82269677734375,-0.2967395515620708,-0.23024521817415952,0.43567236756458877
1780100317565689900,2.83268994140625,-0.0831669435083866,-0.3058117696814239,-0.0010288315910845995
1780100317575683800,2.842683837890625,0.08420505438446999,-0.3273857419773936,-0.41712563413530584
1780100317585676800,2.8526767578125,0.1644873823672533,-0.28419527341797945,-0.4615176970368251
1780100317595670000,2.862669921875,0.13248188629746435,-0.1971009273327887,-0.3017688692324795
1780100317605662700,2.872662841796875,0.048266310518980025,-0.1029024483308196,-0.2583205351881683
1780100317615657000,2.882656982421875,-0.021661796709895133,-0.047568829774111504,-0.21280474722003562
1780100317625650000,2.89264990234375,-0.04960369660258293,-0.028737141923606394,-0.08937111364444718
1780100317635643000,2.902642822265625,-0.030079496443271635,-0.0068410980664193625,-0.03937818939541466
1780100317645635800,2.9126357421875,0.03829495160281658,-0.0035885260112583635,0.03057018430335447
1780100317655629800,2.9226298828125,0.12008768414855002,0.001997749688476324,0.09667360954438335
1780100317665623000,2.932623046875,0.2086111862540245,0.016411182705312968,0.09848694257666356
1780100317675615700,2.94261572265625,0.29015082082152366,0.06483356056883931,0.03479483452737331
1780100317685609000,2.95260888671875,0.3703869715750217,0.07839213032200933,-0.019442312295828015
1780100317695603000,2.96260302734375,0.4619698612511158,0.08270429443269968,-0.10280835857288911
1780100317705596000,2.972595947265625,0.524741666984558,0.04125935436636209,-0.1942611921285279
1780100317715588900,2.9825888671875,0.5141296720772981,-0.006223404559493065,-0.2645648912041448
1780100317725581800,2.992581787109375,0.40215281367003913,-0.05899491754323244,-0.290239668148756
1780100317735575800,3.002575927734375,0.25831951227486133,-0.09684709381461143,-0.3149445588815957
1780100317745569000,3.012569091796875,0.07530512409210205,-0.12772504715919494,-0.3221193458817899
1780100317755561700,3.022561767578125,-0.10846797350347041,-0.15500497601181268,-0.27294498060718175
1780100317765555000,3.032554931640625,-0.18274433906972407,-0.17517463446781037,-0.2609681088211946
1780100317775549000,3.042548828125,-0.21675299165546894,-0.17705518751740454,-0.29179215828776356
1780100317785542000,3.0525419921875,-0.23912089080810545,-0.18920184464603662,-0.2867899295536801
1780100317795534800,3.062534912109375,-0.2611398303925991,-0.20789909246191382,-0.20640021393997593
1780100317805527800,3.07252783203125,-0.2347919216930866,-0.2094834390439093,-0.09678926268015056
1780100317815522000,3.08252197265625,-0.20050386764407158,-0.2028317260697484,0.013832573522115126
1780100317825514800,3.0925146484375,-0.17928864565789698,-0.1609121542289853,0.09577359196473843
1780100317835508000,3.102508056640625,-0.20335458090007305,-0.09351414999961853,0.14601961419200524
1780100317845501000,3.1125009765625,-0.28557050729393957,0.00022752514556050298,0.22848757911818102
1780100317855495000,3.122494873046875,-0.3941302507340908,0.09749006789326667,0.2248105893721804
1780100317865488000,3.13248779296875,-0.4981090961247682,0.1897013186007738,0.19491066901320592
1780100317875480800,3.142480712890625,-0.5419733722925186,0.26031010157018897,0.12643396616904065
1780100317885474000,3.15247412109375,-0.5315297196894884,0.28138080051913855,0.0847435269090347
1780100317895468000,3.162468017578125,-0.4527057738214731,0.2588623869799077,0.06702968237362801
1780100317905460700,3.172460693359375,-0.307524564948678,0.16785656653940675,0.08985979221053421
1780100317915454000,3.182453857421875,-0.11295768613815307,0.0715580465182662,0.12531783988699316
1780100317925447000,3.192447021484375,0.03972586118876934,-0.028006343431025742,0.14449445045134052
1780100317935441000,3.20244091796875,0.16849720253050327,-0.13079597903713583,0.18170929693356155
1780100317945433900,3.212433837890625,0.28206454499959943,-0.18525676028206944,0.5725330169355496
1780100317955426800,3.2224267578125,0.5031733937770128,-0.1860578475318849,1.7419629095494746
1780100317965420000,3.232419921875,0.6045867725938558,-0.12246844180524348,1.9208979194641111
1780100317975414000,3.2424140625,0.6185644445419312,-0.07948255590721964,1.3194454993732272
1780100317985407200,3.2524072265625,0.5542565152823925,0.021158961754292247,0.591358896099776
1780100317995400000,3.26239990234375,0.4387555744022131,0.015156798730045556,0.17608700007237493
1780100318005393200,3.27239306640625,0.22665479246675968,-0.013553309056162833,-0.00016708192890509962
1780100318015387100,3.28238720703125,-0.050718379846215245,0.1187163957953453,-0.19161853213263674
1780100318025380000,3.292380126953125,0.24381226349472998,0.25467691798880693,-1.2549296264514327
1780100318035373000,3.302373046875,0.2578928112953901,0.013625935900956392,-2.5535145624950526
1780100318045366000,3.312365966796875,-0.9561077156573533,-0.4477224324509501,-1.8549737871795893
1780100318055359200,3.322359130859375,-0.5241764343172312,-0.19715411882475017,-1.0417010825950652
1780100318065353000,3.33235302734375,-0.12405191160440444,0.02429550621435046,-0.5946496812734753
1780100318075346000,3.342345947265625,-0.15009879153072833,0.2919133004494011,-0.11477693745456635
1780100318085339100,3.352339111328125,0.0039051907449960707,0.5931022326357662,0.6512364416964351
1780100318095332000,3.36233203125,0.19223112933933734,0.823287245055288,1.1374386807978152
1780100318105325800,3.372325927734375,0.3149123371124267,0.7601249786995351,0.676333327421546
1780100318115319000,3.382319091796875,0.34463878233432765,0.386854414512217,0.03893094795141369
1780100318125312000,3.39231201171875,0.4460919086396694,0.03717033148705959,0.08580288150254636
1780100318135305000,3.402304931640625,0.3789396958649158,0.025249592068791387,0.33744631354697047
1780100318145299000,3.412298828125,0.020568156254291533,-0.36692251033484935,0.006094334819726646
1780100318155292200,3.422292236328125,-0.3246493027508259,-0.7428136322841048,-0.3098138449296355
1780100318165285000,3.43228515625,-0.48980362459421156,-0.7568745986014604,-0.2824935110013932
1780100318175277800,3.44227783203125,-0.2822626979202032,-0.4608424646563828,0.05269914186727255
1780100318185272000,3.45227197265625,0.0024631752431392667,-0.33039690649211406,0.14591748725809156
1780100318195265000,3.46226513671875,0.17505378456711768,-0.6666917849816382,-0.3815953249402344
1780100318205258200,3.47225830078125,0.28657880755364895,-1.2232539468578993,-1.1615931711062788
1780100318215251000,3.4822509765625,0.2674415608853102,-1.0256016692526637,-1.224850130008161
1780100318225245000,3.492244873046875,0.09245148920416832,-0.5267604594610631,-1.0265906072247772
1780100318235238100,3.502238037109375,-0.15724749424159526,-0.20505656251236795,-0.8187221290968358
1780100318245230800,3.51223095703125,-0.015942250019311904,-0.0002484218031167984,-0.3388357586113736
1780100318255224000,3.52222412109375,0.024656886872649192,0.14941183217987417,0.18756755797509103
1780100318265218000,3.532218017578125,0.02273030272424221,0.2997933861747384,0.48998497251048684
1780100318275211000,3.5422109375,-0.05998889701664448,0.39806715179160235,0.4539548240344971
1780100318285204000,3.552203857421875,-0.12262100201845168,0.3387535236880183,0.25218137484602626
1780100318295197000,3.562197021484375,-0.24802958892881868,0.13040785650238393,-0.06461933329626918
1780100318305191200,3.572191162109375,-0.3682213179737329,-0.20598186066374183,-0.16141900777257978
1780100318315184000,3.58218408203125,-0.6434580627799034,-0.22790333122313022,-0.1315309422481805
1780100318325176800,3.5921767578125,-0.9664806411117315,0.5484064740799367,0.18867471549939363
1780100318335170000,3.602170166015625,-0.1582388433665037,0.3385403193287551,0.014187679703254252
1780100318345163000,3.6121630859375,0.5472755703538655,0.013852438133209943,-0.10267459439169616
1780100318355157200,3.6221572265625,0.8897638966560363,-0.36391762943044303,-0.14509356712196023
1780100318365150000,3.63214990234375,0.6045043550074101,-0.1227170097388327,-0.05635744517911225
1780100318375143200,3.64214306640625,0.0320417364269495,0.2612418294623494,0.053576509223692115
1780100318385136000,3.65213623046875,0.06144903269708156,0.06711392659097909,0.06689149774564429
1780100318395129900,3.6621298828125,0.04358370566070079,-0.0899305924244225,0.09010963878575712
1780100318405123000,3.672123046875,-0.014555179575085639,-0.15874357801824807,0.260864630180411
1780100318415116000,3.682115966796875,0.03001344546973705,-0.27783450621441,0.3176812538364902
1780100318425109200,3.692109130859375,0.07682195839583873,-0.30790918035209175,0.1983316381715238
1780100318435103000,3.70210302734375,0.10695581537485122,-0.2459963295355439,0.12299895021906122
1780100318445096000,3.712095947265625,0.16449264306426048,0.0037920857593417164,0.15390149001562967
1780100318455089200,3.722089111328125,0.19852993722259998,0.31276305012404915,0.1693604500300251
1780100318465081900,3.732081787109375,-0.053690673655271526,0.535468374312669,0.017066742270905523
1780100318475075800,3.742075927734375,0.05013619604408741,0.459517938054353,-0.00413708153842017
1780100318485069000,3.752069091796875,0.3352922773182392,0.3561708146959543,0.15769549373742192
1780100318495062000,3.76206201171875,0.335111660054326,0.1876145754545927,0.2430396899533458
1780100318505055000,3.772054931640625,0.09761632462143897,-0.11166545437052845,0.2084572378013283
1780100318515048000,3.7820478515625,-0.0384989497423172,-0.3613641455553472,0.20163062491798772
1780100318525042200,3.792042236328125,-0.171297062382102,-0.4888491003483534,0.09566256020516156
1780100318535035100,3.80203515625,-0.346370720693469,-0.4897527711898088,-0.16655483629107473
1780100318545028000,3.812028076171875,-0.42598669372200965,-0.42213352542519567,-0.247433942856919
1780100318555021000,3.82202099609375,-0.37496670058071613,-0.36269714772477746,-0.16969359097452832
1780100318565015000,3.83201513671875,-0.01994914757311344,-0.4064261070750653,-0.04909676999375224
1780100318575008000,3.842008056640625,0.36476211743056774,-0.19988047504872083,0.12362919268030673
1780100318585001000,3.8520009765625,0.2505506318390369,0.19115663197562097,0.15268599501233546
1780100318594994200,3.861994140625,0.17470307143330574,0.33655776720941066,-0.20232253443859516
1780100318604988200,3.87198828125,0.19249299514591692,0.417670846927911,-0.5187769864264875
1780100318614980900,3.88198095703125,0.18959552013874054,0.5374097176387905,-0.4602633495941758
1780100318624974000,3.89197412109375,0.03771978206336498,0.32206016304045915,-0.3195733511934057
1780100318634967000,3.901967041015625,-0.1399918235361576,-0.250956143900007,-0.4448074217870831
1780100318644961000,3.9119609375,-0.48437458528280253,-0.4836250820897519,-0.4212863705439493
1780100318654954000,3.9219541015625,-0.6722960347294807,-0.48420785041376946,-0.31725740240123124
1780100318664947000,3.931947021484375,-0.5433142655074596,-0.4182559533394873,-0.25815007399208845
1780100318674940200,3.941940185546875,-0.30577099927961826,-0.25878274587243794,-0.1602235509103164
1780100318684932900,3.951932861328125,0.17140929058492183,-0.27001097298189997,-0.10478818901218473
1780100318694927000,3.961927001953125,0.47600890799760814,-0.08267638351246714,0.03415839978735894
1780100318704920000,3.971920166015625,0.5178881478279829,0.10995587397366761,0.07608100383542478
1780100318714913000,3.9819130859375,0.4264899670690298,0.2566010179191828,0.015409019925445317
1780100318724906000,3.991906005859375,0.20053484730422497,0.4824390871755779,-0.0894526361817494
1780100318734900000,4.00189990234375,0.01862988166809082,0.5631356950476766,-0.1035423902021721
1780100318744893200,4.01189306640625,-0.04406827430725097,0.4509131913162768,0.0019560659712180494
1780100318754886000,4.021885986328125,-0.04254091860949993,0.2575720549084246,0.03292440101299435
1780100318764879000,4.031879150390625,-0.05014788648188114,0.032284751402586694,-0.04054733363948762
1780100318774873000,4.041873046875,-0.03676818042695522,-0.2662077813066542,-0.16985194160770622
1780100318784866000,4.051865966796875,0.0037029461711645126,-0.3391334629163146,-0.05100110577773302
1780100318794859000,4.06185888671875,0.008009703454375267,-0.3721300158500671,0.007125614096224308
1780100318804852000,4.07185205078125,0.01557166314125061,-0.3749721074081957,-0.0533326905304566
1780100318814845200,4.08184521484375,0.034606033957004546,-0.2977247632071376,-0.03927976138908416
1780100318824839200,4.091839111328125,0.11947335164248943,-0.11266747101992368,0.004706387592665851
1780100318834832000,4.101831787109375,0.18485797022283076,0.06384864118471742,0.05621368932686746
1780100318844825000,4.1118251953125,0.157602299028635,0.18502806609272957,0.06514021536521614
1780100318854818000,4.121818115234375,0.015108137282729148,0.1948832512833178,0.13735851589050144
1780100318864812000,4.13181201171875,-0.09135551066100597,0.13764204553961754,0.1693205016121268
1780100318874805000,4.141804931640625,-0.15005144525766373,0.05617839881777763,0.09358564433325081
1780100318884798000,4.1517978515625,-0.1502484291344881,0.03546761922240257,0.013494162747450172
1780100318894791200,4.161791259765625,-0.12406126395463943,0.010840689096599817,0.00823452518619597
1780100318904784000,4.171783935546875,-0.12754501441717148,-0.0192690563544631,0.040040297432802616
1780100318914778000,4.181778076171875,-0.08225099770724772,-0.05824512208923697,0.10137381399143487
1780100318924771000,4.19177099609375,-0.034005729976296424,-0.12063508889824151,0.14193181515540926
1780100318934764000,4.201763916015625,0.019551088166236876,-0.20711042630225418,0.10748941079489886
1780100318944757000,4.211757080078125,0.06398235056698322,-0.21491890809610484,0.06486475942470132
1780100318954751000,4.2217509765625,0.05620236421525478,-0.1901407329313457,-0.04349018215835094
1780100318964744200,4.231744140625,0.051881578406691546,-0.12272066300064324,-0.11730064724590629
1780100318974738000,4.241738037109375,0.043189153385162354,-0.06512012242525815,-0.11729454629868269
1780100318984730600,4.251730712890625,0.04258475775122642,-0.05765227076262235,-0.18642426969148218
1780100318994724900,4.261724853515625,0.06544599337875842,0.015741905141621826,-0.17920060204826294
1780100319004717800,4.2717177734375,0.07612696186900138,0.08082315686121583,-0.023274857929721473
1780100319014710800,4.281710693359375,0.024555180063843725,0.024817338131368157,0.059423445153608916
1780100319024703700,4.291703857421875,-0.011833645656704903,-0.0244213245511055,0.0169440474729985
1780100319034696700,4.30169677734375,0.03194353674948215,-0.05226356346160173,-0.09357782635297626
1780100319044691000,4.31169091796875,0.016900281396508215,-0.016211276219040154,-0.10584325102306902
1780100319054684000,4.321683837890625,0.03451777115166187,-0.09292392902150749,-0.002422879765368998
1780100319064676900,4.3316767578125,0.024077625679969787,-0.18206892402619124,-0.33217089389469473
1780100319074669800,4.341669921875,-0.046214054164290426,-0.11118190863728522,-0.4846828840469941
1780100319084663800,4.351663818359375,-0.027933132064342496,-0.013488719387352466,-0.2461480860311538
1780100319094656800,4.36165673828125,0.015275895065069198,0.007771364653855562,-0.0023890505610033867
1780100319104649700,4.371649658203125,0.016140987461805343,-0.012800883253663778,0.1446378227110952
1780100319114643000,4.381642822265625,0.01811784049272537,-0.07635200279653072,0.1537703927155584
1780100319124636000,4.391635986328125,0.013393734580278396,-0.17018194074705242,-0.0738370973661542
1780100319134629600,4.401629638671875,-0.023350480449199674,-0.20866642357259987,-0.22661676201131192
1780100319144622800,4.411622802734375,-0.038619361251592633,-0.1432438110694289,-0.18546295037865637
1780100319154615800,4.42161572265625,-0.03604454232752323,-0.09283888108655809,-0.2133712402626872
1780100319164608800,4.43160888671875,-0.001499298647046089,-0.06938859352469444,-0.21613928020391612
1780100319174602800,4.441602783203125,0.02147884135842323,0.02577551563903689,-0.10647577677294612
1780100319184595700,4.451595703125,0.03244213392138481,0.20929463847354055,0.023778204341977832
1780100319194589000,4.4615888671875,-0.005263619616627693,0.38347397829368707,0.09766253838334232
1780100319204581600,4.47158154296875,-0.09592121114134788,0.4161103196129203,0.05472060122489929
1780100319214574800,4.481574951171875,-0.0983516531586647,0.3415948845937848,0.02491637805905193
1780100319224568800,4.49156884765625,-0.05719429786205291,0.22234131318181752,0.09706961399149149
1780100319234562000,4.50156201171875,-0.02857084544599056,-0.019866876117140053,0.14258571248687804
1780100319244554800,4.5115546875,-0.02846095533072948,-0.27063246588110923,0.07992372380346059
1780100319254547700,4.521547607421875,0.02568213826715946,-0.5110127091005444,0.016415566619485615
1780100319264542000,4.5315419921875,0.09621931730508804,-0.6765142369464039,0.044821686490438876
1780100319274534700,4.54153466796875,0.12448738041222095,-0.6810318605013191,0.08038593448773027
1780100319284527900,4.55152783203125,0.12602701106965541,-0.5853802600815892,-0.2040935992317274
1780100319294520800,4.561520751953125,0.04208966771066189,-0.2663569805189967,-0.3985326138788834
1780100319304514000,4.57151416015625,-0.03361585387587547,0.19908830175772307,-0.20739494233205913
1780100319314507800,4.5815078125,-0.0366992068439722,0.504462702935189,-0.16222082567475735
1780100319324500700,4.591500732421875,0.03034428485929966,0.5946794188246131,-0.14272577854469418
1780100319334494000,4.601493896484375,0.0687894585877657,0.4959795367501676,0.04958776838108897
1780100319344486700,4.611486572265625,0.11560673934221267,0.2522095049619675,0.2257590857360512
1780100319354480600,4.621480712890625,0.11287702211737632,-0.01758592557311058,0.3235814543236047
1780100319364473900,4.631473876953125,0.04514379458427429,-0.21874182738512754,0.34135742257609963
1780100319374466800,4.641466796875,-0.0006119944185018539,-0.3594625497177243,0.2347014669306576
1780100319384459800,4.651459716796875,-0.045292263144254684,-0.5171832144290208,0.021324892905727026
1780100319394452700,4.66145263671875,-0.2163923416495323,-0.5229867861412465,-0.19564232602231205
1780100319404446700,4.67144677734375,-0.2846370258361101,-0.2324837908811867,-0.22070786676108836
1780100319414440000,4.68143994140625,-0.2834294036120176,0.05577142545208335,-0.1910528793402016
1780100319424432600,4.6914326171875,-0.3187228353112936,0.2411594108983874,-0.33505912614949046
1780100319434425900,4.70142578125,-0.3074970924198627,0.32885712970420716,-0.5114163945306093
1780100319444419800,4.711419921875,-0.7534902168601751,0.6106624392457306,-0.6699969640068709
1780100319454413000,4.7214130859375,-1.019716556736827,0.8621478677168488,-0.6796450823180377
1780100319464405800,4.73140576171875,-0.24383038367331025,0.5121726927906275,-0.622843875426799
1780100319474399000,4.74139892578125,0.5037281050503254,0.14378843934014438,-0.4535429918305948
1780100319484392000,4.751391845703125,1.0569546927630902,-0.2034954506754875,-0.14011174185508862
1780100319494385700,4.7613857421875,1.452177414909005,-0.514775276504457,0.15366969055375082
1780100319504379000,4.77137890625,1.525942323821783,-0.7073273083612323,0.36385764287151395
1780100319514371800,4.781371826171875,1.2416998502612113,-0.7774740267768502,0.4855051967479288
1780100319524364800,4.79136474609375,0.6940700596421957,-0.6642550593540072,0.5371465366579592
1780100319534357800,4.801357666015625,0.026250878065824507,-0.5007084649682044,0.4367136202458292
1780100319544351700,4.811351806640625,-0.5459405223578214,-0.38346564885675904,0.14991543432045726
1780100319554345000,4.821344970703125,-0.8213368416398763,-0.2878159481331706,-0.2419971768967807
1780100319564337700,4.831337646484375,-0.8411100481241941,-0.18356866106465458,-0.5541793583929538
1780100319574331000,4.841330810546875,-0.6578460690945387,-0.11325243130102752,-0.7306227706875652
1780100319584324900,4.851324951171875,-0.41162148376107216,-0.04437953221350908,-0.7615029890544712
1780100319594317800,4.86131787109375,-0.17516133659482,0.03052577890604734,-0.6114801123041659
1780100319604310800,4.871310791015625,0.002932546320557594,0.12224150118157266,-0.3412929790377617
1780100319614303700,4.8813037109375,0.05564239224493503,0.1942804630845785,-0.08882271338091231
1780100319624297000,4.891296875,0.009532967498898506,0.21263313524648547,0.09116581504149363
1780100319634291000,4.901291015625,-0.08584288471937179,0.19514160995855925,0.2106244257725775
1780100319644283600,4.91128369140625,-0.17016192087233065,0.14914105241447687,0.2168311349255964
1780100319654276900,4.92127685546875,-0.20229425819218158,0.08032908973395823,0.17818857546150682
1780100319664269800,4.931269775390625,-0.17529869923889635,0.027929332672059534,0.12135977731044403
1780100319674262800,4.9412626953125,-0.11226268961131572,-0.010545943933725356,0.07070929333497769
1780100319684256800,4.9512568359375,-0.024358196187019347,-0.018474983367323873,0.0566885402970016
1780100319694250000,4.96125,0.07849076839089393,0.0019487959802150724,0.0432370659138076
1780100319704242700,4.97124267578125,0.17172960858047007,0.07150573180913924,0.03959879160984419
1780100319714236000,4.98123583984375,0.23054653920829296,0.16280425158590078,0.04116412296411581
1780100319724230000,4.99122998046875,0.2741834363609552,0.24713264008909464,0.05482937709530815
1780100319734222800,5.001222900390625,0.32002164295017715,0.3052013826981187,0.04400530120679177
1780100319744215800,5.0112158203125,0.3607324235230684,0.329566154756397,0.04818332667695358
1780100319754208800,5.021208740234375,0.37615795619189735,0.30170623405873775,0.03346628020419739
1780100319764202000,5.031201904296875,0.39265433296263214,0.22062340334802866,0.03338139666602947
1780100319774196000,5.041196044921875,0.3840799813628196,0.1025264546252787,0.04104984893468208
1780100319784188700,5.051188720703125,0.3361801660686731,-0.025431962898373604,0.07472563457055949
1780100319794182000,5.061181884765625,0.274890707847476,-0.1499270882256329,0.13104472050066104
1780100319804174800,5.0711748046875,0.20769757854044435,-0.2640169932641089,0.18417351335631682
1780100319814167800,5.081167724609375,0.13901041128337382,-0.30664120624288915,0.23342311755791306
1780100319824161800,5.091161865234375,0.060686816152930256,-0.32832579930648204,0.2476417769213207
1780100319834154800,5.10115478515625,-0.02802373295724392,-0.3055751844465732,0.2576048429331742
1780100319844148000,5.11114794921875,-0.13506255044043064,-0.24652868284657595,0.1818689079420641
1780100319854140700,5.121140625,-0.272113644349575,-0.19232143797129392,0.08825225654919631
1780100319864134000,5.1311337890625,-0.3907879545688629,-0.11728358651325106,0.0072400799219030886
1780100319874128000,5.1411279296875,-0.4786778349459171,-0.08241320253163575,-0.0787752935538534
1780100319884120600,5.15112060546875,-0.5121650940060615,-0.04667217319533229,-0.09181020475910044
1780100319894113800,5.16111376953125,-0.49928047799170017,-0.04705898055583238,-0.09803110683425328
1780100319904106800,5.171106689453125,-0.414219683560729,-0.04172799479141831,-0.07949192652376368
1780100319914100000,5.181099853515625,-0.30104338623583315,-0.031754005526751276,-0.03449063654956408
1780100319924093700,5.19109375,-0.16607143668830393,-0.004580898049473763,-0.018275405674614012
1780100319934087000,5.2010869140625,-0.07364215931594371,0.01826484774798155,-0.010207149566570296
1780100319944080000,5.211079833984375,0.0022241057902574538,0.04711830952763557,0.020952990853413938
1780100319954072800,5.22107275390625,0.03814706756472588,0.053121349334716794,0.018797794714057816
1780100319964065800,5.231065673828125,0.03709434364140034,0.04272928078845143,0.025382242005132137
1780100319974059500,5.2410595703125,0.031740123131871224,0.000007014262676239014,-0.010070344044920056
1780100319984052700,5.251052734375,0.04876432316899299,-0.08858575368672608,-0.05081002191873267
1780100319994045700,5.261045654296875,0.08639350433945656,-0.14909049127101898,-0.09415179031603038
1780100320004039000,5.271038818359375,0.1648006861001253,-0.20558497030064463,-0.11855165195399894
1780100320014032600,5.28103271484375,0.2083762084543705,-0.24966683474183082,-0.12298207214949652
1780100320024025600,5.291025634765625,0.25970950532853604,-0.2556780578553676,-0.10820115752713755
1780100320034018800,5.301018798828125,0.3051192573726177,-0.21627090722694992,-0.09768493287824094
1780100320044011500,5.311011474609375,0.3612339433044195,-0.08659677182659506,-0.12122576653407886
1780100320054004700,5.321004638671875,0.36485564093291756,0.03859203485324979,-0.19415270851906388
1780100320063998700,5.330998779296875,0.35876667640805243,0.1654825308844447,-0.2903403155116364
1780100320073991700,5.34099169921875,0.29498715493679045,0.25745281244292856,-0.4082074010012671
1780100320083984600,5.350984619140625,0.1890560064345598,0.2687884454496205,-0.5317350695358589
1780100320093977600,5.3609775390625,0.08818038775622844,0.21279256359189747,-0.6437635485325008
1780100320103970800,5.370970703125,-0.013861352092027664,0.05710486601293087,-0.7068263731017709
1780100320113964800,5.38096484375,-0.10890694944262504,-0.12902327027618885,-0.7056270803146064
1780100320123957800,5.390957763671875,-0.1678513058423996,-0.3085226360753178,-0.6638000821281224
1780100320133950700,5.40095068359375,-0.2202437563806772,-0.4292964027918875,-0.5396148264676333
1780100320143943700,5.410943603515625,-0.23571312819123266,-0.48453518267199397,-0.3313646555457264
1780100320153936600,5.4209365234375,-0.21064239982068536,-0.42986221998110413,-0.12938079674327746
1780100320163930600,5.4309306640625,-0.19039222347438334,-0.287858033709228,0.06451028343122452
1780100320173923800,5.440923828125,-0.1617857221931219,-0.14127952525913715,0.23584552239924667
1780100320183916800,5.450916748046875,-0.16817454644739627,-0.02396072130203247,0.33470388297103343
1780100320193909800,5.46090966796875,-0.19458441446721553,0.04629588722884655,0.3827222100783139
1780100320203902700,5.47090283203125,-0.23295243130624294,0.09016074791848659,0.432512405696325
1780100320213896700,5.480896728515625,-0.274303263348341,0.06189297707229852,0.46192288030423223
1780100320223889700,5.4908896484375,-0.2593371648848057,0.00019435352832078933,0.4755821704855188
1780100320233882600,5.500882568359375,-0.20190379756987092,-0.09411343106701969,0.49388369698207824
1780100320243875800,5.510875732421875,-0.0817079768717289,-0.18270780645161866,0.48320729506909843
1780100320253868500,5.52086865234375,0.0506026445120573,-0.24359642878696322,0.49981721521690486
1780100320263862500,5.530862548828125,0.19254267950654028,-0.26117709366306663,0.5523802000164986
1780100320273855700,5.540855712890625,0.3322463337510824,-0.23425664577260613,0.5828499378863722
1780100320283848700,5.5508486328125,0.4360568368375301,-0.14294512038379906,0.6207734988935292
1780100320293841700,5.560841552734375,0.5062643455296755,0.0032253917872905728,0.6106845049470663
1780100320303834600,5.570834716796875,0.54424599339962,0.14612214298471807,0.5280963842399418
1780100320313828600,5.58082861328125,0.527332267999649,0.2672993759356439,0.3915886034272611
1780100320323821800,5.59082177734375,0.5062433027416468,0.3781795251473784,0.21219704538416115
1780100320333814500,5.600814453125,0.4729436752080917,0.4136128037087619,0.01731399503024295
1780100320343807700,5.610807861328125,0.40751054131090636,0.3941026320748031,-0.19183367272065951
1780100320353800700,5.62080078125,0.3152612966805696,0.31611893642321226,-0.41936738518010824
1780100320363794700,5.630794677734375,0.2138660380423069,0.19694193737879395,-0.6221017518226057
1780100320373787600,5.64078759765625,0.0925607947975397,0.09064137104228139,-0.7698596793156117
1780100320383780600,5.650780517578125,-0.0282031811773777,-0.004695172078907489,-0.8322282380104065
1780100320393773800,5.66077392578125,-0.15027707070708274,-0.06471037258058786,-0.8009190536417067
1780100320403766500,5.6707666015625,-0.2644026315808296,-0.09834171628654002,-0.6822121563270688
1780100320413760800,5.6807607421875,-0.3474351350545883,-0.11649082870036363,-0.4997866739481687
1780100320423753700,5.690753662109375,-0.41850130640268324,-0.10278422877863048,-0.35402233142517503
1780100320433746700,5.70074658203125,-0.4710357957601547,-0.05916662084832787,-0.2517107251269743
1780100320443739600,5.71073974609375,-0.48347383705079555,-0.009000760318338871,-0.15952387820836156
1780100320453732600,5.720732666015625,-0.46424423592388625,0.08854922106862068,-0.1163853590318933
1780100320463726800,5.730726806640625,-0.39656127727329726,0.176789522318542,-0.15504176435824482
1780100320473719600,5.740719482421875,-0.3268623026251793,0.22800269994437694,-0.2210797870797105
1780100320483712800,5.750712646484375,-0.22050211505591868,0.25570655329748987,-0.31012576042301954
1780100320493705700,5.760705810546875,-0.10366261904835701,0.22719854395464062,-0.40686486381851134
1780100320503698700,5.77069873046875,-0.0005032733470201492,0.12492109565436839,-0.4771897883452475
1780100320513692700,5.780692626953125,0.08624562030136584,0.0017843991987407206,-0.4534922480240464
1780100320523685600,5.790685546875,0.15003332507908343,-0.17844751865863798,-0.36888657694943244
1780100320533678800,5.800678955078125,0.17528759332299232,-0.32720600149631496,-0.24566883288053795
1780100320543671600,5.810671630859375,0.2037958949267864,-0.4435433932006359,-0.06507345200562849
1780100320553664800,5.820664794921875,0.19634265631139278,-0.5451955492094159,0.10556576752224936
1780100320563658800,5.83065869140625,0.2096960588812828,-0.5912782320789992,0.24130186984268948
1780100320573651700,5.840651611328125,0.27477438799142834,-0.5913394607469439,0.33320454779136927
1780100320583644700,5.850644775390625,0.342448578813672,-0.5557846016325056,0.36821605727672574
1780100320593637600,5.8606376953125,0.4035889839529991,-0.4988686823204159,0.33866467636078595
1780100320603630800,5.870630859375,0.4542056569904089,-0.4582995021753013,0.24450442874366415
1780100320613624800,5.880624755859375,0.45692894447445864,-0.3929794732637703,0.1310532600001432
1780100320623617500,5.890617431640625,0.39829204658865924,-0.3107996410965919,-0.0010466412424109876
1780100320633610800,5.90061083984375,0.2926987517386675,-0.21710560448542235,-0.11724592138398438
1780100320643603700,5.910603759765625,0.1469809517711401,-0.15709771050736307,-0.2091414754721336
1780100320653596700,5.9205966796875,-0.01336041683256626,-0.04963263043612241,-0.25139378639860077
1780100320663590700,5.930590576171875,-0.1202455050587654,0.041299686376750466,-0.23061041649105027
1780100320673583900,5.940583984375,-0.19441665668487548,0.10821399874240159,-0.20885246593030168
1780100320683576600,5.95057666015625,-0.2576759536743164,0.1770623479105532,-0.17167983288830146
1780100320693569500,5.960569580078125,-0.24153087455928324,0.17625263896286486,-0.13935658523938618
1780100320703562800,5.970562744140625,-0.18101941497325896,0.13236819678992032,-0.13416957452292552
1780100320713556700,5.980556640625,-0.12434767968058585,0.0664469871148467,-0.1234091110556852
1780100320723549700,5.9905498046875,-0.06770517048239708,0.008257394605129956,-0.11761813396355136
1780100320733542700,6.000542724609375,-0.01852349868416786,-0.06798471807613969,-0.07973294133855961
1780100320743535900,6.010535888671875,0.022518705800175665,-0.11359306143224239,-0.012582947920355945
1780100320753528600,6.020528564453125,0.0371568874835968,-0.10779328911229967,0.07475913498136215
1780100320763522600,6.0305224609375,0.026874562922120093,-0.047867812720686194,0.1446380693062674
1780100320773515800,6.040515869140625,0.025253099200129508,0.020354221242666243,0.19235236283252014
1780100320783508700,6.0505087890625,0.00011105915904045104,0.08063011850714683,0.23766331241093575
1780100320793501700,6.060501708984375,-0.024214988324046133,0.16230813863202928,0.255723248703964
1780100320803494700,6.07049462890625,-0.058518239942193025,0.23910949263125655,0.2715579466955736
1780100320813488600,6.080488525390625,-0.10537935983836651,0.32614801687598227,0.26425792588051406
1780100320823481900,6.09048193359375,-0.13470891469717025,0.39066067492738366,0.25477926411842927
1780100320833474600,6.100474609375,-0.15966507677733896,0.42131782512813803,0.24021665015555918
1780100320843467800,6.1104677734375,-0.19919746122062204,0.41998920687288044,0.2368906475380063
1780100320853460700,6.120460693359375,-0.21849486688673495,0.38281142273172736,0.23940990034993737
1780100320863453700,6.13045361328125,-0.2071557267487049,0.31281331900656223,0.26403350600749254
1780100320873447700,6.14044775390625,-0.1765261952072382,0.22871552438884973,0.2688669175133109
1780100320883440600,6.150440673828125,-0.12977145829498768,0.1335454238757491,0.27260036842059343
1780100320893433900,6.160433837890625,-0.03202829242348671,0.028266601802408694,0.27515551452981307
1780100320903426600,6.170426513671875,0.0632902766495943,-0.08800137792751192,0.23496494017243383
1780100320913419800,6.180419677734375,0.13354103996157646,-0.18845453341007232,0.21343102589221669
1780100320923413800,6.190413818359375,0.2289361814022064,-0.290619168985635,0.18205644813710822
1780100320933406500,6.200406494140625,0.26823241900205613,-0.354763285985589,0.15124134916197507
1780100320943399700,6.210399658203125,0.30377953320145606,-0.4081578993037343,0.12654785660598428
1780100320953392600,6.220392578125,0.3035369566172361,-0.4061300467379391,0.10807055341741069
1780100320963385600,6.230385498046875,0.2602688927769661,-0.37267099085897204,0.09466002296595834
1780100320973379000,6.240379150390625,0.23661913712024688,-0.3216182644918561,0.06635708034168929
1780100320983372000,6.2503720703125,0.20649054083824156,-0.26106676515638827,0.014800349975191055
1780100320993365000,6.260364990234375,0.12974457028806208,-0.22343670720309017,-0.04512085210010409
1780100321003358200,6.270358154296875,0.05203296957612037,-0.18553966887667775,-0.15227994409524834
1780100321013351000,6.280350830078125,-0.017054595175385476,-0.15806830910518765,-0.2184891312656924
1780100321023345000,6.290344970703125,-0.09940028542876243,-0.14529884390309453,-0.29082342285346235
1780100321033338000,6.300338134765625,-0.1441834300071001,-0.1352877374984324,-0.3458865173730999
1780100321043331000,6.3103310546875,-0.17448855189979076,-0.10954875447750091,-0.3741160020355135
1780100321053324000,6.320323974609375,-0.19109189617633818,-0.08922361319884657,-0.376077767095156
1780100321063317000,6.33031689453125,-0.1910346130311489,-0.06179857678711414,-0.370217241031304
1780100321073310200,6.340310302734375,-0.19439912102818488,-0.03855740193128586,-0.34806817226111886
1780100321083304000,6.350303955078125,-0.20824235294163226,-0.01641249787956476,-0.29818894665278495
1780100321093297000,6.360296875,-0.19653671757876873,0.016768910101801156,-0.2534413117792457
1780100321103290000,6.3702900390625,-0.20822715537250042,0.037414807767421,-0.19293695778744294
1780100321113282800,6.38028271484375,-0.1917097358137369,0.06721168787702918,-0.15804925734484568
1780100321123276000,6.390276123046875,-0.1616460214614868,0.07281491471156477,-0.15069372521657495
1780100321133270000,6.40027001953125,-0.14118775532245637,0.07511267025992274,-0.12849502688469364
1780100321143263000,6.410262939453125,-0.08226677979826927,0.07129442714601755,-0.14060500526474787
1780100321153256000,6.420255859375,-0.03779518538713455,0.08919701745286583,-0.149206610197667
1780100321163249000,6.430248779296875,0.044536476340889926,0.07194675357490778,-0.1691711562693119
1780100321173242000,6.4402421875,0.12931436217725276,0.07688070284575224,-0.17927436140421776
1780100321183236000,6.450236083984375,0.19667934091985226,0.06797653476968407,-0.1729654157194309
1780100321193229000,6.46022900390625,0.2577642164796591,0.04498305106461048,-0.18155569554073736
1780100321203222000,6.470221923828125,0.3163175277352333,0.023053835590183733,-0.1702391142943874
1780100321213215200,6.48021533203125,0.3361287281423807,-0.03546455048248172,-0.13138068358991295
1780100321223208000,6.4902080078125,0.33649756145477294,-0.0929280206747353,-0.09040535206301137
1780100321233202000,6.500201904296875,0.33699265149533747,-0.14050737184286116,-0.04658102431315928
1780100321243195100,6.510195068359375,0.31181787822842594,-0.18029183135107157,-0.00694372732383199
1780100321253188000,6.52018798828125,0.2667997558504343,-0.1972548027202487,0.029119830231415105
1780100321263181000,6.53018115234375,0.22117723783850668,-0.21044979985803364,0.0579152325477451
1780100321273174000,6.540174072265625,0.13769640607535838,-0.19982377642542123,0.08253982458598912
1780100321283168000,6.55016796875,0.05422025048732757,-0.1888391488134861,0.10422128497757949
1780100321293161000,6.560160888671875,-0.00589724134504795,-0.18305968862921,0.11218263751189224
1780100321303154000,6.57015380859375,-0.09309797041416168,-0.16577669152542948,0.07282406613240018
1780100321313147100,6.580147216796875,-0.15338906524777413,-0.1514839622788131,0.058134346057986834
1780100321323140000,6.59014013671875,-0.21164543938338756,-0.14912804680243133,0.0563326486645732
1780100321333133000,6.600133056640625,-0.2521072136312723,-0.12087079735025763,0.07748613052614964
1780100321343127000,6.610126953125,-0.28731998130977154,-0.08229995141550898,0.11606294041080399
1780100321353120000,6.6201201171875,-0.2958423104614019,0.019149521628022192,0.15888273076061157
1780100321363113000,6.630113037109375,-0.246717921808362,0.10523206032216548,0.23850571805182844
1780100321373106000,6.64010595703125,-0.1841542058676481,0.17431830989941954,0.30776297681443393
1780100321383099100,6.65009912109375,-0.08851005810201168,0.22149682518169284,0.3383158629231155
1780100321393093000,6.660093017578125,0.01623041931092739,0.21640067108646033,0.3129149162175134
1780100321403085800,6.6700859375,0.09767477681040763,0.1610821039684117,0.22528609792944043
1780100321413079000,6.6800791015625,0.12556640782058237,0.0841856190316379,0.09464422260862775
1780100321423072000,6.690072021484375,0.14233867892324922,0.013002981697022914,0.03245393395703286
1780100321433065000,6.70006494140625,0.11590659907162189,-0.007232143210619687,0.04924955853582359
1780100321443059000,6.710058837890625,0.06471183388531207,0.025225334410369393,0.09900555962328798
1780100321453052200,6.72005224609375,0.03348550549447536,0.08017331465035676,0.21259736981336025
1780100321463045000,6.730045166015625,0.020541852769255638,0.13156725567057728,0.2804813491950743
1780100321473038000,6.7400380859375,0.027160394126176834,0.1603686950020492,0.31888233672194183
1780100321483031000,6.750031005859375,0.05989069733917713,0.17657193404510615,0.3178304165162146
1780100321493024000,6.76002392578125,0.09840542917251587,0.16379516231939195,0.2752061852711253
1780100321503018200,6.770018310546875,0.12665186496973038,0.120404787273705,0.2015046787170693
1780100321513011000,6.780010986328125,0.13709551757276056,0.09184417096078396,0.15298934360677374
1780100321523004200,6.790004150390625,0.13230886781811713,0.025933044288307425,0.08336104130838067
1780100321532997000,6.7999970703125,0.086347911632061,-0.028615269109606743,-0.0018205299580469727
1780100321542990000,6.809989990234375,0.0041822541207075115,-0.09572802665680646,-0.06970198858911171
1780100321552984000,6.819984130859375,-0.06006839199364185,-0.13781521014943718,-0.1370960838283412
1780100321562977000,6.82997705078125,-0.13291443249583243,-0.16072262300625442,-0.17599243539040907
1780100321572970000,6.839969970703125,-0.20381109249591825,-0.14391104280650616,-0.20570382917365057
1780100321582963000,6.849962890625,-0.2186012498706579,-0.08709872999936341,-0.25765732203908265
1780100321592956200,6.8599560546875,-0.21286884369850156,-0.003449994323402643,-0.2993956920940429
1780100321602950100,6.8699501953125,-0.16112112080454827,0.0827827664963901,-0.35488121327683325
1780100321612942800,6.87994287109375,-0.10369885940551757,0.1696571862205863,-0.4638246588049456
1780100321622936000,6.88993603515625,-0.030368250256776808,0.22205592036917804,-0.5341035157002508
1780100321632929000,6.899928955078125,-0.009577391162514687,0.21363851289674637,-0.6219982183828949
1780100321642922000,6.909921875,0.00722878220975399,0.15411562595665454,-0.7140287056960165
1780100321652916000,6.919916015625,0.027798107507824896,0.037975218129158016,-0.7823246816784143
1780100321662909000,6.929908935546875,0.023158172747492788,-0.13652064029425381,-0.7956686588328331
1780100321672902100,6.939902099609375,0.05443009384572506,-0.32228710366412994,-0.7542954688284546
1780100321682894800,6.949894775390625,0.07207739421725273,-0.5161170465022326,-0.7036743388116359
1780100321692888000,6.95988818359375,0.09625263505280017,-0.6834301538147032,-0.6148870712034404
1780100321702882000,6.969882080078125,0.11926233924031257,-0.7854413523942232,-0.5277334692116826
1780100321712875000,6.979875,0.13695815492868424,-0.8132244084633886,-0.40093711773734536
1780100321722868000,6.989867919921875,0.13490648309588432,-0.7427827987544238,-0.2999666603824124
1780100321732861000,6.99986083984375,0.06826864958405494,-0.5901750931426882,-0.2260211707383394
1780100321742854100,7.009854248046875,-0.01498480316400528,-0.3869987914189696,-0.17987769759222863
1780100321752846800,7.019846923828125,-0.08992284750938415,-0.15940423388406633,-0.16852668435331433
1780100321762841000,7.029841064453125,-0.16080840159356594,0.04953428462818265,-0.17560718066617845
1780100321772834000,7.039833984375,-0.1896755996376276,0.23745953346714377,-0.21295820248238742
1780100321782827300,7.0498271484375,-0.19241233112514017,0.3794466224737465,-0.2138167190078646
1780100321792820000,7.059820068359375,-0.11500351275205611,0.4637922543726861,-0.20104243150018156
1780100321802813000,7.06981298828125,0.0019014497071504592,0.46978243469819425,-0.15775025613196192
1780100321812807200,7.07980712890625,0.13818623541891575,0.46130818247199057,-0.06358772522620856
1780100321822800000,7.0897998046875,0.2787374464035034,0.404992567140609,0.03567583687929436
1780100321832793000,7.09979296875,0.42644788149297236,0.3123797498948872,0.1481336472039111
1780100321842786000,7.1097861328125,0.5024725520312786,0.23615926452353594,0.2459913063005544
1780100321852779000,7.119779052734375,0.5348877979457378,0.14314166586920618,0.34667657177224753
1780100321862773000,7.12977294921875,0.5042319629192352,0.050817017915099856,0.44418578275740145
1780100321872766000,7.139765869140625,0.41074937710165976,-0.03734510353207588,0.521429473696649
1780100321882759200,7.14975927734375,0.2911374937713146,-0.1268072016619146,0.6066257676081731
1780100321892752000,7.159751953125,0.14771511126458645,-0.19993527397587893,0.6863370542373508
1780100321902745000,7.1697451171875,0.04538929377794265,-0.23354060645774005,0.7380943486772478
1780100321912739000,7.179739013671875,-0.058445174705982206,-0.25552900477349755,0.7578363563057035
1780100321922732000,7.18973193359375,-0.11371230389773845,-0.22862448510453104,0.7724256573460996
1780100321932725000,7.19972509765625,-0.17456804687678812,-0.20547566470727324,0.7436685686130077
1780100321942718000,7.209718017578125,-0.2559147892206907,-0.1500168123356998,0.6921645182818174
1780100321952711200,7.219711181640625,-0.30661972506344315,-0.09363719185739755,0.6353755863502621
1780100321962705200,7.229705078125,-0.3540811489403248,-0.011409282764792441,0.5606040576782078
1780100321972698600,7.23969873046875,-0.3957289181023836,0.0625800825536251,0.470952720586583
1780100321982691800,7.24969189453125,-0.4230845425397157,0.10812675885036586,0.3726695295542478
1780100321992684500,7.2596845703125,-0.4033832322478294,0.14176044064387677,0.24294342650463804
1780100322002677800,7.269677734375,-0.3741086224466562,0.1649647906206548,0.09192165664378553
1780100322012670700,7.279670654296875,-0.29236031356453895,0.16016133586168288,-0.04542076662844047
1780100322022664700,7.289664794921875,-0.2075952872097492,0.14912044801786542,-0.18338840912692247
1780100322032657700,7.29965771484375,-0.10803893443644046,0.09639511226341128,-0.3169359153619036
1780100322042650600,7.309650634765625,-0.01485796191394329,0.029357027387619018,-0.44685785151086743
1780100322052643800,7.319643798828125,0.06078676939606666,-0.046479134841263293,-0.5477202819140627
1780100322062636500,7.329636474609375,0.12389935139119625,-0.13668971325084567,-0.6076745460087433
1780100322072630500,7.339630615234375,0.17194821976721286,-0.20994287324920297,-0.6419817066170275
1780100322082623700,7.349623779296875,0.24488369211852548,-0.2617538706377148,-0.6583727233171462
1780100322092616700,7.35961669921875,0.2861445077896118,-0.28441330008283255,-0.6499435523416847
1780100322102609700,7.369609619140625,0.31465923913419247,-0.2730453722417354,-0.6162020993247628
1780100322112602600,7.3796025390625,0.329035555011034,-0.2592421800777316,-0.5855362908935174
1780100322122596900,7.389596923828125,0.32337796764075755,-0.18492957415431738,-0.5215275272436439
1780100322132589600,7.399589599609375,0.2777344068408012,-0.11393193799778818,-0.484553923905082
1780100322142582500,7.40958251953125,0.23499825792014598,-0.07653247392997145,-0.44333040803708135
1780100322152575700,7.41957568359375,0.1858621788293123,-0.02239288746342063,-0.4170044189084321
1780100322162568700,7.429568603515625,0.16086393117308614,0.03011442162618041,-0.38218163692820817
1780100322172561700,7.439561767578125,0.1398047765314579,0.05782616602480411,-0.3430104139475152
1780100322182555600,7.4495556640625,0.11804419562220572,0.06564385403841734,-0.2937912596831098
1780100322192548900,7.459548828125,0.09921791459918021,0.06524111845642327,-0.24380689319986848
1780100322202541600,7.46954150390625,0.07902034522294998,0.0574419890128076,-0.17143601419506593
1780100322212534800,7.47953466796875,0.07319792267978191,0.023629005129635332,-0.08675139613272621
1780100322222527700,7.48952783203125,0.042138183027505875,0.009444266302138566,-0.0011834010982885955
1780100322232521700,7.499521728515625,-0.008345219019055366,-0.012745499804615973,0.07546732891649008
1780100322242514700,7.5095146484375,-0.06534370204806328,-0.020324849017709493,0.10990956888021901
1780100322252507600,7.519507568359375,-0.11386661767661571,0.0015150807380676268,0.1283018971990794
1780100322262500900,7.5295009765625,-0.15352233623862266,-0.0022552315808832646,0.1598600330938585
1780100322272493600,7.53949365234375,-0.18833529094457624,-0.0008591010473668574,0.14529579342948273
1780100322282487600,7.549487548828125,-0.21312720237374305,0.007407792038470506,0.11243110498078167
1780100322292480800,7.559480712890625,-0.22628420558869838,0.006702858639508485,0.08675380728552118
1780100322302473700,7.5694736328125,-0.21120938605368136,-0.0010074234768748284,0.08067828676411881
1780100322312466700,7.579466796875,-0.18779519271850584,-0.02335822536423802,0.08450367200486361
1780100322322459600,7.589459716796875,-0.14931553219854832,-0.040939328631758684,0.07895677846744656
1780100322332453600,7.59945361328125,-0.1325461837053299,-0.043698271951079365,0.11808087437078356
1780100322342446800,7.60944677734375,-0.09636720134317875,-0.05109437355175614,0.15004640375636516
1780100322352439600,7.619439453125,-0.06980185050070285,-0.04807473346963525,0.1843432621663436
1780100322362432800,7.629432861328125,-0.04733282906115055,-0.03407017351463437,0.2562847367779352
1780100322372425700,7.63942578125,-0.030891981869935987,-0.015920184317976236,0.2920508822891861
1780100322382418700,7.649418701171875,-0.026422142979502676,0.004446458014845848,0.3151268566459417
1780100322392412700,7.65941259765625,0.001409282276034355,0.0018868366599082945,0.2983829531212337
1780100322402405600,7.669405517578125,0.047235213905572886,-0.0012464929297566413,0.26755720488792284
1780100322412398600,7.679398681640625,0.06599661299884318,-0.02204056689441204,0.24250311712492256
1780100322422391600,7.6893916015625,0.09867430924177169,-0.021263591172546146,0.22791726841693744
1780100322432384800,7.699384765625,0.14480828390717507,-0.02302680145278573,0.21675443469388408
1780100322442378800,7.709378662109375,0.18497896625399587,-0.025705811403691766,0.19360387899726628
1780100322452371700,7.719371826171875,0.19752748218178748,-0.04744987956956029,0.17151081473063676
1780100322462364700,7.72936474609375,0.21961422630548477,-0.0797786162443459,0.14957714227680116
1780100322472357600,7.739357666015625,0.20455752694904802,-0.0953495487332344,0.11314548206152394
1780100322482350600,7.7493505859375,0.2002501851439476,-0.14251885779574514,0.0936152357539162
1780100322492344600,7.759344482421875,0.1450374164879322,-0.13965572344958782,0.05978683510590344
1780100322502337800,7.769337890625,0.0827098473906517,-0.1274884619243443,0.018507515663746744
1780100322512330800,7.779330810546875,0.0346124636977911,-0.09299085677787661,-0.031494569139275695
1780100322522323700,7.78932373046875,-0.02041150438785553,-0.05295768320560455,-0.09434683796409517
1780100322532316700,7.799316650390625,-0.07449731484055519,-0.02390840659290552,-0.15364263815004378
1780100322542310000,7.809309814453125,-0.10912848323881626,0.0009033785805106163,-0.23155575278345494
1780100322552303900,7.819303955078125,-0.1389981363236904,0.047908583122491834,-0.31392427592314776
1780100322562296600,7.829296630859375,-0.12850363031625747,0.0652615767225623,-0.3762733992651105
1780100322572289800,7.839289794921875,-0.1199538286358118,0.07012246075719594,-0.436416208201833
1780100322582282800,7.84928271484375,-0.09043605772852897,0.06330488969683647,-0.46171789578404276
1780100322592275700,7.859275634765625,-0.05511339993476867,0.05892404426410794,-0.5053737898981199
1780100322602269700,7.869269775390625,-0.022134090396761893,0.025635376515984534,-0.5103946868000552
1780100322612262700,7.8792626953125,0.010054945546388626,-0.021618395959585902,-0.4771635579254478
1780100322622255900,7.889255859375,0.04466097950339317,-0.05429185441881418,-0.43100061289388686
1780100322632248600,7.89924853515625,0.06524491784870624,-0.10305661597922444,-0.3748458506800234
1780100322642241800,7.90924169921875,0.07297229723036289,-0.1587668127633631,-0.3126476801160723
1780100322652235800,7.91923583984375,0.06973872213661671,-0.17983780397325752,-0.24007868472328409
1780100322662228500,7.929228515625,0.07299334001839161,-0.1839744653865695,-0.16545904041100293
1780100322672221700,7.9392216796875,0.0376361954331398,-0.1718804152280092,-0.0840923877902329
1780100322682214700,7.949214599609375,0.023018472015857695,-0.1564943377867341,-0.02148320700628683
1780100322692207900,7.959207763671875,0.002495323947072029,-0.12126155023351311,0.03239336287621408
1780100322702200600,7.96920068359375,-0.006287117445468902,-0.07156871404275297,0.0599408018249087
1780100322712194600,7.979194580078125,-0.009307342049479484,-0.022809797701239583,0.08130230041397735
1780100322722187800,7.989187744140625,-0.03213876706063747,0.014603841022402047,0.0987006127268076
1780100322732180500,7.999180419921875,-0.029133155503869055,0.030034342127293348,0.0928838344731368
1780100322742173700,8.009173583984374,-0.017609306448698042,0.0448373589836061,0.08300278418892994
1780100322752166700,8.019166748046874,-0.03769230953454971,0.03382569723427296,0.09558140299404039
1780100322762161000,8.029160888671875,-0.0013718728750944137,0.02897095067948103,0.11029758181711659
1780100322772153600,8.039153564453125,0.005615501794219017,0.0034383038856089115,0.12186103223031386
1780100322782146800,8.049146728515625,0.006904372560977936,-0.022136866875737904,0.1556953876950778
1780100322792139800,8.059139892578125,0.03288344794809818,-0.0482958288744092,0.15879094255762174
1780100322802132500,8.069132568359375,0.04317044868469238,-0.055097325582802295,0.1836229120025411
1780100322812126700,8.079126708984376,0.043888826087117194,-0.06928221054077148,0.1918807997980155
1780100322822119700,8.08911962890625,0.05673778626620769,-0.05567936325445771,0.19116775615783407
1780100322832113000,8.09911279296875,0.06169920806586742,-0.033491642974317073,0.1774201483722776
1780100322842105600,8.109105712890624,0.053528761091828345,-0.0005574877522885799,0.16563364805923775
1780100322852098800,8.119098876953124,0.040648821252584455,0.02738748088032007,0.13230634706746786
1780100322862091800,8.129091796875,0.03777764973044395,0.04845262687131762,0.07831707405811175
1780100322872085800,8.139085693359375,0.020500351715087888,0.05995820961743593,0.03618380466774106
1780100322882078700,8.14907861328125,-0.008910451686382293,0.044679245812445874,0.009774941294919699
1780100322892071700,8.15907177734375,-0.0134065940618515,0.03825666541904211,-0.01383000710569322
1780100322902065000,8.16906494140625,-0.013943769678473472,0.03526566690951585,-0.03263089795913547
1780100322912057600,8.1790576171875,0.0011176058530807495,0.0036019700147211548,-0.01842277825605124
1780100322922051600,8.189051513671876,-0.00229658650457859,-0.01645399893373251,-0.04502457038508728
1780100322932044800,8.199044921875,-0.004541735082864761,-0.031246494396030902,-0.08238088943092152
1780100322942037500,8.20903759765625,0.006249123522639274,-0.03968596756979823,-0.09853250788459554
1780100322952030700,8.21903076171875,-0.0079167644739151,-0.07789104893207549,-0.11853963272264227
1780100322962023700,8.229023681640625,0.0037929625421762466,-0.09647913728505372,-0.14105627442989496
1780100322972015900,8.239015869140625,-0.01742693561911583,-0.11209887735173106,-0.15827234377730637
1780100322982009900,8.249009765625,-0.021505729365348815,-0.11948927986398339,-0.1564448543555103
1780100322992002800,8.2590029296875,-0.01559738210439682,-0.13201456104665993,-0.15690562200136482
1780100323001995800,8.268995849609375,-0.013465630772709845,-0.12893208486139773,-0.12651294968938454
1780100323011989000,8.278989013671875,0.017277298015356064,-0.1064845446012914,-0.12112747552506625
1780100323021981700,8.288981689453125,0.03728255968987942,-0.08058321062549949,-0.1015148116310127
1780100323031975700,8.2989755859375,0.030694413471221923,-0.06921279856637119,-0.08535261698439717
1780100323041969000,8.308968994140624,0.011869886013865471,-0.040569910797476766,-0.07326788264345377
1780100323051961600,8.318961669921874,0.014002806389331816,-0.02619184135496616,-0.06195121006555855
1780100323061954800,8.328954833984374,-0.0057172086030244824,-0.00020312135666608808,-0.04466549128172919
1780100323071947800,8.33894775390625,-0.025493337696790692,-0.005055822084844112,-0.03560289950724691
1780100323081941800,8.348941650390625,-0.018820435804128646,-0.003592909925431013,-0.021693525288719682
1780100323091934700,8.358934814453125,-0.015623685589432716,0.006963701532781124,-0.0195903972633183
1780100323101927700,8.368927734375,-0.005140285497903824,-0.006891951470822095,-0.025631540591083465
1780100323111921000,8.3789208984375,0.005770400094985962,-0.013803776685893535,-0.025563845649734136
1780100323121913600,8.38891357421875,0.012025953358411789,-0.021774755565077065,-0.02974056507879868
1780100323131906800,8.39890673828125,0.034738135904073715,-0.02551175013631582,-0.028409535670746115
1780100323141900800,8.40890087890625,0.04818856910765171,-0.043320670810341834,-0.029160701097920537
1780100323151893800,8.418893798828124,0.06228139186799526,-0.03191854843869805,-0.037770726799312974
1780100323161886700,8.42888671875,0.050694414448738095,-0.017014117034524677,-0.04053146021692082
1780100323171879700,8.438879638671875,0.04950958857834339,-0.002883008090406656,-0.02777801456786692
1780100323181873000,8.448872802734375,0.046263154003024096,-0.009480652789771556,-0.03537438798099756
1780100323191867000,8.458866943359375,0.03481237018406391,-0.003763736447691917,-0.019518428005650637
1780100323201859800,8.46885986328125,0.04433481628894806,0.002530249129980802,0.0018266674378886818
1780100323211852800,8.478852783203125,0.048019057759642596,-0.01636719743311405,0.005606368639692664
1780100323221845800,8.488845703125,0.03181728002130985,-0.012062339846044778,0.03744326667692512
1780100323231838700,8.498838623046876,0.015594459494948386,-0.00857186738178134,0.05612195592280477
1780100323241831700,8.508831787109376,0.012926701590418815,0.01210150281265378,0.05737677828948944
1780100323251826000,8.518825927734374,0.02936345712840557,0.037436873468756675,0.04618824386959895
1780100323261819000,8.52881884765625,0.05685995134115219,0.06984831999093294,0.011086316154431551
1780100323271811800,8.538811767578125,0.11624795985519885,0.09470116782709956,-0.03136739909565076
1780100323281804800,8.5488046875,0.1408206755757332,0.07175064648091793,-0.10573648444665595
1780100323291797800,8.5587978515625,0.12293489027321337,0.030666210290044543,-0.23155504039740188
1780100323301791700,8.568791748046875,0.06345744991004466,-0.07125570257082581,-0.3578205181317404
1780100323311784700,8.57878466796875,-0.02225274834036827,-0.1708716765768826,-0.47083643726315344
1780100323321778000,8.58877783203125,-0.10851005907952785,-0.2828773226872086,-0.5695819851102307
1780100323331771000,8.59877099609375,-0.20591537129878998,-0.36730712573826313,-0.5542437288660556
1780100323341763800,8.608763916015626,-0.2692652691811323,-0.3676365038231015,-0.3920247298222035
1780100323351756800,8.6187568359375,-0.2548252404183149,-0.31432445422187444,-0.15762398113748058
1780100323361750800,8.628750732421874,-0.20937866349518297,-0.2119118352346122,0.0884447377808392
1780100323371743700,8.63874365234375,-0.12177870597541332,-0.07023527348190546,0.3324897140529007
1780100323381736700,8.64873681640625,-0.024414310288429258,0.05804711529910564,0.501152263212949
1780100323391730000,8.65872998046875,0.05472761548757553,0.16068433682247996,0.6011888737838715
1780100323401722600,8.66872265625,0.11230652875304221,0.22661007654219864,0.6470538953147829
1780100323411716600,8.678716552734375,0.14154197558760642,0.25188831018358465,0.5846626133315265
1780100323421709800,8.688709716796875,0.13441197757720946,0.1883909666545689,0.41674744847267864
1780100323431702800,8.698702880859376,0.08350070550739765,0.09482464807629584,0.219441719282791
1780100323441695700,8.70869580078125,0.020498013627529142,0.011494769091159105,0.01680754334544763
1780100323451688700,8.718688720703126,-0.02460018824934959,-0.09480725855007767,-0.17827692959839478
1780100323461682000,8.728681884765624,-0.05400689999759197,-0.12517989272102714,-0.3115999246288091
1780100323471676000,8.738676025390625,-0.07099895133078098,-0.12949307974502444,-0.3617690730944276
1780100323481668600,8.748668701171875,-0.035951603347063064,-0.09322861105650662,-0.3064600775223225
1780100323491661800,8.758661865234375,0.04438566969335079,-0.03483969658240676,-0.18210295415995642
1780100323501654800,8.76865478515625,0.09442951127886771,0.023120617216080427,-0.03475737032750621
1780100323511647700,8.778647705078125,0.16173077713549136,0.03755845402181148,0.0809272200238891
1780100323521640700,8.788640625,0.21573124739229677,0.049967269217967986,0.1486675166185945
1780100323531634700,8.798634765625,0.23446809656620024,0.027444471764564514,0.1816765637077391
1780100323541628000,8.8086279296875,0.22194413055777548,0.014707447527348995,0.15621289049685
1780100323551620600,8.81862060546875,0.19498831909298894,-0.004778758709132671,0.09583367898836731
1780100323561613800,8.82861376953125,0.11969605448246001,-0.0029357611909508704,0.007865874536894262
1780100323571606800,8.838606689453124,0.049426586470007895,0.012674480395019054,-0.0619143851865083
1780100323581600800,8.848600830078125,-0.01597206063568592,0.017501754420995712,-0.12893210312770678
1780100323591593700,8.85859375,-0.048646249747276306,0.008352963934093714,-0.18267280820347367
1780100323601587000,8.8685869140625,-0.10740823531746864,-0.012267068637907504,-0.2206746038123034
1780100323611580000,8.878579833984375,-0.11727145768404006,-0.043846302119642494,-0.20522901473613456
1780100323621572600,8.888572509765625,-0.13744915331602095,-0.08610475052595139,-0.17415206822073087
1780100323631565800,8.89856591796875,-0.14699907194972037,-0.10640738771185278,-0.14422184405503793
1780100323641559800,8.908559814453126,-0.15973463488221168,-0.1310226273998618,-0.10812383624091744
1780100323651552800,8.918552734375,-0.15951602369546888,-0.1389360308729112,-0.09968438133345917
1780100323661545700,8.928545654296874,-0.12701193045377732,-0.11544804164916277,-0.09361419457430019
1780100323671539000,8.9385390625,-0.09438859474658966,-0.08233414594605565,-0.07074680320061742
1780100323681531600,8.94853173828125,-0.07779168021082877,-0.06608604484796524,-0.07390082851843909
1780100323691524900,8.95852490234375,-0.017953005319833754,-0.05065495922118425,-0.053587560340669006
1780100323701518800,8.968518798828125,0.012718027275800705,-0.05426628158614039,-0.05091088847732171
1780100323711511800,8.97851171875,0.059114452269673344,-0.07036898286417126,-0.03496069261357188
1780100323721504800,8.9885048828125,0.09608838440179825,-0.07939721571132541,-0.017789667984284458
1780100323731497700,8.998497802734375,0.10017068527936934,-0.09365940368920564,-0.01754731059577316
1780100323741491000,9.008490966796876,0.09470599013268947,-0.09990516621097922,-0.040436585007701066
1780100323751485000,9.01848486328125,0.04970657245516777,-0.10520853331610559,-0.06323440001020207
1780100323761477600,9.0284775390625,0.022411153772473335,-0.07752835309952497,-0.08045772108230739
1780100323771470800,9.038470947265624,-0.030976153022050857,-0.03499503327459097,-0.08942222277717664
1780100323781463800,9.0484638671875,-0.065081251719594,-0.0190206345513463,-0.08975302563412114
1780100323791456800,9.058456787109375,-0.05945405948758125,0.026035627879947423,-0.03141251687901094
1780100323801449700,9.06844970703125,0.011349077010154723,0.0679882252074778,0.01872623644834384
1780100323811443700,9.078443603515625,0.09284662600159645,0.10295943921506404,0.06166095841471105
1780100323821437000,9.08843701171875,0.13629822971522806,0.12208002700954675,0.10826989364810287
1780100323831429600,9.0984296875,0.18882628933191298,0.10687968139871955,0.14741294998023657
1780100323841422800,9.1084228515625,0.2014735894590616,0.08162658219859004,0.10893730804827063
1780100323851415800,9.118415771484376,0.1581517496049404,0.051113955035060644,0.04560447089858353
1780100323861408800,9.12840869140625,0.07471241889595985,0.004200374299287796,-0.03180283137084916
1780100323871402800,9.13840283203125,0.0067272624284029,-0.04029153224751353,-0.09816950152479112
1780100323881395700,9.148395751953124,-0.07899462625980377,-0.09194631616100668,-0.15365071185864507
1780100323891389000,9.158388916015625,-0.1249035599976778,-0.12836042245328425,-0.1974267434873618
1780100323901381600,9.168381591796875,-0.1450941151112318,-0.14981106063053012,-0.19015315402150154
1780100323911374800,9.178374755859375,-0.12127893975973128,-0.14305018819347023,-0.12541653275480494
1780100323921367800,9.188367919921875,-0.05365092616677284,-0.10545447090119123,-0.036048487850278615
1780100323931361800,9.19836181640625,0.00893324804008007,-0.0691864950813353,0.0518438219458796
1780100323941354800,9.208354736328126,0.07188625555932521,-0.01795797375589609,0.13596472344454377
1780100323951347700,9.21834765625,0.09529343463182449,0.011155600264668464,0.21561534766135737
1780100323961340700,9.228340576171876,0.10604571479260921,0.018532851034402845,0.23779457410778848
1780100323971333600,9.238333740234374,0.07766191635131836,0.02878653402328491,0.20134967081844807
1780100323981328000,9.248327880859375,0.033007366588711735,0.01606616865992546,0.1338829852670431
1780100323991321900,9.25832177734375,-0.02316167987883091,-0.028634266071021555,0.0369530354745686
1780100324001314800,9.268314697265625,-0.07816694326400757,-0.027171938433498143,-0.059222113895229994
1780100324011307800,9.278307861328125,-0.11960779167711734,-0.02937880082800984,-0.09887269962439313
1780100324021300700,9.28830078125,-0.10964461606740951,-0.023876696280390023,-0.14702159430878237
1780100324031294000,9.2982939453125,-0.09587035773694515,-0.02949307485744357,-0.1590868019653484
1780100324041286700,9.30828662109375,-0.05132394452393055,-0.02551248078867793,-0.1552253407642245
1780100324051280600,9.31828076171875,0.0054845688909292215,-0.040803281161934137,-0.12083806412443518
1780100324061273900,9.32827392578125,0.04886544545590877,-0.056873103083670135,-0.10994896930884569
1780100324071266800,9.338266845703124,0.08138999696373939,-0.0803720520928502,-0.07907625839496031
1780100324081259800,9.348259765625,0.0824000507891178,-0.08570712951049209,-0.040027766744792456
1780100324091252700,9.358252685546875,0.07269464933276176,-0.07395721661448479,-0.020909973695594816
1780100324101246000,9.368245849609375,0.05074117619991302,-0.07037365903928876,-0.023377660717070103
1780100324111239700,9.37823974609375,0.010369418323040008,-0.038139761041104794,-0.013230141516402363
1780100324121232600,9.388232666015625,0.008740940338373185,0.0006708849988877772,-0.050700040471926326
1780100324131225900,9.398225830078125,-0.007882277682423592,0.029092238971590995,-0.0735769303263165
1780100324141218600,9.408218505859375,-0.004212649258971214,0.04233151364251971,-0.09205401431918143
1780100324151211800,9.418211669921876,0.01602700569331646,0.0448285911552608,-0.10447020910419523
1780100324161204700,9.428204833984376,0.03385492332875729,0.03128404992744326,-0.09108659405913204
1780100324171198700,9.43819873046875,0.050206338670849796,0.013954144942015408,-0.07944794125156476
1780100324181191700,9.448191650390624,0.06642156041264534,-0.011495792004466055,-0.04902872799253091
1780100324191184600,9.4581845703125,0.06159399412572383,-0.032146950367093086,-0.029223957326170055
1780100324201177900,9.468177734375,0.06370411814749241,-0.07147796701937914,-0.0290736986679025
1780100324211170600,9.478170654296875,0.05359481206536293,-0.08330094515159725,-0.0027213147226721047
1780100324221163800,9.488163818359375,0.030496845072507855,-0.0725099404156208,0.005679543473757803
1780100324231157800,9.49815771484375,0.005780336967110633,-0.07828224020674825,0.013852255470119416
1780100324241151000,9.50815087890625,-0.01893792470395565,-0.08087415639609098,0.0046572877539321775
1780100324251143700,9.518143798828126,-0.02945756515264511,-0.04491159326359629,0.019615750900283453
1780100324261137000,9.528136962890626,-0.030152561679482458,-0.01855710869282484,0.013944244602508843
1780100324271129900,9.5381298828125,-0.03313245427310466,-0.002209638873487711,-0.002213219070062041
1780100324281122600,9.54812255859375,-0.02361643790900707,-0.00003287935629487037,-0.006179273156821727
1780100324291116800,9.55811669921875,-0.03944061450660229,0.0007492109321057797,-0.0024485987285152075
1780100324301109800,9.56810986328125,-0.029868484041094778,0.002862695954740047,-0.019147329670935867
1780100324311103000,9.57810302734375,-0.035114568001031875,0.0027009295217692852,-0.035733339220192284
1780100324321095700,9.588095703125,-0.03272270442843437,-0.02327902264818549,-0.04287422395078465
1780100324331089000,9.5980888671875,-0.013518237742781639,-0.05097147782444954,-0.035230485998280346
1780100324341081900,9.608081787109375,-0.006084872871637344,-0.061548693679273125,-0.03905713161434978
1780100324351075800,9.618075927734376,0.017108955711126327,-0.09263342164233326,-0.014918532994762063
1780100324361068800,9.62806884765625,0.015952186891436577,-0.09610007483959197,-0.008754640070162713
1780100324371061800,9.638061767578124,0.030842297509312628,-0.09443769458532333,0.018999409100227058
1780100324381055000,9.648054931640624,0.040055531534552574,-0.07747355417236686,0.01743767620883882
1780100324391047700,9.658047607421874,0.04731003270745277,-0.05718012320622801,0.02226529729468748
1780100324401041000,9.668041015625,0.0362853653460741,-0.008965542874485253,-0.011515008161589502
1780100324411035000,9.678034912109375,0.01085164888203144,0.006662672759592533,-0.031411786226648836
1780100324421027600,9.688027587890625,0.0007768295913934707,0.025497867741435764,-0.052784226334840055
1780100324431020800,9.698020751953125,-0.015160159730911255,0.04865136431381106,-0.0675554598134011
1780100324441013800,9.708013671875,-0.00447509958744049,0.04088175322562456,-0.09860937251308932
1780100324451007000,9.718007080078126,-0.004859130468964576,0.016104893235117195,-0.07128408841509372
1780100324460999700,9.727999755859376,0.01183247661292553,0.0008674304842948913,-0.039986357022169974
1780100324470993700,9.73799365234375,0.03962473890185356,-0.020006138457357884,-0.024471100243274122
1780100324480987000,9.74798681640625,0.0477010778516531,-0.051012394356727594,0.002108297390863299
1780100324490979600,9.7579794921875,0.03964695073366165,-0.055072483402490616,0.029642712461203334
1780100324500972800,9.767972900390625,0.04760463173985481,-0.060416767039895056,0.045241537604015315
1780100324510965800,9.7779658203125,0.033553894555568696,-0.05107245398089289,0.047024676427431404
1780100324520958700,9.787958740234375,0.022922610425949095,-0.032486119193583726,0.032329138533584774
1780100324530952700,9.79795263671875,0.006723170775175094,-0.04007452849596738,-0.017792864588368682
1780100324540945700,9.807945556640625,0.009804185655713081,-0.007979454446583985,-0.037330965408869085
1780100324550939000,9.81793896484375,-0.007476034969091415,0.003981616982072592,-0.07301679395921527
1780100324560931600,9.827931640625,-0.014907061752676963,0.01589329631105065,-0.10943568602446466
1780100324570924800,9.8379248046875,-0.028149405163526535,0.00971446154564619,-0.13422620921414344
1780100324580917800,9.847917724609376,-0.03388824107646942,0.0002202186219394207,-0.13070709517728538
1780100324590910700,9.85791064453125,-0.015814239725470542,-0.012060001758486032,-0.1115088207704015
1780100324600904700,9.86790478515625,0.012473112604022025,-0.042627427849173546,-0.09011321898233145
1780100324610897700,9.877897705078125,0.019516601374745368,-0.08710589039251208,-0.062025115551985796
1780100324620891000,9.887890869140625,0.04421849643290043,-0.10894888888821005,-0.0013779738223180175
1780100324630883600,9.897883544921875,0.06007248364686966,-0.12605360681563615,0.011226455277483909
1780100324640876800,9.907876708984375,0.04447627058625221,-0.11833338782712817,0.047202224951423705
1780100324650869800,9.917869873046875,0.042019525083899494,-0.07815949060991406,0.040912422358524055
1780100324660864000,9.927864013671876,0.01635024629831314,-0.04177753302156925,0.018397095825523138
1780100324670856700,9.937856689453126,-0.003926818054914474,0.0015095277801156044,-0.024490773058123885
1780100324680849700,9.947849609375,-0.019965514186024665,0.025556612191349266,-0.06545041382554918
1780100324690843000,9.9578427734375,-0.043401919353008266,0.04098433681726456,-0.09362509956080466
1780100324700835600,9.967835693359374,-0.03639817807078361,0.038578883110731835,-0.1311724841993302
1780100324710828800,9.977828857421875,-0.0463502477645874,0.026491262692958116,-0.11749874536758288
1780100324720822800,9.98782275390625,-0.0431780474692583,-0.005051438170671462,-0.09065510730668902
1780100324730816000,9.99781591796875,-0.04948971483409405,-0.04627221409231424,-0.031779139968007804
1780100324740808700,10.00780859375,-0.047453240570425985,-0.07558657138198614,0.025736900661699473
1780100324750802000,10.017802001953125,-0.01429156020283699,-0.08462737144976853,0.04972125856764614
1780100324760795000,10.027794921875,0.011678747355937958,-0.07524053442329168,0.09701554571669548
1780100324770787800,10.037787841796876,0.006252046132087707,-0.05887231407687068,0.11246462365789338
1780100324780780800,10.04778076171875,0.028481413596868514,-0.041416736885160205,0.07826863180650398
1780100324790774800,10.05777490234375,0.029196283867955208,-0.029519962864369153,0.04681753648277372
1780100324800767700,10.067767822265624,0.024880758756399154,-0.01011748938858509,0.0311590535745956
1780100324810760700,10.0777607421875,0.039190439137816425,-0.003274783886969089,-0.019578524162434042
1780100324820754000,10.08775390625,0.03240706260800361,0.0016474749460816383,-0.03325069209160283
1780100324830747000,10.097746826171875,0.03321837899088859,0.0074298577398061744,-0.05661328310370445
1780100324840739800,10.10773974609375,0.0408428825199604,-0.007793284224718809,-0.06794909877348691
1780100324850733800,10.11773388671875,0.024148352828621863,-0.021509382627159356,-0.04973236448355019
1780100324860726800,10.127726806640625,0.03103577425479889,-0.031379034734517336,-0.037864633894152934
1780100324870719700,10.1377197265625,0.04255202452540397,-0.04047229564189911,-0.016991631208080796
1780100324880712700,10.147712646484376,0.04525251565575599,-0.05037731132358312,-0.007880743312463164
1780100324890706000,10.157705810546876,0.057578913265466686,-0.029572277573496102,-0.014454897538386285
1780100324900698600,10.16769873046875,0.0783487295717001,-0.024248744463175535,-0.013453922068607061
1780100324910691800,10.17769189453125,0.08138882791996002,-0.01920344377234578,-0.02757522200476378
1780100324920685800,10.187685791015625,0.060986675882339476,-0.01217091478705406,-0.028878084764257073
1780100324930678800,10.1976787109375,0.03236906868517399,-0.00546133414581418,-0.04639271693313494
1780100324940671700,10.207671630859375,0.0071831895023584365,0.004696341122686863,-0.05976891585672274
1780100324950664700,10.217664794921875,-0.008644494226574897,-0.0015272095672786235,-0.06085689375652
1780100324960658000,10.227657958984375,-0.02916471968591213,-0.005890373212844133,-0.05818581138374283
1780100324970650600,10.237650634765625,-0.034625907701253886,-0.020324410626292227,-0.05909702621083706
1780100324980644400,10.247644287109376,-0.05124620311260223,-0.055609659019112585,-0.05308779412498697
1780100324990637600,10.257637451171876,-0.04770633854866028,-0.038423984809964895,-0.051643805861752476
1780100325000630500,10.267630615234374,-0.02381634439527988,-0.0458729856416583,-0.044460561560466884
1780100325010623500,10.27762353515625,-0.007221767947077751,-0.04381956024318933,-0.052459286963101474
1780100325020616400,10.287616455078124,-0.01813011545240879,-0.02042845552265644,-0.053799924449715764
1780100325030609700,10.297609619140625,-0.02117781258523464,-0.01514919994547963,-0.03041594358971342
1780100325040602400,10.307602294921875,-0.027909751188755032,-0.010026303973793983,-0.04264640654427931
1780100325050596400,10.317596435546875,-0.0015349544823169707,-0.007872048549354076,-0.02070086098955944
1780100325060589600,10.327589599609375,0.00417056368291378,-0.02698898308202624,-0.009567308159917593
1780100325070582500,10.33758251953125,0.010306289958953857,-0.030837621334195136,-0.00578267505466938
1780100325080575500,10.347575439453125,0.026572365105152127,-0.03832812322005629,-0.002394055529683828
1780100325090568400,10.357568359375,0.04088730618357658,-0.062279346041381356,0.007803805618733168
1780100325100561700,10.367561767578126,0.05329670590162277,-0.06359349737986922,0.01325421651173383
1780100325110554400,10.377554443359376,0.03895604586005211,-0.05305091444700956,0.002454791007284075
1780100325120548600,10.387548583984374,0.05562602563202381,-0.038355449618399144,-0.023825824609678237
1780100325130541600,10.39754150390625,0.02008475665152073,-0.020149054059386252,-0.01717911660419777
1780100325140534500,10.407534423828125,0.012667173871397971,-0.012308277431130409,-0.029840171262063085
1780100325150527500,10.417527587890625,-0.001959317374229431,-0.0174368724912405,-0.029966683718562124
1780100325160520400,10.4275205078125,-0.02035831289589405,-0.0057670390941202635,-0.0403443401469849
1780100325170513700,10.437513671875,-0.03132628163397312,-0.007224106034636497,-0.01986510428516194
1780100325180507400,10.44750732421875,-0.004911737439036369,-0.017905951307713986,-0.020640381240285933
1780100325190500600,10.45750048828125,0.018945523488521576,-0.016609189495444297,-0.003802497555501759
1780100325200493600,10.46749365234375,0.020794950747489927,0.0029204174913465973,0.0011360000262968242
1780100325210486500,10.477486572265626,0.0394184026747942,0.0033553017772734164,-0.009056088968459516
1780100325220479500,10.4874794921875,0.03485153315067291,0.004729805000871419,-0.018077837275899945
1780100325230472400,10.497472412109374,0.02999474076926708,-0.009277823694050311,-0.035773817361053076
1780100325240465700,10.507465576171874,0.010790858605504034,-0.0022696984976530075,-0.053805787934921676
1780100325250459400,10.51745947265625,-0.010641805523633956,-0.02411532734185457,-0.06381698567112908
1780100325260452600,10.52745263671875,-0.008434650868177414,-0.017135259196162222,-0.07777540492946282
1780100325270445600,10.537445556640625,0.009815291571617125,-0.037008126662671566,-0.06564812835473567
1780100325280438500,10.5474384765625,0.02735094826221466,-0.02763707172721624,-0.03292410875204951
1780100325290431500,10.557431396484375,0.029476854375004767,-0.031306700150668616,-0.02756112041417509
1780100325300424400,10.567424560546876,0.04206804040074348,-0.05177066537812352,-0.01093353674551472
1780100325310417400,10.57741748046875,0.04058393932282924,-0.04636939085647464,0.017220873386692256
1780100325320411400,10.587411376953124,0.02292319494783878,-0.03896627499312162,0.025400362183712423
1780100325330404600,10.597404541015624,0.016015899777412412,-0.03661912734508514,0.023426102968677878
1780100325340397600,10.6073974609375,0.006419803914427757,-0.030423925966769454,0.007895374626014381
1780100325350390500,10.617390625,-0.013656184908747673,-0.028876550394296645,0.001823306437022984
1780100325360383500,10.627383544921875,-0.026804420295357703,-0.027989830687642096,-0.015350969595275819
1780100325370376700,10.637376708984375,-0.04892214407920837,-0.018279022403806446,-0.05045381062589586
1780100325380369400,10.647369384765625,-0.053095045849680896,-0.03423953873217106,-0.06394819256905467
1780100325390363400,10.65736328125,-0.046349078720808026,-0.02784735347703099,-0.061133317811414595
1780100325400356600,10.667356689453126,-0.031390579041838645,-0.01778393236324191,-0.06534156488990411
1780100325410349600,10.677349609375,-0.016767010405659675,-0.02422448680475354,-0.05041017241356894
1780100325420342500,10.687342529296876,-0.005303951627016067,-0.022711305762827396,-0.05162226988337934
1780100325430335500,10.69733544921875,0.010017536145448685,-0.011491115829348563,-0.04945924663059413
1780100325440328700,10.70732861328125,0.010515548795461654,-0.009798486567288637,-0.034101335837878284
1780100325450321400,10.7173212890625,0.009665069445967674,0.003924333836883306,-0.02047799375280738
1780100325460315400,10.7273154296875,0.0005845218896865845,-0.009320639922469854,-0.010717354977875947
1780100325470308600,10.73730859375,0.02623275788724422,-0.01701864707916975,-0.019983524766750634
1780100325480301600,10.747301513671875,0.04129471794068813,-0.036407530421018595,0.001384567959886044
1780100325490294500,10.75729443359375,0.04694236843883991,-0.04012655094414949,0.024488891628291456
1780100325500287500,10.76728759765625,0.05755611691176891,-0.03255728473365307,0.044564880451466886
1780100325510280700,10.77728076171875,0.06070201372206211,-0.0537768906340003,0.0559827849141322
1780100325520273400,10.7872734375,0.06999824985563755,-0.030373072562366724,0.04746102201808244
1780100325530267400,10.797267333984376,0.06970248177945614,-0.03146349814757705,0.054313901853840794
1780100325540260600,10.807260498046874,0.0584802460193634,-0.039434769287705417,0.0490985235594213
1780100325550253600,10.817253662109374,0.039033202749490736,-0.030017829383909702,0.008384418518282472
1780100325560246500,10.82724658203125,0.024088147073984146,-0.030404636744409796,-0.013368125214986502
1780100325570239500,10.837239501953125,-0.008187982630729675,-0.030571956135332583,-0.028411563231050967
1780100325580232700,10.847232666015625,-0.018790040665864944,-0.02686374926716089,-0.057735382468812164
1780100325590225400,10.857225341796875,-0.03523907116353511,-0.024563217239826917,-0.07546630600318312
1780100325600218600,10.867218505859375,-0.019679682981967924,-0.0047267362609505655,-0.07147727289963514
1780100325610212600,10.877212646484375,-0.034200375765562056,0.008042875071614981,-0.08934376897979528
1780100325620205600,10.88720556640625,-0.02177870108783245,0.006627016924321651,-0.08230769633054733
1780100325630198500,10.897198486328126,-0.012139935126900672,0.021850451149791478,-0.08746694225724785
1780100325640191500,10.90719140625,-0.011654197436571121,0.031543431515991684,-0.06799348590448498
1780100325650184700,10.917184814453124,-0.03472936807572841,0.015608780281245708,-0.06228511819504201
1780100325660177400,10.927177490234374,-0.056013563644886015,-0.005615063402801752,-0.06141728585194796
1780100325670170600,10.937170654296875,-0.01692015514075756,-0.001996872905641794,-0.0468255005935207
1780100325680164600,10.94716455078125,0.010106383472681045,-0.02165171370729804,-0.042586383452732114
1780100325690157300,10.9571572265625,0.011610358294844627,-0.05480915629118681,-0.028188312401808798
1780100325700150500,10.967150634765625,0.025668109741806982,-0.06873188318163156,-0.018484207853395492
1780100325710143500,10.9771435546875,0.018806991800665855,-0.09554887069761753,-0.018629936467017976
1780100325720136700,10.98713671875,0.030721301478147504,-0.11097586467117071,-0.02664844428235665
1780100325730129400,10.99712939453125,0.017228782698512076,-0.11259513643607497,-0.018092194594815373
1780100325740122600,11.00712255859375,0.026793314379453658,-0.11424874886199832,-0.011387691987492144
1780100325750116600,11.01711669921875,0.019573299998044965,-0.10291370037719606,0.015595646805036813
1780100325760109300,11.027109375,0.004494388809800148,-0.0854372265279293,0.01933541785525158
1780100325770102500,11.0371025390625,-0.00749240158200264,-0.05113222134411335,0.03465159013178199
1780100325780095500,11.047095458984375,-0.014579729494452475,-0.03160524470582604,0.04907506961859762
1780100325790088400,11.05708837890625,-0.00239420166015625,0.006660334672033787,0.053649556193593885
1780100325800081400,11.067081298828125,0.03224047386944294,0.024104952078312633,0.05269304092004895
1780100325810074600,11.07707470703125,0.0321592253267765,0.044197307514399285,0.04716525394190103
1780100325820068600,11.087068603515625,0.03447451653182507,0.06318184783905745,0.02853729023626074
1780100325830061300,11.097061279296875,0.04308393944501877,0.06265241713747381,0.012462225883826613
1780100325840054500,11.107054443359376,0.04257365183532238,0.06571136631667614,-0.009412702120095491
1780100325850047500,11.117047607421876,0.022303017222881315,0.04733750523626804,-0.03878262552190572
1780100325860040400,11.12704052734375,0.0335883813470602,0.042057519006729126,-0.06394559875316917
1780100325870033400,11.137033447265624,0.014306173250079154,0.016678601469844578,-0.06960241893846542
1780100325880026600,11.147026611328124,-0.00485854594707489,-0.006914747824519872,-0.07912004273775965
1780100325890019300,11.157019287109375,0.009633505263924598,-0.022639555700868366,-0.06909227745924144
1780100325900013600,11.167013671875,0.01799509089589119,-0.03215659497827291,-0.06138446129458025
1780100325910006500,11.177006591796875,0.05496610041856766,-0.058570554651319974,-0.05107325769849121
1780100325919999500,11.18699951171875,0.06010346330702304,-0.04266805212050676,-0.04558514514360577
1780100325929992400,11.196992431640625,0.044510757377743716,-0.03784048583358526,-0.02385912409108132
1780100325939985400,11.2069853515625,0.02986614595353603,-0.026262568503618237,-0.003222724906168878
1780100325949978600,11.216978515625,0.018247604352235793,-0.028476006769388912,0.00555449232198298
1780100325959971300,11.226971435546876,-0.0170142631649971,-0.02867810521274805,-0.0015354659389704465
1780100325969964500,11.236964599609376,-0.017706337082386017,-0.013159487432986497,0.010532792191207408
1780100325979958500,11.24695849609375,0.004001636856794357,-0.02326294829621911,0.0128260176949203
1780100325989951500,11.256951416015625,-0.013525836527347564,-0.034725130292028186,0.003874138019606471
1780100325999944400,11.2669443359375,-0.023763152903318405,-0.03240034060627222,0.004078647615760564
1780100326009937400,11.2769375,-0.019043138644099233,-0.04807867899239063,0.00575432574301958
1780100326019930600,11.2869306640625,-0.011775193467736244,-0.05216054147854447,-0.012520385811850427
1780100326029923300,11.29692333984375,-0.03590893324911594,-0.0517367631085217,-0.013802607642114162
1780100326039916500,11.30691650390625,-0.010352467188239097,-0.05908128065243363,-0.016356383778154848
1780100326049910500,11.31691064453125,-0.023226561808586118,-0.05405059300884604,-0.027746779179386793
1780100326059903700,11.32690380859375,-0.0371481196552515,-0.056665305551886556,-0.029456249978393315
1780100326069896400,11.336896484375,-0.01710661762356758,-0.044780806490778924,-0.03960906640868634
1780100326079889400,11.346889404296874,-0.01369067170023918,-0.027219430837035177,-0.027072971571050583
1780100326089882600,11.356882568359374,-0.0001835398733615875,-0.026499007607996464,-0.0192508265780285
1780100326099875300,11.366875244140624,0.013744447714090346,-0.016515081471204757,-0.0018188494576141237
1780100326109868500,11.37686865234375,0.02933773816525936,0.00789104551076889,-0.01104249527901411
1780100326119861500,11.386861572265625,0.0193453364610672,-0.0005855448029935359,-0.0013873992377892135
1780100326129855700,11.396855712890625,0.011024667361378668,0.006866232507675886,-0.026558373112417755
1780100326139848400,11.406848388671875,0.013190320962667465,0.005162497329711913,-0.02486168872974813
1780100326149841700,11.416841552734375,0.003235328659415245,0.01012464978173375,-0.034030791352316736
1780100326159834600,11.426834716796876,0.023815759873390196,0.002433364626765251,-0.046074061171710486
1780100326169827600,11.43682763671875,0.024505495703220366,-0.003561345743387937,-0.05569437816049903
1780100326179820500,11.446820556640626,0.03028407910466194,-0.003771335232257843,-0.04577591847535222
1780100326189813500,11.4568134765625,0.02517594231069088,-0.0010709902323782444,-0.04844389557559043
1780100326199806500,11.466806396484374,0.03713116852045059,-0.0013926234021782874,-0.037021314937807616
1780100326209800400,11.476800537109375,0.06210545077919959,-0.006297346578538417,-0.004825703123398125
1780100326219793700,11.486793701171875,0.05386661474406719,-0.021821225055307147,0.004536291722767055
1780100326229786600,11.49678662109375,0.05507131435871124,-0.02629720142558217,0.01199585048109293
1780100326239779600,11.506779541015625,0.05327332502603531,-0.03870981601402163,0.0103572164285928
1780100326249772500,11.5167724609375,0.03666179744303226,-0.034086978518962856,0.022898170104436576
1780100326259765500,11.526765625,0.022442133432626722,-0.03392141269370913,0.017831826625578105
1780100326269758500,11.536758544921875,0.021529694762825964,-0.009431406820565461,-0.0024435937598347663
1780100326279751400,11.54675146484375,0.011329787787795066,-0.008937924215197563,0.015900054845400153
1780100326289745700,11.55674560546875,0.0015805471897125244,-0.0031054186694324014,-0.006708228934369981
1780100326299738600,11.566738525390624,-0.03256722160577774,0.00835442523881793,-0.012169563080184161
1780100326309731600,11.576731689453124,-0.015268880802392958,0.012070084761083125,-0.006269654854014516
1780100326319724500,11.586724609375,-0.01863163523375988,0.0017661328896880148,-0.006380787078291177
1780100326329717800,11.5967177734375,-0.012555530190467833,0.0009239829771220683,-0.008242050905525685
1780100326339710500,11.60671044921875,-0.012307108387351036,-0.005705225904285908,-0.004947868198342621
1780100326349703400,11.616703369140625,-0.031191841599345207,-0.01384235513061285,0.0010739128418266772
1780100326359696600,11.626696533203125,-0.028226562052965164,-0.030215543913096186,0.008504208973050117
1780100326369690400,11.6366904296875,-0.023595395120978354,-0.04235927843227982,0.013653591092862188
1780100326379683600,11.64668359375,-0.03452127828299999,-0.04978226803988218,0.006674911186657846
1780100326389676500,11.656676513671876,-0.024954408514499662,-0.05568024003729224,0.003523205690085888
1780100326399669800,11.666669677734374,-0.017794015365839005,-0.05242094598039984,0.009287577903084456
1780100326409662500,11.676662353515624,-0.004936871880292892,-0.03774140937328339,-0.019948709181696174
1780100326419655700,11.68665576171875,0.01584521938562393,-0.025141309388726947,-0.03353237684350461
1780100326429648600,11.696648681640625,0.0230225636690855,-0.009441343692690134,-0.03664301967732608
1780100326439641600,11.7066416015625,0.01867079820036888,-0.010397913765162229,-0.04317928957827389
1780100326449635600,11.716635498046875,0.02254384024143219,0.0007211538814008235,-0.05034888894669711
1780100326459628500,11.726628662109375,-0.0018733926564455032,0.009117664696276187,-0.048113494577445085
1780100326469621500,11.73662158203125,-0.004303250151872635,-0.00015314473509788512,-0.03623305063694715
1780100326479614500,11.746614501953125,-0.005665186154842377,-0.006330079804360866,-0.04762914512660354
1780100326489607700,11.756607666015626,0.014085808497667312,-0.01704100504145026,-0.03453494148217141
1780100326499600400,11.766600341796876,0.0212754277408123,-0.04562982453554868,-0.02808660559300333
1780100326509593600,11.776593505859376,0.025173604223132133,-0.05993526713326573,-0.016016849625483155
1780100326519586600,11.786586669921874,0.03609598025381565,-0.05503127460926771,-0.011484905284270644
1780100326529579500,11.79657958984375,0.033087446087598796,-0.04465659558922052,-0.02011171772368252
1780100326539573500,11.806573486328125,0.046963411226868625,-0.02960691049546003,-0.013822225658036768
1780100326549566500,11.81656640625,0.044969022539258004,-0.013906944799423218,-0.01694364561419934
1780100326559559700,11.8265595703125,0.025188217270374298,0.010424801772087811,-0.04245740504451096
1780100326569552400,11.836552490234375,0.0166962832570076,0.04316971803233027,-0.046177813807129854
1780100326579545600,11.846545654296875,-0.0012099603116512297,0.05823270099908113,-0.05688212664034217
1780100326589538600,11.85653857421875,-0.019418986219167707,0.05214563617035746,-0.05985854863524437
1780100326599531500,11.866531494140625,-0.031308745977282525,0.03786751997098326,-0.0482837365778163
1780100326609524500,11.8765244140625,-0.019014497071504592,0.015529577565193175,-0.010566840591281651
1780100326619518500,11.8865185546875,-0.0017278467059135437,-0.013640548948198557,0.01948496412746608
1780100326629511700,11.89651171875,0.03310965791940689,-0.03519157875999808,0.04424019680805504
1780100326639504400,11.90650439453125,0.00936111806333065,-0.05661912832260132,0.06768896826626733
1780100326649497600,11.91649755859375,0.007888122901320457,-0.07577858682274818,0.08150101959016173
1780100326659490600,11.926490478515625,0.015236732098460196,-0.06544701629206538,0.0623978213218972
1780100326669483500,11.9364833984375,-0.01721124704182148,-0.06163783326745033,0.044108204458840186
1780100326679476500,11.9464765625,-0.03486673071980476,-0.03340104208141565,0.012087437754683196
1780100326689469700,11.9564697265625,-0.04058686193227768,-0.004695025948435068,-0.010223726242035627
1780100326699462400,11.96646240234375,-0.03362286813855171,0.015385639049857854,-0.03050440732445568
1780100326709456400,11.976456298828126,-0.03985328696072101,0.02109174173697829,-0.04179565320014953
1780100326719449600,11.98644970703125,-0.0167658413618803,0.004942278707772493,-0.05301598926410079
1780100326729442600,11.996442626953124,-0.0035486323922872542,0.004185907382518053,-0.04006389750409871
1780100326739435500,12.006435546875,0.023753216031193732,-0.005309942976385354,-0.030120230312459167
1780100326749428500,12.016428466796874,0.04928104051947593,-0.02393675590455532,-0.018289215004257856
1780100326759421700,12.026421630859375,0.0519184032857418,-0.0331812618508935,-0.02284264052491635
1780100326769414400,12.036414306640625,0.0367430459856987,-0.03709901981651783,-0.0017884908519685268
1780100326779407600,12.04640771484375,0.032192543074488635,-0.040841128954291345,-0.006485124235600233
1780100326789400600,12.056400634765625,0.015820669466257094,-0.027086159846186637,-0.025639906560629606
1780100326799394600,12.06639453125,0.010255436554551123,-0.01601093134135008,-0.02967931814454496
1780100326809387500,12.076387451171875,0.004847440031170845,-0.0026920155629515646,-0.036930458316579456
1780100326819380500,12.08638037109375,0.005417348873615265,0.011980068390071392,-0.03902290055118501
1780100326829373700,12.096373779296876,0.015251929667592048,0.0027718028008937834,-0.0368200567446649
1780100326839366400,12.106366455078126,0.025509119787812232,0.01615662342235446,-0.018400785619951784
1780100326849359600,12.116359619140624,0.039329555347561836,0.006299538535624742,-0.01654156761933118
1780100326859352600,12.1263525390625,0.021392332118749618,-0.004640227021276951,-0.012404906206019223
1780100326869345500,12.136345458984374,0.005811316627264022,-0.014344167172908782,-0.005233005282655358
1780100326879338500,12.14633837890625,0.007613982135057449,0.0007600245870649815,-0.008600545486994087
1780100326889332500,12.15633251953125,-0.021654197925329206,0.0037613983601331707,-0.009991890247538686
1780100326899325700,12.16632568359375,-0.023367431584000585,0.008702215763181448,-0.02349485735595226
1780100326909318400,12.176318359375,-0.020158990931510926,0.005036825123429298,-0.024338541638478636
