time,seconds_elapsed,z,y,x
1780100314777571600,0.044571533203125,0.049734245985746384,-0.21012131869792938,-0.07724609971046448
1780100314787564800,0.054564697265625,0.0668325424194336,-0.17735876142978668,0.013957721181213856
1780100314797557800,0.064557861328125,0.06807836890220642,-0.09981416165828705,0.0783873051404953
1780100314807551700,0.0745517578125,0.0595843531191349,0.0019011732656508684,0.10823090374469757
1780100314817544700,0.084544677734375,0.049738381057977676,0.0869782492518425,0.11241446435451508
1780100314827537700,0.09453759765625,0.03272370994091034,0.1257028877735138,0.08795531839132309
1780100314837531000,0.10453076171875,0.01948860101401806,0.11324276030063629,0.036489199846982956
1780100314847524900,0.11452490234375,0.026453424245119095,0.11669755727052689,0.011772189289331436
1780100314857517800,0.124517822265625,0.0413450226187706,0.07093113660812378,0.01685723103582859
1780100314867510800,0.1345107421875,0.05386108532547951,-0.020640280097723007,0.03185443580150604
1780100314877504800,0.1445048828125,0.06799687445163727,-0.0732523575425148,0.04133102670311928
1780100314887497700,0.154497802734375,0.09721003472805023,-0.06573443114757538,0.047393132001161575
1780100314897490700,0.16449072265625,0.11770332604646683,-0.053983233869075775,0.04464208707213402
1780100314907484000,0.17448388671875,0.13070246577262878,-0.07509009540081024,0.026949217543005943
1780100314917478000,0.184477783203125,0.11994808912277222,-0.11610517650842667,-0.021010851487517357
1780100314927470600,0.194470703125,0.10462985932826996,-0.13652651011943817,-0.09445083886384964
1780100314937463800,0.2044638671875,0.0937226191163063,-0.11079824715852737,-0.17154428362846375
1780100314947456800,0.214456787109375,0.08588413149118423,-0.07031303644180298,-0.21926788985729218
1780100314957450800,0.22445068359375,0.0671466663479805,-0.05832001939415932,-0.21042272448539734
1780100314967443700,0.234443603515625,0.03269748017191887,-0.07176779210567474,-0.15158343315124512
1780100314977436400,0.2444365234375,0.002010142430663109,-0.06258601695299149,-0.06437396258115768
1780100314987429600,0.2544296875,-0.008064058609306812,-0.014752515591681004,0.01908019557595253
1780100314997423600,0.264423583984375,-0.010692066513001919,0.03223656490445137,0.06408415734767914
1780100315007416800,0.274416748046875,-0.017939459532499313,0.05763973295688629,0.05599726736545563
1780100315017409500,0.284409423828125,-0.03091171756386757,0.06879598647356033,0.01136055588722229
1780100315027402800,0.29440283203125,-0.04482033848762512,0.09150157868862152,-0.03749418631196022
1780100315037396700,0.304396728515625,-0.05081964284181595,0.09846121817827225,-0.07677820324897766
1780100315047389700,0.3143896484375,-0.0443606860935688,0.08940359205007553,-0.10595915466547012
1780100315057382700,0.324382568359375,-0.022608518600463867,0.0885218158364296,-0.10940422117710114
1780100315067375600,0.334375732421875,0.011498591862618923,0.08247169852256775,-0.09485682100057602
1780100315077369600,0.34436962890625,0.0460701510310173,0.058373287320137024,-0.06070231646299362
1780100315087362800,0.35436279296875,0.06940356642007828,0.03633106127381325,-0.007221318781375885
1780100315097355500,0.36435546875,0.06567833572626114,0.03259783983230591,0.026165135204792023
1780100315107348700,0.3743486328125,0.058415092527866364,0.061539892107248306,0.028069159016013145
1780100315117342700,0.3843427734375,0.04955901950597763,0.08556267619132996,0.005813387222588062
1780100315127335400,0.39433544921875,0.020707400515675545,0.05476374551653862,-0.02185019850730896
1780100315137328600,0.40432861328125,-0.006526752840727568,0.055105771869421005,-0.031595438718795776
1780100315147321600,0.414321533203125,-0.008508016355335712,0.08193539828062057,-0.03615391626954079
1780100315157315800,0.42431591796875,-0.004241100046783686,0.10485988855361938,-0.04019739106297493
1780100315167308500,0.43430859375,0.010769136250019073,0.09302052855491638,-0.034336917102336884
1780100315177301800,0.4443017578125,0.021601542830467224,0.0710316076874733,-0.01637575961649418
1780100315187295700,0.454295654296875,0.029816485941410065,0.0606667697429657,0.012840157374739647
1780100315197288700,0.464288818359375,0.03289909288287163,0.0656822994351387,0.040879249572753906
1780100315207281700,0.47428173828125,0.01690959930419922,0.06239868700504303,0.048116303980350494
1780100315217274600,0.484274658203125,-0.009885796345770359,0.02333810366690159,0.03537813946604729
1780100315227268600,0.4942685546875,-0.020713679492473602,0.0069667380303144455,0.030740108340978622
1780100315237261800,0.50426171875,-0.032890982925891876,0.01896534487605095,0.027085451409220695
1780100315247254500,0.514254638671875,-0.028921540826559067,0.013270972296595573,0.013268706388771534
1780100315257247700,0.524247802734375,-0.018989814445376396,0.010253611020743847,-0.0013366021448746324
1780100315267241700,0.53424169921875,-0.006302647292613983,0.007972422055900097,-0.015302153304219246
1780100315277234400,0.544234375,0.01508333534002304,-0.005295978393405676,-0.026621919125318527
1780100315287227600,0.5542275390625,0.021155869588255882,-0.010991079732775688,-0.0265971627086401
1780100315297220600,0.564220703125,0.011386595666408539,-0.03272220864892006,-0.03666524216532707
1780100315307214800,0.57421484375,0.0005058608949184418,-0.05370558053255081,-0.05748947709798813
1780100315317207600,0.58420751953125,-0.011184616945683956,-0.04197276011109352,-0.07224126160144806
1780100315327200800,0.59420068359375,-0.020414870232343674,-0.02257559262216091,-0.07890209555625916
1780100315337193700,0.60419384765625,-0.02502826228737831,-0.02171805314719677,-0.07416859269142151
1780100315347187700,0.614187744140625,-0.02033231407403946,-0.01882023550570011,-0.055198635905981064
1780100315357180700,0.6241806640625,-0.02484983392059803,0.0011870296439155936,-0.033542077988386154
1780100315367173600,0.634173583984375,-0.029948988929390907,0.02252279408276081,-0.020876213908195496
1780100315377166800,0.644166748046875,-0.029210759326815605,0.051079072058200836,-0.007162000983953476
1780100315387160600,0.65416064453125,-0.03178829699754715,0.06659498810768127,0.000261892331764102
1780100315397153500,0.664153564453125,-0.04821361228823662,0.04365319013595581,-0.0064042662270367146
1780100315407146800,0.674146728515625,-0.06560101360082626,0.016424542292952538,-0.02699127048254013
1780100315417139700,0.6841396484375,-0.07383337616920471,0.006705602630972862,-0.061669621616601944
1780100315427133400,0.694133544921875,-0.06366566568613052,0.005509850103408098,-0.10137449949979782
1780100315437126700,0.704126708984375,-0.04770800098776817,-0.004226666875183582,-0.11906694620847702
1780100315447119600,0.71411962890625,-0.033142514526844025,-0.025903288275003433,-0.12088849395513535
1780100315457112600,0.724112548828125,-0.012363467365503311,-0.03351246938109398,-0.10478249937295914
1780100315467106600,0.7341064453125,0.011881140060722828,-0.011600876227021217,-0.0732474997639656
1780100315477099800,0.744099853515625,0.026736784726381302,-0.002892871852964163,-0.04715890809893608
1780100315487092700,0.7540927734375,0.02565154805779457,-0.017218582332134247,-0.038258615881204605
1780100315497086700,0.764086669921875,0.016888417303562164,-0.026730595156550407,-0.03623061999678612
1780100315507079700,0.77407958984375,0.009646357968449593,-0.016569331288337708,-0.038056135177612305
1780100315517072600,0.78407275390625,0.00340257678180933,-0.01212850958108902,-0.03781432285904884
1780100315527065900,0.79406591796875,-0.006031140685081482,-0.0011729135876521468,-0.028356241062283516
1780100315537059600,0.8040595703125,-0.014457914978265762,0.008210468105971813,-0.01339593343436718
1780100315547052500,0.814052490234375,-0.011756937019526958,0.017777075991034508,0.001834152382798493
1780100315557045800,0.824045654296875,-0.005203830543905497,0.017057564109563828,0.010892693884670734
1780100315567038500,0.83403857421875,0.002268334850668907,-0.0061994800344109535,0.008057024329900742
1780100315577032400,0.844032470703125,0.010392839089035988,-0.019462287425994873,-0.00271279807202518
1780100315587025700,0.854025634765625,0.02139662392437458,-0.02387886866927147,-0.013912912458181381
1780100315597018600,0.8640185546875,0.029431914910674095,-0.02118135243654251,-0.020206494256854057
1780100315607011600,0.874011474609375,0.03514000028371811,-0.020585527643561363,-0.023770803585648537
1780100315617005600,0.884005615234375,0.03479059040546417,-0.015447757206857204,-0.022811533883213997
1780100315626998800,0.893998779296875,0.029367875307798386,-0.012821787968277931,-0.01921704038977623
1780100315636991700,0.90399169921875,0.014539924450218678,-0.01918567717075348,-0.021716950461268425
1780100315646984700,0.913984619140625,0.0026979073882102966,-0.01126023754477501,-0.02322937734425068
1780100315656978700,0.923978759765625,-0.01094573363661766,0.026630152016878128,-0.023559875786304474
1780100315666971600,0.9339716796875,-0.021486664190888405,0.04789057746529579,-0.022594159469008446
1780100315676964900,0.94396484375,-0.032624803483486176,0.05760738626122475,-0.022589899599552155
1780100315686957600,0.95395751953125,-0.03740585595369339,0.05046659708023071,-0.015630481764674187
1780100315696951600,0.96395166015625,-0.02976498007774353,0.0231324452906847,-0.01890217512845993
1780100315706944800,0.97394482421875,-0.02329520881175995,-0.004254485480487347,-0.034224968403577805
1780100315716937500,0.9839375,-0.01231845747679472,-0.023604746907949448,-0.054321181029081345
1780100315726930700,0.9939306640625,-0.0039548082277178764,-0.03616571053862572,-0.07875889539718628
1780100315736924700,1.003924560546875,-0.006571363657712936,-0.047107573598623276,-0.1023382619023323
1780100315746917600,1.013917724609375,-0.013567217625677586,-0.0454292818903923,-0.1052863746881485
1780100315756910600,1.02391064453125,-0.01518988236784935,-0.019820859655737877,-0.08884161710739136
1780100315766903600,1.033903564453125,-0.01863667368888855,0.0024391445331275463,-0.05898377299308777
1780100315776897800,1.043897705078125,-0.011551866307854652,0.015612736344337463,-0.025583205744624138
1780100315786890800,1.053890869140625,-0.002086467109620571,0.027176205068826675,-0.0011046510189771652
1780100315796883500,1.063883544921875,0.009040485136210918,0.03213047981262207,0.009146122261881828
1780100315806876700,1.073876708984375,0.01713261753320694,0.030453316867351532,0.010369488038122654
1780100315816870700,1.08387060546875,0.020219486206769943,0.021981002762913704,0.0005517441313713789
1780100315826863900,1.09386376953125,0.015868835151195526,0.009228676557540894,-0.010512921027839184
1780100315836856600,1.103856689453125,0.008334219455718994,-0.01745140366256237,-0.024915561079978943
1780100315846849800,1.113849853515625,0.006028464064002037,-0.027809560298919678,-0.03679762780666351
1780100315856843800,1.12384375,0.0049331048503518105,-0.020551647990942,-0.04864683002233505
1780100315866836500,1.13383642578125,0.0034748753532767296,-0.01569353975355625,-0.05913739651441574
1780100315876829700,1.14382958984375,0.004615508019924164,-0.005986051633954048,-0.05691312626004219
1780100315886822700,1.15382275390625,0.007590265944600105,0.0002608229697216302,-0.040482472628355026
1780100315896816600,1.163816650390625,0.011912042275071144,-0.008196045644581318,-0.021091463044285774
1780100315906809600,1.1738095703125,0.009802679531276226,-0.020581163465976715,-0.007456295192241669
1780100315916802600,1.183802490234375,0.0069395145401358604,-0.022386521100997925,-0.012084336951375008
1780100315926796800,1.193796875,0.00827336497604847,0.0056015606969594955,-0.01722535863518715
1780100315936789800,1.203789794921875,0.0004948033019900322,0.031295206397771835,-0.021824371069669724
1780100315946782500,1.213782470703125,-0.006857912056148052,0.04486246034502983,-0.017752252519130707
1780100315956775700,1.223775634765625,-0.014354710467159748,0.043083202093839645,-0.010620039887726307
1780100315966770700,1.233770751953125,-0.023063652217388153,0.02595309540629387,-0.015254417434334755
1780100315976763600,1.243763671875,-0.02448311634361744,0.0004139140364713967,-0.032873090356588364
1780100315986756900,1.2537568359375,-0.009447703137993813,-0.006598941050469875,-0.057670172303915024
1780100315996749600,1.26374951171875,0.005404745228588581,-0.02074352279305458,-0.0876416563987732
1780100316006743600,1.27374365234375,0.01734689623117447,-0.04528089612722397,-0.11276377737522125
1780100316016736800,1.28373681640625,0.026998993009328842,-0.07092633843421936,-0.12341908365488052
1780100316026729500,1.2937294921875,0.02133151888847351,-0.07853338867425919,-0.1285211592912674
1780100316036722700,1.30372265625,-0.0012311916798353195,-0.08521676063537598,-0.12787224352359772
1780100316046716700,1.313716552734375,-0.007110779173672199,-0.07781054079532623,-0.11894791573286057
1780100316056710000,1.3237099609375,-0.016796164214611053,-0.04325202852487564,-0.10641907155513763
1780100316066702600,1.33370263671875,-0.028577055782079697,-0.028583792969584465,-0.09476368129253387
1780100316076695800,1.34369580078125,-0.04202308878302574,-0.02356879413127899,-0.07317876070737839
1780100316086689800,1.353689697265625,-0.047246478497982025,-0.0007209625327959657,-0.03263472393155098
1780100316096682800,1.363682861328125,-0.04588373750448227,0.02901323139667511,0.014309082180261612
1780100316106675700,1.37367578125,-0.04513539746403694,0.05428140610456467,0.06054127588868141
1780100316116668700,1.383668701171875,-0.04122694209218025,0.07504234462976456,0.09158148616552353
1780100316126662700,1.39366259765625,-0.03585441783070564,0.06951745599508286,0.107762910425663
1780100316136656000,1.40365576171875,-0.02523905783891678,0.04466164857149124,0.09892547875642776
1780100316146648600,1.413648681640625,-0.01385138463228941,0.017807845026254654,0.07393902540206909
1780100316156641800,1.423641845703125,-0.007500011939555407,-0.015070210210978985,0.035636913031339645
1780100316166635800,1.4336357421875,-0.0013477085158228874,-0.035625241696834564,-0.010051942430436611
1780100316176628500,1.44362841796875,0.005269448272883892,-0.02544211596250534,-0.03915523365139961
1780100316186621700,1.45362158203125,0.013106600381433964,-0.01786370761692524,-0.049242887645959854
1780100316196614700,1.46361474609375,0.010334515012800694,-0.01242606621235609,-0.035937465727329254
1780100316206609000,1.47360888671875,0.005606073886156082,0.008113146759569645,-0.005608453415334225
1780100316216601600,1.4836015625,0.011093251407146454,0.03592027723789215,0.030884044244885445
1780100316226594600,1.493594482421875,0.017078440636396408,0.039524830877780914,0.05296085402369499
1780100316236587800,1.503587890625,0.02082284539937973,0.027435943484306335,0.05529538169503212
1780100316246581800,1.513581787109375,0.018933594226837158,0.020625127479434013,0.03201228380203247
1780100316256574700,1.52357470703125,0.009891361929476261,0.007831036113202572,0.004046429879963398
1780100316266567700,1.533567626953125,-0.0026032542809844017,-0.011768341064453125,-0.02157164178788662
1780100316276561700,1.543561767578125,-0.012391169555485249,-0.021820709109306335,-0.03221442922949791
1780100316286555000,1.553554931640625,-0.014737936668097973,-0.021159503608942032,-0.021779740229249
1780100316296547600,1.563547607421875,-0.013430058024823666,-0.012273065745830536,0.0019109417917206883
1780100316306540800,1.573540771484375,-0.007831171154975891,0.013206824660301208,0.028021015226840973
1780100316316534800,1.58353466796875,0.00860505923628807,0.057299986481666565,0.03307915851473808
1780100316326527500,1.593527587890625,0.01905650645494461,0.05855939909815788,0.0034012317191809416
1780100316336520700,1.603520751953125,0.020542284473776817,0.025199044495821,-0.043217938393354416
1780100316346513700,1.613513671875,0.022029122337698936,-0.013441072776913643,-0.08801484853029251
1780100316356508000,1.6235078125,0.027660375460982323,-0.048038728535175323,-0.12711405754089355
1780100316366500600,1.63350048828125,0.0357087105512619,-0.06608343869447708,-0.153641015291214
1780100316376493600,1.64349365234375,0.043612439185380936,-0.06334837526082993,-0.16473786532878876
1780100316386486800,1.65348681640625,0.05097422003746033,-0.06047089770436287,-0.1709454208612442
1780100316396480800,1.663480712890625,0.05967077612876892,-0.09527255594730377,-0.18359144032001495
1780100316406473700,1.6734736328125,0.08166874945163727,-0.12467716634273529,-0.19619737565517426
1780100316416466700,1.683466796875,0.11993491649627686,-0.14122526347637177,-0.22732014954090118
1780100316426460000,1.6934599609375,0.16642798483371735,-0.14344429969787598,-0.26249322295188904
1780100316436453600,1.70345361328125,0.20834879577159882,-0.1653197705745697,-0.2930399477481842
1780100316446446600,1.713446533203125,0.23916904628276825,-0.22390981018543243,-0.31765979528427124
1780100316456439800,1.723439697265625,0.25763219594955444,-0.2964668273925781,-0.3369043469429016
1780100316466432800,1.733432861328125,0.26959162950515747,-0.35687097907066345,-0.34771546721458435
1780100316476426500,1.743426513671875,0.2736758589744568,-0.3961770832538605,-0.3597114086151123
1780100316486419700,1.753419677734375,0.269880473613739,-0.4067879319190979,-0.3799741268157959
1780100316496412700,1.76341259765625,0.26752808690071106,-0.390226274728775,-0.40986543893814087
1780100316506405600,1.773405517578125,0.27170446515083313,-0.25920310616493225,-0.41834256052970886
1780100316516399600,1.783399658203125,0.32092902064323425,-0.4323700964450836,-0.44032561779022217
1780100316526392600,1.793392578125,0.282875657081604,-0.647391140460968,-0.4440010190010071
1780100316536385800,1.8033857421875,0.23622743785381317,-0.783686101436615,-0.3900347352027893
1780100316546378500,1.81337841796875,0.27071964740753174,-1.1417418718338013,-0.2751840651035309
1780100316556372700,1.823372802734375,0.1138642430305481,-1.1294630765914917,-0.30737608671188354
1780100316566365700,1.83336572265625,0.1703251153230667,-0.5490738749504089,-0.3723190128803253
1780100316576359000,1.84335888671875,0.3653199076652527,-0.3162265419960022,-0.48689591884613037
1780100316586352600,1.8533525390625,0.3277967572212219,-0.44068384170532227,-0.7119160890579224
1780100316596345600,1.863345703125,0.2557995319366455,-0.5349423885345459,-0.9057769179344177
1780100316606338800,1.8733388671875,0.17968493700027466,-0.663809597492218,-1.065731406211853
1780100316616331500,1.88333154296875,0.11650650948286057,-0.8924369215965271,-1.2151981592178345
1780100316626325500,1.893325439453125,0.08506721258163452,-1.1935640573501587,-1.2869607210159302
1780100316636318700,1.903318603515625,0.03485943377017975,-1.319898009300232,-1.2120084762573242
1780100316646311700,1.913311767578125,0.0073349978774785995,-1.022449254989624,-1.0520572662353516
1780100316656304600,1.9233046875,0.09859567135572433,-0.531575620174408,-0.8919808864593506
1780100316666298600,1.933298583984375,0.10607914626598358,-0.11843342334032059,-0.8078733086585999
1780100316676291600,1.94329150390625,0.028169170022010803,0.15625113248825073,-0.748910129070282
1780100316686284800,1.953284912109375,-0.10689009726047516,0.2821272611618042,-0.7199814319610596
1780100316696277500,1.963277587890625,-0.20347577333450317,0.31208035349845886,-0.6968460083007812
1780100316706271700,1.973271728515625,-0.1493917554616928,0.21901725232601166,-0.6236597299575806
1780100316716264700,1.9832646484375,-0.13469935953617096,0.13603688776493073,-0.6142374277114868
1780100316726258000,1.9932578125,-0.08468107879161835,0.07488905638456345,-0.6166685819625854
1780100316736250600,2.003250732421875,0.0269306693226099,-0.21108278632164001,-0.6343841552734375
1780100316746244600,2.01324462890625,0.039854444563388824,-0.3870004117488861,-0.7369670271873474
1780100316756237800,2.02323779296875,0.12752065062522888,-0.40004536509513855,-0.8978120684623718
1780100316766230500,2.03323046875,0.3297025263309479,-0.44988253712654114,-1.1089224815368652
1780100316776223700,2.0432236328125,0.5469669103622437,-0.5732795596122742,-1.3205060958862305
1780100316786217700,2.0532177734375,0.7478712797164917,-0.6388179063796997,-1.5185227394104004
1780100316796210700,2.063210693359375,0.8790441751480103,-0.5413033366203308,-1.7309976816177368
1780100316806203600,2.07320361328125,1.016910433769226,-0.2773810625076294,-1.9271478652954102
1780100316816196600,2.083196533203125,1.291428565979004,-0.27651554346084595,-2.0447912216186523
1780100316826190600,2.093190673828125,1.3667949438095093,-0.29213371872901917,-2.2108473777770996
1780100316836183800,2.103183837890625,1.444373607635498,-0.44403111934661865,-2.238874673843384
1780100316846176500,2.113176513671875,1.2192059755325317,-0.5160372257232666,-2.473201274871826
1780100316856169700,2.123169677734375,1.0086687803268433,-0.982317328453064,-2.882181406021118
1780100316866163700,2.133163818359375,0.8475061058998108,-1.669992208480835,-3.3192436695098877
1780100316876157000,2.143156982421875,0.7471627593040466,-2.1085212230682373,-3.7484731674194336
1780100316886149600,2.153149658203125,0.7844368815422058,-2.091867446899414,-4.167593479156494
1780100316896142800,2.163142822265625,0.8571789860725403,-2.1058921813964844,-4.58587646484375
1780100316906136800,2.17313671875,0.8796870708465576,-2.303169012069702,-5.129565238952637
1780100316916129500,2.183129638671875,0.9464495778083801,-2.684396266937256,-5.644143581390381
1780100316926122800,2.193122802734375,1.0411685705184937,-3.170262575149536,-6.050884246826172
1780100316936115700,2.20311572265625,1.1613682508468628,-3.39496111869812,-6.377267360687256
1780100316946109700,2.213109619140625,1.2520651817321777,-3.266841411590576,-6.592941761016846
1780100316956102700,2.2231025390625,1.2737033367156982,-2.7938294410705566,-6.705850124359131
1780100316966094800,2.2330947265625,1.2545745372772217,-2.24546217918396,-6.784786224365234
1780100316976087800,2.243087890625,0.9378405809402466,0.598752498626709,-5.810376167297363
1780100316986081800,2.253081787109375,0.12947556376457214,3.4022655487060547,-3.811619758605957
1780100316996075000,2.263074951171875,-0.5566889047622681,3.489548921585083,-1.9315005540847778
1780100317006068000,2.27306787109375,-0.8866404891014099,2.6704230308532715,-0.34615203738212585
1780100317016062000,2.28306201171875,-1.2213209867477417,2.2259016036987305,0.9435476064682007
1780100317026055000,2.293054931640625,-1.600862979888916,1.8349336385726929,1.911696434020996
1780100317036048000,2.3030478515625,-1.8689645528793335,1.0405542850494385,2.5868372917175293
1780100317046041000,2.313041015625,-1.8679563999176025,-0.33306095004081726,3.0611820220947266
1780100317056034800,2.323034912109375,-1.7003601789474487,-1.189531922340393,3.4046292304992676
1780100317066027800,2.33302783203125,-1.448614239692688,-0.020958341658115387,3.49037504196167
1780100317076021000,2.34302099609375,-0.8060451745986938,3.1762092113494873,2.6539382934570312
1780100317086013700,2.353013671875,0.11843781173229218,5.475246906280518,1.2784136533737183
1780100317096008000,2.363008056640625,0.9672000408172607,5.437582015991211,0.10989709943532944
1780100317106001000,2.3730009765625,1.6225886344909668,3.9131345748901367,-0.8795669078826904
1780100317115993900,2.382993896484375,2.00844144821167,2.3990085124969482,-1.6346771717071533
1780100317125986800,2.39298681640625,2.091240406036377,1.6569592952728271,-1.9055297374725342
1780100317135980800,2.402980712890625,1.9036386013031006,1.5765925645828247,-1.5437628030776978
1780100317145974000,2.41297412109375,1.5023510456085205,2.069283962249756,-0.7206129431724548
1780100317155967000,2.422967041015625,1.0529193878173828,2.944859743118286,0.22910305857658386
1780100317165960000,2.4329599609375,0.6396917104721069,3.6903858184814453,1.100295066833496
1780100317175954000,2.442953857421875,0.30654725432395935,3.772374153137207,1.641484022140503
1780100317185947000,2.45294677734375,0.023295724764466286,3.0845723152160645,1.7272906303405762
1780100317195940000,2.462940185546875,-0.22846859693527222,1.7157912254333496,1.2096320390701294
1780100317205932800,2.472932861328125,-0.394656777381897,0.1302104890346527,0.42625367641448975
1780100317215926800,2.4829267578125,-0.4501512050628662,-1.2435073852539062,-0.26439160108566284
1780100317225920000,2.492919921875,-0.4123094379901886,-2.1526541709899902,-0.7016358375549316
1780100317235912700,2.50291259765625,-0.30580028891563416,-2.5113821029663086,-0.8383888602256775
1780100317245906000,2.512906005859375,-0.1622896045446396,-2.318404197692871,-0.7183666825294495
1780100317255900000,2.52289990234375,-0.036863766610622406,-1.693310260772705,-0.4206197261810303
1780100317265892900,2.532892822265625,0.03741380572319031,-0.8297072052955627,-0.06633571535348892
1780100317275885800,2.5428857421875,0.09422941505908966,0.0879448652267456,0.2044643610715866
1780100317285878800,2.552878662109375,0.1587108075618744,0.8311277031898499,0.3275466561317444
1780100317295873000,2.562873046875,0.2200213074684143,1.171411156654358,0.323914110660553
1780100317305866000,2.572865966796875,0.25408101081848145,1.0090346336364746,0.25517311692237854
1780100317315859000,2.58285888671875,0.24511200189590454,0.5236050486564636,0.16543525457382202
1780100317325852000,2.592851806640625,0.2727809250354767,-0.05034133419394493,0.0921192467212677
1780100317335846000,2.602845947265625,0.4198491871356964,-0.4667942225933075,0.03746026009321213
1780100317345838800,2.6128388671875,0.562132716178894,-0.8450264930725098,0.03307076543569565
1780100317355831800,2.622831787109375,0.5844806432723999,-1.13346529006958,0.03199351578950882
1780100317365825000,2.632824951171875,0.48218366503715515,-1.2419847249984741,-0.000022407592041417956
1780100317375819000,2.642819091796875,0.2969139516353607,-1.1270674467086792,-0.07621704041957855
1780100317385811700,2.652811767578125,0.09977331012487411,-0.8200971484184265,-0.16610918939113617
1780100317395805000,2.662804931640625,-0.04128873348236084,-0.4214940667152405,-0.217733234167099
1780100317405798000,2.6727978515625,-0.08101975917816162,0.01622016355395317,-0.20314182341098785
1780100317415791900,2.6827919921875,-0.008240891620516777,0.37279078364372253,-0.11321592330932617
1780100317425784800,2.692784912109375,0.07892902195453644,0.557898759841919,0.011836854740977287
1780100317435777800,2.70277783203125,0.09553197026252747,0.7394586801528931,0.08803468942642212
1780100317445771000,2.71277099609375,0.027891937643289566,0.8608800768852234,0.11848966777324677
1780100317455765000,2.722764892578125,-0.03717894107103348,0.8321791887283325,0.13007840514183044
1780100317465758000,2.732758056640625,-0.06726133823394775,0.6378533244132996,0.11660514771938324
1780100317475751000,2.7427509765625,-0.08771787583827972,0.3817991614341736,0.06586393713951111
1780100317485743900,2.752743896484375,-0.11482207477092743,0.15974079072475433,-0.007977606728672981
1780100317495737900,2.76273779296875,-0.12530001997947693,-0.014221685007214546,-0.06586141139268875
1780100317505730800,2.772730712890625,-0.11319314688444138,-0.1223803386092186,-0.0849149227142334
1780100317515724000,2.78272412109375,-0.08051349967718124,-0.16563034057617188,-0.060468707233667374
1780100317525717000,2.792717041015625,-0.03613419085741043,-0.17477333545684814,-0.011963705532252789
1780100317535710700,2.802710693359375,0.01410847157239914,-0.17017139494419098,0.03654737025499344
1780100317545704000,2.812703857421875,0.04455825686454773,-0.12839944660663605,0.061315566301345825
1780100317555697000,2.82269677734375,0.030448563396930695,-0.039793938398361206,0.05050153285264969
1780100317565689900,2.83268994140625,-0.013564974069595337,0.06805243343114853,0.018526282161474228
1780100317575683800,2.842683837890625,-0.04250074923038483,0.16658300161361694,-0.013448694720864296
1780100317585676800,2.8526767578125,-0.03647841885685921,0.23578374087810516,-0.033263884484767914
1780100317595670000,2.862669921875,-0.016655711457133293,0.2740059792995453,-0.036104947328567505
1780100317605662700,2.872662841796875,0.0005909353494644165,0.2670191526412964,-0.023862769827246666
1780100317615657000,2.882656982421875,0.00910266488790512,0.20975185930728912,-0.005729305557906628
1780100317625650000,2.89264990234375,0.00573189090937376,0.12286500632762909,0.004764066077768803
1780100317635643000,2.902642822265625,-0.004718086216598749,0.04384875297546387,0.01444226037710905
1780100317645635800,2.9126357421875,-0.01303698681294918,-0.008380800485610962,0.024350309744477272
1780100317655629800,2.9226298828125,-0.01221726555377245,-0.021695805713534355,0.033634357154369354
1780100317665623000,2.932623046875,-0.008689258247613907,-0.0021289349533617496,0.04483552277088165
1780100317675615700,2.94261572265625,-0.0055579133331775665,0.04962320998311043,0.04886355251073837
1780100317685609000,2.95260888671875,-0.004742574878036976,0.10127530246973038,0.0466136634349823
1780100317695603000,2.96260302734375,-0.004772402346134186,0.13217675685882568,0.0359751358628273
1780100317705596000,2.972595947265625,-0.00471580820158124,0.11964370310306549,0.019571995362639427
1780100317715588900,2.9825888671875,-0.009189385920763016,0.08548440039157867,0.0031637276988476515
1780100317725581800,2.992581787109375,-0.01721070148050785,0.04056234657764435,-0.011889735236763954
1780100317735575800,3.002575927734375,-0.027596764266490936,-0.0020431734155863523,-0.018983330577611923
1780100317745569000,3.012569091796875,-0.03271842747926712,-0.0031831306405365467,-0.017858091741800308
1780100317755561700,3.022561767578125,-0.03830627351999283,0.06459511816501617,-0.014423144981265068
1780100317765555000,3.032554931640625,-0.04045223072171211,0.15181171894073486,-0.008776017464697361
1780100317775549000,3.042548828125,-0.038422904908657074,0.22481510043144226,0.00013465355732478201
1780100317785542000,3.0525419921875,-0.03848510608077049,0.26282650232315063,0.00641162833198905
1780100317795534800,3.062534912109375,-0.03942200541496277,0.2619841396808624,0.004700547084212303
1780100317805527800,3.07252783203125,-0.043229132890701294,0.22700552642345428,-0.0030028526671230793
1780100317815522000,3.08252197265625,-0.04694770649075508,0.16310936212539673,-0.017046499997377396
1780100317825514800,3.0925146484375,-0.04483501613140106,0.08573757112026215,-0.02873803675174713
1780100317835508000,3.102508056640625,-0.039725739508867264,0.015279117040336132,-0.033938392996788025
1780100317845501000,3.1125009765625,-0.03339153900742531,-0.036278076469898224,-0.02746017836034298
1780100317855495000,3.122494873046875,-0.02642790600657463,-0.05853091552853584,-0.01094245444983244
1780100317865488000,3.13248779296875,-0.02328244224190712,-0.05703558400273323,0.015893425792455673
1780100317875480800,3.142480712890625,-0.021813973784446716,-0.03850051388144493,0.04506302997469902
1780100317885474000,3.15247412109375,-0.016977014020085335,-0.009116953238844872,0.06805389374494553
1780100317895468000,3.162468017578125,-0.012561492621898651,0.016506385058164597,0.07848496735095978
1780100317905460700,3.172460693359375,-0.008217074908316135,0.030051186680793762,0.07408516108989716
1780100317915454000,3.182453857421875,-0.00872121099382639,0.02756459452211857,0.05941460281610489
1780100317925447000,3.192447021484375,-0.012824886478483677,0.007864227518439293,0.03735083341598511
1780100317935441000,3.20244091796875,0.036561038345098495,-0.005120547022670507,0.002452768385410309
1780100317945433900,3.212433837890625,0.19604097306728363,-0.0005096328677609563,-0.05954815819859505
1780100317955426800,3.2224267578125,0.3514721095561981,-0.014529844745993614,-0.12744678556919098
1780100317965420000,3.232419921875,0.42679017782211304,-0.17433930933475494,-0.15916040539741516
1780100317975414000,3.2424140625,0.4071078300476074,-0.43234845995903015,-0.1532420665025711
1780100317985407200,3.2524072265625,0.3435458838939667,-0.6173858642578125,-0.14129461348056793
1780100317995400000,3.26239990234375,0.288271963596344,-0.6504268646240234,-0.12714630365371704
1780100318005393200,3.27239306640625,0.23747709393501282,-0.6104258298873901,-0.08875064551830292
1780100318015387100,3.28238720703125,0.2022639811038971,-0.7923764586448669,0.009834246709942818
1780100318025380000,3.292380126953125,0.1066005676984787,-0.7750704288482666,0.05620120093226433
1780100318035373000,3.302373046875,-0.00809086486697197,-0.43828198313713074,0.045047882944345474
1780100318045366000,3.312365966796875,0.004341317340731621,-0.32640910148620605,0.08461661636829376
1780100318055359200,3.322359130859375,0.051906973123550415,-0.4104078710079193,0.13415034115314484
1780100318065353000,3.33235302734375,0.1312076598405838,-0.3550867736339569,0.14167524874210358
1780100318075346000,3.342345947265625,0.24725331366062164,-0.3033093214035034,0.14174555242061615
1780100318085339100,3.352339111328125,0.3648375868797302,-0.22220253944396973,0.13211508095264435
1780100318095332000,3.36233203125,0.4370236098766327,-0.15663018822669983,0.12047547101974487
1780100318105325800,3.372325927734375,0.46430504322052,0.15872429311275482,0.07122642546892166
1780100318115319000,3.382319091796875,0.475023478269577,0.44458436965942383,0.03331753611564636
1780100318125312000,3.39231201171875,0.4876805543899536,0.5495481491088867,0.01658804342150688
1780100318135305000,3.402304931640625,0.4174756407737732,0.6005655527114868,-0.004967315122485161
1780100318145299000,3.412298828125,0.2601861357688904,0.5805963277816772,-0.02297906205058098
1780100318155292200,3.422292236328125,0.10604240000247955,0.41142162680625916,-0.040470704436302185
1780100318165285000,3.43228515625,0.012442389503121376,0.05146908015012741,-0.03693311661481857
1780100318175277800,3.44227783203125,-0.022815199568867683,-0.33012622594833374,-0.03277725353837013
1780100318185272000,3.45227197265625,-0.04775184392929077,-0.4596707224845886,-0.04399322345852852
1780100318195265000,3.46226513671875,-0.10638133436441422,-0.423483669757843,-0.06181323155760765
1780100318205258200,3.47225830078125,-0.13092195987701416,-0.3275129199028015,-0.061522070318460464
1780100318215251000,3.4822509765625,-0.11048618704080582,-0.1419190913438797,-0.04718733951449394
1780100318225245000,3.492244873046875,-0.08234819024801254,0.08407345414161682,-0.03141061216592789
1780100318235238100,3.502238037109375,-0.05295860767364502,0.2007364183664322,-0.0163861233741045
1780100318245230800,3.51223095703125,-0.0084634218364954,0.2549441456794739,-0.02662348374724388
1780100318255224000,3.52222412109375,0.028857849538326263,0.290496289730072,-0.05140259861946106
1780100318265218000,3.532218017578125,0.016348566859960556,0.27554839849472046,-0.07357896119356155
1780100318275211000,3.5422109375,-0.04249211400747299,0.17654940485954285,-0.08036895841360092
1780100318285204000,3.552203857421875,-0.1023172065615654,0.08456544578075409,-0.06845907866954803
1780100318295197000,3.562197021484375,-0.12383075803518295,0.05193612724542618,-0.049484316259622574
1780100318305191200,3.572191162109375,-0.07316999137401581,0.20029883086681366,-0.029928747564554214
1780100318315184000,3.58218408203125,0.06280728429555893,0.40348631143569946,0.022419678047299385
1780100318325176800,3.5921767578125,0.09859683364629745,0.28535816073417664,0.08974497765302658
1780100318335170000,3.602170166015625,0.038910333067178726,-0.014241049997508526,0.10930856317281723
1780100318345163000,3.6121630859375,-0.0667300894856453,-0.28786957263946533,0.06713632494211197
1780100318355157200,3.6221572265625,-0.09927205741405487,-0.24188315868377686,-0.005907523445785046
1780100318365150000,3.63214990234375,-0.07843213528394699,0.0013474223669618368,-0.04599187523126602
1780100318375143200,3.64214306640625,-0.06616721302270889,0.1589522361755371,-0.03278978541493416
1780100318385136000,3.65213623046875,-0.04953457787632942,0.2533402144908905,-0.01047629676759243
1780100318395129900,3.6621298828125,-0.017916198819875717,0.3058159351348877,0.003969221841543913
1780100318405123000,3.672123046875,0.004677940160036087,0.26625797152519226,0.0025891223922371864
1780100318415116000,3.682115966796875,0.0048923250287771225,0.16792818903923035,-0.01204334944486618
1780100318425109200,3.692109130859375,-0.016786495223641396,0.05686769634485245,-0.028292322531342506
1780100318435103000,3.70210302734375,-0.0510491281747818,-0.08842238783836365,-0.03347722813487053
1780100318445096000,3.712095947265625,-0.07353152334690094,-0.2613782286643982,-0.021876489743590355
1780100318455089200,3.722089111328125,-0.07076849788427353,-0.24849414825439453,-0.009879748336970806
1780100318465081900,3.732081787109375,-0.04482145607471466,-0.15758197009563446,0.011964624747633934
1780100318475075800,3.742075927734375,-0.004799738060683012,-0.07301942259073257,0.027194974943995476
1780100318485069000,3.752069091796875,0.05054941773414612,0.006777915637940168,0.01744389347732067
1780100318495062000,3.76206201171875,0.09195491671562195,0.11170859634876251,-0.012244227342307568
1780100318505055000,3.772054931640625,0.09966421127319336,0.14296598732471466,-0.04965553432703018
1780100318515048000,3.7820478515625,0.08069691061973572,0.09593562036752701,-0.08162545412778854
1780100318525042200,3.792042236328125,0.03418642282485962,0.015216823667287827,-0.09301190823316574
1780100318535035100,3.80203515625,-0.004935947246849537,-0.053204044699668884,-0.08331827074289322
1780100318545028000,3.812028076171875,-0.035189736634492874,-0.10808449983596802,-0.05257129296660423
1780100318555021000,3.82202099609375,-0.06766032427549362,-0.2148682177066803,-0.014155729673802853
1780100318565015000,3.83201513671875,-0.05543774738907814,-0.3089834153652191,0.014619861729443073
1780100318575008000,3.842008056640625,0.004965675063431263,-0.25697001814842224,0.018703818321228027
1780100318585001000,3.8520009765625,0.05212558060884476,-0.1607947051525116,0.0065472060814499855
1780100318594994200,3.861994140625,0.06868671625852585,-0.12023264169692993,-0.0122611029073596
1780100318604988200,3.87198828125,0.07913722097873688,-0.10885641723871231,-0.036874305456876755
1780100318614980900,3.88198095703125,0.07008567452430725,-0.09405696392059326,-0.06042889878153801
1780100318624974000,3.89197412109375,0.025249745696783066,-0.07547655701637268,-0.076243557035923
1780100318634967000,3.901967041015625,-0.014449195936322212,0.030989699065685272,-0.07212018221616745
1780100318644961000,3.9119609375,-0.036738499999046326,0.15245981514453888,-0.04140353202819824
1780100318654954000,3.9219541015625,-0.04566222056746483,0.194255992770195,0.011629327200353146
1780100318664947000,3.931947021484375,-0.03225572779774666,0.17202408611774445,0.05403291806578636
1780100318674940200,3.941940185546875,-0.015511902049183846,0.036669451743364334,0.07430730015039444
1780100318684932900,3.951932861328125,0.024405278265476227,-0.08271539211273193,0.06479933857917786
1780100318694927000,3.961927001953125,0.06570211052894592,-0.1693940907716751,0.03566994145512581
1780100318704920000,3.971920166015625,0.07833347469568253,-0.2268482744693756,0.0031138535123318434
1780100318714913000,3.9819130859375,0.0641915574669838,-0.2070402055978775,-0.022440241649746895
1780100318724906000,3.991906005859375,0.04100716859102249,-0.1324276626110077,-0.026217376813292503
1780100318734900000,4.00189990234375,0.01730024255812168,-0.06351542472839355,-0.012436051853001118
1780100318744893200,4.01189306640625,0.0006296420469880104,-0.015694696456193924,0.0093955984339118
1780100318754886000,4.021885986328125,-0.02756364643573761,0.011103895492851734,0.023536982014775276
1780100318764879000,4.031879150390625,-0.04970462620258331,0.05139562487602234,0.025413185358047485
1780100318774873000,4.041873046875,-0.04658740013837814,0.08961597830057144,0.02412022091448307
1780100318784866000,4.051865966796875,-0.035829294472932816,0.10066954791545868,0.01813356950879097
1780100318794859000,4.06185888671875,-0.02718227356672287,0.08395341783761978,0.014170254580676556
1780100318804852000,4.07185205078125,-0.02405492216348648,0.045820530503988266,0.008321022614836693
1780100318814845200,4.08184521484375,-0.016271300613880157,0.005280561279505491,0.00228017452172935
1780100318824839200,4.091839111328125,-0.005786709021776915,-0.052237410098314285,0.002117314375936985
1780100318834832000,4.101831787109375,0.009135515429079533,-0.08683720231056213,-0.0001245344028575346
1780100318844825000,4.1118251953125,0.02163715660572052,-0.07489337772130966,-0.003057641675695777
1780100318854818000,4.121818115234375,0.036755386739969254,-0.042848095297813416,-0.004156728275120258
1780100318864812000,4.13181201171875,0.030297795310616493,-0.024075163528323174,-0.004604368470609188
1780100318874805000,4.141804931640625,0.00638953223824501,-0.013881382532417774,-0.0017856784397736192
1780100318884798000,4.1517978515625,-0.008369731716811657,-0.01379162073135376,0.0006120746256783605
1780100318894791200,4.161791259765625,-0.010474161244928837,-0.023455966264009476,0.008580518886446953
1780100318904784000,4.171783935546875,-0.005888438317924738,-0.04971196502447128,0.014050145633518696
1780100318914778000,4.181778076171875,0.0010973000898957253,-0.06967422366142273,0.015420342795550823
1780100318924771000,4.19177099609375,0.015116694383323193,-0.06986785680055618,0.010589482262730598
1780100318934764000,4.201763916015625,0.028873253613710403,-0.07604212313890457,0.006010177079588175
1780100318944757000,4.211757080078125,0.023791968822479248,-0.09806252270936966,0.0006845496827736497
1780100318954751000,4.2217509765625,0.008953901007771492,-0.11230537295341492,-0.005814895033836365
1780100318964744200,4.231744140625,-0.004495879635214806,-0.1149127408862114,-0.008291656151413918
1780100318974738000,4.241738037109375,-0.02618999034166336,-0.1211935430765152,-0.00567376846447587
1780100318984730600,4.251730712890625,-0.03101337142288685,-0.13410423696041107,0.001672099344432354
1780100318994724900,4.261724853515625,-0.01615240052342415,-0.14585596323013306,0.005073222331702709
1780100319004717800,4.2717177734375,0.006682213395833969,-0.13800573348999023,0.004161426331847906
1780100319014710800,4.281710693359375,0.03152205049991608,-0.10873865336179733,-0.0012093704426661134
1780100319024703700,4.291703857421875,0.041256554424762726,-0.08782204240560532,-0.006820064038038254
1780100319034696700,4.30169677734375,0.05265035480260849,-0.05260733142495155,-0.012195920571684837
1780100319044691000,4.31169091796875,0.05381985753774643,-0.03891235589981079,-0.01102461852133274
1780100319054684000,4.321683837890625,0.008354907855391502,-0.029593156650662422,-0.009448559954762459
1780100319064676900,4.3316767578125,-0.04599379748106003,-0.003916002344340086,-0.0053980061784386635
1780100319074669800,4.341669921875,-0.07208691537380219,0.007896981202065945,0.004125724080950022
1780100319084663800,4.351663818359375,-0.056987326592206955,-0.006795529276132584,0.010362711735069752
1780100319094656800,4.36165673828125,-0.015256127342581749,-0.015695545822381973,0.0020845416001975536
1780100319104649700,4.371649658203125,0.027159614488482475,-0.023027973249554634,-0.012587165459990501
1780100319114643000,4.381642822265625,0.03953985124826431,-0.00786872860044241,-0.02166854590177536
1780100319124636000,4.391635986328125,0.03486442193388939,0.015934806317090988,-0.019426684826612473
1780100319134629600,4.401629638671875,0.036449532955884933,0.038127463310956955,-0.007315427530556917
1780100319144622800,4.411622802734375,0.038978204131126404,0.08081568777561188,0.012140958569943905
1780100319154615800,4.42161572265625,0.04558124393224716,0.09745485335588455,0.026729222387075424
1780100319164608800,4.43160888671875,0.05419737473130226,0.07250380516052246,0.035132694989442825
1780100319174602800,4.441602783203125,0.0628795400261879,-0.00007425331568811089,0.0345795564353466
1780100319184595700,4.451595703125,0.05574321746826172,-0.08785952627658844,0.023289168253540993
1780100319194589000,4.4615888671875,0.024910205975174904,-0.13067889213562012,0.011306807398796082
1780100319204581600,4.47158154296875,-0.008050430566072464,-0.11551498621702194,0.010528876446187496
1780100319214574800,4.481574951171875,-0.02632610686123371,-0.0639074519276619,0.023371703922748566
1780100319224568800,4.49156884765625,-0.038434699177742004,-0.013807951472699642,0.04048904404044151
1780100319234562000,4.50156201171875,-0.03659898042678833,0.016775790601968765,0.048020463436841965
1780100319244554800,4.5115546875,-0.026624644175171852,0.018580613657832146,0.04190265014767647
1780100319254547700,4.521547607421875,-0.008515682071447372,-0.004727636929601431,0.02072918601334095
1780100319264542000,4.5315419921875,0.011933792382478714,-0.02505650371313095,-0.004478639457374811
1780100319274534700,4.54153466796875,0.02068840153515339,-0.05217680335044861,-0.024772725999355316
1780100319284527900,4.55152783203125,0.015356099233031273,-0.08050616830587387,-0.02489648573100567
1780100319294520800,4.561520751953125,-0.0042543536983430386,-0.11195942759513855,-0.009822195395827293
1780100319304514000,4.57151416015625,-0.04760166257619858,-0.11135060340166092,0.014060195535421371
1780100319314507800,4.5815078125,-0.09372681379318237,-0.07610180228948593,0.03505389392375946
1780100319324500700,4.591500732421875,-0.11849373579025269,-0.048445653170347214,0.04533284902572632
1780100319334494000,4.601493896484375,-0.10989093035459518,-0.06184881180524826,0.03988215699791908
1780100319344486700,4.611486572265625,-0.07884205132722855,-0.07372782379388809,0.017624597996473312
1780100319354480600,4.621480712890625,-0.029435086995363235,-0.06300114840269089,-0.010835539549589157
1780100319364473900,4.631473876953125,0.00789601169526577,-0.07065680623054504,-0.027490438893437386
1780100319374466800,4.641466796875,0.01486923173069954,-0.07231622189283371,-0.03725598379969597
1780100319384459800,4.651459716796875,0.002020803280174732,-0.05534014478325844,-0.03750552609562874
1780100319394452700,4.66145263671875,-0.028088895604014397,-0.07501716911792755,-0.025232084095478058
1780100319404446700,4.67144677734375,-0.05321457237005234,-0.08193556219339371,-0.009473387151956558
1780100319414440000,4.68143994140625,-0.08041130751371384,0.10440767556428909,-0.0001629759353818372
1780100319424432600,4.6914326171875,-0.10525968670845032,0.4997423589229584,0.018071400001645088
1780100319434425900,4.70142578125,-0.07437074929475784,1.1102962493896484,0.05064345896244049
1780100319444419800,4.711419921875,0.0037530940026044846,1.6369932889938354,0.12150166183710098
1780100319454413000,4.7214130859375,0.05643521249294281,1.734010934829712,0.2093076854944229
1780100319464405800,4.73140576171875,0.0649726539850235,1.4180057048797607,0.25619179010391235
1780100319474399000,4.74139892578125,0.037935446947813034,0.8448944687843323,0.2276855707168579
1780100319484392000,4.751391845703125,-0.013493251986801624,0.1949242353439331,0.13783830404281616
1780100319494385700,4.7613857421875,-0.0714268609881401,-0.3628018796443939,0.018523365259170532
1780100319504379000,4.77137890625,-0.11112715303897858,-0.7198246121406555,-0.09381011873483658
1780100319514371800,4.781371826171875,-0.10352196544408798,-0.8328313231468201,-0.16794265806674957
1780100319524364800,4.79136474609375,-0.05769246071577072,-0.7218567132949829,-0.17911066114902496
1780100319534357800,4.801357666015625,-0.006296113133430481,-0.45718538761138916,-0.13355275988578796
1780100319544351700,4.811351806640625,0.03078044019639492,-0.12083238363265991,-0.05991114675998688
1780100319554345000,4.821344970703125,0.04763718694448471,0.1894834041595459,0.005365062039345503
1780100319564337700,4.831337646484375,0.047863833606243134,0.39606207609176636,0.041702840477228165
1780100319574331000,4.841330810546875,0.03453311324119568,0.45965996384620667,0.04547547549009323
1780100319584324900,4.851324951171875,0.017611108720302582,0.38775092363357544,0.025320660322904587
1780100319594317800,4.86131787109375,0.007818665355443954,0.23093044757843018,-0.0010012246202677488
1780100319604310800,4.871310791015625,0.0020402800291776657,0.05586877837777138,-0.019372569397091866
1780100319614303700,4.8813037109375,0.0002817939966917038,-0.07743840664625168,-0.020635172724723816
1780100319624297000,4.891296875,-0.0010414021089673042,-0.13852337002754211,-0.006266957148909569
1780100319634291000,4.901291015625,-0.004043849650770426,-0.12436628341674805,0.014054292812943459
1780100319644283600,4.91128369140625,-0.00711126159876585,-0.06414283066987991,0.03424572944641113
1780100319654276900,4.92127685546875,-0.0064622494392097,0.013949569314718246,0.044556424021720886
1780100319664269800,4.931269775390625,-0.003826265688985586,0.07653205096721649,0.043799273669719696
1780100319674262800,4.9412626953125,-0.00088480394333601,0.10549020022153854,0.03594694286584854
1780100319684256800,4.9512568359375,0.003024183213710785,0.0943472683429718,0.02354966290295124
1780100319694250000,4.96125,0.0032710544764995575,0.050579432398080826,0.01694834977388382
1780100319704242700,4.97124267578125,0.00286262109875679,0.002502150135114789,0.020632073283195496
1780100319714236000,4.98123583984375,0.001123044639825821,-0.032976750284433365,0.02981065772473812
1780100319724230000,4.99122998046875,0.00036140624433755875,-0.03912170231342316,0.041943375021219254
1780100319734222800,5.001222900390625,0.0019363993778824806,-0.017370067536830902,0.05237897112965584
1780100319744215800,5.0112158203125,0.002783014439046383,0.02668675407767296,0.050450172275304794
1780100319754208800,5.021208740234375,0.0024618376046419144,0.07802131772041321,0.040465183556079865
1780100319764202000,5.031201904296875,0.0000825691968202591,0.11822386085987091,0.019993195310235023
1780100319774196000,5.041196044921875,-0.005408982280641794,0.13563691079616547,-0.0010832446860149503
1780100319784188700,5.051188720703125,-0.010090982541441917,0.11999930441379547,-0.020403103902935982
1780100319794182000,5.061181884765625,-0.012758937664330006,0.07491571456193924,-0.031556155532598495
1780100319804174800,5.0711748046875,-0.015372684225440025,0.013749842531979084,-0.03519262745976448
1780100319814167800,5.081167724609375,-0.011979817412793636,-0.04977986589074135,-0.03517185524106026
1780100319824161800,5.091161865234375,-0.004595528356730938,-0.09990306198596954,-0.032945241779088974
1780100319834154800,5.10115478515625,0.004184647463262081,-0.1320953518152237,-0.032228853553533554
1780100319844148000,5.11114794921875,0.009983282536268234,-0.13905639946460724,-0.029449643567204475
1780100319854140700,5.121140625,0.010867984965443611,-0.12275518476963043,-0.020491303876042366
1780100319864134000,5.1311337890625,0.008284962736070156,-0.08735369145870209,-0.009221886284649372
1780100319874128000,5.1411279296875,0.0015825862064957619,-0.049428947269916534,0.005924043245613575
1780100319884120600,5.15112060546875,-0.006841699592769146,-0.014880326576530933,0.0211871899664402
1780100319894113800,5.16111376953125,-0.012573354877531528,0.0045660752803087234,0.028658421710133553
1780100319904106800,5.171106689453125,-0.015518497675657272,0.002702208235859871,0.03298529237508774
1780100319914100000,5.181099853515625,-0.014649242162704468,-0.0182371623814106,0.028735686093568802
1780100319924093700,5.19109375,-0.013624330051243305,-0.05297441408038139,0.01908724755048752
1780100319934087000,5.2010869140625,-0.010726277716457844,-0.09555143117904663,0.01115768775343895
1780100319944080000,5.211079833984375,-0.00689759012311697,-0.12167761474847794,0.006278439424932003
1780100319954072800,5.22107275390625,-0.003671969287097454,-0.12687717378139496,0.006807609461247921
1780100319964065800,5.231065673828125,0.001369004137814045,-0.10665323585271835,0.0070621478371322155
1780100319974059500,5.2410595703125,-0.00025738775730133057,-0.06822115182876587,0.006469328422099352
1780100319984052700,5.251052734375,-0.0020090779289603233,-0.024555660784244537,0.005227033980190754
1780100319994045700,5.261045654296875,-0.008387880399823189,0.009920024313032627,0.0035268720239400864
1780100320004039000,5.271038818359375,-0.01710444502532482,0.023490583524107933,0.0012221451615914702
1780100320014032600,5.28103271484375,-0.02310934104025364,0.013630497269332409,-0.0013603221159428358
1780100320024025600,5.291025634765625,-0.024206526577472687,-0.021211380138993263,-0.00037985490052960813
1780100320034018800,5.301018798828125,-0.018780071288347244,-0.06781776249408722,-0.001202239072881639
1780100320044011500,5.311011474609375,-0.010008026845753193,-0.1140701025724411,-0.00039497503894381225
1780100320054004700,5.321004638671875,0.0036044539883732796,-0.1501183807849884,0.001940350979566574
1780100320063998700,5.330998779296875,0.018889373168349266,-0.15802374482154846,0.007337627001106739
1780100320073991700,5.34099169921875,0.03430614620447159,-0.1325697898864746,0.011318519711494446
1780100320083984600,5.350984619140625,0.04645402729511261,-0.0697162076830864,0.011780915781855583
1780100320093977600,5.3609775390625,0.049789637327194214,0.01822802983224392,0.018167976289987564
1780100320103970800,5.370970703125,0.03745480626821518,0.1185120940208435,0.01595921441912651
1780100320113964800,5.38096484375,0.015124998986721039,0.21172086894512177,0.012381790205836296
1780100320123957800,5.390957763671875,-0.012488383799791336,0.27602389454841614,0.008691382594406605
1780100320133950700,5.40095068359375,-0.036780938506126404,0.2941237986087799,0.002765582874417305
1780100320143943700,5.410943603515625,-0.049616314470767975,0.257312148809433,0.001899120630696416
1780100320153936600,5.4209365234375,-0.05037904530763626,0.1785408854484558,0.0032794370781630278
1780100320163930600,5.4309306640625,-0.04108831286430359,0.08472227305173874,0.006668728310614824
1780100320173923800,5.440923828125,-0.032287366688251495,0.00598112354055047,0.011582526378333569
1780100320183916800,5.450916748046875,-0.03210404887795448,-0.03881914168596268,0.017105428501963615
1780100320193909800,5.46090966796875,-0.03354109078645706,-0.04515613242983818,0.021858638152480125
1780100320203902700,5.47090283203125,-0.043247491121292114,-0.013987504877150059,0.033110108226537704
1780100320213896700,5.480896728515625,-0.05446366220712662,0.039684779942035675,0.044171012938022614
1780100320223889700,5.4908896484375,-0.06312879174947739,0.09019722044467926,0.04930665343999863
1780100320233882600,5.500882568359375,-0.06592510640621185,0.11299946904182434,0.04903900623321533
1780100320243875800,5.510875732421875,-0.06671340018510818,0.09488449990749359,0.04134180769324303
1780100320253868500,5.52086865234375,-0.06598316133022308,0.03453114628791809,0.027064869180321693
1780100320263862500,5.530862548828125,-0.055049143731594086,-0.05786919966340065,0.013656857423484325
1780100320273855700,5.540855712890625,-0.04036926478147507,-0.16621777415275574,0.001444932073354721
1780100320283848700,5.5508486328125,-0.016303349286317825,-0.2595478296279907,-0.0023640566505491734
1780100320293841700,5.560841552734375,0.014203161001205444,-0.3275303542613983,-0.0030583427287638187
1780100320303834600,5.570834716796875,0.05006764829158783,-0.36063653230667114,0.0009347791783511639
1780100320313828600,5.58082861328125,0.09327930957078934,-0.3686811327934265,0.010324019007384777
1780100320323821800,5.59082177734375,0.13194257020950317,-0.3503747582435608,0.018961064517498016
1780100320333814500,5.600814453125,0.16454976797103882,-0.300751268863678,0.01407815795391798
1780100320343807700,5.610807861328125,0.17331844568252563,-0.22054801881313324,-0.009106685407459736
1780100320353800700,5.62080078125,0.1641118973493576,-0.12092503160238266,-0.04371073469519615
1780100320363794700,5.630794677734375,0.1345609724521637,-0.020758753642439842,-0.07472841441631317
1780100320373787600,5.64078759765625,0.09080736339092255,0.06091134250164032,-0.09381449222564697
1780100320383780600,5.650780517578125,0.052367035299539566,0.11578657478094101,-0.09709790349006653
1780100320393773800,5.66077392578125,0.021176360547542572,0.13407769799232483,-0.08657362312078476
1780100320403766500,5.6707666015625,0.008731814101338387,0.11844578385353088,-0.0667620301246643
1780100320413760800,5.6807607421875,-0.00019696541130542755,0.07774628698825836,-0.041838038712739944
1780100320423753700,5.690753662109375,-0.00771644851192832,0.030069619417190552,-0.01312320027500391
1780100320433746700,5.70074658203125,-0.014068353921175003,-0.011150787584483624,0.01664082147181034
1780100320443739600,5.71073974609375,-0.018413539975881577,-0.031194627285003662,0.04736199602484703
1780100320453732600,5.720732666015625,-0.016341866925358772,-0.01896778866648674,0.0736953392624855
1780100320463726800,5.730726806640625,-0.01465604268014431,0.018622957170009613,0.09194400906562805
1780100320473719600,5.740719482421875,-0.012410464696586132,0.07239723950624466,0.09806954860687256
1780100320483712800,5.750712646484375,-0.013147003948688507,0.13355375826358795,0.09191501885652542
1780100320493705700,5.760705810546875,-0.015162484720349312,0.18312664330005646,0.07746124267578125
1780100320503698700,5.77069873046875,-0.01889943704009056,0.21107852458953857,0.05678965523838997
1780100320513692700,5.780692626953125,-0.02430245652794838,0.2084241509437561,0.03574429079890251
1780100320523685600,5.790685546875,-0.02777852863073349,0.17347082495689392,0.021842533722519875
1780100320533678800,5.800678955078125,-0.02747759222984314,0.1275680512189865,0.016421403735876083
1780100320543671600,5.810671630859375,-0.025852125138044357,0.08234602957963943,0.012914090417325497
1780100320553664800,5.820664794921875,-0.016345972195267677,0.0549468956887722,0.011934846639633179
1780100320563658800,5.83065869140625,-0.0007289210334420204,0.04168298840522766,0.008090845309197903
1780100320573651700,5.840651611328125,0.020275430753827095,0.03633616119623184,-0.0011926679871976376
1780100320583644700,5.850644775390625,0.041136983782052994,0.027481336146593094,-0.014067485928535461
1780100320593637600,5.8606376953125,0.06482260674238205,0.012246990576386452,-0.027992622926831245
1780100320603630800,5.870630859375,0.07931501418352127,-0.002905658446252346,-0.04517852142453194
1780100320613624800,5.880624755859375,0.09047898650169373,-0.014282416552305222,-0.06336232274770737
1780100320623617500,5.890617431640625,0.08886834233999252,-0.01757766865193844,-0.07851728796958923
1780100320633610800,5.90061083984375,0.07999016344547272,-0.01849219761788845,-0.08506253361701965
1780100320643603700,5.910603759765625,0.06293804943561554,-0.012166491709649563,-0.0762743204832077
1780100320653596700,5.9205966796875,0.044183533638715744,-0.00024272028531413525,-0.05525319278240204
1780100320663590700,5.930590576171875,0.02147768810391426,0.01700284518301487,-0.024828972294926643
1780100320673583900,5.940583984375,0.002982417121529579,0.041804056614637375,0.006019677501171827
1780100320683576600,5.95057666015625,-0.014100605621933937,0.06799232959747314,0.033764928579330444
1780100320693569500,5.960569580078125,-0.026782844215631485,0.08655935525894165,0.04999396577477455
1780100320703562800,5.970562744140625,-0.040080100297927856,0.10049441456794739,0.05994429439306259
1780100320713556700,5.980556640625,-0.05327686294913292,0.10640209913253784,0.06357178092002869
1780100320723549700,5.9905498046875,-0.06462322920560837,0.10260218381881714,0.0629052147269249
1780100320733542700,6.000542724609375,-0.0714276060461998,0.09249522536993027,0.05716051161289215
1780100320743535900,6.010535888671875,-0.07208514958620071,0.07831418514251709,0.0478394441306591
1780100320753528600,6.020528564453125,-0.05585185065865517,0.06613261997699738,0.028830599039793015
1780100320763522600,6.0305224609375,-0.03916196525096893,0.049605295062065125,0.004520921036601067
1780100320773515800,6.040515869140625,-0.019843662157654762,0.03115198388695717,-0.02186780795454979
1780100320783508700,6.0505087890625,-0.00452530849725008,0.01482066884636879,-0.04486081749200821
1780100320793501700,6.060501708984375,-0.0005944827571511269,0.008966241963207722,-0.06329362839460373
1780100320803494700,6.07049462890625,-0.00398052204400301,0.006474391557276249,-0.0682937502861023
1780100320813488600,6.080488525390625,-0.01604437455534935,0.0029182725120335817,-0.0653509572148323
1780100320823481900,6.09048193359375,-0.029740098863840103,0.00032342434860765934,-0.05373046547174454
1780100320833474600,6.100474609375,-0.04662906751036644,-0.007443684618920088,-0.03621991351246834
1780100320843467800,6.1104677734375,-0.061382584273815155,-0.018865110352635384,-0.013499092310667038
1780100320853460700,6.120460693359375,-0.07048553228378296,-0.021331196650862694,0.00881233811378479
1780100320863453700,6.13045361328125,-0.07106653600931168,-0.01969451829791069,0.028950147330760956
1780100320873447700,6.14044775390625,-0.06699695438146591,-0.012182273901998997,0.04253280162811279
1780100320883440600,6.150440673828125,-0.049356382340192795,-0.004247600212693214,0.0501079335808754
1780100320893433900,6.160433837890625,-0.03024899959564209,0.0029365429654717445,0.04789245128631592
1780100320903426600,6.170426513671875,-0.005814016796648502,0.008226564154028893,0.03697452321648598
1780100320913419800,6.180419677734375,0.005026114173233509,0.005614536348730326,0.021860284730792046
1780100320923413800,6.190413818359375,0.011372998356819153,-0.002368560526520014,0.0028388143982738256
1780100320933406500,6.200406494140625,0.006258396431803703,-0.016192231327295303,-0.014479721896350384
1780100320943399700,6.210399658203125,-0.0031478670425713062,-0.03208325803279877,-0.03176721930503845
1780100320953392600,6.220392578125,-0.010291796177625656,-0.052646856755018234,-0.04744737967848778
1780100320963385600,6.230385498046875,-0.01288826297968626,-0.07718295603990555,-0.06014048308134079
1780100320973379000,6.240379150390625,-0.008841590024530888,-0.10764685273170471,-0.07042507827281952
1780100320983372000,6.2503720703125,-0.0039674979634583,-0.13294066488742828,-0.0770968422293663
1780100320993365000,6.260364990234375,-0.0034343330189585686,-0.14535924792289734,-0.08310519903898239
1780100321003358200,6.270358154296875,0.0008255233988165855,-0.1371646374464035,-0.09126346558332443
1780100321013351000,6.280350830078125,-0.002120465040206909,-0.11062490195035934,-0.09425180405378342
1780100321023345000,6.290344970703125,-0.004687727428972721,-0.07354047894477844,-0.09386509656906128
1780100321033338000,6.300338134765625,-0.00873919390141964,-0.03752761334180832,-0.09012042731046677
1780100321043331000,6.3103310546875,-0.00971461832523346,-0.007061237469315529,-0.0851084440946579
1780100321053324000,6.320323974609375,-0.015386352315545082,0.011266903020441532,-0.07706037163734436
1780100321063317000,6.33031689453125,-0.014309089630842209,0.018942754715681076,-0.0711062029004097
1780100321073310200,6.340310302734375,-0.021371526643633842,0.018190942704677582,-0.06276518106460571
1780100321083304000,6.350303955078125,-0.025356432422995567,0.010494203306734562,-0.052630532532930374
1780100321093297000,6.360296875,-0.028110940009355545,-0.0018934912513941526,-0.041811175644397736
1780100321103290000,6.3702900390625,-0.028581783175468445,-0.01197769958525896,-0.030764510855078697
1780100321113282800,6.38028271484375,-0.029727209359407425,-0.021782392635941505,-0.016911812126636505
1780100321123276000,6.390276123046875,-0.028080033138394356,-0.024510830640792847,-0.005138239357620478
1780100321133270000,6.40027001953125,-0.025918345898389816,-0.02404744178056717,0.004007055889815092
1780100321143263000,6.410262939453125,-0.02539420872926712,-0.01230965182185173,0.012135572731494904
1780100321153256000,6.420255859375,-0.024029873311519623,0.0040243142284452915,0.01842596009373665
1780100321163249000,6.430248779296875,-0.021799098700284958,0.025011373683810234,0.017586449161171913
1780100321173242000,6.4402421875,-0.019731154665350914,0.04808899387717247,0.015857791528105736
1780100321183236000,6.450236083984375,-0.01720288023352623,0.06896943598985672,0.008542554453015327
1780100321193229000,6.46022900390625,-0.012254194356501102,0.08812661468982697,0.00004387553781270981
1780100321203222000,6.470221923828125,-0.011739680543541908,0.0984506607055664,-0.009350430220365524
1780100321213215200,6.48021533203125,-0.013635585084557533,0.09903176128864288,-0.019840622320771217
1780100321223208000,6.4902080078125,-0.014278724789619446,0.08855071663856506,-0.030361298471689224
1780100321233202000,6.500201904296875,-0.015256104990839958,0.06985852122306824,-0.03757580369710922
1780100321243195100,6.510195068359375,-0.019937654957175255,0.04281071200966835,-0.04383115470409393
1780100321253188000,6.52018798828125,-0.01912033185362816,0.017609216272830963,-0.046316418796777725
1780100321263181000,6.53018115234375,-0.02118564210832119,-0.006255928426980972,-0.04815361648797989
1780100321273174000,6.540174072265625,-0.02196728065609932,-0.01923271268606186,-0.048013001680374146
1780100321283168000,6.55016796875,-0.025515789166092873,-0.02402840182185173,-0.05062321946024895
1780100321293161000,6.560160888671875,-0.02742447704076767,-0.02510218881070614,-0.05076330155134201
1780100321303154000,6.57015380859375,-0.030367828905582428,-0.022511640563607216,-0.049882080405950546
1780100321313147100,6.580147216796875,-0.03622492030262947,-0.020708680152893066,-0.04783836752176285
1780100321323140000,6.59014013671875,-0.040235765278339386,-0.02909732796251774,-0.043013717979192734
1780100321333133000,6.600133056640625,-0.04487498849630356,-0.041521504521369934,-0.028744498267769814
1780100321343127000,6.610126953125,-0.04669073224067688,-0.06076044961810112,-0.008794492110610008
1780100321353120000,6.6201201171875,-0.044498689472675323,-0.07431007921695709,0.0166432224214077
1780100321363113000,6.630113037109375,-0.037319328635931015,-0.07368799299001694,0.04095336049795151
1780100321373106000,6.64010595703125,-0.02271881513297558,-0.056107670068740845,0.058746472001075745
1780100321383099100,6.65009912109375,-0.005379489157348871,-0.024685626849532127,0.060645315796136856
1780100321393093000,6.660093017578125,0.006151732988655567,0.006143657956272364,0.04865043982863426
1780100321403085800,6.6700859375,0.007500448264181614,0.026592286303639412,0.021904220804572105
1780100321413079000,6.6800791015625,-0.0031708385795354843,0.027139300480484962,-0.006965243723243475
1780100321423072000,6.690072021484375,-0.02175581268966198,-0.0011660073651000857,-0.02903810329735279
1780100321433065000,6.70006494140625,-0.03545964136719704,-0.048651766031980515,-0.036714665591716766
1780100321443059000,6.710058837890625,-0.04165027663111687,-0.10115516930818558,-0.02974216639995575
1780100321453052200,6.72005224609375,-0.04081511124968529,-0.14394843578338623,-0.016677232459187508
1780100321463045000,6.730045166015625,-0.03290338069200516,-0.1668548583984375,-0.005857336334884167
1780100321473038000,6.7400380859375,-0.026157861575484276,-0.16436374187469482,0.002396865515038371
1780100321483031000,6.750031005859375,-0.021510034799575806,-0.14435382187366486,0.0024096809793263674
1780100321493024000,6.76002392578125,-0.020284712314605713,-0.11409498006105423,-0.004631983116269112
1780100321503018200,6.770018310546875,-0.019923828542232513,-0.08914072066545486,-0.019230881705880165
1780100321513011000,6.780010986328125,-0.017642563208937645,-0.07583263516426086,-0.03815184533596039
1780100321523004200,6.790004150390625,-0.012582020834088326,-0.08335302025079727,-0.060169924050569534
1780100321532997000,6.7999970703125,-0.009644022211432457,-0.10579388588666916,-0.07942697405815125
1780100321542990000,6.809989990234375,-0.005075089633464813,-0.1398518979549408,-0.08940436691045761
1780100321552984000,6.819984130859375,0.00038652122020721436,-0.17010140419006348,-0.08846746385097504
1780100321562977000,6.82997705078125,0.007754020392894745,-0.19450122117996216,-0.07553856074810028
1780100321572970000,6.839969970703125,0.018113451078534126,-0.20432934165000916,-0.06124350428581238
1780100321582963000,6.849962890625,0.032050956040620804,-0.20082730054855347,-0.04422598332166672
1780100321592956200,6.8599560546875,0.047761742025613785,-0.1907445788383484,-0.02749919891357422
1780100321602950100,6.8699501953125,0.06073933094739914,-0.17399875819683075,-0.014085520058870316
1780100321612942800,6.87994287109375,0.07592041045427322,-0.14926917850971222,-0.0008898231899365783
1780100321622936000,6.88993603515625,0.08341285586357117,-0.11532876640558243,0.010061590000987053
1780100321632929000,6.899928955078125,0.0868680477142334,-0.06820279359817505,0.020137924700975418
1780100321642922000,6.909921875,0.08270882070064545,-0.007508740294724703,0.028263937681913376
1780100321652916000,6.919916015625,0.07392251491546631,0.05625053122639656,0.03364165499806404
1780100321662909000,6.929908935546875,0.06224294751882553,0.11456633359193802,0.029580598697066307
1780100321672902100,6.939902099609375,0.04767226055264473,0.15176190435886383,0.018032066524028778
1780100321682894800,6.949894775390625,0.031269725412130356,0.16008591651916504,0.0024947230704128742
1780100321692888000,6.95988818359375,0.014889420010149479,0.13668392598628998,-0.020027630031108856
1780100321702882000,6.969882080078125,0.0032862843945622444,0.08535845577716827,-0.040729716420173645
1780100321712875000,6.979875,-0.0036472557112574577,0.01895306631922722,-0.05795610696077347
1780100321722868000,6.989867919921875,-0.00651363842189312,-0.043727416545152664,-0.0694240927696228
1780100321732861000,6.99986083984375,-0.0055620912462472916,-0.08087611943483353,-0.07026991248130798
1780100321742854100,7.009854248046875,-0.00019418075680732727,-0.08640046417713165,-0.059866245836019516
1780100321752846800,7.019846923828125,0.003858352079987526,-0.05897097289562225,-0.03776094689965248
1780100321762841000,7.029841064453125,0.012028119526803493,-0.004831922706216574,-0.003640401177108288
1780100321772834000,7.039833984375,0.013974624685943127,0.06246829032897949,0.03506225347518921
1780100321782827300,7.0498271484375,0.007842040620744228,0.13533546030521393,0.0763087049126625
1780100321792820000,7.059820068359375,0.0008515091612935066,0.19926172494888306,0.11045681685209274
1780100321802813000,7.06981298828125,-0.007033997680991888,0.2500714957714081,0.1352493017911911
1780100321812807200,7.07980712890625,-0.015038660727441311,0.27499067783355713,0.14456237852573395
1780100321822800000,7.0897998046875,-0.023787537589669228,0.27895593643188477,0.13790853321552277
1780100321832793000,7.09979296875,-0.030104555189609528,0.26328137516975403,0.11633480340242386
1780100321842786000,7.1097861328125,-0.034448858350515366,0.23068547248840332,0.08388584107160568
1780100321852779000,7.119779052734375,-0.038773830980062485,0.18727222084999084,0.05065438151359558
1780100321862773000,7.12977294921875,-0.04383833333849907,0.13844797015190125,0.021024737507104874
1780100321872766000,7.139765869140625,-0.04343486577272415,0.09225358068943024,-0.0004307539784349501
1780100321882759200,7.14975927734375,-0.049684397876262665,0.05169392377138138,-0.01633070595562458
1780100321892752000,7.159751953125,-0.04911687225103378,0.016007566824555397,-0.025988658890128136
1780100321902745000,7.1697451171875,-0.049828726798295975,-0.012230375781655312,-0.03337053582072258
1780100321912739000,7.179739013671875,-0.046639591455459595,-0.0382356122136116,-0.04973619431257248
1780100321922732000,7.18973193359375,-0.039774201810359955,-0.06294184923171997,-0.06833755970001221
1780100321932725000,7.19972509765625,-0.02970079518854618,-0.08888237178325653,-0.08533145487308502
1780100321942718000,7.209718017578125,-0.01580752804875374,-0.11763176321983337,-0.09496992826461792
1780100321952711200,7.219711181640625,0.0017829164862632751,-0.14731641113758087,-0.09199970215559006
1780100321962705200,7.229705078125,0.022551771253347397,-0.1701866090297699,-0.07821574062108994
1780100321972698600,7.23969873046875,0.04037763923406601,-0.18538659811019897,-0.06066950783133507
1780100321982691800,7.24969189453125,0.056829556822776794,-0.1875188648700714,-0.03691812604665756
1780100321992684500,7.2596845703125,0.06598949432373047,-0.17813868820667267,-0.016849609091877937
1780100322002677800,7.269677734375,0.07132580876350403,-0.16608849167823792,0.00020600782590918243
1780100322012670700,7.279670654296875,0.07051247358322144,-0.14858832955360413,0.012686379253864288
1780100322022664700,7.289664794921875,0.06585313379764557,-0.131776362657547,0.019638758152723312
1780100322032657700,7.29965771484375,0.059105489403009415,-0.11590898036956787,0.020570332184433937
1780100322042650600,7.309650634765625,0.04414436221122742,-0.09849610924720764,0.01749676652252674
1780100322052643800,7.319643798828125,0.033311955630779266,-0.07966623455286026,0.01066336128860712
1780100322062636500,7.329636474609375,0.020786985754966736,-0.060491837561130524,0.0009630032582208514
1780100322072630500,7.339630615234375,0.006347592920064926,-0.04463404789566994,-0.007794003002345562
1780100322082623700,7.349623779296875,-0.005322419572621584,-0.03031236305832863,-0.018605263903737068
1780100322092616700,7.35961669921875,-0.0158845167607069,-0.019877031445503235,-0.026092739775776863
1780100322102609700,7.369609619140625,-0.023430004715919495,-0.012501293793320656,-0.03130505234003067
1780100322112602600,7.3796025390625,-0.030456222593784332,-0.0009772635530680418,-0.03125498443841934
1780100322122596900,7.389596923828125,-0.03461495786905289,0.013068029657006264,-0.028532397001981735
1780100322132589600,7.399589599609375,-0.036422982811927795,0.030932780355215073,-0.02008085511624813
1780100322142582500,7.40958251953125,-0.04079662263393402,0.05125728249549866,-0.008128833957016468
1780100322152575700,7.41957568359375,-0.04278547316789627,0.07270532101392746,0.004764328710734844
1780100322162568700,7.429568603515625,-0.04379105567932129,0.09151379764080048,0.013436662033200264
1780100322172561700,7.439561767578125,-0.041244808584451675,0.10386527329683304,0.0232783742249012
1780100322182555600,7.4495556640625,-0.0405561700463295,0.11155587434768677,0.028485087677836418
1780100322192548900,7.459548828125,-0.03684878349304199,0.10861947387456894,0.030216408893465996
1780100322202541600,7.46954150390625,-0.02838519774377346,0.09788526594638824,0.027672726660966873
1780100322212534800,7.47953466796875,-0.0197158083319664,0.08062425255775452,0.02248595468699932
1780100322222527700,7.48952783203125,-0.005892579909414053,0.06286397576332092,0.015258841216564178
1780100322232521700,7.499521728515625,0.004106790758669376,0.049342840909957886,0.009445693343877792
1780100322242514700,7.5095146484375,0.012961029075086117,0.04270029440522194,0.003089542966336012
1780100322252507600,7.519507568359375,0.021153710782527924,0.045508597046136856,-0.0016628681914880872
1780100322262500900,7.5295009765625,0.023040950298309326,0.052987124770879745,-0.0010335035622119904
1780100322272493600,7.53949365234375,0.021722152829170227,0.06118779629468918,-0.003893738379701972
1780100322282487600,7.549487548828125,0.01943236216902733,0.06831616163253784,-0.0009050087537616491
1780100322292480800,7.559480712890625,0.012898828834295273,0.07306750863790512,0.001862015575170517
1780100322302473700,7.5694736328125,0.007154268212616444,0.07188895344734192,0.00438104011118412
1780100322312466700,7.579466796875,-0.0008349483832716942,0.06297188997268677,0.006028205156326294
1780100322322459600,7.589459716796875,-0.0068321386352181435,0.050902772694826126,0.005592767149209976
1780100322332453600,7.59945361328125,-0.011788280680775642,0.0319269523024559,0.005417797714471817
1780100322342446800,7.60944677734375,-0.015962490811944008,0.010688001289963722,0.0038972850888967514
1780100322352439600,7.619439453125,-0.013886290602385998,-0.00959836132824421,0.005072005558758974
1780100322362432800,7.629432861328125,-0.006781160831451416,-0.026746081188321114,0.005534231662750244
1780100322372425700,7.63942578125,0.0002740854397416115,-0.030851343646645546,0.006938783451914787
1780100322382418700,7.649418701171875,0.005355276167392731,-0.028862599283456802,0.006626068148761988
1780100322392412700,7.65941259765625,0.00495979655534029,-0.020372174680233,0.004599136300384998
1780100322402405600,7.669405517578125,-0.0001617101952433586,-0.012432021088898182,0.004410329274833202
1780100322412398600,7.679398681640625,-0.0063567557372152805,-0.007991200312972069,0.005953365005552769
1780100322422391600,7.6893916015625,-0.011502262204885483,-0.009832863695919514,0.0045169806107878685
1780100322432384800,7.699384765625,-0.012937173247337341,-0.020334772765636444,0.0036879389081150293
1780100322442378800,7.709378662109375,-0.012645666487514973,-0.03541440889239311,-0.0018217937322333455
1780100322452371700,7.719371826171875,-0.010537241585552692,-0.05555696040391922,-0.009592898190021515
1780100322462364700,7.72936474609375,-0.005418257787823677,-0.07527356594800949,-0.021396765485405922
1780100322472357600,7.739357666015625,-0.0011068666353821754,-0.09204722195863724,-0.031709060072898865
1780100322482350600,7.7493505859375,0.008879970759153366,-0.10441435128450394,-0.0436197929084301
1780100322492344600,7.759344482421875,0.014443846419453621,-0.10872574150562286,-0.050091274082660675
1780100322502337800,7.769337890625,0.0224972665309906,-0.1087091714143753,-0.055985499173402786
1780100322512330800,7.779330810546875,0.025946859270334244,-0.09995482861995697,-0.0533047616481781
1780100322522323700,7.78932373046875,0.031018204987049103,-0.09073670208454132,-0.04801657795906067
1780100322532316700,7.799316650390625,0.03154950588941574,-0.0768006443977356,-0.03661132603883743
1780100322542310000,7.809309814453125,0.02942957915365696,-0.06398148089647293,-0.02434949390590191
1780100322552303900,7.819303955078125,0.023072613403201103,-0.05007285624742508,-0.009161487221717834
1780100322562296600,7.829296630859375,0.01709611713886261,-0.036177858710289,0.006403710693120956
1780100322572289800,7.839289794921875,0.008390774019062519,-0.021532606333494186,0.017838792875409126
1780100322582282800,7.84928271484375,-0.0026357872411608696,-0.003888866864144802,0.02807864174246788
1780100322592275700,7.859275634765625,-0.010625003837049007,0.017564227804541588,0.030693864449858665
1780100322602269700,7.869269775390625,-0.016072507947683334,0.03758537024259567,0.031038206070661545
1780100322612262700,7.8792626953125,-0.017463210970163345,0.06163610890507698,0.0268075093626976
1780100322622255900,7.889255859375,-0.019809018820524216,0.07981465011835098,0.01645256206393242
1780100322632248600,7.89924853515625,-0.020345380529761314,0.08945423364639282,0.007445218972861767
1780100322642241800,7.90924169921875,-0.019902698695659637,0.08971060067415237,-0.004203557036817074
1780100322652235800,7.91923583984375,-0.019046759232878685,0.08376109600067139,-0.009628682397305965
1780100322662228500,7.929228515625,-0.018120769411325455,0.07036004215478897,-0.014458585530519485
1780100322672221700,7.9392216796875,-0.016542846336960793,0.05770203471183777,-0.015059394761919975
1780100322682214700,7.949214599609375,-0.014167973771691322,0.04914723336696625,-0.01254583802074194
1780100322692207900,7.959207763671875,-0.012060348875820637,0.038298316299915314,-0.008373729884624481
1780100322702200600,7.96920068359375,-0.009551217779517174,0.03628438711166382,-0.005351221188902855
1780100322712194600,7.979194580078125,-0.004270701669156551,0.0338292196393013,-0.000009452865924686193
1780100322722187800,7.989187744140625,-0.0035723354667425156,0.03196309879422188,0.0013735644752159715
1780100322732180500,7.999180419921875,-0.0009264852851629257,0.034828927367925644,0.00510598486289382
1780100322742173700,8.009173583984374,-0.002843377646058798,0.03870592266321182,0.007462779525667429
1780100322752166700,8.019166748046874,-0.0018345722928643227,0.0381072461605072,0.008558403700590134
1780100322762161000,8.029160888671875,-0.0016871914267539978,0.035827331244945526,0.007171880453824997
1780100322772153600,8.039153564453125,0.0010177809745073318,0.03125707805156708,0.007236595265567303
1780100322782146800,8.049146728515625,0.00047438405454158783,0.022906869649887085,0.007875699549913406
1780100322792139800,8.059139892578125,0.0010690679773688316,0.012841185554862022,0.005039965733885765
1780100322802132500,8.069132568359375,0.002198883332312107,0.004223361611366272,0.0038080362137407064
1780100322812126700,8.079126708984376,0.003614087589085102,-0.005087049677968025,0.001417849212884903
1780100322822119700,8.08911962890625,0.0028560450300574303,-0.013268031179904938,-0.0021293996833264828
1780100322832113000,8.09911279296875,0.0034840181469917297,-0.02182556502521038,-0.00497125880792737
1780100322842105600,8.109105712890624,0.004946607165038586,-0.025730233639478683,-0.009353500790894032
1780100322852098800,8.119098876953124,0.003223009407520294,-0.022231638431549072,-0.01512483786791563
1780100322862091800,8.129091796875,0.004716135561466217,-0.015024608932435513,-0.024600282311439514
1780100322872085800,8.139085693359375,0.0047662025317549706,-0.006936321966350079,-0.02794654481112957
1780100322882078700,8.14907861328125,0.004620075225830078,-0.004623791202902794,-0.023355619981884956
1780100322892071700,8.15907177734375,0.007942101918160915,-0.008139163255691528,-0.01850387267768383
1780100322902065000,8.16906494140625,0.008585946634411812,-0.011510209180414677,-0.011365986429154873
1780100322912057600,8.1790576171875,0.010694105178117752,-0.01619843952357769,-0.006696400698274374
1780100322922051600,8.189051513671876,0.010937519371509552,-0.017302852123975754,-0.0024611754342913628
1780100322932044800,8.199044921875,0.010160408914089203,-0.01564610004425049,-0.0024214941076934338
1780100322942037500,8.20903759765625,0.008745606988668442,-0.012884741649031639,-0.004074317403137684
1780100322952030700,8.21903076171875,0.006532253697514534,-0.007736051920801401,-0.0034796332474797964
1780100322962023700,8.229023681640625,0.005041136406362057,-0.002144566737115383,-0.0036688591353595257
1780100322972015900,8.239015869140625,0.00019578076899051666,0.00012631082790903747,0.00021482855663634837
1780100322982009900,8.249009765625,-0.002109559252858162,0.00010365697380620986,0.004487685859203339
1780100322992002800,8.2590029296875,-0.004460065625607967,-0.0003967509837821126,0.005626719910651445
1780100323001995800,8.268995849609375,-0.006743333302438259,-0.0033124233596026897,0.00603571068495512
1780100323011989000,8.278989013671875,-0.008289031684398651,-0.00664110854268074,0.0016936928732320666
1780100323021981700,8.288981689453125,-0.008371468633413315,-0.00917393621057272,0.0002777499030344188
1780100323031975700,8.2989755859375,-0.007253207731992006,-0.012628588825464249,-0.0025997955817729235
1780100323041969000,8.308968994140624,-0.005137380678206682,-0.011073537170886993,-0.005195742007344961
1780100323051961600,8.318961669921874,-0.003863324411213398,-0.009263653308153152,-0.005899881944060326
1780100323061954800,8.328954833984374,-0.0031895041465759277,-0.005838148761540651,-0.0036510867066681385
1780100323071947800,8.33894775390625,-0.0038081565871834755,0.0005478451494127512,0.0019327630288898945
1780100323081941800,8.348941650390625,-0.0012622959911823273,0.004281226079910994,0.004404915496706963
1780100323091934700,8.358934814453125,0.0014645149931311607,0.006263683084398508,0.00859859585762024
1780100323101927700,8.368927734375,0.003269881010055542,0.003311006585136056,0.010083314031362534
1780100323111921000,8.3789208984375,0.002492504194378853,-0.0022155854385346174,0.010548301972448826
1780100323121913600,8.38891357421875,0.0043685706332325935,-0.009860795922577381,0.009815867058932781
1780100323131906800,8.39890673828125,0.005002935416996479,-0.01710059866309166,0.008896810002624989
1780100323141900800,8.40890087890625,0.007215985096991062,-0.017606211826205254,0.006967860274016857
1780100323151893800,8.418893798828124,0.004562943242490292,-0.012871111743152142,0.005220826715230942
1780100323161886700,8.42888671875,0.003709704615175724,-0.004715036600828171,0.001435431418940425
1780100323171879700,8.438879638671875,0.003414892591536045,0.006100593134760857,-0.0009350482141599059
1780100323181873000,8.448872802734375,0.003947646357119083,0.01140731293708086,-0.0019523161463439465
1780100323191867000,8.458866943359375,0.0037436485290527344,0.012208924628794193,-0.004629591945558786
1780100323201859800,8.46885986328125,0.003011791966855526,0.009487500414252281,-0.004239183384925127
1780100323211852800,8.478852783203125,-0.0005664313212037086,0.005700485315173864,-0.0077915736474096775
1780100323221845800,8.488845703125,-0.004550253972411156,0.0025835216511040926,-0.00800382811576128
1780100323231838700,8.498838623046876,-0.010369096882641315,-0.0014292281121015549,-0.007570047862827778
1780100323241831700,8.508831787109376,-0.010897070169448853,-0.014955615624785423,0.0009428118355572224
1780100323251826000,8.518825927734374,-0.00009555555880069733,-0.041935034096241,0.01243914570659399
1780100323261819000,8.52881884765625,0.017893604934215546,-0.07613348960876465,0.028404954820871353
1780100323271811800,8.538811767578125,0.04337233304977417,-0.10248041152954102,0.03736089542508125
1780100323281804800,8.5488046875,0.06303038448095322,-0.10669263452291489,0.03293055295944214
1780100323291797800,8.5587978515625,0.07430780678987503,-0.0781635195016861,0.016140656545758247
1780100323301791700,8.568791748046875,0.07225662469863892,-0.02708311565220356,-0.007568808738142252
1780100323311784700,8.57878466796875,0.05468934774398804,0.03754434734582901,-0.031836867332458496
1780100323321778000,8.58877783203125,0.020780399441719055,0.10433799773454666,-0.044815775007009506
1780100323331771000,8.59877099609375,-0.015567222610116005,0.15679055452346802,-0.042413871735334396
1780100323341763800,8.608763916015626,-0.045384638011455536,0.17978180944919586,-0.025159047916531563
1780100323351756800,8.6187568359375,-0.05983761325478554,0.17024236917495728,-0.002460659248754382
1780100323361750800,8.628750732421874,-0.0639766976237297,0.13546574115753174,0.016061093658208847
1780100323371743700,8.63874365234375,-0.06261635571718216,0.08612163364887238,0.028455978259444237
1780100323381736700,8.64873681640625,-0.05805223062634468,0.031719110906124115,0.03286084532737732
1780100323391730000,8.65872998046875,-0.04498569667339325,-0.022575020790100098,0.028974762186408043
1780100323401722600,8.66872265625,-0.024782691150903702,-0.0655943900346756,0.019897643476724625
1780100323411716600,8.678716552734375,-0.005208989605307579,-0.09324759244918823,0.007375992834568024
1780100323421709800,8.688709716796875,0.01333030965179205,-0.09746968001127243,-0.004826095420867205
1780100323431702800,8.698702880859376,0.024774443358182907,-0.08081959933042526,-0.018287308514118195
1780100323441695700,8.70869580078125,0.032826513051986694,-0.053390901535749435,-0.022129185497760773
1780100323451688700,8.718688720703126,0.03303663432598114,-0.028300460427999496,-0.021769393235445023
1780100323461682000,8.728681884765624,0.025891274213790894,-0.00955942738801241,-0.0126063022762537
1780100323471676000,8.738676025390625,0.01368893776088953,-0.0030461347196251154,0.00008525748853571713
1780100323481668600,8.748668701171875,0.0033703939989209175,-0.005665575619786978,0.0143516156822443
1780100323491661800,8.758661865234375,-0.0035551562905311584,-0.014045478776097298,0.022455615922808647
1780100323501654800,8.76865478515625,-0.007178301922976971,-0.020051896572113037,0.02092074230313301
1780100323511647700,8.778647705078125,-0.007704009767621756,-0.02722352184355259,0.011973320506513119
1780100323521640700,8.788640625,-0.007042144425213337,-0.02817954309284687,-0.0015815985389053822
1780100323531634700,8.798634765625,-0.0018820036202669144,-0.026563003659248352,-0.01295409444719553
1780100323541628000,8.8086279296875,0.0021086782217025757,-0.021064046770334244,-0.021516859531402588
1780100323551620600,8.81862060546875,0.007803316228091717,-0.015706831589341164,-0.021936573088169098
1780100323561613800,8.82861376953125,0.007293022237718105,-0.012265937402844429,-0.01911257393658161
1780100323571606800,8.838606689453124,0.01027416530996561,-0.01251174695789814,-0.014010756276547909
1780100323581600800,8.848600830078125,0.007460490800440311,-0.013672814704477787,-0.010413509793579578
1780100323591593700,8.85859375,0.004578151740133762,-0.01931765116751194,-0.007036355324089527
1780100323601587000,8.8685869140625,0.003768480382859707,-0.02740040048956871,-0.006838787812739611
1780100323611580000,8.878579833984375,-0.0009160200133919716,-0.030300583690404892,-0.006623337976634502
1780100323621572600,8.888572509765625,-0.0005432767793536186,-0.02557496726512909,-0.007243636529892683
1780100323631565800,8.89856591796875,-0.0018801838159561157,-0.01614205166697502,-0.004037190694361925
1780100323641559800,8.908559814453126,-0.003136260900646448,-0.0034716036170721054,0.0021412777714431286
1780100323651552800,8.918552734375,-0.0029530352912843227,0.015663741156458855,0.009406647644937038
1780100323661545700,8.928545654296874,-0.00481341453269124,0.0338912270963192,0.015940630808472633
1780100323671539000,8.9385390625,-0.004452822729945183,0.04576652869582176,0.01831830106675625
1780100323681531600,8.94853173828125,-0.005036004353314638,0.04677172750234604,0.01941155642271042
1780100323691524900,8.95852490234375,-0.00510524632409215,0.03671296685934067,0.01732150837779045
1780100323701518800,8.968518798828125,-0.004728753585368395,0.018151622265577316,0.01155771967023611
1780100323711511800,8.97851171875,-0.003877340815961361,-0.011183096095919609,0.006452440284192562
1780100323721504800,8.9885048828125,0.0006905188784003258,-0.03988972678780556,0.0005739146145060658
1780100323731497700,8.998497802734375,0.003717999905347824,-0.05577627941966057,-0.004475971683859825
1780100323741491000,9.008490966796876,0.004921911284327507,-0.05536457151174545,-0.008023220114409924
1780100323751485000,9.01848486328125,0.004680628888309002,-0.03224247321486473,-0.014520800672471523
1780100323761477600,9.0284775390625,0.001978982239961624,0.00704988045617938,-0.022893980145454407
1780100323771470800,9.038470947265624,-0.001506563276052475,0.05190550535917282,-0.029519392177462578
1780100323781463800,9.0484638671875,-0.006168697495013475,0.08393735438585281,-0.02476365491747856
1780100323791456800,9.058456787109375,-0.008812417276203632,0.09224828332662582,-0.01383563969284296
1780100323801449700,9.06844970703125,-0.00848793052136898,0.0750005692243576,-0.0009281733073294163
1780100323811443700,9.078443603515625,-0.0018934104591608047,0.038898225873708725,0.007393139414489269
1780100323821437000,9.08843701171875,0.005814060568809509,-0.0035990795586258173,0.007675309665501118
1780100323831429600,9.0984296875,0.013268247246742249,-0.038207657635211945,-0.00020311960543040186
1780100323841422800,9.1084228515625,0.020238950848579407,-0.053569938987493515,-0.00856071151793003
1780100323851415800,9.118415771484376,0.020831504836678505,-0.05208415910601616,-0.019851449877023697
1780100323861408800,9.12840869140625,0.020412825047969818,-0.03333701938390732,-0.023725299164652824
1780100323871402800,9.13840283203125,0.017020490020513535,-0.004770618863403797,-0.016388557851314545
1780100323881395700,9.148395751953124,0.008013335056602955,0.026626495644450188,-0.0022120559588074684
1780100323891389000,9.158388916015625,-0.00527184410020709,0.05462883412837982,0.014046542346477509
1780100323901381600,9.168381591796875,-0.017685923725366592,0.07061292231082916,0.027211869135499
1780100323911374800,9.178374755859375,-0.026925228536128998,0.06947814673185349,0.031140297651290894
1780100323921367800,9.188367919921875,-0.03041052259504795,0.049759749323129654,0.02720586769282818
1780100323931361800,9.19836181640625,-0.027743101119995117,0.016317371279001236,0.01914421282708645
1780100323941354800,9.208354736328126,-0.020663771778345108,-0.021803664043545723,0.004948955494910479
1780100323951347700,9.21834765625,-0.009843082167208195,-0.05539065599441528,-0.005556415766477585
1780100323961340700,9.228340576171876,0.0008945530280470848,-0.07672546803951263,-0.015402236022055149
1780100323971333600,9.238333740234374,0.010519217699766159,-0.08181663602590561,-0.019076598808169365
1780100323981328000,9.248327880859375,0.016197724267840385,-0.07041113078594208,-0.020646343007683754
1780100323991321900,9.25832177734375,0.018137039616703987,-0.04806295037269592,-0.015038524754345417
1780100324001314800,9.268314697265625,0.01898859068751335,-0.02127150632441044,-0.007291851099580526
1780100324011307800,9.278307861328125,0.017857279628515244,0.0036144028417766094,0.0015682196244597435
1780100324021300700,9.28830078125,0.012165519408881664,0.019195107743144035,0.010164609178900719
1780100324031294000,9.2982939453125,0.007089800201356411,0.022922201082110405,0.0150509774684906
1780100324041286700,9.30828662109375,0.0024814940989017487,0.015450763516128063,0.014764036051928997
1780100324051280600,9.31828076171875,-0.002034161239862442,0.004447913262993097,0.013186379335820675
1780100324061273900,9.32827392578125,-0.005974537692964077,-0.013780862092971802,0.006526232231408358
1780100324071266800,9.338266845703124,-0.007723968476057053,-0.024519527330994606,0.0005841869860887527
1780100324081259800,9.348259765625,-0.010960392653942108,-0.028699105605483055,-0.005363260395824909
1780100324091252700,9.358252685546875,-0.009451977908611298,-0.02835928648710251,-0.009149743244051933
1780100324101246000,9.368245849609375,-0.0075471652671694756,-0.02348559908568859,-0.00770358694717288
1780100324111239700,9.37823974609375,-0.004906374961137772,-0.012470764108002186,-0.003591932123526931
1780100324121232600,9.388232666015625,-0.0028525451198220253,-0.0013411478139460087,-0.0009463480673730373
1780100324131225900,9.398225830078125,-0.0033084782771766186,0.00823850929737091,0.003473700489848852
1780100324141218600,9.408218505859375,-0.0010449616238474846,0.014121592976152897,0.007151574827730656
1780100324151211800,9.418211669921876,-0.0002265721559524536,0.017509933561086655,0.011379608884453773
1780100324161204700,9.428204833984376,0.0012580491602420807,0.015600670129060745,0.010971966199576855
1780100324171198700,9.43819873046875,0.002392822876572609,0.011573171243071556,0.007763655856251717
1780100324181191700,9.448191650390624,0.004334447905421257,0.005500289611518383,0.0052409362979233265
1780100324191184600,9.4581845703125,0.004940050654113293,0.0008677210425958037,0.000008889997843652964
1780100324201177900,9.468177734375,0.00572584755718708,-0.0012858288828283548,-0.003229432739317417
1780100324211170600,9.478170654296875,0.006314406171441078,0.0005000869277864695,-0.0050339908339083195
1780100324221163800,9.488163818359375,0.005363267846405506,0.004773173481225967,-0.005426469724625349
1780100324231157800,9.49815771484375,0.004434889182448387,0.007990005426108837,-0.006853125058114529
1780100324241151000,9.50815087890625,0.002585330046713352,0.00796881876885891,-0.006388800218701363
1780100324251143700,9.518143798828126,-0.0003982093185186386,0.006012727040797472,-0.005458292085677385
1780100324261137000,9.528136962890626,-0.0009286776185035706,0.0016964536625891924,-0.0029373271390795708
1780100324271129900,9.5381298828125,-0.004163619130849838,-0.005425371695309877,-0.0003410115896258503
1780100324281122600,9.54812255859375,-0.004895575810223818,-0.011811469681560993,0.00324327708221972
1780100324291116800,9.55811669921875,-0.00479144649580121,-0.013673551380634308,0.005714158061891794
1780100324301109800,9.56810986328125,-0.0052967737428843975,-0.009820711798965931,0.007757405750453472
1780100324311103000,9.57810302734375,-0.003814991097897291,-0.004650185350328684,0.009255434386432171
1780100324321095700,9.588095703125,-0.0020262962207198143,0.0031840214505791664,0.0070712994784116745
1780100324331089000,9.5980888671875,-0.0004683472216129303,0.008311937563121319,0.005015871487557888
1780100324341081900,9.608081787109375,0.0006768973544239998,0.011633890680968761,0.00405398104339838
1780100324351075800,9.618075927734376,0.000606057234108448,0.008989105932414532,-0.0003351745835971087
1780100324361068800,9.62806884765625,0.002954562194645405,0.0009280568920075893,-0.0030962747987359762
1780100324371061800,9.638061767578124,0.003152168355882168,-0.010374665260314941,-0.007322178687900305
1780100324381055000,9.648054931640624,0.002330714836716652,-0.020317770540714264,-0.00964678730815649
1780100324391047700,9.658047607421874,0.0037573697045445442,-0.027662767097353935,-0.01045345887541771
1780100324401041000,9.668041015625,0.002426339313387871,-0.02842833660542965,-0.008796298876404762
1780100324411035000,9.678034912109375,0.0014428338035941124,-0.021362971514463425,-0.0038848966360092163
1780100324421027600,9.688027587890625,-0.0009393412619829178,-0.010449661873281002,0.001909886603243649
1780100324431020800,9.698020751953125,-0.005707997828722,0.002685048384591937,0.005848967935889959
1780100324441013800,9.708013671875,-0.008783693425357342,0.016461344435811043,0.008585094474256039
1780100324451007000,9.718007080078126,-0.009986643679440022,0.024341903626918793,0.009405613876879215
1780100324460999700,9.727999755859376,-0.011466579511761665,0.023691736161708832,0.00699424697086215
1780100324470993700,9.73799365234375,-0.01098587829619646,0.01639281027019024,0.004445335362106562
1780100324480987000,9.74798681640625,-0.007844572886824608,0.005494755692780018,0.00009458346175961196
1780100324490979600,9.7579794921875,-0.004589924123138189,-0.006395459175109863,-0.002518243854865432
1780100324500972800,9.767972900390625,-0.0010421965271234512,-0.018237929791212082,-0.005661507602781057
1780100324510965800,9.7779658203125,0.0027386927977204323,-0.027206657454371452,-0.005208503920584917
1780100324520958700,9.787958740234375,0.00605192594230175,-0.03198688477277756,-0.004328731447458267
1780100324530952700,9.79795263671875,0.011621927842497826,-0.03255679830908775,-0.002874112920835614
1780100324540945700,9.807945556640625,0.010823399759829044,-0.02726881206035614,-0.0018676281906664371
1780100324550939000,9.81793896484375,0.01001646090298891,-0.01679033786058426,0.002051213290542364
1780100324560931600,9.827931640625,0.008179896511137486,-0.003540197154507041,0.005823825486004353
1780100324570924800,9.8379248046875,0.0037286896258592606,0.011586025357246399,0.006568711716681719
1780100324580917800,9.847917724609376,0.002597266808152199,0.023322058841586113,0.00783299095928669
1780100324590910700,9.85791064453125,-0.0005191639065742493,0.03029155172407627,0.0064148567616939545
1780100324600904700,9.86790478515625,-0.004682335536926985,0.028734831139445305,0.005408388562500477
1780100324610897700,9.877897705078125,-0.00629195012152195,0.017733046784996986,0.0014908788725733757
1780100324620891000,9.887890869140625,-0.006864914204925299,0.003021109150722623,-0.00039523164741694927
1780100324630883600,9.897883544921875,-0.006773035041987896,-0.014678259380161762,-0.0022911359556019306
1780100324640876800,9.907876708984375,-0.005934831686317921,-0.02803787589073181,-0.0016026545781642199
1780100324650869800,9.917869873046875,-0.0029595480300486088,-0.03320547193288803,-0.001841007499024272
1780100324660864000,9.927864013671876,0.001605943776667118,-0.028700556606054306,-0.0005914358771406114
1780100324670856700,9.937856689453126,0.004630762152373791,-0.013326927088201046,0.0005976655520498753
1780100324680849700,9.947849609375,0.005270138382911682,0.008542269468307495,0.0007630259497091174
1780100324690843000,9.9578427734375,0.00432551559060812,0.029473118484020233,-0.00020636463887058198
1780100324700835600,9.967835693359374,0.0009637707844376564,0.04782131686806679,-0.002505487995222211
1780100324710828800,9.977828857421875,-0.003974262159317732,0.054959919303655624,-0.0072456481866538525
1780100324720822800,9.98782275390625,-0.007105262950062752,0.05460619926452637,-0.01572738215327263
1780100324730816000,9.99781591796875,-0.009879477322101593,0.044956501573324203,-0.021352777257561684
1780100324740808700,10.00780859375,-0.010219697840511799,0.02520870231091976,-0.016674336045980453
1780100324750802000,10.017802001953125,-0.009255633689463139,0.002616042271256447,-0.010269700549542904
1780100324760795000,10.027794921875,-0.003988966811448336,-0.014557885006070137,-0.0034147235564887524
1780100324770787800,10.037787841796876,0.0004569143056869507,-0.01975051686167717,0.0009930741507560015
1780100324780780800,10.04778076171875,0.0041242120787501335,-0.012705967761576176,0.0020782416686415672
1780100324790774800,10.05777490234375,0.0035990364849567413,-0.0003869829815812409,0.0002976522082462907
1780100324800767700,10.067767822265624,0.00340941920876503,0.01236343290656805,-0.002538880566135049
1780100324810760700,10.0777607421875,0.004204639233648777,0.018019454553723335,-0.004178056493401527
1780100324820754000,10.08775390625,0.002075997181236744,0.01669953390955925,-0.0025410002563148737
1780100324830747000,10.097746826171875,0.0007990114390850067,0.0042255534790456295,-0.0014325925149023533
1780100324840739800,10.10773974609375,-0.0006601465865969658,-0.006762086879462004,0.0018611997365951538
1780100324850733800,10.11773388671875,-0.002369629219174385,-0.016516180709004402,0.005554205272346735
1780100324860726800,10.127726806640625,-0.003323881421238184,-0.020151693373918533,0.006105593405663967
1780100324870719700,10.1377197265625,-0.0032032402232289314,-0.020871546119451523,0.005829157307744026
1780100324880712700,10.147712646484376,-0.0034346627071499825,-0.017776301130652428,0.004782937001436949
1780100324890706000,10.157705810546876,-0.0006431369110941887,-0.014956014230847359,0.0004097603668924421
1780100324900698600,10.16769873046875,0.00018699467182159424,-0.010587689466774464,-0.0028350241482257843
1780100324910691800,10.17769189453125,0.0014637140557169914,-0.007678451482206583,-0.0072822365909814835
1780100324920685800,10.187685791015625,0.0021912716329097748,-0.004039864055812359,-0.009096522815525532
1780100324930678800,10.1976787109375,-0.001646876335144043,-0.00024272901646327227,-0.008554835803806782
1780100324940671700,10.207671630859375,-0.0016191918402910233,0.005383227486163378,-0.00633349921554327
1780100324950664700,10.217664794921875,-0.001977653242647648,0.008630686439573765,-0.002438626252114773
1780100324960658000,10.227657958984375,-0.0017825858667492867,0.0065661584958434105,0.0027294333558529615
1780100324970650600,10.237650634765625,-0.0035935351625084877,-0.000639023375697434,0.006452532485127449
1780100324980644400,10.247644287109376,-0.004157829098403454,-0.008807942271232605,0.010066855698823929
1780100324990637600,10.257637451171876,-0.003973271697759628,-0.017372136935591698,0.010175778530538082
1780100325000630500,10.267630615234374,-0.0037143188528716564,-0.019645249471068382,0.007901754230260849
1780100325010623500,10.27762353515625,-0.004102075006812811,-0.014103211462497711,0.007187760900706053
1780100325020616400,10.287616455078124,-0.0026668384671211243,-0.004899738356471062,0.004604521673172712
1780100325030609700,10.297609619140625,-0.0031193094328045845,0.005092175677418709,0.0022681306581944227
1780100325040602400,10.307602294921875,-0.00022381916642189026,0.015987712889909744,0.001580420765094459
1780100325050596400,10.317596435546875,-0.0002874694764614105,0.018089747056365013,0.0013279530685395002
1780100325060589600,10.327589599609375,0.0012287674471735954,0.016145119443535805,0.0017276119906455278
1780100325070582500,10.33758251953125,0.00045325513929128647,0.008001172915101051,0.0011110902996733785
1780100325080575500,10.347575439453125,0.000149519182741642,-0.0009733401238918304,-0.0009583869832567871
1780100325090568400,10.357568359375,-0.001149037852883339,-0.012251028791069984,-0.0015631908318027854
1780100325100561700,10.367561767578126,0.0011757956817746162,-0.018360450863838196,-0.004377673380076885
1780100325110554400,10.377554443359376,0.00010893307626247406,-0.018582025542855263,-0.007498898543417454
1780100325120548600,10.387548583984374,0.002037135884165764,-0.014276689849793911,-0.00659298337996006
1780100325130541600,10.39754150390625,0.0013377899304032326,-0.0027915416285395622,-0.005406811833381653
1780100325140534500,10.407534423828125,0.0011603431776165962,0.005841172765940428,-0.003764483844861388
1780100325150527500,10.417527587890625,0.00045806821435689926,0.014660496264696121,-0.0017221055459231138
1780100325160520400,10.4275205078125,0.0019226772710680962,0.018967287614941597,0.0028637927025556564
1780100325170513700,10.437513671875,0.00004008878022432327,0.015301445499062538,0.004721347708255053
1780100325180507400,10.44750732421875,-0.0012499839067459106,0.008283304050564766,0.00337883154861629
1780100325190500600,10.45750048828125,-0.0003940444439649582,-0.005822927225381136,0.0018448508344590664
1780100325200493600,10.46749365234375,0.0005792416632175446,-0.014432141557335854,0.0006917837308719754
1780100325210486500,10.477486572265626,0.0004562037065625191,-0.020166194066405296,-0.0003561701742000878
1780100325220479500,10.4874794921875,0.0012452416121959686,-0.021260224282741547,-0.0001656454842304811
1780100325230472400,10.497472412109374,-0.00012948177754878998,-0.013581531122326851,0.0010146675631403923
1780100325240465700,10.507465576171874,0.00019822269678115845,-0.001124136382713914,0.001869743224233389
1780100325250459400,10.51745947265625,0.0010890504345297813,0.011193250305950642,0.004661268554627895
1780100325260452600,10.52745263671875,0.0002434840425848961,0.021299175918102264,0.004643952939659357
1780100325270445600,10.537445556640625,-0.0007219118997454643,0.023275241255760193,0.003580818884074688
1780100325280438500,10.5474384765625,-0.0005707358941435814,0.019260898232460022,0.001314686145633459
1780100325290431500,10.557431396484375,-0.0005212007090449333,0.009217053651809692,-0.00009838705591391772
1780100325300424400,10.567424560546876,-0.00018790364265441895,-0.0036527463234961033,-0.0031051612459123135
1780100325310417400,10.57741748046875,0.0005423352122306824,-0.01421244628727436,-0.0034154194872826338
1780100325320411400,10.587411376953124,0.0012683011591434479,-0.02329219877719879,-0.004757391754537821
1780100325330404600,10.597404541015624,0.0029301131144165993,-0.024949217215180397,-0.0038167634047567844
1780100325340397600,10.6073974609375,0.004038910381495953,-0.022821130231022835,-0.004378228448331356
1780100325350390500,10.617390625,0.0035563455894589424,-0.01430514082312584,-0.0037518527824431658
1780100325360383500,10.627383544921875,0.004440156742930412,-0.0021109525114297867,-0.003501830855384469
1780100325370376700,10.637376708984375,0.003720570355653763,0.005566407926380634,-0.0026610710192471743
1780100325380369400,10.647369384765625,0.0034711239859461784,0.010312587954103947,-0.00041970558231696486
1780100325390363400,10.65736328125,0.0017991913482546806,0.009778357110917568,0.0008977602701634169
1780100325400356600,10.667356689453126,0.001939806155860424,0.004624608438462019,0.0014429092407226562
1780100325410349600,10.677349609375,0.0009989114478230476,-0.0005134285311214626,0.0032346840016543865
1780100325420342500,10.687342529296876,0.00046630483120679855,-0.005279212724417448,0.003981445450335741
1780100325430335500,10.69733544921875,-0.0014032339677214622,-0.007716537453234196,0.00453005637973547
1780100325440328700,10.70732861328125,-0.0038237632252275944,-0.006556548643857241,0.004646855406463146
1780100325450321400,10.7173212890625,-0.004282093606889248,-0.0009505946072749794,0.005246333312243223
1780100325460315400,10.7273154296875,-0.0051001557148993015,0.005136065650731325,0.007069956511259079
1780100325470308600,10.73730859375,-0.005462612025439739,0.009741203859448433,0.005531448405236006
1780100325480301600,10.747301513671875,-0.006174345500767231,0.011963419616222382,0.004682231694459915
1780100325490294500,10.75729443359375,-0.005234515760093927,0.011433450505137444,0.003381011076271534
1780100325500287500,10.76728759765625,-0.00570217240601778,0.0069206045009195805,0.00028095580637454987
1780100325510280700,10.77728076171875,-0.0030347504653036594,-0.0015482472954317927,-0.0020969808101654053
1780100325520273400,10.7872734375,-0.0003136172890663147,-0.010511156171560287,-0.002961622318252921
1780100325530267400,10.797267333984376,0.004445452243089676,-0.020955009385943413,-0.003859640099108219
1780100325540260600,10.807260498046874,0.004630417563021183,-0.02588767185807228,-0.005342950113117695
1780100325550253600,10.817253662109374,0.006536176428198814,-0.0290704146027565,-0.007648448925465345
1780100325560246500,10.82724658203125,0.008252485655248165,-0.026019150391221046,-0.008505627512931824
1780100325570239500,10.837239501953125,0.008057274855673313,-0.020180702209472656,-0.006880566477775574
1780100325580232700,10.847232666015625,0.00808953307569027,-0.011508588679134846,-0.003789022797718644
1780100325590225400,10.857225341796875,0.009664259850978851,-0.0056975712068378925,-0.001711757155135274
1780100325600218600,10.867218505859375,0.007148071192204952,-0.0018778616795316339,0.00031635980121791363
1780100325610212600,10.877212646484375,0.006974167190492153,0.0030439263209700584,-0.0000873754033818841
1780100325620205600,10.88720556640625,0.00342366099357605,0.0075298454612493515,-0.0002187943464377895
1780100325630198500,10.897198486328126,-0.00024564284831285477,0.015238098800182343,-0.0055206152610480785
1780100325640191500,10.90719140625,-0.0017776694148778915,0.02501312457025051,-0.011614943854510784
1780100325650184700,10.917184814453124,-0.0037561324425041676,0.031161030754446983,-0.011971274390816689
1780100325660177400,10.927177490234374,-0.006052093114703894,0.03210487589240074,-0.010749982669949532
1780100325670170600,10.937170654296875,-0.006857699248939753,0.030031342059373856,-0.0030816763173788786
1780100325680164600,10.94716455078125,-0.006598955485969782,0.02486683800816536,0.0026163633447140455
1780100325690157300,10.9571572265625,-0.002240692265331745,0.021277695894241333,0.0048709954135119915
1780100325700150500,10.967150634765625,-0.0036030691117048264,0.022218069061636925,0.005277312360703945
1780100325710143500,10.9771435546875,-0.0013289954513311386,0.02430039457976818,0.0005685772048309445
1780100325720136700,10.98713671875,-0.0024250103160738945,0.0234487596899271,-0.0036687077954411507
1780100325730129400,10.99712939453125,-0.0007168585434556007,0.017338136211037636,-0.005398430861532688
1780100325740122600,11.00712255859375,-0.0042647416703403,0.00868517067283392,-0.006968771573156118
1780100325750116600,11.01711669921875,-0.0015363330021500587,-0.001314733293838799,-0.004826258402317762
1780100325760109300,11.027109375,-0.002179959788918495,-0.009968671016395092,-0.0024572196416556835
1780100325770102500,11.0371025390625,-0.002624441869556904,-0.013555682264268398,-0.0014987478498369455
1780100325780095500,11.047095458984375,0.0003846641629934311,-0.014350902289152145,0.0006400367710739374
1780100325790088400,11.05708837890625,0.0012170756235718727,-0.013233507052063942,0.00174228148534894
1780100325800081400,11.067081298828125,0.0028992975130677223,-0.014043917879462242,0.001902951393276453
1780100325810074600,11.07707470703125,0.004488672129809856,-0.01782773807644844,0.0004595181089825928
1780100325820068600,11.087068603515625,0.007705640979111195,-0.019002530723810196,0.0011273736599832773
1780100325830061300,11.097061279296875,0.006178052164614201,-0.017136720940470695,0.00006397344986908138
1780100325840054500,11.107054443359376,0.006230352446436882,-0.014715776778757572,0.0011005302658304572
1780100325850047500,11.117047607421876,0.004976270720362663,-0.01166086457669735,0.0022350368089973927
1780100325860040400,11.12704052734375,0.002422202378511429,-0.004809628240764141,0.006056221667677164
1780100325870033400,11.137033447265624,0.0006386833265423775,0.0030062170699238777,0.010729803703725338
1780100325880026600,11.147026611328124,-0.00010577309876680374,0.0034471056424081326,0.011858928948640823
1780100325890019300,11.157019287109375,-0.0006842119619250298,0.0034180772490799427,0.013407024554908276
1780100325900013600,11.167013671875,-0.0017863158136606216,-0.0006349363829940557,0.011165007017552853
1780100325910006500,11.177006591796875,-0.001451290212571621,-0.005195866338908672,0.007224327884614468
1780100325919999500,11.18699951171875,-0.0019105272367596626,-0.009636936709284782,0.0030118157155811787
1780100325929992400,11.196992431640625,-0.002782711759209633,-0.007301876321434975,-0.000920075282920152
1780100325939985400,11.2069853515625,-0.004038959741592407,-0.004675263538956642,-0.0043077627196908
1780100325949978600,11.216978515625,-0.001806432381272316,-0.0015489786164835095,-0.0040225381962955
1780100325959971300,11.226971435546876,-0.0004224628210067749,0.0002013305784203112,-0.0038875597529113293
1780100325969964500,11.236964599609376,-0.0002267211675643921,0.0016532860463485122,-0.0036593268159776926
1780100325979958500,11.24695849609375,0.001067042350769043,-0.00036778690991923213,-0.0006893695681355894
1780100325989951500,11.256951416015625,0.002714740112423897,-0.0034341507125645876,-0.0005261178012005985
1780100325999944400,11.2669443359375,0.003420984372496605,-0.010259242728352547,0.0017404878744855523
1780100326009937400,11.2769375,0.0040558818727731705,-0.012629455886781216,0.00029013032326474786
1780100326019930600,11.2869306640625,0.0038535911589860916,-0.015296895988285542,-0.0003946443321183324
1780100326029923300,11.29692333984375,0.00426265224814415,-0.013638812117278576,-0.0015129056992009282
1780100326039916500,11.30691650390625,0.003602057695388794,-0.008672889322042465,-0.0013300117570906878
1780100326049910500,11.31691064453125,0.0017596827819943428,-0.001709788222797215,-0.0005529013578779995
1780100326059903700,11.32690380859375,-0.00009561702609062195,0.005322243086993694,0.00019431114196777344
1780100326069896400,11.336896484375,-0.001241043210029602,0.008304450660943985,0.0017290908144786954
1780100326079889400,11.346889404296874,-0.002440899610519409,0.007607904262840748,0.0011402113595977426
1780100326089882600,11.356882568359374,-0.003469145856797695,0.00394952017813921,0.0010778934229165316
1780100326099875300,11.366875244140624,-0.002536213956773281,-0.0020533015485852957,-0.0016092254081740975
1780100326109868500,11.37686865234375,-0.001310095191001892,-0.007265107706189156,-0.001602034899406135
1780100326119861500,11.386861572265625,-0.0015059271827340126,-0.011512533761560917,-0.0028067503590136766
1780100326129855700,11.396855712890625,-0.0001719500869512558,-0.012364745140075684,-0.00048447397421114147
1780100326139848400,11.406848388671875,0.00041105225682258606,-0.008959564380347729,0.0003276702482253313
1780100326149841700,11.416841552734375,0.002244638279080391,-0.002804200164973736,0.0028182584792375565
1780100326159834600,11.426834716796876,0.0011263629421591759,0.0011903033591806889,0.003177247243002057
1780100326169827600,11.43682763671875,0.0008368771523237228,0.007026620674878359,0.004099765792489052
1780100326179820500,11.446820556640626,-0.0007969718426465988,0.009563015773892403,0.005257442593574524
1780100326189813500,11.4568134765625,-0.0007325233891606331,0.009806695394217968,0.0035381054040044546
1780100326199806500,11.466806396484374,0.00011133868247270584,0.007597858086228371,0.002561073051765561
1780100326209800400,11.476800537109375,-0.0014865584671497345,0.0030907243490219116,0.0010947366245090961
1780100326219793700,11.486793701171875,-0.0012223804369568825,0.0002380934456596151,0.00031056610168889165
1780100326229786600,11.49678662109375,-0.0014825714752078056,-0.003753452328965068,-0.0005403138929978013
1780100326239779600,11.506779541015625,-0.0024795429781079292,-0.00550464540719986,-0.0013866066001355648
1780100326249772500,11.5167724609375,-0.003627898171544075,-0.00643941480666399,-0.0029829053673893213
1780100326259765500,11.526765625,-0.0037087569944560528,-0.006956204771995544,-0.0017719113966450095
1780100326269758500,11.536758544921875,-0.0015025939792394638,-0.006244075484573841,-0.0006107731023803353
1780100326279751400,11.54675146484375,-0.0006933249533176422,-0.0015329517191275954,-0.0004364927881397307
1780100326289745700,11.55674560546875,0.0014084409922361374,0.0019651104230433702,0.0016375770792365074
1780100326299738600,11.566738525390624,0.0013789394870400429,0.0014115943340584636,0.0012248081620782614
1780100326309731600,11.576731689453124,0.002805594354867935,0.001749283168464899,0.0030770364683121443
1780100326319724500,11.586724609375,0.002469640225172043,0.0011422751704230905,0.002568307565525174
1780100326329717800,11.5967177734375,0.002890685573220253,-0.0030969444196671247,0.001811437075957656
1780100326339710500,11.60671044921875,0.0020046671852469444,-0.004373692441731691,0.0008074307115748525
1780100326349703400,11.616703369140625,0.0014238310977816582,-0.005157460458576679,0.0014910640893504024
1780100326359696600,11.626696533203125,0.0016417857259511948,-0.0038900794461369514,0.0005516913952305913
1780100326369690400,11.6366904296875,0.0015216777101159096,-0.004196875728666782,-0.00011569677735678852
1780100326379683600,11.64668359375,0.001518906094133854,-0.005910336039960384,-0.00023652844538446516
1780100326389676500,11.656676513671876,0.0008171629160642624,-0.006637379061430693,0.0002079531259369105
1780100326399669800,11.666669677734374,-0.0002586459740996361,-0.00911493506282568,-0.0008616481791250408
1780100326409662500,11.676662353515624,-0.001914333552122116,-0.010977017693221569,-0.0027048219926655293
1780100326419655700,11.68665576171875,-0.0006521102041006088,-0.011074590496718884,-0.001493942691013217
1780100326429648600,11.696648681640625,-0.0006374623626470566,-0.01062824483960867,-0.0029653392266482115
1780100326439641600,11.7066416015625,-0.0001903614029288292,-0.0056925248354673386,-0.0027102238964289427
1780100326449635600,11.716635498046875,-0.0011232662945985794,-0.0031872892286628485,-0.002955234842374921
1780100326459628500,11.726628662109375,-0.00032310839742422104,0.0011952542699873447,-0.0007234353106468916
1780100326469621500,11.73662158203125,0.0018606837838888168,0.005638738628476858,0.0010086846305057406
1780100326479614500,11.746614501953125,0.002082006074488163,0.009526926092803478,-0.00010531044972594827
1780100326489607700,11.756607666015626,0.0005509546026587486,0.011122958734631538,0.0014100281987339258
1780100326499600400,11.766600341796876,-0.0000368412584066391,0.010658439248800278,-0.000477234018035233
1780100326509593600,11.776593505859376,-0.0005028946325182915,0.0038484702818095684,-0.00017603048763703555
1780100326519586600,11.786586669921874,0.0016779834404587746,-0.0026475400663912296,-0.0019907031673938036
1780100326529579500,11.79657958984375,0.0016777170822024345,-0.010237549431622028,-0.00002209446392953396
1780100326539573500,11.806573486328125,0.0002568196505308151,-0.013221217319369316,-0.00017501466209068894
1780100326549566500,11.81656640625,0.002645675092935562,-0.011853951029479504,0.0001232593785971403
1780100326559559700,11.8265595703125,-0.001569453626871109,-0.00367755931802094,-0.0017343660583719611
1780100326569552400,11.836552490234375,-0.00475166505202651,0.011537612415850163,-0.005421512294560671
1780100326579545600,11.846545654296875,-0.005087259691208601,0.03244788944721222,-0.012414587661623955
1780100326589538600,11.85653857421875,-0.006598869804292917,0.05202532187104225,-0.015428486280143261
1780100326599531500,11.866531494140625,-0.007309062872081995,0.058439671993255615,-0.013036142103374004
1780100326609524500,11.8765244140625,-0.006016630679368973,0.05082569271326065,-0.008125007152557373
1780100326619518500,11.8865185546875,-0.00336137181147933,0.03424394503235817,-0.00521465577185154
1780100326629511700,11.89651171875,0.000305800698697567,0.01498849131166935,-0.002798103028908372
1780100326639504400,11.90650439453125,0.0016720378771424294,-0.0010340880835428834,-0.002487432211637497
1780100326649497600,11.91649755859375,0.0025053415447473526,-0.01283162459731102,-0.002784374635666609
1780100326659490600,11.926490478515625,0.004683122970163822,-0.018640410155057907,-0.00622272165492177
1780100326669483500,11.9364833984375,0.005445586517453194,-0.017655307427048683,-0.003941191826015711
1780100326679476500,11.9464765625,0.00825889129191637,-0.015496703796088696,-0.0021430463530123234
1780100326689469700,11.9564697265625,0.003974396735429764,-0.008279271423816681,0.0021574259735643864
