time,seconds_elapsed,z,y,x
1779989216541784000,0.1267841796875,5.310817718505859,-2.6437249183654785,0.1291513442993164
1779989216558115600,0.143115478515625,5.733562469482422,-4.833840847015381,2.0628812313079834
1779989216574450700,0.15945068359375,1.9485540390014648,-3.0672364234924316,1.4343268871307373
1779989216590794500,0.17579443359375,-1.2376813888549805,-0.9806826114654541,1.4208509922027588
1779989216607137500,0.192137451171875,-2.0945029258728027,-1.0847303867340088,2.485774517059326
1779989216623458600,0.20845849609375,-1.640087604522705,-2.50258207321167,2.628488540649414
1779989216639789800,0.224789794921875,-1.5255250930786133,-1.9960675239562988,1.7117760181427002
1779989216656131300,0.24113134765625,-0.7763538360595703,0.21171140670776367,0.01765330135822296
1779989216672443000,0.25744287109375,1.2633028030395508,0.5349500179290771,0.12230876088142395
1779989216688774700,0.273774658203125,0.5323019027709961,-0.8300457000732422,1.280997395515442
1779989216705125400,0.29012548828125,-1.5385613441467285,-0.5303282737731934,0.20713680982589722
1779989216721445000,0.306445068359375,-1.6810355186462402,-0.3723735809326172,-0.5997405052185059
1779989216737790500,0.32279052734375,-0.1252574920654297,1.2357618808746338,-1.2444825172424316
1779989216754120700,0.33912060546875,1.5675220489501953,1.2347736358642578,-0.5655377507209778
1779989216770456300,0.355456298828125,3.03690242767334,0.43692731857299805,1.6025564670562744
1779989216786791700,0.371791748046875,3.3884048461914062,0.7948102951049805,1.7297449111938477
1779989216803123500,0.38812353515625,3.421868324279785,1.1577696800231934,0.23880535364151
1779989216819453200,0.404453125,2.61138916015625,0.6104586124420166,-0.6430516242980957
1779989216835787800,0.420787841796875,1.0685691833496094,-0.9928869009017944,-0.5626699924468994
1779989216852117500,0.437117431640625,0.609776496887207,-0.5820473432540894,-0.6478737592697144
1779989216868449000,0.453448974609375,-0.399993896484375,0.08392402529716492,-0.04622530937194824
1779989216884788000,0.4697880859375,-1.2105541229248047,0.5921530723571777,0.6408870220184326
1779989216901120500,0.48612060546875,-3.9186229705810547,-0.5946823358535767,1.9861388206481934
1779989216917448400,0.502448486328125,-5.765958786010742,-0.5766665935516357,1.6251133680343628
1779989216933784000,0.5187841796875,-6.9636712074279785,-1.0914676189422607,0.5731232762336731
1779989216950114000,0.535114013671875,-8.299309730529785,-1.7821544408798218,-2.1440370082855225
1779989216966450700,0.55145068359375,-10.612688064575195,-4.137113094329834,-2.78603458404541
1779989216982776800,0.56777685546875,-13.310307502746582,-6.684691429138184,-1.0817238092422485
1779989216999120100,0.5841201171875,-13.16412353515625,-6.678890705108643,-1.0477546453475952
1779989217015447300,0.600447265625,-12.535821914672852,-7.28709077835083,-1.2790405750274658
1779989217031767800,0.616767822265625,-12.07522964477539,-8.817302703857422,-1.2896218299865723
1779989217048115700,0.63311572265625,-9.60718822479248,-10.159192085266113,0.008303642272949219
1779989217064444400,0.6494443359375,-4.683931827545166,-11.593551635742188,1.2879796028137207
1779989217080778200,0.6657783203125,-0.981940746307373,-11.24173641204834,2.6557555198669434
1779989217097099500,0.682099609375,-1.627823829650879,-8.518200874328613,4.044645309448242
1779989217113442300,0.6984423828125,-2.3003249168395996,-5.902904033660889,6.747811317443848
1779989217129777400,0.71477734375,-1.7710405588150024,-4.190451145172119,9.601045608520508
1779989217146111500,0.731111572265625,-0.019858121871948242,-1.3906047344207764,12.978225708007812
1779989217162443500,0.747443603515625,2.3832602500915527,0.36715584993362427,15.328316688537598
1779989217178774800,0.76377490234375,1.8835530281066895,0.8864692449569702,16.607099533081055
1779989217195107800,0.78010791015625,0.7220351696014404,1.9646425247192383,16.42534065246582
1779989217211440600,0.796440673828125,-3.4029228687286377,3.3993380069732666,16.386398315429688
1779989217227774500,0.8127744140625,-16.169944763183594,9.514396667480469,21.12986183166504
1779989217244109000,0.829109130859375,-16.784793853759766,12.753186225891113,16.58139991760254
1779989217260439300,0.845439208984375,-4.201179504394531,5.0479865074157715,12.109041213989258
1779989217276772000,0.861772216796875,-2.8809001445770264,0.26741528511047363,7.533476829528809
1779989217293105400,0.87810546875,-2.884840726852417,0.5389599800109863,3.244974136352539
1779989217309440300,0.894440185546875,-0.4203176498413086,0.36936330795288086,3.0407638549804688
1779989217325771500,0.910771484375,2.526289463043213,-1.0160901546478271,5.492312431335449
1779989217342105600,0.927105712890625,-0.19109570980072021,0.5025410652160645,0.8179798126220703
1779989217358435800,0.943435791015625,4.121784687042236,6.0611572265625,-4.268892288208008
1779989217374753300,0.959753173828125,-1.0471025705337524,2.5623326301574707,-7.566205024719238
1779989217391103500,0.976103515625,-3.42075252532959,0.9950153827667236,-11.851327896118164
1779989217407426600,0.992426513671875,-1.7344567775726318,5.754084587097168,-14.672569274902344
1779989217423768800,1.008768798828125,1.42301607131958,3.910548210144043,-9.953903198242188
1779989217440101400,1.025101318359375,3.519413471221924,2.043973445892334,-6.019560813903809
1779989217456432600,1.0414326171875,4.188362121582031,3.050919771194458,-3.834190845489502
1779989217472753200,1.057753173828125,-4.521353721618652,1.430163860321045,-3.34513521194458
1779989217489102000,1.07410205078125,-4.013838768005371,1.7351922988891602,0.7851810455322266
1779989217505431800,1.090431884765625,-1.059241771697998,0.04737520217895508,3.9452428817749023
1779989217521765600,1.106765625,0.5816891193389893,-0.529045581817627,8.252208709716797
1779989217538099000,1.123098876953125,-4.859047889709473,-1.4220466613769531,13.50587272644043
1779989217554421800,1.139421875,-3.5117859840393066,-0.754939079284668,13.210245132446289
1779989217570763300,1.15576318359375,-3.110288143157959,-1.4764142036437988,12.04680061340332
1779989217587097600,1.17209765625,1.0105082988739014,0.6820459365844727,12.236351013183594
1779989217603424500,1.188424560546875,-4.6488447189331055,-5.452253818511963,6.4069013595581055
1779989217619765500,1.204765625,-1.7261749505996704,-4.463742733001709,1.6782503128051758
1779989217636091400,1.22109130859375,-0.399009108543396,-4.285094738006592,-0.9921665191650391
1779989217652431000,1.23743115234375,-1.7984222173690796,-3.109860420227051,-0.036138057708740234
1779989217668759800,1.253759765625,9.114398002624512,-7.055671691894531,7.301640510559082
1779989217685082600,1.27008251953125,3.5145702362060547,0.9829697608947754,-0.9740810394287109
1779989217701425700,1.28642578125,-3.804800510406494,-6.403636932373047,4.787602424621582
1779989217717759700,1.302759765625,2.9476964473724365,-0.7532286643981934,0.4652438163757324
1779989217734090800,1.3190908203125,-6.410555839538574,0.8942050933837891,-1.1534409523010254
1779989217750424000,1.335424072265625,-4.01671028137207,0.756894588470459,-0.2501521110534668
1779989217766756400,1.35175634765625,-1.3975343704223633,1.9222302436828613,-2.4153974056243896
1779989217783091000,1.368091064453125,-0.25351715087890625,2.643484592437744,0.8506569862365723
1779989217799422000,1.384421875,-2.180569887161255,5.094823837280273,-1.269331455230713
1779989217815757800,1.4007578125,2.7607107162475586,2.742304801940918,-2.0336833000183105
1779989217832088600,1.417088623046875,-1.2761640548706055,6.189187526702881,0.03721284866333008
1779989217848420900,1.4334208984375,0.5558199882507324,8.891948699951172,2.7604734897613525
1779989217864756200,1.449756103515625,-2.4554147720336914,5.540047645568848,1.344735860824585
1779989217881084700,1.466084716796875,-0.06623506546020508,1.569981575012207,-2.351527452468872
1779989217897423600,1.482423583984375,-1.2423453330993652,0.014277458190917969,-3.4425301551818848
1779989217913754400,1.49875439453125,-1.3538818359375,1.6354150772094727,0.08760452270507812
1779989217930085400,1.51508544921875,4.167843818664551,4.295610427856445,2.9179296493530273
1779989217946438000,1.53143798828125,-5.74026346206665,-0.3333768844604492,4.365556716918945
1779989217962749400,1.54774951171875,-2.5296390056610107,0.16559219360351562,1.3252451419830322
1779989217979088000,1.564087890625,-0.05859708786010742,1.8328042030334473,-2.043384075164795
1779989217995414800,1.580414794921875,-3.2062625885009766,1.0183277130126953,-5.462701797485352
1779989218011753500,1.59675341796875,-3.586773633956909,-0.026239395141601562,-7.8973493576049805
1779989218028063000,1.61306298828125,-2.3417744636535645,-4.281694412231445,-5.385741710662842
1779989218044417500,1.62941748046875,4.551425457000732,-2.3466110229492188,2.5224575996398926
1779989218060749000,1.6457490234375,-1.3654828071594238,-1.3389110565185547,18.002321243286133
1779989218077083000,1.662082763671875,-7.757831573486328,-2.4190683364868164,8.840810775756836
1779989218093401600,1.678401611328125,-3.060407876968384,2.2918334007263184,4.557760238647461
1779989218109749200,1.694749267578125,-3.9945688247680664,3.212399482727051,4.00000524520874
1779989218126079200,1.711079345703125,-3.1852970123291016,5.305502891540527,8.588713645935059
1779989218142415400,1.727415283203125,12.225702285766602,-3.5559568405151367,9.138786315917969
1779989218158747000,1.743746826171875,8.827281951904297,-4.8378095626831055,3.1931495666503906
1779989218175079200,1.7600791015625,-0.1963210105895996,0.2223644256591797,-6.922667503356934
1779989218191411200,1.7764111328125,-7.738335609436035,4.105055809020996,-11.242740631103516
1779989218207746800,1.792746826171875,-0.6907000541687012,1.5434880256652832,-11.039475440979004
1779989218224076800,1.809076904296875,1.2628141641616821,-4.3267412185668945,-4.4118852615356445
1779989218240411000,1.825410888671875,-0.4371483325958252,-0.7973861694335938,-5.298730850219727
1779989218256742400,1.841742431640625,-2.8296701908111572,3.4409713745117188,-12.11298942565918
1779989218273077200,1.8580771484375,-0.9875710010528564,3.1155457496643066,-8.639345169067383
1779989218289405700,1.87440576171875,-2.9055445194244385,0.43935203552246094,-7.079553604125977
1779989218305744400,1.890744384765625,-1.1212234497070312,-1.5537633895874023,5.014093399047852
1779989218322072600,1.907072509765625,5.306821823120117,3.425940990447998,14.002310752868652
1779989218338412500,1.92341259765625,9.338644981384277,-1.1162986755371094,13.208967208862305
1779989218354741000,1.939740966796875,1.5919034481048584,4.436545372009277,4.8510847091674805
1779989218371062300,1.956062255859375,-16.778106689453125,2.8145337104797363,2.640200614929199
1779989218387407000,1.972406982421875,-2.9517416954040527,0.5407671928405762,0.8794431686401367
1779989218403741700,1.98874169921875,2.837017059326172,1.0331230163574219,1.4303932189941406
1779989218420071400,2.005071533203125,-35.84940719604492,1.759500503540039,-2.5788660049438477
1779989218436410400,2.021410400390625,13.800446510314941,0.5161027908325195,2.209868907928467
1779989218452737300,2.0377373046875,14.308911323547363,2.7851595878601074,-3.512103319168091
1779989218469072000,2.05407177734375,-6.743338584899902,1.8223390579223633,-1.1462783813476562
1779989218485400300,2.070400390625,-4.035914421081543,0.931556224822998,-1.3380568027496338
1779989218501743400,2.086743408203125,0.2639141082763672,-1.88580322265625,0.24616718292236328
1779989218518069500,2.103069580078125,0.6964151859283447,-0.2234363555908203,-0.2795119285583496
1779989218534404900,2.11940478515625,-12.746103286743164,-4.592599868774414,5.248783111572266
1779989218550736100,2.135736083984375,3.742753505706787,5.860469818115234,-3.2164933681488037
1779989218567069700,2.152069580078125,-4.150937080383301,6.137320518493652,3.6386358737945557
1779989218583401000,2.16840087890625,-2.9276297092437744,7.710515022277832,7.958173751831055
1779989218599738400,2.18473828125,-1.0842466354370117,7.647855758666992,4.145925998687744
1779989218616064500,2.201064453125,1.3613855838775635,4.0472412109375,4.572025299072266
1779989218632399000,2.217399169921875,0.7513397932052612,1.1054620742797852,2.834394931793213
1779989218648736800,2.23373681640625,-2.926666021347046,-1.4774045944213867,1.6363184452056885
1779989218665067300,2.2500673828125,-2.002305269241333,-8.123429298400879,0.43989992141723633
1779989218681387000,2.266386962890625,1.4206504821777344,-12.762603759765625,2.3401291370391846
1779989218697734000,2.28273388671875,10.666742324829102,-0.28138160705566406,1.6677899360656738
1779989218714064400,2.299064453125,4.278229713439941,1.3436756134033203,0.5373741388320923
1779989218730400300,2.315400146484375,3.094886302947998,1.7674479484558105,-0.3620879650115967
1779989218746740700,2.33174072265625,-0.7664326429367065,-3.5668458938598633,-3.110045909881592
1779989218763064800,2.34806494140625,-11.981725692749023,-2.063540458679199,-0.860029399394989
1779989218779398000,2.36439794921875,-5.197959899902344,-1.1623878479003906,-4.442987442016602
1779989218795732200,2.380732177734375,2.365565061569214,1.4768085479736328,-3.817497730255127
1779989218812063200,2.397063232421875,1.0982935428619385,-0.3004579544067383,-3.4124555587768555
1779989218828392000,2.413391845703125,-0.17501229047775269,-0.2808055877685547,-3.3248348236083984
1779989218844734700,2.429734619140625,-0.3266979157924652,1.1163501739501953,-3.0488204956054688
1779989218861063400,2.4460634765625,-1.1881271600723267,1.0503454208374023,-1.844896674156189
1779989218877395200,2.462395263671875,0.6357241868972778,0.2762794494628906,-0.03244447708129883
1779989218893729300,2.478729248046875,1.534073829650879,0.08777904510498047,1.3216460943222046
1779989218910061300,2.495061279296875,1.2523362636566162,-0.12009143829345703,1.2716766595840454
1779989218926410200,2.51141015625,0.16255199909210205,1.069615364074707,0.5020534992218018
1779989218942721800,2.5277216796875,-1.1146750450134277,2.5713725090026855,-0.10032236576080322
1779989218959066400,2.54406640625,0.005320847034454346,4.520724773406982,0.523373007774353
1779989218975390200,2.56039013671875,0.5082372426986694,5.243050575256348,0.22017037868499756
1779989218991730400,2.57673046875,0.10797381401062012,5.7340803146362305,-0.6271835565567017
1779989219008057000,2.59305712890625,0.13904458284378052,6.608625888824463,-1.2542225122451782
1779989219024385000,2.609385009765625,-0.1328798532485962,7.30318546295166,-1.7319062948226929
1779989219040725000,2.62572509765625,-0.28757989406585693,7.7817487716674805,-1.7791757583618164
1779989219057059300,2.642059326171875,1.081811547279358,7.820568561553955,-1.024791955947876
1779989219073390000,2.65839013671875,1.2958779335021973,7.449665546417236,-0.12906718254089355
1779989219089723400,2.674723388671875,0.6799793243408203,6.973923683166504,0.9107174873352051
1779989219106056400,2.691056396484375,-0.22036588191986084,5.31944465637207,2.567628860473633
1779989219122389000,2.707388916015625,-0.3065375089645386,-12.523086547851562,3.442352056503296
1779989219138722800,2.723722900390625,-0.9729924201965332,-37.3433837890625,4.454643726348877
1779989219155058000,2.740057861328125,-1.1563481092453003,-5.83835506439209,3.9269328117370605
1779989219171388700,2.756388671875,-2.508984327316284,1.575204849243164,0.40679192543029785
1779989219187719200,2.77271923828125,0.15093779563903809,-2.849254608154297,-0.9142154455184937
1779989219204059100,2.78905908203125,-1.0638701915740967,-5.797157287597656,-0.316164493560791
1779989219220386800,2.80538671875,-2.2196297645568848,-3.909372329711914,-0.8263669013977051
1779989219236719400,2.82171923828125,-1.3927724361419678,-3.310044288635254,-1.5003864765167236
1779989219253053200,2.83805322265625,0.586653470993042,-4.226798057556152,-1.2674307823181152
1779989219269388800,2.854388916015625,0.770453929901123,-3.079512596130371,-0.9670655727386475
1779989219285715000,2.87071484375,0.9299089908599854,-2.086594581604004,-0.8888206481933594
1779989219302058800,2.887058837890625,0.35997676849365234,0.02287769317626953,-0.34649062156677246
1779989219318383600,2.903383544921875,-0.5554907321929932,1.4084186553955078,0.7641522884368896
1779989219334707000,2.91970703125,-0.4431418180465698,-2.3944664001464844,0.4939991235733032
1779989219351050200,2.93605029296875,-2.1264355182647705,-5.673803329467773,0.2468738555908203
1779989219367374000,2.9523740234375,-1.7089896202087402,-4.650096893310547,0.3334314823150635
1779989219383718400,2.968718505859375,-1.0238878726959229,-2.51046085357666,0.2454656958580017
1779989219400058000,2.98505810546875,0.11370480060577393,-2.6224632263183594,-0.6158484220504761
1779989219416388900,3.001388916015625,-0.2627173066139221,-2.5843687057495117,-1.435997724533081
1779989219432717000,3.017717041015625,0.09100568294525146,-1.3529043197631836,-2.3467750549316406
1779989219449056000,3.034055908203125,-0.9918140172958374,1.6779475212097168,-1.4885505437850952
1779989219465381600,3.050381591796875,-0.8309953212738037,3.3697948455810547,-0.5801368951797485
1779989219481716200,3.06671630859375,1.2605369091033936,3.2599658966064453,-0.6851840615272522
1779989219498053400,3.083053466796875,-1.3593287467956543,2.2931771278381348,1.1942453384399414
1779989219514381000,3.099381103515625,-0.04870009422302246,0.9259023666381836,1.907539963722229
1779989219530714400,3.11571435546875,1.4641817808151245,3.3691635131835938,0.4308955669403076
1779989219547048000,3.1320478515625,2.895362377166748,3.208350658416748,-1.2274949550628662
1779989219563377400,3.14837744140625,-0.2973170280456543,-0.31005191802978516,-0.9109206199645996
1779989219579720000,3.164719970703125,0.38123416900634766,-1.0224685668945312,-1.1179403066635132
1779989219596051000,3.181051025390625,5.382530212402344,2.627488136291504,-3.9449615478515625
1779989219612382500,3.197382568359375,3.9301772117614746,3.536996364593506,-1.6941328048706055
1779989219628710100,3.213710205078125,0.11748886108398438,5.927690505981445,0.4428013265132904
1779989219645054500,3.230054443359375,-1.9492239952087402,6.862550735473633,0.09965953230857849
1779989219661379000,3.246379150390625,1.2310960292816162,6.368679523468018,0.2738346457481384
1779989219677697300,3.262697265625,0.4468879699707031,5.505126953125,1.1710395812988281
1779989219694029600,3.279029541015625,0.0855093002319336,4.760188102722168,1.5728284120559692
1779989219710380800,3.295380859375,-1.4850316047668457,5.321193695068359,2.400397300720215
1779989219726708200,3.311708251953125,-1.8374857902526855,3.2309799194335938,2.6404097080230713
1779989219743049000,3.328049072265625,-1.850644588470459,1.269381046295166,4.086402416229248
1779989219759361000,3.344361083984375,-0.5017156600952148,-0.9700517654418945,4.416844844818115
1779989219775700000,3.360699951171875,-2.4109392166137695,-2.8740110397338867,1.420882225036621
1779989219792041200,3.377041259765625,1.895481824874878,-2.4561538696289062,-3.604781150817871
1779989219808373000,3.393373046875,-5.339175224304199,-7.366996765136719,-0.9321773052215576
1779989219824711400,3.40971142578125,-0.7442786693572998,-2.8538599014282227,-1.4083166122436523
1779989219841046000,3.4260458984375,1.2579963207244873,0.9490194320678711,-0.5272576212882996
1779989219857373400,3.44237353515625,4.811278343200684,1.2365407943725586,-1.0564815998077393
1779989219873708500,3.45870849609375,1.077657699584961,-1.232203483581543,-2.1171438694000244
1779989219890042600,3.475042724609375,2.1284210681915283,-3.0086679458618164,-2.2375423908233643
1779989219906376000,3.4913759765625,1.4067727327346802,-4.551619529724121,-1.6609587669372559
1779989219922707700,3.507707763671875,0.30925917625427246,-5.016260147094727,-1.2992119789123535
1779989219939048400,3.52404833984375,0.04185771942138672,-4.0883893966674805,-0.7574026584625244
1779989219955366400,3.540366455078125,-0.26642608642578125,-1.9627685546875,-0.1468217372894287
1779989219971706400,3.556706298828125,0.5416828393936157,0.12586212158203125,0.18433904647827148
1779989219988019700,3.573019775390625,1.6560652256011963,0.9743919372558594,-0.06076920032501221
1779989220004371500,3.589371337890625,1.7332843542099,0.8901634216308594,-0.34838247299194336
1779989220020712700,3.605712646484375,0.7605326771736145,1.0932035446166992,-0.5125182867050171
1779989220037040600,3.62204052734375,0.4343949556350708,1.5319252014160156,-0.6504017114639282
1779989220053354200,3.638354248046875,0.32535839080810547,2.070650577545166,-0.15277481079101562
1779989220069705700,3.654705810546875,0.5351100564002991,2.888216972351074,0.4217492341995239
1779989220086037500,3.67103759765625,0.5826255083084106,2.838352680206299,0.5436520576477051
1779989220102370300,3.687370361328125,-0.07968959212303162,2.9858031272888184,1.0074717998504639
1779989220118702800,3.703702880859375,-0.3724297881126404,2.7292556762695312,1.2718256711959839
1779989220135038000,3.720037841796875,-0.8005766272544861,2.518998146057129,0.8453628420829773
1779989220151368400,3.736368408203125,-0.4597405791282654,2.1425065994262695,0.2463458776473999
1779989220167701500,3.752701416015625,-0.5030697584152222,1.9445157051086426,-0.5173133611679077
1779989220184033800,3.76903369140625,-1.0398225784301758,1.9302067756652832,-0.22807681560516357
1779989220200367900,3.785367919921875,-0.3711342215538025,1.8993773460388184,0.32511699199676514
1779989220216699600,3.80169970703125,-0.4455743730068207,1.223027229309082,0.6210153102874756
1779989220233035500,3.818035400390625,-0.011704310774803162,1.0425004959106445,0.6022548675537109
1779989220249364200,3.8343642578125,-0.21520717442035675,0.23533916473388672,0.43203437328338623
1779989220265703400,3.850703369140625,-1.042447805404663,-0.8520402908325195,0.672234296798706
1779989220282028500,3.867028564453125,-1.8242206573486328,-2.095714569091797,1.510636806488037
1779989220298359300,3.883359375,-1.8457893133163452,-3.254556655883789,2.4097070693969727
1779989220314697500,3.899697509765625,-1.8224592208862305,-3.8931846618652344,2.6869115829467773
1779989220331020500,3.9160205078125,-0.9953776597976685,-4.1904497146606445,1.9984387159347534
1779989220347363000,3.932363037109375,-0.6147644519805908,-4.242691993713379,1.626291036605835
1779989220363702000,3.948701904296875,0.16271543502807617,-4.579474449157715,1.1955475807189941
1779989220380032500,3.965032470703125,0.3232329487800598,-4.770299911499023,-0.05075192451477051
1779989220396359400,3.981359375,-0.915285587310791,-4.9535017013549805,-0.5958273410797119
1779989220412686600,3.9976865234375,-1.172806978225708,-6.17643928527832,-0.553879976272583
1779989220429032400,4.014032470703125,-0.5236775875091553,-5.190649032592773,-0.9248111248016357
1779989220445363700,4.03036376953125,-1.442354679107666,-2.99668025970459,0.07402801513671875
1779989220461697300,4.046697265625,-1.0984922647476196,-1.4287691116333008,1.5121549367904663
1779989220478031000,4.063031005859375,-1.0741748809814453,-0.1010599136352539,1.7546718120574951
1779989220494364000,4.079364013671875,-1.6551499366760254,-0.42060375213623047,1.3032230138778687
1779989220510682600,4.0956826171875,-1.3794718980789185,-1.387211799621582,0.7723449468612671
1779989220527028700,4.11202880859375,-0.01425248384475708,-2.1491355895996094,0.5227869749069214
1779989220543361300,4.128361328125,0.7516295313835144,-2.1322412490844727,0.003187894821166992
1779989220559693000,4.144693115234375,0.22431552410125732,-1.6464996337890625,-0.7797788381576538
1779989220576018200,4.16101806640625,-0.5725778341293335,0.027955055236816406,-1.143569827079773
1779989220592348700,4.1773486328125,-0.48279762268066406,1.0259122848510742,-0.9018365144729614
1779989220608698000,4.193697998046875,-0.4099923372268677,2.110424518585205,-0.07874727249145508
1779989220625028900,4.21002880859375,0.25707733631134033,3.449535846710205,0.18660885095596313
1779989220641346000,4.226345947265625,0.7145986557006836,3.4685511589050293,-0.07659673690795898
1779989220657694500,4.242694580078125,0.661747932434082,2.8015027046203613,-0.6793729066848755
1779989220674016800,4.259016845703125,-0.02263665199279785,1.9979782104492188,-1.060226321220398
1779989220690359000,4.275359130859375,0.3468806743621826,0.767822265625,-1.1681417226791382
1779989220706679300,4.29167919921875,0.6499896049499512,0.3137092590332031,-1.0184756517410278
1779989220723029500,4.308029541015625,1.2767703533172607,1.0264616012573242,-1.0167590379714966
1779989220739345700,4.324345703125,2.030561685562134,1.6386361122131348,-0.9991240501403809
1779989220755693000,4.340693115234375,1.9650969505310059,1.7828283309936523,-0.6512197256088257
1779989220772024000,4.357024169921875,1.5107965469360352,1.907668113708496,-0.6429635286331177
1779989220788358700,4.373358642578125,0.8354818820953369,1.8586688041687012,-0.6736191511154175
1779989220804691000,4.38969091796875,0.06481313705444336,1.9285764694213867,0.055265843868255615
1779989220821024300,4.406024169921875,-0.7212104797363281,2.6538491249084473,0.5599462985992432
1779989220837356300,4.422356201171875,-0.5796589851379395,4.184290409088135,0.8821429014205933
1779989220853691100,4.438691162109375,-0.6572566032409668,4.835549354553223,1.2825038433074951
1779989220870020000,4.45502001953125,-0.1964092254638672,3.455441951751709,1.340334177017212
1779989220886364400,4.471364501953125,-1.3583240509033203,3.3041367530822754,2.4786324501037598
1779989220902679300,4.48767919921875,-1.8321337699890137,3.1276659965515137,3.5320558547973633
1779989220919027200,4.504027099609375,-0.5824933052062988,2.8656153678894043,4.298334121704102
1779989220935355600,4.520355712890625,0.48352813720703125,3.2965612411499023,4.007143020629883
1779989220951688400,4.5366884765625,-0.19921207427978516,1.381009578704834,-0.021602392196655273
1779989220968018400,4.553018310546875,-5.069742679595947,-4.223400115966797,-3.39803409576416
1779989220984346400,4.569346435546875,-3.1960883140563965,-9.878456115722656,-3.7334492206573486
1779989221000687600,4.5856875,-1.5255999565124512,-6.678107261657715,-3.021155834197998
1779989221017038600,4.60203857421875,1.0388643741607666,0.7286996841430664,-0.7586749792098999
1779989221033353200,4.618353271484375,1.093015193939209,3.0987586975097656,0.0866849422454834
1779989221049686800,4.634686767578125,1.0062165260314941,1.9219579696655273,-1.013923168182373
1779989221066019600,4.65101953125,1.8974255323410034,0.556117057800293,-1.630183458328247
1779989221082354700,4.667354736328125,2.3922038078308105,-1.1022453308105469,-1.5605504512786865
1779989221098686700,4.683686767578125,1.8405296802520752,-1.7508506774902344,-1.5134358406066895
1779989221115020500,4.7000205078125,1.262277603149414,-1.920938491821289,-1.2484277486801147
1779989221131352600,4.7163525390625,0.8404413461685181,-2.023228645324707,-0.6730077266693115
1779989221147687200,4.732687255859375,-0.02869892120361328,-2.9154138565063477,0.23918741941452026
1779989221164018400,4.749018310546875,0.3179900646209717,-4.043694496154785,2.727860450744629
1779989221180353000,4.76535302734375,3.0637941360473633,-2.093273162841797,0.22569450736045837
1779989221196683300,4.781683349609375,1.0394481420516968,-0.33826160430908203,-0.7057334780693054
1779989221213015300,4.798015380859375,2.1315572261810303,-0.9831066131591797,-1.6949048042297363
1779989221229354200,4.814354248046875,0.9557604193687439,-1.174159049987793,-2.824522018432617
1779989221245679900,4.830679931640625,0.4329007863998413,1.33636474609375,-3.2599635124206543
1779989221262023000,4.84702294921875,0.37715619802474976,3.4566779136657715,-2.5695438385009766
1779989221278351400,4.863351318359375,0.3000326156616211,3.5379981994628906,-1.168583869934082
1779989221294683600,4.87968359375,0.13525846600532532,3.343496322631836,-0.016704678535461426
1779989221311016000,4.896015869140625,-0.49430984258651733,3.179713249206543,0.722002387046814
1779989221327339500,4.912339599609375,-1.0328114032745361,3.411529541015625,0.8188600540161133
1779989221343684000,4.92868408203125,-0.7200068831443787,3.735294818878174,0.555204451084137
1779989221360007200,4.945007080078125,0.016730129718780518,3.4632935523986816,0.4063102602958679
1779989221376353800,4.961353759765625,0.36109066009521484,2.969268321990967,0.32725679874420166
1779989221392669200,4.977669189453125,0.10953223705291748,2.287315845489502,0.4240659475326538
1779989221409017600,4.994017578125,-0.007885992527008057,1.7260737419128418,0.7126539945602417
1779989221425348000,5.01034814453125,0.4501035809516907,1.3891162872314453,0.7526254057884216
1779989221441682700,5.0266826171875,-0.4660617411136627,0.4044208526611328,0.8625876903533936
1779989221458015000,5.043014892578125,-2.0264739990234375,-1.532607078552246,1.1859781742095947
1779989221474348800,5.059348876953125,-2.1364693641662598,-2.7212839126586914,2.0217409133911133
1779989221490679600,5.075679443359375,-1.4316587448120117,-3.3157730102539062,3.2114639282226562
1779989221507007200,5.09200732421875,-2.1034457683563232,-3.2813167572021484,3.857465982437134
1779989221523342600,5.108342529296875,-3.2603065967559814,-3.781919479370117,3.52962064743042
1779989221539685400,5.124685302734375,-3.28468656539917,-4.39930534362793,2.1140053272247314
1779989221556014600,5.1410146484375,-2.175881862640381,-5.21735954284668,1.1598365306854248
1779989221572333000,5.1573330078125,-0.790992259979248,-6.518840789794922,1.1765273809432983
1779989221588681200,5.17368115234375,-0.39374780654907227,-7.020445823669434,1.5099562406539917
1779989221605018000,5.19001806640625,-0.5590478181838989,-6.155603408813477,0.31001973152160645
1779989221621342700,5.2063427734375,-1.5882755517959595,-5.107027053833008,-1.2085871696472168
1779989221637683200,5.22268310546875,-2.3983705043792725,-2.3212461471557617,-1.821666955947876
1779989221653999000,5.2389990234375,-1.1979360580444336,-1.4866437911987305,-1.0753974914550781
1779989221670337300,5.255337158203125,-0.5336714386940002,-2.875333786010742,-0.43007612228393555
1779989221686676700,5.2716767578125,-0.4522651433944702,-4.266536712646484,-0.5488187074661255
1779989221703012600,5.2880126953125,0.041195034980773926,-3.6999731063842773,-0.16846990585327148
1779989221719344000,5.30434423828125,0.3932318389415741,-0.08893013000488281,-0.2677549123764038
1779989221735669000,5.3206689453125,0.5785248875617981,-0.4571552276611328,-1.4625619649887085
1779989221752010500,5.337010498046875,-0.5022387504577637,-1.0453872680664062,-2.101377248764038
1779989221768344800,5.3533447265625,-0.13725310564041138,-1.493544578552246,-1.9551867246627808
1779989221784665000,5.3696650390625,-0.31184154748916626,-2.2330169677734375,-0.9942036271095276
1779989221801011700,5.38601171875,-0.0068073272705078125,0.8077363967895508,-0.42337948083877563
1779989221817341400,5.402341552734375,0.5481915473937988,3.855682373046875,0.005689740180969238
1779989221833677600,5.418677490234375,0.5377964973449707,4.087470531463623,0.7562998533248901
1779989221849996300,5.434996337890625,0.1340726613998413,3.037306308746338,0.40080001950263977
1779989221866348300,5.451348388671875,0.7672214508056641,2.943077564239502,-0.06383758783340454
1779989221882673700,5.467673583984375,2.1918697357177734,3.330122470855713,-0.12719547748565674
1779989221899010300,5.48401025390625,3.1277096271514893,3.617509365081787,-0.7390053272247314
1779989221915345700,5.500345703125,2.619265556335449,3.537846088409424,-1.497361660003662
1779989221931672800,5.5166728515625,3.005889654159546,2.5932154655456543,-1.6970434188842773
1779989221948007400,5.53300732421875,2.0911827087402344,2.1848950386047363,-1.8834519386291504
1779989221964342800,5.5493427734375,1.4121620655059814,1.9896750450134277,-1.4929165840148926
1779989221980674600,5.565674560546875,1.1287825107574463,2.6008334159851074,-0.8250184655189514
1779989221997007600,5.582007568359375,1.2584526538848877,3.3468174934387207,0.3988457918167114
1779989222013339100,5.598339111328125,0.8778786659240723,4.200483322143555,1.2188032865524292
1779989222029662000,5.614661865234375,0.5407099723815918,5.341270923614502,1.6144776344299316
1779989222046002200,5.631002197265625,-0.08080816268920898,5.1805877685546875,2.3034138679504395
1779989222062341600,5.647341552734375,-0.6037745475769043,3.353390693664551,3.173999786376953
1779989222078673700,5.663673583984375,-0.48844051361083984,2.4630303382873535,3.461355686187744
1779989222095006000,5.680005859375,0.2074422836303711,2.8767404556274414,1.983077883720398
1779989222111340000,5.696340087890625,1.362633228302002,3.5304808616638184,-2.2866926193237305
1779989222127674400,5.71267431640625,-5.0793561935424805,-3.066718101501465,-5.096315383911133
1779989222144006000,5.729005859375,-0.6122961044311523,-11.120259284973145,-2.602620840072632
1779989222160338400,5.74533837890625,-1.790480613708496,-11.607172012329102,-0.04764425754547119
1779989222176671500,5.76167138671875,-0.7664711475372314,-2.6522140502929688,1.8293098211288452
1779989222193006600,5.778006591796875,2.2497005462646484,1.9182028770446777,1.6731646060943604
1779989222209339100,5.794339111328125,1.4859321117401123,1.7441225051879883,-0.137384295463562
1779989222225672200,5.810672119140625,2.678558111190796,1.0705242156982422,-1.1807246208190918
1779989222242004000,5.82700390625,1.3810018301010132,-0.9124822616577148,-1.4868433475494385
1779989222258339300,5.84333935546875,0.24691760540008545,-3.0191640853881836,-1.4451417922973633
1779989222274671000,5.859671142578125,-1.8246721029281616,-8.861893653869629,-2.9336633682250977
1779989222291003600,5.876003662109375,3.0362627506256104,-6.416068077087402,-1.0370323657989502
1779989222307338000,5.892337890625,0.8234425783157349,-2.1582412719726562,0.46740561723709106
1779989222323671600,5.908671630859375,0.2608373165130615,1.821126937866211,-0.2856196165084839
1779989222340003800,5.92500390625,-0.843337893486023,2.216029644012451,-0.671934962272644
1779989222356343000,5.941343017578125,0.14517050981521606,1.731501579284668,-0.8428968787193298
1779989222372669700,5.957669677734375,1.107234001159668,1.5084772109985352,-1.1023736000061035
1779989222389004500,5.974004638671875,2.2816524505615234,1.7898187637329102,-0.94232177734375
1779989222405336600,5.990336669921875,1.096789002418518,2.294466972351074,-0.31634730100631714
1779989222421668900,6.0066689453125,-0.19682927429676056,2.8446402549743652,0.0038907527923583984
1779989222438003000,6.0230029296875,-0.03161163628101349,3.6573166847229004,0.6287896633148193
1779989222454337500,6.039337646484375,-0.4510531425476074,3.9418110847473145,0.7771700620651245
1779989222470669000,6.0556689453125,-0.30249035358428955,3.904449462890625,0.32488489151000977
1779989222487006000,6.072005859375,-0.5437743663787842,3.417445182800293,-0.02546793222427368
1779989222503335400,6.08833544921875,-0.7213543057441711,2.6798200607299805,-0.15599989891052246
1779989222519668200,6.104668212890625,-0.22821354866027832,2.1365914344787598,-0.23366284370422363
1779989222536000000,6.121,-0.3875252306461334,1.6287174224853516,-0.053574442863464355
1779989222552323300,6.1373232421875,0.5107606649398804,0.5222988128662109,0.027925610542297363
1779989222568664600,6.15366455078125,0.5643698573112488,-0.47116661071777344,0.38273096084594727
1779989222585005300,6.17000537109375,-1.0086942911148071,-1.6461057662963867,0.6570683717727661
1779989222601333800,6.186333740234375,-1.7687431573867798,-2.378445625305176,1.2495330572128296
1779989222617655800,6.20265576171875,-2.51185941696167,-3.0209474563598633,3.26430606842041
1779989222634000600,6.219000732421875,-3.3001632690429688,-3.2964534759521484,4.918116569519043
1779989222650335200,6.235335205078125,-4.042240619659424,-3.2410402297973633,4.5168681144714355
1779989222666665000,6.2516650390625,-1.9893324375152588,-3.707655906677246,2.5958540439605713
1779989222683001300,6.26800146484375,-1.3417139053344727,-4.725863456726074,2.242671012878418
1779989222699322600,6.284322509765625,-1.1440790891647339,-6.340550422668457,1.915629267692566
1779989222715667500,6.30066748046875,-1.4196747541427612,-6.408882141113281,0.7096996307373047
1779989222731996400,6.316996337890625,-1.4519858360290527,-4.110182762145996,-0.6799633502960205
1779989222748337200,6.333337158203125,-1.9520602226257324,-2.3649826049804688,-1.11749267578125
1779989222764665300,6.349665283203125,-1.8435149192810059,-2.152705192565918,-1.3769230842590332
1779989222781007600,6.366007568359375,-1.266466498374939,-3.948322296142578,-1.4466252326965332
1779989222797332200,6.382332275390625,-0.4805392622947693,-4.6446027755737305,-1.3115975856781006
1779989222813667000,6.3986669921875,0.4802984595298767,-3.471569061279297,-0.8754786252975464
1779989222829998300,6.414998291015625,1.52841055393219,-1.8535070419311523,-0.6110905408859253
1779989222846338600,6.431338623046875,1.1615993976593018,0.8191900253295898,-0.5252609252929688
1779989222862651400,6.4476513671875,0.3468707799911499,-0.6457481384277344,-0.6947384476661682
1779989222878993200,6.4639931640625,0.3530789613723755,-1.8864917755126953,-0.5379489064216614
1779989222895331800,6.480331787109375,1.3739134073257446,-2.006951332092285,-0.2064877152442932
1779989222911663000,6.4966630859375,0.9192711710929871,-0.2562084197998047,-0.41119077801704407
1779989222928000500,6.51300048828125,-0.5826607942581177,0.49158287048339844,-1.0956788063049316
1779989222944318000,6.52931787109375,-1.066664218902588,1.054483413696289,-1.4641616344451904
1779989222960652000,6.545652099609375,-0.7059969902038574,1.6386604309082031,-1.1217126846313477
1779989222977000000,6.562,0.40811288356781006,2.2228336334228516,-0.9754120111465454
1779989222993329200,6.5783291015625,1.8418726921081543,2.3726587295532227,0.09620928764343262
1779989223009664000,6.5946640625,2.486189126968384,3.1206626892089844,-0.7258080840110779
1779989223025983200,6.610983154296875,2.555781841278076,3.62705659866333,-1.423201322555542
1779989223042320100,6.627320068359375,2.6002464294433594,3.474647045135498,-1.603163719177246
1779989223058663200,6.6436630859375,2.4040913581848145,2.8122968673706055,-1.2746031284332275
1779989223074996700,6.659996826171875,2.0992136001586914,2.9072084426879883,-1.0938475131988525
1779989223091330600,6.67633056640625,2.1827805042266846,2.8956546783447266,-1.4251760244369507
1779989223107664000,6.692663818359375,1.711289882659912,2.6860976219177246,-0.7374707460403442
1779989223123994000,6.708994140625,1.9164822101593018,3.0431976318359375,-0.0856318473815918
1779989223140329200,6.7253291015625,1.6705858707427979,3.833512306213379,0.5296158790588379
1779989223156661000,6.741660888671875,0.6633470058441162,5.718891143798828,1.1057474613189697
1779989223172996600,6.75799658203125,0.6577706336975098,7.469503879547119,1.6976253986358643
1779989223189331500,6.77433154296875,0.8566162586212158,5.772524833679199,3.6597630977630615
1779989223205662700,6.790662841796875,1.4356322288513184,3.8066048622131348,3.827157974243164
1779989223221992400,6.806992431640625,3.2785964012145996,4.764203071594238,-1.2593916654586792
1779989223238332700,6.823332763671875,-6.47945499420166,2.475193500518799,-6.089799880981445
1779989223254659800,6.839659912109375,-0.3516662120819092,-7.498583793640137,-5.870207786560059
1779989223270995200,6.8559951171875,-0.07214546203613281,-18.010665893554688,-2.197911262512207
1779989223287325200,6.8723251953125,-1.516413927078247,-11.714384078979492,1.507364273071289
1779989223303656000,6.888656005859375,-0.00022172927856445312,-2.946507453918457,3.503915309906006
1779989223319993600,6.90499365234375,-0.12501049041748047,-0.5683870315551758,1.0520827770233154
1779989223336307700,6.9213076171875,0.441741943359375,-0.338775634765625,-0.8663610816001892
1779989223352660000,6.937659912109375,0.41118741035461426,-0.49973583221435547,-1.9176545143127441
1779989223368994800,6.953994873046875,-0.06884443759918213,-2.2342100143432617,-2.453479766845703
1779989223385327400,6.970327392578125,0.266815185546875,-4.127081871032715,-2.892174243927002
1779989223401661400,6.986661376953125,1.4944194555282593,-4.138121604919434,-2.5558295249938965
1779989223417993200,7.0029931640625,1.3337879180908203,-3.4093523025512695,-1.2401412725448608
1779989223434328300,7.019328369140625,1.1705377101898193,-2.092357635498047,-0.02669370174407959
1779989223450659600,7.03565966796875,1.0734363794326782,0.025115966796875,0.5917659401893616
1779989223466992400,7.051992431640625,1.1135677099227905,1.5212821960449219,0.13207286596298218
1779989223483326000,7.068325927734375,0.11905274540185928,2.2539620399475098,-0.4485524892807007
1779989223499661800,7.084661865234375,-0.14346469938755035,3.081552028656006,-0.921842098236084
1779989223515990800,7.10099072265625,0.1536417007446289,4.191491603851318,-1.3220983743667603
1779989223532315000,7.11731494140625,-1.1445914506912231,5.148319244384766,-0.9446108937263489
1779989223548654800,7.13365478515625,-0.8390095829963684,5.682992458343506,-0.3766736686229706
1779989223564993800,7.149993896484375,-0.10999327898025513,5.196014404296875,-0.1431843638420105
1779989223581327000,7.1663271484375,-0.23045790195465088,4.1064558029174805,0.166227787733078
1779989223597660000,7.182659912109375,-0.6216877698898315,3.203092098236084,0.24097338318824768
1779989223613978400,7.198978271484375,-0.6160727143287659,2.257946014404297,0.4128703773021698
1779989223630325000,7.215324951171875,-0.06086927652359009,1.0883140563964844,0.6681689023971558
1779989223646649000,7.231649169921875,0.6484643220901489,0.5190553665161133,1.0567089319229126
1779989223662993200,7.2479931640625,0.9954688549041748,0.5263748168945312,1.116914987564087
1779989223679311400,7.264311279296875,1.162099838256836,0.8308124542236328,0.779725193977356
1779989223695658800,7.28065869140625,-1.1331405639648438,0.42941856384277344,0.6210422515869141
1779989223711975200,7.29697509765625,-2.3060522079467773,-0.9879493713378906,0.9459737539291382
1779989223728328400,7.313328369140625,-3.3193423748016357,-2.5584373474121094,2.279649019241333
1779989223744658700,7.32965869140625,-3.385190963745117,-4.273581504821777,3.7388198375701904
1779989223760989000,7.345989013671875,-3.278775691986084,-5.477100372314453,4.197571754455566
1779989223777322800,7.36232275390625,-3.043431282043457,-6.1359148025512695,3.2010254859924316
1779989223793658400,7.378658447265625,-2.5477499961853027,-6.529699325561523,2.692751884460449
1779989223809990000,7.394989990234375,-1.6012061834335327,-7.292741775512695,3.283829927444458
1779989223826329900,7.411329833984375,-0.8125115036964417,-6.200717926025391,2.5090036392211914
1779989223842656500,7.427656494140625,-1.1349971294403076,-3.915268898010254,0.857919454574585
1779989223858990800,7.443990966796875,-1.3495365381240845,-2.305492401123047,0.021572470664978027
1779989223875320000,7.460320068359375,-1.4815850257873535,-2.242276191711426,-0.12673377990722656
1779989223891659800,7.47665966796875,-1.941211223602295,-3.0919342041015625,0.13186824321746826
1779989223907989200,7.4929892578125,-1.9319710731506348,-3.883228302001953,0.22518885135650635
1779989223924324000,7.509323974609375,-0.7568012475967407,-3.5210723876953125,-0.25794482231140137
1779989223940658200,7.525658203125,0.36238333582878113,-2.9966306686401367,0.0936356782913208
1779989223956992300,7.5419921875,2.154041051864624,-2.251523017883301,-0.5283785462379456
1779989223973322500,7.558322509765625,2.3689630031585693,-0.20930767059326172,-1.358363389968872
1779989223989663500,7.57466357421875,2.3894195556640625,-1.4924144744873047,-2.2553999423980713
1779989224005988600,7.590988525390625,1.6819685697555542,-2.129319190979004,-2.594717025756836
1779989224022312000,7.60731201171875,0.4934103488922119,-0.15036678314208984,-2.3544015884399414
1779989224038655500,7.623655517578125,0.09360682964324951,2.5682101249694824,-2.1782009601593018
1779989224054989000,7.639989013671875,0.4322364330291748,3.1980600357055664,-1.1373685598373413
1779989224071322400,7.656322265625,1.0205531120300293,3.263702392578125,-0.9087839722633362
1779989224087655700,7.67265576171875,-0.09512090682983398,3.8272647857666016,-0.09240782260894775
1779989224103988000,7.688988037109375,1.4103350639343262,2.36676025390625,-0.24062585830688477
1779989224120322600,7.705322509765625,3.1977570056915283,2.299955368041992,-1.0450804233551025
1779989224136653000,7.721653076171875,3.3010189533233643,2.257246494293213,-2.055361032485962
1779989224152987600,7.737987548828125,2.936635732650757,2.5147857666015625,-2.879490375518799
1779989224169320700,7.75432080078125,2.827659845352173,2.3963494300842285,-3.688990354537964
1779989224185655300,7.7706552734375,1.9442229270935059,2.2614998817443848,-3.2960991859436035
1779989224201987000,7.786987060546875,2.06194806098938,2.364175319671631,-3.139935255050659
1779989224218322200,7.803322265625,1.5903193950653076,1.9997520446777344,-2.1803536415100098
1779989224234653700,7.81965380859375,1.2323641777038574,1.5966925621032715,-0.18143105506896973
1779989224250986200,7.835986328125,0.9345026016235352,2.4744486808776855,1.6803216934204102
1779989224267321900,7.85232177734375,0.7724642753601074,4.407271385192871,1.5302014350891113
1779989224283655200,7.8686552734375,-0.5254330635070801,6.030134677886963,1.830456018447876
1779989224299972900,7.884972900390625,-1.829831600189209,5.200766086578369,2.6325106620788574
1779989224316324900,7.901324951171875,-0.010741233825683594,4.163083076477051,3.3842363357543945
1779989224332646000,7.91764599609375,2.412121534347534,3.417415142059326,2.599435806274414
1779989224348987600,7.933987548828125,-4.556532859802246,1.580674171447754,-3.477247953414917
1779989224365306600,7.950306640625,-5.249897003173828,-9.661518096923828,-4.550172805786133
1779989224381653500,7.966653564453125,-0.4915175437927246,-18.262142181396484,-0.5593135356903076
1779989224397986000,7.982986083984375,-2.2863516807556152,-7.7956085205078125,2.217611074447632
1779989224414320400,7.9993203125,2.006516456604004,1.1892685890197754,2.2159557342529297
1779989224430652700,8.015652587890624,1.8556196689605713,3.80741548538208,0.6653947830200195
1779989224446985200,8.031985107421875,1.9298688173294067,3.375936985015869,-1.7671616077423096
1779989224463318300,8.048318359375,2.128512144088745,1.508707046508789,-3.1798934936523438
1779989224479652900,8.06465283203125,1.035895824432373,-2.0203943252563477,-3.4635720252990723
1779989224495985000,8.08098486328125,0.9074203968048096,-6.086523056030273,-2.7092161178588867
1779989224512309200,8.097309326171874,1.4780086278915405,-6.723952293395996,-0.37164080142974854
1779989224528647000,8.11364697265625,1.4858394861221313,-4.569901466369629,1.8814690113067627
1779989224544989000,8.129989013671874,-0.09019428491592407,-1.7764158248901367,1.9530909061431885
1779989224561315300,8.1463154296875,-0.7692365050315857,0.9223432540893555,0.921129584312439
1779989224577656000,8.162656005859375,0.20580071210861206,1.7284784317016602,-0.36595338582992554
1779989224593985500,8.178985595703125,1.2000254392623901,1.7842702865600586,-1.2907226085662842
1779989224610317300,8.1953173828125,2.2493860721588135,2.3852529525756836,-1.770552158355713
1779989224626651400,8.2116513671875,2.210587739944458,3.245321273803711,-2.5616259574890137
1779989224642996000,8.227995849609375,-0.6449183225631714,3.724557876586914,-2.387603521347046
1779989224659317500,8.2443173828125,-0.3433055281639099,4.214434623718262,-1.5802141427993774
1779989224675634700,8.260634765625,0.15219560265541077,4.165651321411133,-0.7969145774841309
1779989224691984000,8.27698388671875,-0.5920941829681396,3.349700927734375,0.006285056471824646
1779989224708320300,8.2933203125,-0.6936995983123779,3.479867935180664,0.7174926996231079
1779989224724649500,8.3096494140625,-0.27135080099105835,3.394089698791504,1.342643141746521
1779989224740984800,8.32598486328125,0.12660953402519226,2.846461772918701,1.4977095127105713
1779989224757316000,8.342316162109375,-0.4258076250553131,1.8765044212341309,1.6844003200531006
1779989224773651500,8.3586513671875,0.11209866404533386,1.3804607391357422,2.075711250305176
1779989224789981700,8.374981689453126,0.34863588213920593,1.2954511642456055,2.4024057388305664
1779989224806322400,8.391322509765626,-0.20973649621009827,0.9209527969360352,2.3880865573883057
1779989224822649300,8.4076494140625,-1.301068902015686,-1.2037830352783203,2.8003344535827637
1779989224838984700,8.423984619140626,-0.7538455724716187,-3.157198905944824,3.3803369998931885
1779989224855317200,8.440317138671874,-1.7538504600524902,-4.073092460632324,4.180251121520996
1779989224871651000,8.456651123046875,-2.141404867172241,-4.538456916809082,4.058788776397705
1779989224887969000,8.472968994140626,-2.2987074851989746,-5.46221923828125,3.4007415771484375
1779989224904310300,8.489310302734374,-1.996243953704834,-6.681502342224121,2.1797308921813965
1779989224920655000,8.505655029296875,-1.0609923601150513,-8.215679168701172,1.9026308059692383
1779989224936984300,8.521984375,-1.983400583267212,-9.224392890930176,1.951866865158081
1779989224953317400,8.5383173828125,-2.5342798233032227,-8.42265510559082,1.859811544418335
1779989224969648400,8.5546484375,-2.724578380584717,-4.282312393188477,0.18444043397903442
1779989224985964000,8.570964111328125,-3.072319984436035,-1.7121257781982422,-1.4379076957702637
1779989225002320400,8.5873203125,-2.088923215866089,-0.8599328994750977,-1.5494142770767212
1779989225018632400,8.603632568359375,-1.2969597578048706,-2.1825437545776367,-1.193725347518921
1779989225034983000,8.61998291015625,-1.1307523250579834,-2.9787168502807617,-1.140876054763794
1779989225051315700,8.636315673828125,-0.46680721640586853,-2.420309066772461,-0.5731114149093628
1779989225067648500,8.6526484375,0.988178014755249,-1.429732322692871,-0.5579418540000916
1779989225083981600,8.668981689453124,1.3390061855316162,-0.49637508392333984,-0.6489372849464417
1779989225100316700,8.685316650390625,1.1839659214019775,0.21374988555908203,-0.14207980036735535
1779989225116647200,8.701647216796875,0.8011281490325928,1.0294227600097656,0.34268802404403687
1779989225132982800,8.717982666015626,-0.7762106657028198,1.718212604522705,0.33832448720932007
1779989225149315000,8.734315185546874,0.3705167770385742,2.131159782409668,0.5657246112823486
1779989225165648600,8.750648681640625,-0.15662360191345215,2.2378430366516113,-0.3460770845413208
1779989225181981400,8.7669814453125,0.11492919921875,1.5376253128051758,-0.7196868658065796
1779989225198316300,8.78331640625,1.9814090728759766,1.9008102416992188,-0.5237102508544922
1779989225214644000,8.79964404296875,3.8811557292938232,2.5957984924316406,-1.498685359954834
1779989225230983700,8.815983642578125,4.160419464111328,5.875673294067383,-2.936140775680542
1779989225247314700,8.832314697265625,3.77750301361084,3.083493709564209,-3.7326323986053467
1779989225263648800,8.848648681640626,3.3359766006469727,1.2054853439331055,-3.9146764278411865
1779989225279980500,8.86498046875,1.5497379302978516,1.712522029876709,-3.38020920753479
1779989225296302300,8.88130224609375,1.4192938804626465,2.295604705810547,-2.4179253578186035
1779989225312634600,8.897634521484376,2.0148558616638184,3.188344955444336,-0.410968542098999
1779989225328989000,8.913989013671875,2.4956371784210205,4.754312038421631,0.9538612365722656
1779989225345312500,8.9303125,1.9635159969329834,6.450255393981934,1.4319429397583008
1779989225361644300,8.946644287109375,1.346982479095459,6.737616539001465,1.5849497318267822
1779989225377980400,8.96298046875,-0.19282245635986328,5.81956672668457,3.5265116691589355
1779989225394314800,8.979314697265625,1.3582119941711426,3.946678638458252,5.250970840454102
1779989225410646500,8.995646484375,5.057394504547119,3.4368104934692383,3.7936341762542725
1779989225426980900,9.01198095703125,1.2351057529449463,4.1843390464782715,-1.127636432647705
1779989225443313700,9.028313720703125,-5.204790115356445,-5.8592681884765625,-5.253310203552246
1779989225459646500,9.044646484375,-2.5902533531188965,-20.329139709472656,-5.0587334632873535
1779989225475979300,9.060979248046875,-1.023838996887207,-11.658516883850098,1.7672734260559082
1779989225492309200,9.077309326171875,0.6049563884735107,-0.7353038787841797,2.0093772411346436
1779989225508642800,9.093642822265625,-0.026933908462524414,2.781492233276367,0.18304896354675293
1779989225524979700,9.109979736328125,-0.06280946731567383,1.9841299057006836,-1.9520766735076904
1779989225541313500,9.1263134765625,1.0899245738983154,-1.3053712844848633,-3.7712621688842773
1779989225557644000,9.14264404296875,0.03341078758239746,-4.966036796569824,-4.027475357055664
1779989225573982500,9.158982421875,-0.06814932823181152,-7.7022905349731445,-2.4806981086730957
1779989225590310100,9.17531005859375,1.0205252170562744,-6.425799369812012,-0.8565759062767029
1779989225606648000,9.19164794921875,1.0872129201889038,-4.417747497558594,0.5258515477180481
1779989225622978800,9.207978759765625,-0.19497132301330566,-2.5447139739990234,0.9494061470031738
1779989225639298800,9.224298828125,-0.7892530560493469,-0.9559030532836914,0.3268151581287384
1779989225655646700,9.240646728515625,-0.6475101709365845,0.1613321304321289,-0.6090310215950012
1779989225671978200,9.256978271484375,-0.2499384582042694,1.2994251251220703,-1.121867299079895
1779989225688313000,9.27331298828125,0.5357669591903687,3.427157402038574,-1.7170203924179077
1779989225704654600,9.289654541015626,-1.062483310699463,5.450006484985352,-1.4960949420928955
1779989225720979500,9.3059794921875,-1.4040131568908691,5.7564697265625,-0.4515937268733978
1779989225737311500,9.3223115234375,-0.5653127431869507,5.920863151550293,0.20934709906578064
1779989225753645000,9.33864501953125,-0.6745686531066895,5.5652689933776855,0.6760861873626709
1779989225769978600,9.354978515625,-0.3775477111339569,5.309887409210205,0.7178674936294556
1779989225786314500,9.371314453125,-0.18082290887832642,5.371445655822754,0.5097141861915588
1779989225802644200,9.387644287109374,-0.2032630443572998,5.161898136138916,0.5316742062568665
1779989225818979300,9.403979248046875,-0.30380356311798096,4.845920085906982,0.14984814822673798
1779989225835311400,9.420311279296875,-0.27288562059402466,3.279733657836914,0.024471744894981384
1779989225851646000,9.43664599609375,1.4038500785827637,1.5407533645629883,-0.05186963081359863
1779989225867977000,9.45297705078125,1.750780463218689,0.5822353363037109,-0.08824940025806427
1779989225884312300,9.469312255859375,1.3521432876586914,0.7956333160400391,-0.5423346161842346
1779989225900642300,9.485642333984375,-0.8216935992240906,-0.15144824981689453,-0.8661249279975891
1779989225916980500,9.50198046875,-0.9493341445922852,-2.2857799530029297,0.28484681248664856
1779989225933308000,9.518307861328125,0.4259604811668396,-3.0970630645751953,2.107880115509033
1779989225949644800,9.534644775390625,-1.4347076416015625,-2.9575071334838867,3.165902614593506
1779989225965980000,9.55097998046875,-2.5585110187530518,-3.2956438064575195,3.6895668506622314
1779989225982295300,9.56729541015625,-1.2711158990859985,-6.478013038635254,4.109333038330078
1779989225998646300,9.583646240234375,0.021603941917419434,-9.456009864807129,4.877340793609619
1779989226014977800,9.599977783203125,-0.8333879113197327,-10.882711410522461,4.981468677520752
1779989226031310800,9.616310791015625,-2.430555820465088,-10.240978240966797,2.2374792098999023
1779989226047631600,9.632631591796875,-4.25813102722168,-8.83277416229248,-1.2211552858352661
1779989226063977000,9.64897705078125,-3.534735679626465,-5.91184139251709,-2.8999712467193604
1779989226080311000,9.66531103515625,-2.707590103149414,-2.0500221252441406,-1.7117148637771606
1779989226096642000,9.68164208984375,-1.975633144378662,1.710066318511963,-0.7169593572616577
1779989226112978200,9.697978271484375,-1.88191819190979,1.0901870727539062,0.5097953081130981
1779989226129309000,9.714308837890625,-2.212397575378418,-1.5206804275512695,1.045884370803833
1779989226145628400,9.73062841796875,-1.5510787963867188,-3.4161319732666016,1.1331217288970947
1779989226161967000,9.746967041015624,0.28053417801856995,-3.40194034576416,1.0893604755401611
1779989226178310100,9.76331005859375,2.48422908782959,-2.613546371459961,0.5158661007881165
1779989226194641700,9.7796416015625,2.835688829421997,-2.283092498779297,-0.37227946519851685
1779989226210974200,9.79597412109375,2.493323802947998,-0.9495506286621094,-1.934461236000061
1779989226227311400,9.812311279296875,2.114083766937256,0.3319826126098633,-2.568166971206665
1779989226243643600,9.8286435546875,-1.3310492038726807,1.4819259643554688,-2.754263162612915
1779989226259974100,9.84497412109375,-3.0474817752838135,1.3333683013916016,-2.357390880584717
1779989226276314000,9.861314208984375,-2.1588165760040283,1.409332275390625,-1.9588029384613037
1779989226292629200,9.877629150390625,-0.9933316707611084,1.6510438919067383,-1.5790185928344727
1779989226308977700,9.893977783203125,1.144624948501587,1.893671989440918,-0.6655735969543457
1779989226325308000,9.910307861328125,1.8889000415802002,1.8057212829589844,-0.45727086067199707
1779989226341643000,9.92664306640625,3.9710280895233154,2.9463229179382324,-0.9374828934669495
1779989226357962500,9.94296240234375,4.23452091217041,4.058351993560791,-1.7266607284545898
1779989226374310000,9.959309814453125,2.7603678703308105,4.624971389770508,-1.8631715774536133
1779989226390640000,9.97564013671875,2.0342202186584473,4.264553070068359,-2.363208293914795
1779989226406975200,9.991975341796875,0.9591352939605713,3.9385905265808105,-1.4198652505874634
1779989226423308300,10.008308349609376,1.1842460632324219,4.020071029663086,-0.23212146759033203
1779989226439642400,10.024642333984374,1.075230598449707,3.8991987705230713,0.3507716655731201
1779989226455975400,10.040975341796875,1.0551118850708008,3.814417600631714,0.542158842086792
1779989226472311600,10.0573115234375,1.1220664978027344,4.432941436767578,1.0239698886871338
1779989226488637700,10.0736376953125,-0.3302149772644043,5.0171990394592285,1.9485993385314941
1779989226504976400,10.089976318359374,-1.5897068977355957,5.337122440338135,3.7070629596710205
1779989226521308000,10.106307861328125,0.9710488319396973,4.4287614822387695,5.397252559661865
1779989226537642800,10.122642822265625,5.112457275390625,4.772347927093506,1.3302433490753174
1779989226553971200,10.13897119140625,-2.163239002227783,2.767789363861084,-5.706592559814453
1779989226570312400,10.1553125,-3.5766959190368652,-10.80988597869873,-9.438586235046387
1779989226586635500,10.171635498046875,-2.7542343139648438,-19.829368591308594,-3.376971960067749
1779989226602980000,10.18797998046875,1.6963450908660889,-8.946081161499023,1.8515405654907227
1779989226619307000,10.20430712890625,3.111689805984497,-1.047708511352539,0.6988996267318726
1779989226635625500,10.22062548828125,2.593533992767334,0.5567846298217773,-1.3799736499786377
1779989226651974400,10.236974365234374,2.203791618347168,0.27933597564697266,-2.719733953475952
1779989226668316200,10.253316162109375,1.237221121788025,-0.5538091659545898,-3.6500749588012695
1779989226684636400,10.269636474609374,0.17039775848388672,-3.3778486251831055,-4.015458583831787
1779989226700959200,10.285959228515624,0.1289149522781372,-4.711822509765625,-2.772601366043091
1779989226717305900,10.302305908203126,0.7050317525863647,-3.792830467224121,-0.8289878368377686
1779989226733644800,10.318644775390625,1.3272651433944702,-2.3924379348754883,1.1245851516723633
1779989226749974000,10.33497412109375,1.5071086883544922,-0.8200597763061523,2.741225481033325
1779989226766310700,10.351310546875,1.7461051940917969,0.9373636245727539,3.2390570640563965
1779989226782639900,10.367639892578126,1.2878543138504028,2.556550979614258,2.051370143890381
1779989226798975200,10.383975341796875,0.5611920356750488,3.225177764892578,1.0942875146865845
1779989226815307000,10.40030712890625,-0.06292746961116791,3.18569278717041,0.7220269441604614
1779989226831640000,10.41664013671875,0.3393688201904297,3.688140392303467,-0.3767828941345215
1779989226847973600,10.4329736328125,-1.7680840492248535,4.305670738220215,-0.40537726879119873
1779989226864305000,10.449304931640626,-1.327925205230713,4.073265552520752,0.04215925931930542
1779989226880643300,10.465643310546875,-0.8616691827774048,4.15206241607666,0.10631948709487915
1779989226896973000,10.48197314453125,-0.807018518447876,4.103001117706299,0.410539448261261
1779989226913294000,10.498294189453125,-1.2462399005889893,3.75722074508667,0.8767907619476318
1779989226929639700,10.5146396484375,-1.3598510026931763,2.6510205268859863,1.179567575454712
1779989226945974300,10.530974365234375,-0.47654959559440613,1.5303621292114258,0.9575314521789551
1779989226962298600,10.547298583984375,0.7165930271148682,0.6911172866821289,0.538463294506073
1779989226978636800,10.56363671875,1.011481523513794,0.10163116455078125,-0.22230792045593262
1779989226994971100,10.57997119140625,-0.49127259850502014,-0.994196891784668,-0.9556493163108826
1779989227011306000,10.596305908203124,-1.3926289081573486,-2.411625862121582,0.28619009256362915
1779989227027640800,10.612640869140625,0.6860605478286743,-3.6540613174438477,2.84260630607605
1779989227043975200,10.62897509765625,0.36573731899261475,-5.437177658081055,5.728384971618652
1779989227060306400,10.645306396484376,0.19761216640472412,-6.6085710525512695,6.701495170593262
1779989227076638200,10.66163818359375,-0.9408587217330933,-6.182239532470703,4.510741233825684
1779989227092969700,10.6779697265625,-2.496413469314575,-5.501733779907227,1.7967616319656372
1779989227109309000,10.694308837890626,-1.3534618616104126,-6.589963912963867,0.9873597025871277
1779989227125640200,10.71064013671875,-0.8599337935447693,-7.72635555267334,0.9578248262405396
1779989227141972700,10.72697265625,-1.0899754762649536,-6.209930419921875,0.8858379125595093
1779989227158305800,10.743305908203125,-1.741701602935791,-3.610194206237793,-0.5136791467666626
1779989227174646000,10.75964599609375,-2.24082612991333,-1.6582679748535156,-1.85333251953125
1779989227190973700,10.7759736328125,-1.7886433601379395,-1.2410869598388672,-2.285548210144043
1779989227207306000,10.792305908203126,-1.3030877113342285,-1.4864978790283203,-1.7658355236053467
1779989227223638300,10.80863818359375,-1.154703974723816,-1.8150300979614258,-0.8637876510620117
1779989227239972900,10.824972900390625,-1.5155842304229736,-0.9972333908081055,0.06901699304580688
1779989227256306700,10.841306640625,-0.8550744652748108,-0.6204891204833984,0.5979622602462769
1779989227272628200,10.857628173828125,0.5282804369926453,-1.695002555847168,0.11173942685127258
1779989227288973800,10.873973876953125,1.6917624473571777,-1.1534767150878906,-0.7613050937652588
1779989227305304800,10.890304931640625,3.95194149017334,-0.6010313034057617,-2.003278970718384
1779989227321639700,10.9066396484375,3.653189182281494,0.6335182189941406,-2.943265676498413
1779989227337972700,10.92297265625,1.7032191753387451,2.2354445457458496,-3.5007731914520264
1779989227354293800,10.939293701171875,0.8052469491958618,4.233750820159912,-2.7574124336242676
1779989227370638300,10.955638427734375,0.651547908782959,3.93772029876709,-1.486588478088379
1779989227386973700,10.9719736328125,0.47466564178466797,3.13618803024292,-0.03456878662109375
1779989227403304400,10.988304443359375,0.684180498123169,2.2327280044555664,0.45997297763824463
1779989227419638000,11.004637939453126,2.1596899032592773,1.4612207412719727,0.07896029949188232
1779989227435970600,11.020970458984374,3.1285881996154785,1.834014892578125,-1.1464563608169556
1779989227452311300,11.037311279296874,3.3126935958862305,2.0840344429016113,-2.597940444946289
1779989227468632300,11.05363232421875,3.13338041305542,2.402416229248047,-3.4166934490203857
1779989227484973300,11.069973388671874,2.688835859298706,2.68172550201416,-3.5147669315338135
1779989227501303800,11.0863037109375,2.388545274734497,2.798336982727051,-3.2979791164398193
1779989227517639200,11.10263916015625,2.3416104316711426,2.902585029602051,-2.5868072509765625
1779989227533971500,11.118971435546875,1.4502062797546387,3.525794506072998,-0.6650526523590088
1779989227550305300,11.13530517578125,0.595271110534668,4.502468109130859,0.43575310707092285
1779989227566636000,11.151635986328126,-0.6037602424621582,5.132569789886475,1.1692471504211426
1779989227582972700,11.16797265625,-2.4256582260131836,4.766488552093506,2.1613926887512207
1779989227599303700,11.1843037109375,-1.316845417022705,3.198873996734619,3.916538953781128
1779989227615639000,11.20063916015625,2.144181489944458,2.0902233123779297,3.683882236480713
1779989227631966200,11.21696630859375,1.5951697826385498,3.3239474296569824,-1.0527489185333252
1779989227648305400,11.233305419921875,-6.079770565032959,-1.8285341262817383,-3.7745652198791504
1779989227664637700,11.2496376953125,-1.330216884613037,-15.457708358764648,-1.2775264978408813
1779989227680972300,11.26597216796875,-3.166940689086914,-17.71052360534668,-1.7771883010864258
1779989227697303300,11.28230322265625,-1.5885565280914307,-4.865246772766113,1.658534288406372
1779989227713637000,11.29863720703125,1.6184290647506714,1.8813910484313965,1.261631727218628
1779989227729969000,11.314968994140624,1.9022669792175293,3.72476863861084,-0.3982522487640381
1779989227746311400,11.3313115234375,1.9597525596618652,3.0881805419921875,-2.5014586448669434
1779989227762636500,11.347636474609375,0.9244654178619385,0.7809982299804688,-3.5576677322387695
1779989227778972000,11.363971923828124,0.3423933982849121,-3.0309009552001953,-3.816188335418701
1779989227795289300,11.380289306640625,2.359166145324707,-5.33601188659668,-3.299394130706787
1779989227811638500,11.396638427734375,2.0350332260131836,-4.509178161621094,-0.4233356714248657
1779989227827970800,11.412970703125,2.528773307800293,-2.9716567993164062,1.9136931896209717
1779989227844304400,11.429304443359374,2.129768133163452,-0.8571233749389648,2.746713876724243
1779989227860635100,11.44563525390625,0.5262520909309387,0.6321077346801758,2.0033087730407715
1779989227876970800,11.461970703125,-0.5911939144134521,1.5351028442382812,0.4702346920967102
1779989227893300500,11.478300537109375,-1.2434308528900146,1.8309917449951172,-0.6781461834907532
1779989227909639000,11.494638916015624,-0.011460017412900925,2.6119608879089355,-1.6430246829986572
1779989227925966800,11.510966796875,0.4579821527004242,4.123365879058838,-2.281567096710205
1779989227942311000,11.527310791015625,-0.6827194690704346,4.925440311431885,-1.342932105064392
1779989227958634500,11.543634521484375,-0.9342522621154785,5.07381010055542,-0.19045457243919373
1779989227974971400,11.559971435546874,-0.44206568598747253,4.939085960388184,0.53703773021698
1779989227991298300,11.57629833984375,0.09159280359745026,4.356276988983154,0.8460248708724976
1779989228007641000,11.59264111328125,0.19310501217842102,3.463095188140869,1.282472848892212
1779989228023970300,11.60897021484375,0.5159111022949219,2.4252686500549316,1.2607841491699219
1779989228040303900,11.625303955078126,0.03577697277069092,1.7106800079345703,0.8943613767623901
1779989228056637400,11.641637451171874,0.2720300555229187,0.7725315093994141,0.3939938545227051
1779989228072971500,11.657971435546875,0.5515626668930054,0.043087005615234375,0.033466219902038574
1779989228089299500,11.674299560546874,0.03930026292800903,-0.8388690948486328,-0.20053231716156006
1779989228105640400,11.690640380859374,-0.4755476713180542,-1.5041351318359375,-0.20422440767288208
1779989228121970400,11.706970458984374,-1.1697998046875,-2.1056957244873047,1.1323198080062866
1779989228138303500,11.723303466796875,-1.8615365028381348,-3.1606502532958984,3.6272687911987305
1779989228154636000,11.739635986328125,-1.3773083686828613,-4.619692802429199,6.559773921966553
1779989228170971100,11.75597119140625,-1.6078734397888184,-5.638958930969238,8.020296096801758
1779989228187302700,11.772302734375,-2.031942129135132,-5.44017219543457,6.250423431396484
1779989228203637200,11.78863720703125,-2.804980754852295,-4.81756591796875,3.099910259246826
1779989228219969800,11.8049697265625,-1.7547072172164917,-5.366530418395996,1.6472357511520386
1779989228236308700,11.821308837890625,-0.9448124170303345,-5.791193008422852,0.9573448300361633
1779989228252619800,11.837619873046876,-0.37563765048980713,-5.8657426834106445,0.680327296257019
1779989228268974600,11.853974609375,-0.9816637635231018,-2.9322118759155273,-0.48733246326446533
1779989228285301800,11.8703017578125,-1.032515048980713,-1.0208768844604492,-1.1868462562561035
1779989228301636900,11.886636962890625,-1.4812774658203125,-1.3270883560180664,-1.5670111179351807
1779989228317968100,11.902968017578125,-1.965428352355957,-3.0198612213134766,-1.9185075759887695
1779989228334303200,11.91930322265625,-2.969193935394287,-3.9239625930786133,-1.1560015678405762
1779989228350635500,11.935635498046874,-2.178213596343994,-2.6428604125976562,0.2909677028656006
1779989228366969600,11.951969482421875,-0.19562065601348877,-1.6046247482299805,1.431383490562439
1779989228383302400,11.968302490234375,0.7049573659896851,-2.0908079147338867,1.5846198797225952
1779989228399636000,11.984635986328126,0.825183629989624,-2.3723487854003906,0.43102309107780457
1779989228415968800,12.00096875,2.8095433712005615,-2.0865554809570312,-0.9133974313735962
1779989228432311300,12.017311279296875,3.7805776596069336,-0.8264122009277344,-1.7888290882110596
1779989228448630000,12.033630126953126,1.4502824544906616,1.158116340637207,-1.37971031665802
1779989228464971800,12.0499716796875,-0.6835426092147827,1.543689250946045,-1.7429122924804688
1779989228481300000,12.066300048828126,-0.9687352180480957,1.6489391326904297,-2.191303253173828
1779989228497634600,12.082634521484374,-0.4702579975128174,2.290440082550049,-1.8691002130508423
1779989228513970700,12.098970703125,2.4965903759002686,2.9535813331604004,-1.6381585597991943
1779989228530302700,12.115302734375,3.4774928092956543,3.708003520965576,-1.9697335958480835
1779989228546633700,12.1316337890625,3.412076234817505,3.5195183753967285,-1.959972858428955
1779989228562968600,12.147968505859374,3.388418197631836,2.4365081787109375,-2.514721155166626
1779989228579301400,12.16430126953125,2.939751148223877,2.3074779510498047,-2.9351940155029297
1779989228595637200,12.18063720703125,2.9806313514709473,2.4127936363220215,-2.845045328140259
1779989228611967200,12.19696728515625,3.68892240524292,2.9673757553100586,-3.066431999206543
1779989228628288800,12.213288818359375,3.6479177474975586,3.0943984985351562,-2.857905149459839
1779989228644635600,12.2296357421875,3.2246758937835693,2.8754124641418457,-2.049168825149536
1779989228660970200,12.24597021484375,1.8404591083526611,3.5131678581237793,-0.4837617874145508
1779989228677301000,12.262301025390625,0.6296558380126953,5.349199295043945,0.7911107540130615
1779989228693615400,12.278615478515626,-0.7865867614746094,5.727740287780762,2.318310499191284
1779989228709969000,12.294968994140625,-1.261178970336914,3.9995059967041016,3.632298707962036
1779989228726308600,12.31130859375,0.2840423583984375,2.700075149536133,3.7133677005767822
1779989228742634200,12.32763427734375,3.770176410675049,4.0957183837890625,0.8116543292999268
1779989228758968600,12.343968505859374,-3.601794719696045,3.0247416496276855,-2.123526096343994
1779989228775300900,12.36030078125,-4.985177516937256,-8.523911476135254,-2.502023696899414
1779989228791641000,12.37664111328125,0.7744200229644775,-21.61189079284668,0.4823188781738281
1779989228807968500,12.392968505859375,-2.305508613586426,-12.92575740814209,1.842064619064331
1779989228824297700,12.409297607421875,-0.5057926177978516,0.02820301055908203,0.6893689632415771
1779989228840638500,12.425638427734375,2.4755358695983887,4.042390823364258,-1.1777676343917847
1779989228856969700,12.4419697265625,2.98457407951355,3.6101484298706055,-3.1600403785705566
1779989228873300500,12.458300537109375,2.4828367233276367,1.4151597023010254,-4.532811164855957
1779989228889634600,12.474634521484376,0.2982546091079712,-1.680830955505371,-4.749968528747559
1779989228905969700,12.4909697265625,0.2997826337814331,-4.69968318939209,-3.7815988063812256
1779989228922299400,12.50729931640625,-0.030999422073364258,-4.965132713317871,-0.23986530303955078
1779989228938634200,12.52363427734375,0.920251727104187,-4.277362823486328,2.060055732727051
1779989228954962200,12.539962158203124,1.3731526136398315,-2.4740562438964844,2.869137763977051
1779989228971300600,12.556300537109376,0.9653069972991943,0.05978870391845703,2.769224166870117
1779989228987636000,12.572635986328125,0.5326342582702637,1.7268295288085938,1.9032585620880127
1779989229003968300,12.58896826171875,1.1903777122497559,2.3435235023498535,0.5585216283798218
1779989229020301800,12.6053017578125,1.6323716640472412,3.0511841773986816,-1.1276394128799438
1779989229036633000,12.621633056640626,0.8116070628166199,3.5234594345092773,-2.761026620864868
1779989229052969200,12.63796923828125,-1.2659941911697388,3.8367347717285156,-2.5280661582946777
1779989229069300500,12.654300537109375,-0.3649919033050537,3.5398759841918945,-1.4188625812530518
1779989229085636000,12.670635986328126,0.4298921823501587,2.9936623573303223,-0.6978339552879333
1779989229101968000,12.6869677734375,-0.6199225187301636,2.495431423187256,-0.2879180312156677
1779989229118302000,12.703302001953125,-0.8512043356895447,2.0995593070983887,0.4195098578929901
1779989229134634000,12.719634033203125,-0.5140203237533569,1.9902935028076172,1.0024187564849854
1779989229150970000,12.73597021484375,-0.25713855028152466,1.8777427673339844,1.0228819847106934
1779989229167300400,12.75230029296875,-0.12944653630256653,1.279306411743164,0.7067358493804932
1779989229183635500,12.768635498046875,-0.2751813530921936,0.3223075866699219,0.4452434182167053
1779989229199966000,12.784966064453124,-0.20761555433273315,-0.6392621994018555,0.9004695415496826
1779989229216305400,12.801305419921874,0.03145039081573486,-0.9651422500610352,2.1075901985168457
1779989229232620800,12.817620849609375,-0.48705795407295227,-1.9426660537719727,3.758669853210449
1779989229248970000,12.833969970703125,-0.7336686849594116,-3.0378475189208984,4.866464614868164
1779989229265300000,12.850300048828124,-1.3363744020462036,-3.7185373306274414,4.2423095703125
1779989229281635600,12.866635498046875,-2.1029021739959717,-4.711976051330566,1.8568027019500732
1779989229297968000,12.882968017578126,-1.4050867557525635,-5.387446403503418,0.035930514335632324
1779989229314301700,12.8993017578125,-1.1153534650802612,-6.768559455871582,0.8470208048820496
1779989229330619400,12.915619384765625,-0.554480791091919,-6.903047561645508,0.8073530793190002
1779989229346959000,12.931958984375,-2.3460946083068848,-5.286807060241699,-0.053229331970214844
1779989229363299000,12.948299072265625,-2.6877057552337646,-3.2279443740844727,-0.8844045400619507
1779989229379634000,12.964634033203126,-2.693141460418701,-1.5282421112060547,-1.2370760440826416
1779989229395968000,12.980968017578125,-2.117643356323242,-1.3690414428710938,-1.2073042392730713
1779989229412306000,12.997305908203124,-1.4068387746810913,-2.0717859268188477,-1.1384360790252686
1779989229428630500,13.013630615234375,-0.7762675881385803,-2.406315803527832,-0.47835803031921387
1779989229444972300,13.02997216796875,0.31750723719596863,-2.202700614929199,0.7411913275718689
1779989229461299000,13.046298828125,1.307471752166748,-1.570159912109375,1.378396987915039
1779989229477635300,13.06263525390625,0.9856288433074951,-0.6799993515014648,1.1003804206848145
1779989229493968400,13.078968505859375,2.191934108734131,0.5595579147338867,0.09498835355043411
1779989229510300700,13.09530078125,1.6346936225891113,1.539285659790039,-0.02923719584941864
1779989229526620400,13.111620361328125,0.5210123062133789,1.738321304321289,-0.16426363587379456
1779989229542968800,13.12796875,-0.8602087497711182,2.324713706970215,-0.8972228765487671
1779989229559300400,13.14430029296875,-0.8532683849334717,2.406036376953125,-1.0822999477386475
1779989229575637200,13.16063720703125,-2.7296242713928223,2.108119487762451,-0.08128857612609863
1779989229591963600,13.176963623046875,-0.014209747314453125,1.9839591979980469,0.8684079647064209
1779989229608301800,13.1933017578125,1.961272120475769,1.7407960891723633,0.9073643684387207
1779989229624620800,13.209620849609376,3.5308890342712402,2.4504971504211426,-0.2975192070007324
1779989229640969000,13.225968994140626,3.1782894134521484,2.642427444458008,-1.7617107629776
1779989229657300000,13.242300048828126,3.4036781787872314,2.2725977897644043,-2.4891233444213867
1779989229673635000,13.258635009765625,2.165477752685547,1.6717243194580078,-3.2204649448394775
1779989229689957600,13.27495751953125,1.4175784587860107,0.9974160194396973,-3.806122303009033
1779989229706295600,13.291295654296874,1.7408859729766846,0.8487644195556641,-4.1833906173706055
1779989229722634000,13.307634033203126,1.0340323448181152,0.9804720878601074,-2.574963092803955
1779989229738969600,13.323969482421875,1.7045421600341797,1.4312725067138672,-1.5918409824371338
1779989229755299300,13.34029931640625,1.507239818572998,1.488807201385498,-0.34734129905700684
1779989229771635000,13.356635009765625,0.8042731285095215,2.438077926635742,-0.5980328321456909
1779989229787955000,13.372954833984375,0.14455223083496094,2.7935538291931152,-0.21358537673950195
1779989229804283000,13.389282958984374,-0.43665552139282227,3.6348423957824707,0.3427400588989258
1779989229820631000,13.405631103515624,-2.0315194129943848,4.369227886199951,1.5424060821533203
1779989229836971300,13.42197119140625,-2.0165491104125977,3.4059948921203613,3.474982976913452
1779989229853287400,13.438287353515625,0.23548603057861328,2.7203869819641113,5.016366004943848
1779989229869633300,13.45463330078125,1.5049421787261963,3.0925822257995605,5.151270866394043
1779989229885968600,13.47096875,-4.055935382843018,2.3141732215881348,3.068502902984619
1779989229902297900,13.4872978515625,-6.176815509796143,-7.730251312255859,1.658505916595459
1779989229918637000,13.503636962890624,0.7945773601531982,-17.398880004882812,-1.3691997528076172
1779989229934969000,13.519968994140624,-3.183051109313965,-4.405848503112793,-3.495206117630005
1779989229951290000,13.5362900390625,2.2940545082092285,3.6878371238708496,-1.1002532243728638
1779989229967633700,13.552633544921875,4.356746673583984,5.761667728424072,-1.4434655904769897
1779989229983966700,13.568966796875,3.3562324047088623,2.937077522277832,-4.483276844024658
1779989230000302300,13.58530224609375,2.4355735778808594,-0.48183727264404297,-5.491968154907227
1779989230016632800,13.6016328125,0.1961514949798584,-4.096255302429199,-5.112804889678955
1779989230032967700,13.6179677734375,-1.229048728942871,-6.083528518676758,-2.5802001953125
1779989230049299700,13.6342998046875,0.15525603294372559,-4.802737236022949,0.725677490234375
1779989230065631500,13.650631591796875,1.2154185771942139,-2.3491640090942383,2.0722336769104004
1779989230081971500,13.666971435546875,1.773618221282959,-0.22649478912353516,1.8237416744232178
1779989230098300700,13.68330078125,1.8982082605361938,1.3349742889404297,1.2002503871917725
1779989230114634000,13.699634033203125,1.800698161125183,2.2882766723632812,0.0938841700553894
1779989230130969300,13.71596923828125,1.4477527141571045,2.38253116607666,-0.4122161865234375
1779989230147298000,13.732298095703126,1.1985448598861694,1.9993643760681152,-0.4641059637069702
1779989230163635700,13.7486357421875,0.31764400005340576,1.923166275024414,0.22793468832969666
1779989230179968500,13.764968505859375,0.01173102855682373,2.172788619995117,0.603629469871521
1779989230196303400,13.781303466796874,-0.6026092767715454,2.535754680633545,0.7496341466903687
1779989230212621000,13.79762109375,-0.2740698456764221,2.3806076049804688,0.4887973666191101
1779989230228965600,13.813965576171874,0.06916730105876923,1.8385043144226074,0.3529137670993805
1779989230245302000,13.830302001953125,-1.3003106117248535,0.8991584777832031,-0.4452863931655884
1779989230261635000,13.846635009765626,-1.1323575973510742,0.1931295394897461,-1.162415862083435
1779989230277968600,13.86296875,-0.7999619245529175,-0.29544925689697266,-1.5580484867095947
1779989230294299600,13.879299560546874,-0.614656388759613,-0.16641521453857422,-1.1761791706085205
1779989230310611200,13.895611083984376,-0.694249153137207,0.0035543441772460938,-0.1358121931552887
1779989230326969900,13.911969970703124,-0.9841233491897583,-0.6248855590820312,0.6781150102615356
1779989230343299800,13.9282998046875,-1.0554254055023193,-0.6438541412353516,1.6975610256195068
1779989230359634200,13.94463427734375,-0.6585720181465149,-0.3509502410888672,3.408984661102295
1779989230375968500,13.960968505859375,-0.5477369427680969,-0.31324005126953125,5.035654544830322
1779989230392306200,13.97730615234375,-0.8317093849182129,-0.3368873596191406,5.557504177093506
1779989230408632300,13.99363232421875,-0.12270641326904297,-0.09453582763671875,4.311123847961426
1779989230424969000,14.009968994140625,-0.10316163301467896,-0.43222808837890625,3.148000717163086
1779989230441300200,14.02630029296875,0.8490791916847229,-0.8996448516845703,2.361682653427124
1779989230457635000,14.042635009765625,0.35761064291000366,-1.7222328186035156,2.637727737426758
1779989230473967000,14.058967041015626,1.635000467300415,-3.006533622741699,1.9936572313308716
1779989230490302200,14.07530224609375,-0.4402173161506653,-4.152998924255371,0.2658419609069824
1779989230506632400,14.091632568359374,-3.271622657775879,-6.072164535522461,-1.6126580238342285
1779989230522968800,14.10796875,-4.914280891418457,-8.283160209655762,-3.03377366065979
1779989230539300600,14.124300537109375,-5.100098133087158,-7.189546585083008,-2.518568515777588
1779989230555638300,14.14063818359375,-3.3909502029418945,-3.890109062194824,-0.20298826694488525
1779989230571965400,14.15696533203125,-1.1664334535598755,-1.638906478881836,1.4943870306015015
1779989230588301000,14.173301025390625,-0.5419641137123108,-1.2620964050292969,2.321526288986206
1779989230604633900,14.1896337890625,-0.5559268593788147,-1.8622188568115234,1.706170916557312
1779989230620969000,14.205968994140624,-0.8025346398353577,-2.866122245788574,0.3332313895225525
1779989230637300200,14.22230029296875,-0.32141822576522827,-3.515446662902832,-0.9717842936515808
1779989230653635300,14.23863525390625,1.0630364418029785,-3.136441230773926,-1.9882780313491821
1779989230669965800,14.2549658203125,1.5414937734603882,-2.2969093322753906,-2.3986613750457764
1779989230686289700,14.27128955078125,0.937621533870697,-1.2169647216796875,-2.3040924072265625
1779989230702614000,14.287614013671876,1.8299797773361206,0.008815765380859375,-1.8736661672592163
1779989230718969900,14.303969970703125,2.7862229347229004,1.6778926849365234,-1.39943528175354
1779989230735300600,14.320300537109375,1.42861008644104,3.6568169593811035,-0.7476496696472168
1779989230751622100,14.3366220703125,0.3548929691314697,3.7559661865234375,-0.04450535774230957
1779989230767982300,14.352982421875,0.34166502952575684,2.7522287368774414,0.10135656595230103
1779989230784310500,14.369310546875,0.14739537239074707,1.564424991607666,0.4428485631942749
1779989230800632600,14.385632568359375,0.6663603782653809,1.2033939361572266,0.35626983642578125
1779989230816966400,14.40196630859375,1.8178858757019043,1.8280186653137207,-0.15317201614379883
1779989230833304000,14.418303955078125,3.1638245582580566,2.5919604301452637,-1.1446439027786255
1779989230849630000,14.4346298828125,3.881153106689453,3.1704936027526855,-2.0594828128814697
1779989230865967000,14.450967041015625,3.7401175498962402,5.732418537139893,-2.8391780853271484
1779989230882303700,14.4673037109375,3.2587485313415527,1.6830120086669922,-2.9309115409851074
1779989230898633500,14.483633544921876,3.0990962982177734,1.8270659446716309,-2.5890777111053467
1779989230914955500,14.49995556640625,2.0979790687561035,1.5933680534362793,-2.2680625915527344
1779989230931290400,14.516290283203125,1.4032049179077148,2.0460128784179688,-1.284441351890564
1779989230947622700,14.53262255859375,1.3043642044067383,2.5033202171325684,-0.059395790100097656
1779989230963968300,14.54896826171875,1.2582342624664307,3.0196027755737305,0.45139384269714355
1779989230980299300,14.56529931640625,0.37302398681640625,3.441079616546631,0.8593041896820068
1779989230996636200,14.58163623046875,-1.0331215858459473,3.884542465209961,1.6499571800231934
1779989231012969500,14.597969482421876,-0.6389870643615723,3.663201332092285,3.6221401691436768
1779989231029300700,14.61430078125,2.7634079456329346,3.330885887145996,4.673353672027588
1779989231045638100,14.63063818359375,2.172727584838867,5.010662078857422,3.6788880825042725
1779989231061965000,14.646965087890624,-9.271221160888672,-0.5711917877197266,5.123851776123047
1779989231078302000,14.663302001953125,2.5375003814697266,-21.386425018310547,5.45871639251709
1779989231094634500,14.679634521484376,-11.079282760620117,-14.540534973144531,-4.491109848022461
1779989231110969900,14.695969970703125,0.12124514579772949,1.5653066635131836,-2.121630907058716
1779989231127299600,14.712299560546874,3.6240811347961426,7.770395755767822,-2.2885873317718506
1779989231143635000,14.728635009765625,2.951334238052368,3.6028027534484863,-5.667223930358887
1779989231159969800,14.7449697265625,3.267400026321411,0.509068489074707,-6.853191375732422
1779989231176305400,14.761305419921875,0.41140127182006836,-2.8738975524902344,-6.228806972503662
1779989231192622000,14.7776220703125,-1.3890116214752197,-6.744772911071777,-4.4652628898620605
1779989231208966100,14.793966064453125,-0.7155402898788452,-5.991706848144531,-0.9867755770683289
1779989231225304800,14.810304931640625,-0.5230206251144409,-3.5217857360839844,0.7729851007461548
1779989231241635800,14.8266357421875,0.6154123544692993,-1.372793197631836,1.0586004257202148
1779989231257969000,14.842968994140625,1.786872386932373,0.2277965545654297,1.2961790561676025
1779989231274302700,14.859302734375,2.2390851974487305,1.1156187057495117,0.7217868566513062
1779989231290635300,14.87563525390625,0.6528745889663696,1.638535499572754,0.5836741924285889
1779989231306969000,14.891968994140624,0.4989265501499176,1.9671683311462402,0.16092178225517273
1779989231323302000,14.908302001953125,0.15329191088676453,2.284675121307373,-0.04241412878036499
1779989231339631900,14.9246318359375,-0.5305972099304199,2.9753403663635254,0.0768733024597168
1779989231355971300,14.940971435546874,-1.243079423904419,4.058899402618408,0.004574432969093323
1779989231372312300,14.957312255859375,-1.7998380661010742,4.607227802276611,0.012481659650802612
1779989231388630300,14.97363037109375,-1.1651241779327393,3.6402454376220703,-0.09520165622234344
1779989231404969700,14.9899697265625,-0.9868783950805664,2.195645809173584,-0.2349609136581421
1779989231421301000,15.006301025390625,-1.0338844060897827,1.038590431213379,-0.5043204426765442
1779989231437636400,15.02263623046875,-1.157267451286316,0.4832496643066406,-0.006035126745700836
1779989231453969700,15.0389697265625,-0.13154828548431396,0.33223724365234375,0.783621609210968
1779989231470303000,15.055302978515625,-0.16194427013397217,-0.1674633026123047,1.2038594484329224
1779989231486633700,15.0716337890625,-0.2990392744541168,-0.5443668365478516,0.8490169644355774
1779989231502970000,15.08797021484375,-0.5877371430397034,-0.41883373260498047,0.49983012676239014
1779989231519290600,15.10429052734375,-1.190624713897705,-0.42298221588134766,0.4339749813079834
1779989231535637500,15.120637451171875,-1.391562581062317,-0.6009120941162109,1.3764863014221191
1779989231551969300,15.13696923828125,-0.47728458046913147,-1.2639741897583008,2.4150803089141846
1779989231568301000,15.153301025390626,0.2324388027191162,-1.7743606567382812,1.8745861053466797
1779989231584636000,15.169635986328124,-0.5351544618606567,-2.5885276794433594,0.6614229679107666
1779989231600971000,15.185970947265625,-1.8209483623504639,-3.512208938598633,-0.08478158712387085
1779989231617299000,15.202298828125,-1.2267827987670898,-4.613377571105957,0.5525193214416504
1779989231633638700,15.218638671875,-0.15057194232940674,-5.250007629394531,3.1773128509521484
1779989231649969400,15.234969482421874,1.890048861503601,-6.162886619567871,3.360150098800659
1779989231666309600,15.2513095703125,-2.0623674392700195,-6.7953596115112305,0.12338113784790039
1779989231682622700,15.267622802734374,-3.307948112487793,-5.604961395263672,-1.9971565008163452
1779989231698969600,15.283969482421876,-3.0306649208068848,-4.072039604187012,-0.3007996082305908
1779989231715299800,15.3002998046875,-2.1646859645843506,-1.4602842330932617,0.6297391653060913
1779989231731640600,15.316640625,-2.7101755142211914,-0.2302236557006836,1.0410690307617188
1779989231747969300,15.33296923828125,-2.702953338623047,-1.1252002716064453,1.510582685470581
1779989231764302000,15.349302001953125,-2.4803619384765625,-2.586798667907715,2.0795512199401855
1779989231780636400,15.365636474609374,-1.5952825546264648,-3.7394208908081055,2.599973201751709
1779989231796970500,15.381970458984375,0.7952231168746948,-4.226656913757324,2.2321934700012207
1779989231813303000,15.398302978515625,0.3429608643054962,-3.3898773193359375,1.081611156463623
1779989231829635300,15.41463525390625,0.06830155849456787,-1.3056249618530273,0.28014707565307617
1779989231845957400,15.430957275390625,1.0846086740493774,0.356201171875,-0.2521411180496216
1779989231862309000,15.44730908203125,0.5191872119903564,1.7870140075683594,0.07686108350753784
1779989231878628000,15.463628173828125,-1.4778846502304077,2.2371301651000977,0.027153968811035156
1779989231894973200,15.47997314453125,-1.8590116500854492,1.9655852317810059,-0.5175521969795227
1779989231911303000,15.496302978515626,-0.8962283134460449,1.2698163986206055,-1.1105703115463257
1779989231927637800,15.5126376953125,0.47998881340026855,0.9655399322509766,-1.8504770994186401
1779989231943970600,15.528970458984375,1.334777593612671,0.5379600524902344,-2.9001598358154297
1779989231960303600,15.5453037109375,3.988163709640503,1.0250921249389648,-3.2887935638427734
1779989231976632300,15.56163232421875,6.070089340209961,2.1985912322998047,-2.7407877445220947
1779989231992975000,15.57797509765625,3.2869019508361816,1.6962523460388184,-1.8256574869155884
1779989232009301800,15.5943017578125,1.60319185256958,0.8249921798706055,-1.8887860774993896
1779989232025639400,15.610639404296874,2.907477378845215,1.783647060394287,-1.9388532638549805
1779989232041966600,15.626966552734375,3.5055019855499268,4.150082588195801,-1.4617207050323486
1779989232058307300,15.643307373046875,4.400050640106201,4.767558574676514,-1.6769928932189941
1779989232074637000,15.659636962890625,4.155543327331543,5.6854963302612305,-1.7711704969406128
1779989232090971600,15.6759716796875,3.04485821723938,5.701918601989746,-1.4144463539123535
1779989232107303700,15.6923037109375,2.922952175140381,5.464620590209961,-0.4325072765350342
1779989232123638300,15.70863818359375,2.056229591369629,5.305059909820557,1.3008065223693848
1779989232139967700,15.7249677734375,-1.7750892639160156,3.9718031883239746,2.4907381534576416
1779989232156308700,15.741308837890625,-5.576087951660156,3.4186935424804688,2.9727206230163574
1779989232172624600,15.757624755859375,-5.45866584777832,2.916506290435791,3.8004775047302246
1779989232188972000,15.773971923828125,-3.1765518188476562,2.591188430786133,5.23982048034668
1779989232205303600,15.790303466796875,-1.5109076499938965,-0.21742677688598633,5.991243362426758
1779989232221638700,15.806638671875,-5.3889665603637695,-8.129045486450195,0.9870414733886719
1779989232237971000,15.822970947265626,-10.77323055267334,-19.145305633544922,-1.0456501245498657
1779989232254305800,15.839305908203125,-2.836399555206299,-7.051448345184326,-0.5086854696273804
1779989232270636000,15.855635986328124,0.8015317916870117,7.877513408660889,-5.464489459991455
1779989232286972700,15.87197265625,-0.05862569808959961,9.169366836547852,-3.429718494415283
1779989232303304700,15.8883046875,6.85435152053833,3.87684965133667,0.6023763418197632
1779989232319637500,15.904637451171874,5.171041965484619,-0.05740928649902344,-4.348515510559082
1779989232335970800,15.920970703125,2.169447183609009,-3.1412839889526367,-5.513566017150879
1779989232352311300,15.937311279296875,1.0514123439788818,-4.845102310180664,-4.085312843322754
1779989232368633600,15.953633544921875,1.0879342555999756,-3.3774309158325195,-2.5241146087646484
1779989232384972800,15.969972900390625,2.8242084980010986,-1.7044458389282227,-1.88882315158844
1779989232401302500,15.986302490234374,3.0120840072631836,-0.9624204635620117,-2.0615477561950684
1779989232417639200,16.00263916015625,2.039414882659912,-0.8387556076049805,-2.0595791339874268
1779989232433972200,16.01897216796875,1.880742073059082,-1.3394737243652344,-1.2144838571548462
1779989232450304500,16.035304443359376,2.1434056758880615,-1.4805717468261719,0.06604671478271484
1779989232466636300,16.05163623046875,2.1121485233306885,-2.0038137435913086,1.1121591329574585
1779989232482973400,16.067973388671874,0.9318010807037354,-1.4303579330444336,1.553926706314087
1779989232499304700,16.0843046875,0.5143082737922668,0.022359848022460938,1.3926185369491577
1779989232515652400,16.10065234375,0.5379654765129089,1.8302454948425293,1.211954116821289
1779989232531956700,16.116956787109373,0.6834447383880615,2.753187656402588,1.5112377405166626
1779989232548295400,16.13329541015625,-0.03447294980287552,2.8503365516662598,2.1697323322296143
1779989232564638500,16.149638427734374,-0.3883695602416992,2.2339859008789062,2.368175983428955
1779989232580970000,16.165969970703124,-0.534144401550293,2.5904054641723633,1.229658603668213
1779989232597305300,16.182305419921875,0.4408465623855591,2.609255790710449,0.05235506594181061
1779989232613638700,16.198638671875,-0.7966160178184509,3.0638856887817383,-0.2964636981487274
1779989232629972700,16.21497265625,-0.799329936504364,2.988471508026123,-0.2597266435623169
1779989232646310100,16.23131005859375,0.6400107145309448,2.2606682777404785,-0.05142265558242798
1779989232662637800,16.247637939453124,2.301387310028076,1.4038047790527344,0.03633517026901245
1779989232678967300,16.26396728515625,0.6690382957458496,0.5640630722045898,0.2835915684700012
1779989232695306200,16.28030615234375,-1.597335696220398,-0.5688791275024414,0.14148670434951782
1779989232711640600,16.296640625,-2.397836685180664,-0.04766845703125,-0.3713104724884033
1779989232727973000,16.31297314453125,-2.4429733753204346,0.3385610580444336,-0.41420626640319824
1779989232744306700,16.329306640625,-1.1009470224380493,0.30579280853271484,0.16055810451507568
1779989232760639500,16.345639404296875,1.0406544208526611,0.5104913711547852,1.2242892980575562
1779989232776974800,16.361974853515626,1.6486632823944092,1.1581592559814453,1.446648120880127
1779989232793304800,16.378304931640624,0.04322671890258789,0.04320240020751953,1.0041532516479492
1779989232809640400,16.394640380859375,-1.4005204439163208,-1.5203123092651367,0.7282960414886475
1779989232825973500,16.410973388671874,-0.664783239364624,-1.3798694610595703,0.9848711490631104
1779989232842308400,16.427308349609376,0.5384082794189453,-1.0160980224609375,1.8781909942626953
1779989232858638600,16.443638671875,0.4061589241027832,-0.9329023361206055,2.160088539123535
1779989232874975000,16.45997509765625,-0.3302040100097656,-0.758051872253418,1.978869915008545
1779989232891305000,16.476304931640627,-0.7354469299316406,-1.8828325271606445,2.6509153842926025
1779989232907641300,16.492641357421874,-1.3995906114578247,-2.1988658905029297,3.3040482997894287
1779989232923974400,16.508974365234376,-0.9270106554031372,-3.380483627319336,5.036351203918457
1779989232940308000,16.525307861328123,-2.0201969146728516,-3.6460561752319336,6.331636428833008
1779989232956639000,16.541638916015625,-1.5528485774993896,-3.7373266220092773,6.674365043640137
1779989232972975900,16.557975830078124,-0.9649010896682739,-5.0694427490234375,6.237193584442139
1779989232989307000,16.574306884765626,-0.3242286443710327,-5.388153076171875,4.601016998291016
1779989233005642800,16.590642822265625,-0.42953288555145264,-2.8753490447998047,3.2476701736450195
1779989233021973200,16.60697314453125,-0.4455453157424927,-0.8470735549926758,2.6784157752990723
1779989233038308400,16.623308349609374,-0.03380405902862549,-0.12240314483642578,1.774989366531372
1779989233054639900,16.639639892578124,-1.2769973278045654,-1.7062206268310547,-0.45796477794647217
1779989233070976000,16.65597607421875,-2.8512184619903564,-4.973943710327148,-2.625933885574341
1779989233087307500,16.6723076171875,0.3959029018878937,-5.826604843139648,-4.919375896453857
1779989233103643000,16.688642822265624,2.7665345668792725,-4.303714752197266,-5.665760040283203
1779989233119974400,16.704974365234374,1.1956524848937988,-2.624943733215332,-5.15445613861084
1779989233136311000,16.72131103515625,0.09023809432983398,-2.0105600357055664,-4.671459674835205
1779989233152628500,16.73762841796875,-0.11439526081085205,-1.9309310913085938,-3.61631441116333
1779989233168976100,16.75397607421875,0.8036377429962158,-0.6220302581787109,-1.2848213911056519
1779989233185308400,16.770308349609376,0.9716075658798218,1.1437444686889648,0.8519167304039001
1779989233201642800,16.786642822265627,1.613800048828125,2.2283496856689453,1.9364612102508545
1779989233217973800,16.802973876953125,1.1259227991104126,2.041538715362549,2.258603572845459
1779989233234308600,16.81930859375,1.6677831411361694,1.2056684494018555,1.6568512916564941
1779989233250628600,16.835628662109375,1.398115873336792,1.8569235801696777,-0.12161540985107422
1779989233266976800,16.851976806640625,1.6649150848388672,2.660820484161377,-1.47041654586792
1779989233283308500,16.86830859375,2.205242395401001,3.4045114517211914,-2.3982994556427
1779989233299642600,16.884642578125,2.6779749393463135,4.214328765869141,-2.8641812801361084
1779989233315975700,16.9009755859375,3.1081109046936035,4.810758590698242,-3.185209274291992
1779989233332304600,16.9173046875,3.503046989440918,4.905806541442871,-3.307363510131836
1779989233348645000,16.93364501953125,4.0078349113464355,4.963088035583496,-3.5332112312316895
1779989233364977400,16.949977294921876,3.3914124965667725,5.1821112632751465,-3.591050386428833
1779989233381309000,16.966308837890626,2.2011613845825195,5.462039947509766,-3.413078784942627
1779989233397643500,16.9826435546875,0.14642786979675293,4.858796119689941,-2.5133585929870605
1779989233413963300,16.99896337890625,-2.9163293838500977,3.362548828125,-1.3171570301055908
1779989233430293500,17.01529345703125,-5.7154340744018555,0.47046566009521484,0.5894954204559326
1779989233446642000,17.031641845703124,-3.2447755336761475,-3.816409111022949,2.870767116546631
1779989233462977500,17.0479775390625,-1.1757071018218994,-12.904143333435059,5.600593566894531
1779989233479309600,17.0643095703125,-7.837754249572754,-14.354570388793945,7.072237968444824
1779989233495643100,17.08064306640625,-6.384732246398926,-2.803595542907715,5.843070983886719
1779989233511976700,17.096976806640626,-1.8953516483306885,2.863872528076172,5.110090255737305
1779989233528311000,17.11331103515625,-0.19067835807800293,4.896451950073242,1.978649616241455
1779989233544643600,17.1296435546875,4.365138530731201,-1.1021595001220703,0.17505621910095215
1779989233560978200,17.145978271484374,5.679751396179199,-5.412447929382324,-1.6128454208374023
1779989233577310000,17.16231005859375,10.53064250946045,-9.577570915222168,-3.4361796379089355
1779989233593644800,17.178644775390627,0.5560814142227173,-10.660024642944336,-4.3802008628845215
1779989233609977600,17.1949775390625,-12.978333473205566,0.2661457061767578,-3.9192352294921875
1779989233626313700,17.211313720703124,-6.69610071182251,3.573143482208252,-5.761987209320068
1779989233642643700,17.227643798828126,4.001075744628906,2.618988037109375,-8.033463478088379
1779989233658978600,17.243978515625,9.41608715057373,2.8248114585876465,-7.284111976623535
1779989233675310600,17.260310546875,7.428733825683594,2.202704429626465,-4.858765602111816
1779989233691645700,17.276645751953126,1.1589291095733643,0.903193473815918,-4.116644859313965
1779989233707978800,17.292978759765624,0.7788981199264526,-1.2332611083984375,-3.2772574424743652
1779989233724298000,17.309298095703124,2.369723081588745,-1.4077301025390625,-1.4514317512512207
1779989233740644600,17.32564453125,2.6290299892425537,-0.880946159362793,0.23706287145614624
1779989233756979500,17.3419794921875,1.8349347114562988,0.028115272521972656,2.0581161975860596
1779989233773311500,17.3583115234375,2.6859772205352783,1.6907329559326172,2.484238624572754
1779989233789645300,17.374645263671876,1.3087315559387207,2.5225911140441895,2.957815647125244
1779989233805978000,17.39097802734375,0.516731858253479,2.1903586387634277,1.659964680671692
1779989233822312400,17.4073125,-0.5246776342391968,2.2101268768310547,-0.4093180000782013
1779989233838642000,17.423641845703123,0.3504157066345215,0.9910039901733398,-1.8248258829116821
1779989233854979800,17.439979736328127,0.7032537460327148,0.39934349060058594,-2.6513314247131348
1779989233871293700,17.456293701171877,-0.720515251159668,0.7446365356445312,-2.221771717071533
1779989233887652600,17.472652587890625,-1.8238701820373535,0.9548511505126953,-0.5473525524139404
1779989233903979300,17.488979248046874,-1.3339958190917969,0.6419553756713867,0.6698788404464722
1779989233920313600,17.505313720703125,-0.5572502613067627,-0.576878547668457,1.9776387214660645
1779989233936646700,17.521646728515623,-0.4955887794494629,-1.0104103088378906,2.5392632484436035
1779989233952981000,17.53798095703125,0.14411330223083496,-0.27881813049316406,2.402231216430664
1779989233969313300,17.554313232421876,-1.1679352521896362,0.06365203857421875,2.454463481903076
1779989233985647600,17.570647705078127,-1.3933683633804321,0.0019826889038085938,2.8647828102111816
1779989234001978400,17.586978271484377,-1.3055195808410645,0.15083026885986328,3.5057811737060547
1779989234018314800,17.603314697265624,0.06865429878234863,0.11772346496582031,4.216251850128174
1779989234034642000,17.619641845703125,0.41062188148498535,0.2650642395019531,4.012075424194336
1779989234050986000,17.635986083984374,-0.31537699699401855,0.5608768463134766,2.9007513523101807
1779989234067313700,17.652313720703123,-0.5422317981719971,-1.2588958740234375,2.8246219158172607
1779989234083651600,17.668651611328126,-0.14284420013427734,-2.9566221237182617,3.1468467712402344
1779989234099955000,17.684954833984374,-0.3997839689254761,-3.5825700759887695,3.2733120918273926
1779989234116318200,17.701318115234375,-0.8901041746139526,-3.3198013305664062,2.9851021766662598
1779989234132634400,17.71763427734375,-1.4758307933807373,-3.941777229309082,2.2227237224578857
1779989234148981800,17.733981689453124,-0.5454885959625244,-6.017891883850098,2.750851631164551
1779989234165314000,17.75031396484375,-1.3881807327270508,-4.550233840942383,2.807979106903076
1779989234181649400,17.7666494140625,-2.328432083129883,-1.8155384063720703,2.811225414276123
1779989234197981200,17.782981201171875,-1.9010846614837646,0.03667736053466797,2.0809483528137207
1779989234214316000,17.79931591796875,-2.15535831451416,0.7189168930053711,-0.001961350440979004
1779989234230648000,17.81564794921875,-3.7775728702545166,-0.8949718475341797,-2.6057591438293457
1779989234246982400,17.831982421875,-1.223128318786621,-4.038494110107422,-4.68181037902832
1779989234263296800,17.848296875,2.1834895610809326,-4.736120223999023,-4.751884937286377
1779989234279640600,17.864640625,2.659721851348877,-3.788806915283203,-4.721004486083984
1779989234295973600,17.8809736328125,1.552144169807434,-2.2818355560302734,-4.560193061828613
1779989234312308500,17.89730859375,1.170940637588501,-0.7064428329467773,-2.4041855335235596
1779989234328645000,17.91364501953125,0.48704612255096436,0.26767444610595703,-0.5070138573646545
1779989234344984600,17.929984619140626,0.7421503067016602,0.8211135864257812,0.7320308685302734
1779989234361315800,17.94631591796875,1.659609079360962,0.4652080535888672,1.207727074623108
1779989234377650200,17.962650146484375,1.0324556827545166,0.32227325439453125,0.5273722410202026
1779989234393981000,17.97898095703125,1.3269323110580444,1.434206485748291,-0.5405575037002563
1779989234410304500,17.995304443359377,1.6514548063278198,2.546802520751953,-1.3863192796707153
1779989234426648000,18.01164794921875,1.61055588722229,2.900886058807373,-1.9330581426620483
1779989234442984000,18.02798388671875,1.6117868423461914,3.1130623817443848,-2.463465929031372
1779989234459316700,18.044316650390623,1.8102134466171265,3.3058910369873047,-3.1322245597839355
1779989234475651000,18.060651123046874,2.0172510147094727,3.4183006286621094,-3.5125224590301514
1779989234491982800,18.07698291015625,2.654242992401123,3.384237289428711,-3.680279016494751
1779989234508318000,18.09331787109375,2.5560648441314697,3.5357842445373535,-3.1077992916107178
1779989234524651000,18.109651123046874,2.51287579536438,3.601203441619873,-2.7570700645446777
1779989234540983300,18.1259833984375,0.24182701110839844,4.128852367401123,-1.8586176633834839
1779989234557317400,18.1423173828125,-2.6222755908966064,4.1746416091918945,-0.6391515731811523
1779989234573644300,18.158644287109375,-3.9904673099517822,2.710740566253662,1.2726819515228271
1779989234589984000,18.17498388671875,-3.4864301681518555,-0.5109853744506836,3.65694260597229
1779989234606319900,18.19131982421875,-2.4400389194488525,-6.270600318908691,5.4234619140625
1779989234622656000,18.207656005859373,-0.9255619049072266,-10.568132400512695,5.408154487609863
1779989234638983700,18.223983642578126,-5.651602745056152,-5.307122230529785,4.200860023498535
1779989234655318300,18.240318359375,-4.920379161834717,-0.9942836761474609,1.4007070064544678
1779989234671653000,18.256653076171876,1.759961724281311,-2.9449539184570312,-1.3664195537567139
1779989234687984600,18.272984619140626,8.555696487426758,-4.072850227355957,-3.8893532752990723
1779989234704317700,18.289317626953125,7.567685127258301,-5.491034507751465,-6.66791296005249
1779989234720653600,18.305653564453124,-2.8374838829040527,-1.7948493957519531,-7.119967460632324
1779989234736970800,18.321970703125,-7.060372352600098,1.9271149635314941,-2.504187822341919
1779989234753319200,18.338319091796876,-2.088149309158325,1.1317939758300781,-2.986957550048828
1779989234769649200,18.354649169921874,2.7046051025390625,-0.1624612808227539,-3.7095727920532227
1779989234785989000,18.370989013671874,5.176560401916504,-0.17504215240478516,-2.747724771499634
1779989234802322400,18.387322509765625,4.525308132171631,-0.22732830047607422,-1.1840163469314575
1779989234818651600,18.403651611328126,2.5960826873779297,-1.304429054260254,-0.010049700736999512
1779989234834987300,18.4199873046875,4.329537391662598,-2.3003616333007812,1.135159969329834
1779989234851317200,18.436317138671875,1.9624873399734497,-2.437520980834961,3.30857253074646
1779989234867655000,18.452655029296874,-1.328106164932251,0.06833362579345703,2.4428117275238037
1779989234883990000,18.468989990234373,3.1865110397338867,0.7997217178344727,0.3425745964050293
1779989234900320000,18.485320068359375,2.5542006492614746,0.41447925567626953,-1.6071574687957764
1779989234916652800,18.50165283203125,-0.27802398800849915,0.8474769592285156,-2.738234043121338
1779989234932988400,18.517988525390624,-0.7905465960502625,2.1395106315612793,-1.9298713207244873
1779989234949321200,18.5343212890625,0.21313655376434326,2.160548210144043,-2.0609476566314697
1779989234965655600,18.550655517578125,0.2491397261619568,1.6112089157104492,-2.5824105739593506
1779989234981986000,18.566986083984375,-0.5532214641571045,1.0196294784545898,-2.600320816040039
1779989234998323000,18.583322998046874,-0.9361194968223572,0.23355388641357422,-1.220041275024414
1779989235014651400,18.5996513671875,-1.0249160528182983,0.12282752990722656,0.19731993973255157
1779989235030991400,18.615991455078124,-1.3513106107711792,0.6320333480834961,1.5696955919265747
1779989235047321900,18.63232177734375,-1.3623746633529663,1.4182233810424805,1.8217605352401733
1779989235063656700,18.64865673828125,-0.8311250805854797,1.336653709411621,1.7097907066345215
1779989235079988500,18.664988525390626,-0.9033582210540771,0.5813560485839844,2.2575621604919434
1779989235096327000,18.681326904296874,-1.1032395362854004,0.02126598358154297,2.9820642471313477
1779989235112643300,18.697643310546876,-0.8790640234947205,-0.5513219833374023,3.2906644344329834
1779989235128990200,18.713990234375,-0.9758040308952332,-1.6955013275146484,2.5940816402435303
1779989235145321700,18.73032177734375,-0.566322922706604,-3.1819019317626953,0.9222867488861084
1779989235161657300,18.7466572265625,-0.89940345287323,-3.735997200012207,0.17278772592544556
1779989235177990100,18.762990234375,-0.2921820878982544,-5.1956892013549805,0.4203391969203949
1779989235194324000,18.779323974609376,-0.6106323003768921,-5.7768354415893555,1.9063880443572998
1779989235210657500,18.795657470703127,-1.3145991563796997,-6.250100135803223,2.6729211807250977
1779989235226991000,18.8119912109375,-1.7994565963745117,-8.097600936889648,2.288609266281128
1779989235243324400,18.828324462890624,-2.3925936222076416,-5.804625511169434,1.5785188674926758
1779989235259660500,18.84466064453125,-1.6940630674362183,-2.6747522354125977,1.675905466079712
1779989235275990300,18.860990234375,0.011127352714538574,-0.009006500244140625,1.599524974822998
1779989235292312600,18.8773125,0.717132568359375,0.8996982574462891,1.2785921096801758
1779989235308658000,18.893657958984374,-0.6413588523864746,-1.6230506896972656,0.890716552734375
1779989235324992500,18.909992431640624,-2.0993614196777344,-5.61651611328125,0.3890795111656189
1779989235341325000,18.926324951171875,-0.5498524308204651,-6.642045021057129,-0.284376859664917
1779989235357659400,18.942659423828125,1.0724483728408813,-5.518714904785156,-0.8720635771751404
1779989235373991400,18.958991455078124,1.2084369659423828,-3.060445785522461,-1.9025102853775024
1779989235390331400,18.975331298828124,0.3742179870605469,-0.46297168731689453,-3.1520228385925293
1779989235406659300,18.991659423828125,0.49914562702178955,0.6951961517333984,-3.163005828857422
1779989235422992100,19.0079921875,1.4509642124176025,1.722029685974121,-1.9782335758209229
1779989235439326200,19.024326171875,1.6905889511108398,1.674006462097168,-1.8805183172225952
1779989235455660500,19.04066064453125,0.7376755475997925,0.8788652420043945,-2.242086887359619
1779989235471980800,19.056980712890624,0.272036075592041,1.209455966949463,-1.8208078145980835
1779989235488327400,19.073327392578125,-0.12821125984191895,0.5321903228759766,-1.2513926029205322
1779989235504660500,19.089660400390624,1.4630589485168457,1.7468533515930176,-1.052000880241394
1779989235520994300,19.105994384765626,2.7588346004486084,2.7609200477600098,-2.0410494804382324
1779989235537326600,19.12232666015625,3.349189281463623,3.6862220764160156,-3.221663236618042
1779989235553651200,19.138651123046873,3.3532278537750244,4.21434211730957,-3.653569459915161
1779989235569978000,19.15497802734375,3.2665014266967773,3.533336639404297,-3.3156516551971436
1779989235586335200,19.171335205078126,3.5038394927978516,3.6953606605529785,-2.3355050086975098
1779989235602656800,19.18765673828125,2.9893882274627686,4.4469499588012695,-0.9777462482452393
1779989235618998300,19.203998291015626,2.7721869945526123,5.567231178283691,-0.24745893478393555
1779989235635329300,19.220329345703124,2.2093942165374756,6.050192832946777,0.5326099395751953
1779989235651662800,19.236662841796875,1.5566954612731934,5.468359470367432,1.0207593441009521
1779989235667995400,19.252995361328125,0.9226799011230469,4.979465484619141,1.9816772937774658
1779989235684330200,19.269330322265624,1.0458025932312012,3.9813499450683594,2.6546034812927246
1779989235700662300,19.285662353515626,2.460852861404419,2.991793155670166,3.2269444465637207
1779989235716999000,19.3019990234375,1.6037182807922363,0.44829320907592773,2.4456093311309814
1779989235733313300,19.318313232421875,-12.539813995361328,-13.345770835876465,-4.644411087036133
1779989235749666800,19.334666748046875,-2.462303638458252,-22.049549102783203,1.5158088207244873
1779989235765996300,19.350996337890624,2.98590087890625,-2.8810596466064453,0.8453607559204102
1779989235782331600,19.36733154296875,-0.37894487380981445,5.882545471191406,-2.081591844558716
1779989235798664000,19.383663818359373,2.8592896461486816,5.383964538574219,-1.101223111152649
1779989235814997500,19.39999755859375,4.6051177978515625,2.3891806602478027,-2.46431827545166
1779989235831331000,19.4163310546875,1.9718210697174072,-2.4861316680908203,-4.428633689880371
1779989235847665700,19.432665771484373,-1.690906286239624,-8.352638244628906,-4.111310958862305
1779989235863996000,19.448995849609375,-3.0841081142425537,-9.080799102783203,-1.2018402814865112
1779989235880332500,19.46533251953125,-1.2764042615890503,-5.1609649658203125,0.7043777704238892
1779989235896663600,19.48166357421875,0.286718487739563,-1.0359106063842773,-0.06315243244171143
1779989235912999200,19.497999267578123,0.3813819885253906,1.1996650695800781,-1.3720731735229492
1779989235929331000,19.5143310546875,0.7089512348175049,2.2804298400878906,-1.7145929336547852
1779989235945667300,19.530667236328124,2.3440475463867188,2.065387725830078,-1.3279457092285156
1779989235961998800,19.546998779296874,3.3024308681488037,1.0040159225463867,-0.8002835512161255
1779989235978334000,19.563333984375,3.7115631103515625,0.4805612564086914,-0.22504284977912903
1779989235994664200,19.579664306640623,2.94045090675354,0.98944091796875,-0.03340592980384827
1779989236011000600,19.59600048828125,1.0948606729507446,1.4887523651123047,-0.26227226853370667
1779989236027331600,19.61233154296875,-0.9357125163078308,2.035064697265625,-0.40657785534858704
1779989236043667700,19.628667724609375,-1.1828538179397583,2.4747776985168457,0.1741027683019638
1779989236060000000,19.645,-0.2852640748023987,2.8903913497924805,0.5474323034286499
1779989236076340700,19.6613408203125,0.024649936705827713,3.110992431640625,0.28619083762168884
1779989236092653800,19.67765380859375,-0.3528905212879181,2.7450008392333984,-0.21004676818847656
1779989236109002200,19.694002197265625,-0.7609312534332275,2.517754554748535,-0.6470252871513367
1779989236125336800,19.7103369140625,-0.9418611526489258,2.2105226516723633,-0.5067936778068542
1779989236141666000,19.726666015625,-0.5688314437866211,1.6526870727539062,-0.13894900679588318
1779989236158001200,19.743001220703125,0.20955130457878113,0.9966764450073242,0.3550848960876465
1779989236174336500,19.75933642578125,0.9061740636825562,0.5460224151611328,0.7213043570518494
1779989236190668000,19.77566796875,1.0783354043960571,0.21489906311035156,1.0207661390304565
1779989236207002600,19.792002685546876,-0.5436842441558838,-0.5757656097412109,1.800231695175171
1779989236223336000,19.8083359375,-1.6223942041397095,-1.9564990997314453,2.962171792984009
1779989236239669000,19.8246689453125,-2.0386531352996826,-3.442728042602539,4.31767463684082
1779989236256002800,19.8410029296875,-2.4382662773132324,-4.637509346008301,4.849423885345459
1779989236272324000,19.857323974609375,-2.528463363647461,-5.134973526000977,3.4169020652770996
1779989236288670000,19.873669921875,-1.5265331268310547,-4.663608551025391,2.6977639198303223
1779989236304998400,19.889998291015626,-1.0572322607040405,-4.937517166137695,3.1680734157562256
1779989236321336600,19.906336669921874,-1.1333245038986206,-5.411093711853027,2.173532485961914
1779989236337671400,19.92267138671875,-3.894141912460327,-4.765595436096191,0.43191051483154297
1779989236354004000,19.93900390625,-3.93060302734375,-3.6652679443359375,-0.9045768976211548
1779989236370337300,19.955337158203125,-3.970801830291748,-2.5067453384399414,-0.12125742435455322
1779989236386673200,19.971673095703125,-3.6035103797912598,-1.2315988540649414,0.28771036863327026
1779989236403004700,19.988004638671875,-1.0970726013183594,-1.715195655822754,1.010036826133728
1779989236419339500,20.004339599609374,0.25738856196403503,-3.220426559448242,1.948952555656433
1779989236435673000,20.020673095703124,1.0921322107315063,-4.445957183837891,1.8247575759887695
1779989236452004600,20.037004638671874,1.5424680709838867,-3.8484439849853516,0.6513186693191528
1779989236468322600,20.053322509765625,1.5798683166503906,-1.6948051452636719,-0.08512294292449951
1779989236484672300,20.06967236328125,1.560347318649292,0.005267143249511719,-0.612889289855957
1779989236501003300,20.086003173828125,0.35962116718292236,1.1207685470581055,-1.6662611961364746
1779989236517342200,20.10234228515625,-1.9075530767440796,1.112931251525879,-2.3467772006988525
1779989236533677300,20.11867724609375,-1.0775644779205322,0.557652473449707,-2.6638708114624023
1779989236550006800,20.1350068359375,-0.46225738525390625,-0.6914167404174805,-1.7581775188446045
1779989236566345000,20.151344970703125,-0.10744524002075195,-0.013543128967285156,-0.8047107458114624
1779989236582673700,20.167673583984374,0.41147732734680176,0.8791818618774414,-1.22615647315979
1779989236599008300,20.18400830078125,1.8092467784881592,1.4962615966796875,-1.6022340059280396
1779989236615340800,20.2003408203125,4.134096145629883,2.282555103302002,-1.5033372640609741
1779989236631656200,20.21665625,3.7340433597564697,2.9632997512817383,-1.5869683027267456
1779989236648008200,20.23300830078125,2.1130805015563965,2.931368350982666,-2.1690688133239746
1779989236664342300,20.24934228515625,1.507817268371582,2.896456718444824,-2.6786794662475586
1779989236680676400,20.26567626953125,2.178982973098755,3.2199721336364746,-2.4574801921844482
1779989236697013000,20.282012939453125,2.851285457611084,3.9671013355255127,-1.6487553119659424
1779989236713340000,20.29833984375,3.5688767433166504,4.911813735961914,-1.3444275856018066
1779989236729677000,20.314677001953125,2.8213343620300293,5.555910110473633,-1.7706613540649414
1779989236746006500,20.331006591796875,1.7640423774719238,6.151205062866211,-1.2766380310058594
1779989236762344400,20.347344482421875,0.17972612380981445,6.390105724334717,0.23763179779052734
1779989236778679800,20.3636796875,0.3730740547180176,6.051811695098877,3.018686056137085
1779989236795011300,20.38001123046875,3.57472562789917,3.907088279724121,6.381627082824707
1779989236811343600,20.396343505859374,-3.7030997276306152,-0.5764884948730469,3.530611991882324
1779989236827678000,20.412677978515624,-2.3326454162597656,-10.150212287902832,-1.8209413290023804
1779989236844012800,20.4290126953125,-2.940227746963501,-22.656848907470703,-2.0575473308563232
1779989236860345900,20.445345947265626,-3.0920803546905518,-4.7942047119140625,-0.6867003440856934
1779989236876679000,20.461678955078124,3.3911144733428955,4.653497695922852,0.3365769386291504
1779989236893013500,20.478013427734375,3.441103935241699,5.076826095581055,-1.071354866027832
1779989236909341200,20.494341064453124,2.2387781143188477,1.3348665237426758,-4.638787269592285
1779989236925682700,20.5106826171875,0.4547393321990967,-3.1039419174194336,-5.0675153732299805
1779989236942012400,20.527012451171874,-1.1266450881958008,-5.894988059997559,-4.101667404174805
1779989236958347500,20.543347412109377,-0.8157508373260498,-5.720658302307129,-1.0011394023895264
1779989236974679300,20.55967919921875,-0.13066959381103516,-3.553955078125,0.4952883720397949
1779989236991014700,20.5760146484375,-0.019834160804748535,-1.8216276168823242,0.11864709854125977
1779989237007346200,20.59234619140625,0.5253633260726929,-0.38991832733154297,-0.14868688583374023
1779989237023682300,20.608682373046875,1.4724282026290894,0.5667686462402344,-0.06489968299865723
1779989237040013800,20.625013916015625,1.8582793474197388,1.0044641494750977,0.12032842636108398
1779989237056352500,20.6413525390625,1.9374701976776123,1.023695945739746,0.3900033235549927
1779989237072668200,20.657668212890623,1.9684199094772339,0.3544025421142578,0.6566084623336792
1779989237089017000,20.67401708984375,1.743334174156189,0.29008007049560547,0.8722889423370361
