time,seconds_elapsed,z,y,x
1779989216545878500,0.13087841796875,-1.1937834024429321,-1.796554684638977,0.5302310585975647
1779989216562197000,0.147197021484375,-0.4282165467739105,-0.22296582162380219,-0.13026700913906097
1779989216578536700,0.16353662109375,0.24342979490756989,0.5189300179481506,-0.646295428276062
1779989216594880300,0.17988037109375,0.41172316670417786,0.038637228310108185,-0.7745771408081055
1779989216611211000,0.1962109375,0.3911064863204956,-0.9320276379585266,-0.6023131608963013
1779989216627539000,0.2125390625,0.5239696502685547,-1.6774359941482544,-0.38087448477745056
1779989216643856000,0.22885595703125,0.5992587804794312,-2.278069257736206,-0.2542726695537567
1779989216660207600,0.24520751953125,0.0012217304902151227,-2.6697864532470703,-0.4862487316131592
1779989216676526600,0.261526611328125,-0.8196284174919128,-1.7467691898345947,-0.7021896243095398
1779989216692878000,0.277878173828125,-1.2082914113998413,-0.34758231043815613,-0.875064492225647
1779989216709208800,0.294208740234375,-1.3839151859283447,0.1560760736465454,-1.309084177017212
1779989216725540400,0.310540283203125,-0.788016140460968,0.3827070891857147,-1.7493653297424316
1779989216741873700,0.326873779296875,0.17577648162841797,0.8400924205780029,-2.258368730545044
1779989216758206500,0.34320654296875,0.6317873597145081,1.5176947116851807,-2.707354784011841
1779989216774540300,0.359540283203125,0.4917465150356293,2.2514965534210205,-3.048828363418579
1779989216790870000,0.3758701171875,0.16249015927314758,2.562274217605591,-3.4901785850524902
1779989216807205000,0.392205078125,-0.08720101416110992,2.613281488418579,-3.7763688564300537
1779989216823536000,0.4085361328125,-0.16859880089759827,2.3164010047912598,-3.7473528385162354
1779989216839871200,0.424871337890625,0.09605856239795685,1.4717271327972412,-3.1395418643951416
1779989216856204000,0.4412041015625,0.3497203588485718,0.8290968537330627,-2.0286834239959717
1779989216872521700,0.457521728515625,0.33429601788520813,0.34162637591362,-0.7603744864463806
1779989216888869600,0.47386962890625,0.0936150997877121,-0.037110064178705215,0.3358231782913208
1779989216905202200,0.4902021484375,-0.10674870014190674,-0.8477282524108887,0.9408851861953735
1779989216921534500,0.506534423828125,-0.3384193480014801,-1.7418822050094604,1.1864529848098755
1779989216937867000,0.522866943359375,-0.3303253948688507,-2.423302412033081,1.1846203804016113
1779989216954190600,0.539190673828125,0.27977627515792847,-2.835789203643799,1.2368494272232056
1779989216970533600,0.55553369140625,1.0317513942718506,-3.458413600921631,1.8923077583312988
1779989216986852900,0.571852783203125,1.7400496006011963,-5.234504222869873,2.861903667449951
1779989217003198200,0.5881982421875,2.157423257827759,-6.82275390625,3.908010482788086
1779989217019531000,0.604531005859375,2.5195136070251465,-7.834194183349609,4.686100006103516
1779989217035864600,0.620864501953125,3.263547658920288,-8.537757873535156,4.9625163078308105
1779989217052204300,0.637204345703125,4.413196086883545,-8.723766326904297,4.589735984802246
1779989217068526300,0.6535263671875,5.561316967010498,-8.047386169433594,3.6925277709960938
1779989217084865500,0.669865478515625,6.580545902252197,-6.654307842254639,2.864805221557617
1779989217101196000,0.686196044921875,6.67156457901001,-5.638286113739014,2.523789644241333
1779989217117528000,0.702528076171875,6.082079887390137,-5.758626461029053,2.651460647583008
1779989217133860900,0.71886083984375,5.776647090911865,-5.815895080566406,3.1537444591522217
1779989217150195200,0.7351953125,5.703190803527832,-5.250539302825928,3.757737636566162
1779989217166524400,0.7515244140625,5.528025150299072,-3.9257254600524902,3.966958999633789
1779989217182859300,0.767859375,5.091714382171631,-2.3551909923553467,3.581502914428711
1779989217199192600,0.784192626953125,4.451985836029053,-0.99876469373703,2.9407052993774414
1779989217215527700,0.800527587890625,3.653737783432007,-0.3251330256462097,2.6201536655426025
1779989217231854800,0.816854736328125,2.300365686416626,-2.096642255783081,3.2795827388763428
1779989217248187400,0.8331875,0.3962988257408142,-5.111720561981201,3.0558533668518066
1779989217264521700,0.849521728515625,-0.31291571259498596,-3.511558771133423,1.602452278137207
1779989217280852700,0.865852783203125,-0.3124575614929199,-1.6638442277908325,0.2935207486152649
1779989217297182500,0.882182373046875,0.03084869496524334,-0.8402451276779175,-0.5523748993873596
1779989217313522400,0.8985224609375,0.5338962078094482,0.7037167549133301,-1.0453431606292725
1779989217329854500,0.9148544921875,1.5370897054672241,3.5654678344726562,-0.9355401396751404
1779989217346189000,0.93118896484375,1.7450892925262451,5.815589904785156,-0.4473060667514801
1779989217362519800,0.947519775390625,0.2047925740480423,5.14715051651001,-1.2458596229553223
1779989217378853600,0.963853515625,-0.711963415145874,3.570507287979126,-2.3880250453948975
1779989217395186200,0.980186279296875,0.07376197725534439,1.807397484779358,-1.7162258625030518
1779989217411518700,0.996518798828125,0.2658790946006775,0.4560109078884125,-1.42637038230896
1779989217427851300,1.012851318359375,0.23839016258716583,-0.06704246252775192,-1.623068928718567
1779989217444185000,1.02918505859375,0.6575964093208313,0.25335636734962463,-1.4792101383209229
1779989217460517400,1.045517333984375,1.0723739862442017,1.4066699743270874,-1.1659890413284302
1779989217476849200,1.06184912109375,1.3632985353469849,0.6669121384620667,-1.303586483001709
1779989217493182700,1.0781826171875,1.5549575090408325,-0.2649627923965454,-1.3110694885253906
1779989217509516300,1.094516357421875,1.4543174505233765,-0.056810468435287476,-1.1056660413742065
1779989217525849600,1.110849609375,0.9190467596054077,-0.21930062770843506,-0.9659306406974792
1779989217542180400,1.127180419921875,0.18081611394882202,-1.1172724962234497,-0.6621779203414917
1779989217558512600,1.1435126953125,-0.021991148591041565,-1.5065463781356812,-0.018478672951459885
1779989217574850800,1.159850830078125,-0.30375275015830994,-1.1782063245773315,0.32818734645843506
1779989217591180500,1.1761806640625,-0.7965682744979858,0.28649580478668213,0.3549126982688904
1779989217607496200,1.19249609375,-0.43447789549827576,0.9424123764038086,0.43707409501075745
1779989217623845400,1.208845458984375,-0.31612277030944824,0.4709770977497101,0.2324342280626297
1779989217640166100,1.225166259765625,-0.17318029701709747,0.693026602268219,0.2603813111782074
1779989217656510200,1.24151025390625,0.23136521875858307,0.4554000496864319,0.5525276064872742
1779989217672840400,1.25784033203125,1.2498302459716797,2.4237606525421143,1.2394455671310425
1779989217689178400,1.274178466796875,0.9039278626441956,3.703828811645508,1.1125383377075195
1779989217705510700,1.2905107421875,1.0919215679168701,1.8191566467285156,1.04289972782135
1779989217721842700,1.3068427734375,1.6450600624084473,3.6781723499298096,1.020297646522522
1779989217738176000,1.323176025390625,1.679421305656433,1.710117220878601,0.2838996350765228
1779989217754508500,1.339508544921875,2.461786985397339,1.1316279172897339,-0.7452555894851685
1779989217770841900,1.355841796875,2.4608707427978516,2.772564649581909,-1.0184650421142578
1779989217787175400,1.372175537109375,2.375807762145996,3.6366336345672607,-1.6777414083480835
1779989217803507500,1.388507568359375,1.8782578706741333,3.9982657432556152,-2.1322250366210938
1779989217819841500,1.404841552734375,1.927585244178772,4.9816060066223145,-2.299907684326172
1779989217836174300,1.42117431640625,1.8147279024124146,4.033390522003174,-2.2229385375976562
1779989217852498000,1.437497802734375,0.8358163833618164,3.308446168899536,-1.40269935131073
1779989217868835300,1.45383544921875,0.4841107130050659,2.2377521991729736,-1.2154691219329834
1779989217885162200,1.470162353515625,1.2209669351577759,0.935081958770752,-2.0286834239959717
1779989217901504500,1.48650439453125,2.6474900245666504,-1.7099645137786865,-2.989727258682251
1779989217917837600,1.502837646484375,3.305391788482666,-3.8812849521636963,-3.127019166946411
1779989217934170000,1.519170166015625,2.3745858669281006,-3.716198682785034,-1.6175711154937744
1779989217950515200,1.53551513671875,0.9654725193977356,-4.761389255523682,-0.14492778480052948
1779989217966837000,1.5518369140625,0.8387179970741272,-4.619210243225098,-0.4889976382255554
1779989217983180300,1.56818017578125,1.2893837690353394,-3.6525161266326904,-1.8002198934555054
1779989217999501800,1.584501708984375,1.7548631429672241,-3.128851890563965,-2.300823926925659
1779989218015842000,1.600842041015625,2.0060815811157227,-3.6086864471435547,-2.5718953609466553
1779989218032166000,1.617165771484375,0.7745771408081055,-5.332395553588867,-2.651918649673462
1779989218048497400,1.633497314453125,-0.9947940707206726,-4.05049467086792,-2.3130412101745605
1779989218064836600,1.649836669921875,-0.4450153410434723,-0.04932736977934837,-1.942704200744629
1779989218081167400,1.66616748046875,0.6108652353286743,-1.569007396697998,-1.0488556623458862
1779989218097499400,1.68249951171875,0.2977968156337738,-1.8918496370315552,-0.7823656797409058
1779989218113832200,1.698832275390625,0.29535335302352905,-2.475989580154419,-0.48915034532546997
1779989218130163500,1.71516357421875,0.4712825417518616,-3.439018726348877,-0.6313292384147644
1779989218146498000,1.731498046875,1.2586878538131714,-1.1647672653198242,-0.8093964457511902
1779989218162830800,1.747830810546875,2.116189956665039,1.1143709421157837,-1.803274154663086
1779989218179160300,1.764160400390625,2.127185583114624,2.026698112487793,-2.029599666595459
1779989218195498800,1.780498779296875,0.46593746542930603,0.5390886068344116,-1.2055425643920898
1779989218211830300,1.796830322265625,-0.7319692969322205,-0.42409318685531616,-0.6685920357704163
1779989218228162300,1.813162353515625,-0.7162395119667053,0.5198463201522827,-0.808174729347229
1779989218244498000,1.829497802734375,-1.0137308835983276,1.3585642576217651,-1.1256719827651978
1779989218260824300,1.84582421875,-2.079385280609131,1.7655532360076904,-0.8365799784660339
1779989218277162200,1.862162353515625,-3.413973093032837,0.841008722782135,-0.19226983189582825
1779989218293477400,1.878477294921875,-4.192673683166504,-0.5561928153038025,0.5157229900360107
1779989218309825800,1.89482568359375,-4.490012168884277,-1.7131716012954712,0.5097670555114746
1779989218326149600,1.911149658203125,-3.61800217628479,-0.347276896238327,0.4124867618083954
1779989218342493200,1.9274931640625,-1.6545284986495972,2.057394027709961,-1.1688905954360962
1779989218358826200,1.943826171875,-0.8301658630371094,3.0951015949249268,-2.0363192558288574
1779989218375158000,1.960157958984375,-0.9973902106285095,0.9859365224838257,-0.7295258045196533
1779989218391490600,1.976490478515625,-0.5209153294563293,-0.5357288122177124,0.48777589201927185
1779989218407825400,1.992825439453125,-0.4098905920982361,-0.5212207436561584,-0.037110064178705215
1779989218424157400,2.009157470703125,-0.7545713186264038,-5.50832462310791,0.9822713136672974
1779989218440490200,2.025490234375,-0.8575021028518677,-4.807662010192871,1.3519974946975708
1779989218456821500,2.041821533203125,-0.7684684991836548,-0.7492262125015259,-0.3352122902870178
1779989218473155800,2.05815576171875,-0.5623014569282532,-0.6626361012458801,0.40912699699401855
1779989218489467000,2.074466796875,-0.24724771082401276,-1.6783522367477417,0.9352346658706665
1779989218505825000,2.090824951171875,0.0913243517279625,-1.8348864316940308,1.0111347436904907
1779989218522152200,2.107152099609375,0.3455969989299774,-1.4422528743743896,0.93095862865448
1779989218538491400,2.123491455078125,1.6635388135910034,-2.679560422897339,1.5303701162338257
1779989218554821000,2.139821044921875,2.1879665851593018,-2.0367774963378906,1.9213238954544067
1779989218571153700,2.156153564453125,1.2586878538131714,-2.311208724975586,1.5007431507110596
1779989218587483600,2.172483642578125,0.9642508029937744,-2.0857994556427,1.3095424175262451
1779989218603831300,2.188831298828125,0.4579962193965912,-1.7343991994857788,1.0881037712097168
1779989218620152300,2.20515234375,0.40286561846733093,-1.084591269493103,1.072068452835083
1779989218636473000,2.22147314453125,0.526107668876648,-0.2243402600288391,1.193477988243103
1779989218652818700,2.237818603515625,0.6094908118247986,0.4492913782596588,1.2289081811904907
1779989218669152500,2.254152587890625,1.0949759483337402,0.8051204085350037,1.6517796516418457
1779989218685484000,2.270484130859375,2.3651175498962402,1.6720908880233765,1.684613585472107
1779989218701817000,2.286817138671875,2.1789562702178955,3.626859664916992,0.6776022911071777
1779989218718150100,2.303150146484375,1.6978999376296997,5.100113868713379,0.4384485185146332
1779989218734484200,2.319484130859375,1.083064079284668,5.955783367156982,0.8721628785133362
1779989218750814500,2.335814453125,1.0781772136688232,5.792835235595703,1.0651962757110596
1779989218767148500,2.3521484375,1.6975945234298706,2.545780897140503,0.3006984293460846
1779989218783481900,2.36848193359375,2.707507371902466,0.3338378667831421,0.6872233748435974
1779989218799816000,2.38481591796875,2.503631114959717,-0.13515393435955048,0.6951646208763123
1779989218816149000,2.40114892578125,2.138486623764038,-0.15317445993423462,0.5375614166259766
1779989218832459500,2.41745947265625,1.8058704137802124,-0.40912699699401855,0.6348416805267334
1779989218848813800,2.433813720703125,1.18660569190979,-0.42668938636779785,0.7728972434997559
1779989218865144600,2.45014453125,0.4619668424129486,-0.5780312418937683,0.9856310486793518
1779989218881482500,2.466482421875,0.07422012835741043,-0.26740625500679016,1.0612256526947021
1779989218897812200,2.482812255859375,0.06459899991750717,0.06352998316287994,0.9651671051979065
1779989218914144500,2.49914453125,0.4001167416572571,0.23319780826568604,0.7903069257736206
1779989218930479000,2.51547900390625,0.8956811428070068,0.1492038369178772,0.5641340613365173
1779989218946790700,2.531790771484375,1.3535246849060059,-0.4004221558570862,0.2942843437194824
1779989218963143000,2.548142822265625,1.5740469694137573,-0.7441865801811218,0.14294247329235077
1779989218979463700,2.564463623046875,1.666898488998413,-0.7170031070709229,0.11759155988693237
1779989218995811800,2.580811767578125,1.7705929279327393,-0.5867360830307007,0.0981965884566307
1779989219012142600,2.597142578125,1.7527251243591309,-0.5119050741195679,0.16661348938941956
1779989219028473000,2.61347314453125,1.5140295028686523,-0.47937649488449097,0.3344487249851227
1779989219044812300,2.629812255859375,1.0294606685638428,-0.5216789245605469,0.5256495475769043
1779989219061143000,2.64614306640625,0.18585574626922607,0.07483099400997162,0.7525860071182251
1779989219077473800,2.662473876953125,-0.6724098920822144,0.6348416805267334,0.8921687006950378
1779989219093810400,2.678810546875,-1.3066407442092896,1.0942124128341675,0.8814785480499268
1779989219110140700,2.695140625,-1.4802792072296143,1.7599027156829834,1.0396926403045654
1779989219126473500,2.711473388671875,-0.8016079068183899,1.9856175184249878,1.9819523096084595
1779989219142806300,2.72780615234375,-0.5648976564407349,1.250593900680542,2.76111102104187
1779989219159140000,2.74414013671875,0.3098613917827606,1.5668693780899048,1.5063936710357666
1779989219175469000,2.760468994140625,0.5259549617767334,0.6369797587394714,0.34177911281585693
1779989219191794200,2.776794189453125,0.5305364727973938,0.017562376335263252,-0.1563815027475357
1779989219208138500,2.793138427734375,0.6753115057945251,-0.17088955640792847,-0.023518312722444534
1779989219224470300,2.80947021484375,0.6517932415008545,-0.5630650520324707,0.11178833991289139
1779989219240801000,2.825801025390625,0.3825543522834778,-0.8718574047088623,-0.1944078654050827
1779989219257130500,2.842130615234375,0.05161811411380768,-0.35674530267715454,-0.740368664264679
1779989219273471000,2.858470947265625,-0.2496911734342575,0.04948008432984352,-1.087492823600769
1779989219289787400,2.874787353515625,-0.57436603307724,0.2321287989616394,-1.3739886283874512
1779989219306139400,2.891139404296875,-0.8872817754745483,0.3859141170978546,-1.8113682270050049
1779989219322462000,2.9074619140625,-1.1268936395645142,0.2611449062824249,-2.222175121307373
1779989219338803000,2.923802978515625,-1.3422236442565918,0.17348572611808777,-2.4104743003845215
1779989219355134000,2.940134033203125,-1.1076513528823853,-0.2177734673023224,-2.4295637607574463
1779989219371468500,2.956468505859375,-0.7779368758201599,-0.4340197443962097,-2.2321016788482666
1779989219387802400,2.97280224609375,-0.6479753255844116,0.07895433157682419,-2.124894857406616
1779989219404135700,2.9891357421875,-0.547182559967041,1.0270172357559204,-2.168571710586548
1779989219420467000,3.005467041015625,-0.4283692538738251,0.9036223888397217,-2.1991147994995117
1779989219436799200,3.02179931640625,-0.5803219676017761,0.15195272862911224,-2.3359487056732178
1779989219453134800,3.038134765625,-0.8391761183738708,-0.5288565754890442,-2.3886358737945557
1779989219469466600,3.054466552734375,-0.7959573864936829,-0.8058840036392212,-2.2157609462738037
1779989219485799400,3.07079931640625,-0.7771732807159424,-0.3805690407752991,-2.0421226024627686
1779989219502135300,3.08713525390625,-0.9338602423667908,-0.1814269721508026,-1.8496999740600586
1779989219518462500,3.10346240234375,-0.7156286239624023,-0.4433354437351227,-1.836719036102295
1779989219534801200,3.11980126953125,-0.4164573848247528,-1.577254056930542,-2.3663392066955566
1779989219551136000,3.136135986328125,-0.6046038866043091,-0.6039929986000061,-1.975232720375061
1779989219567464700,3.152464599609375,-1.176526427268982,0.5852088928222656,-0.9002626538276672
1779989219583781600,3.16878173828125,-1.3753631114959717,-0.16508632898330688,-0.6392704844474792
1779989219600117500,3.185117431640625,-1.7026340961456299,-0.7081455588340759,-1.273043155670166
1779989219616462300,3.20146240234375,-1.7424931526184082,-1.4350751638412476,-2.151925563812256
1779989219632786400,3.217786376953125,-1.1895073652267456,-1.7070629596710205,-1.974927306175232
1779989219649135600,3.234135498046875,-0.7528914213180542,-1.7415767908096313,-1.0729848146438599
1779989219665473500,3.2504736328125,-0.38377609848976135,-1.289689302444458,-0.4639521539211273
1779989219681795000,3.266795166015625,-0.1716531366109848,-1.0974193811416626,0.03237585723400116
1779989219698118000,3.283117919921875,0.048105638474226,-0.627358615398407,0.6285803318023682
1779989219714462500,3.29946240234375,0.3381139039993286,-0.021532999351620674,1.1887437105178833
1779989219730793000,3.31579296875,0.47907108068466187,0.43127086758613586,1.1065824031829834
1779989219747122700,3.332122802734375,0.41401392221450806,1.2104294300079346,0.7050912380218506
1779989219763452000,3.348451904296875,-0.03787364438176155,2.1390974521636963,0.46563202142715454
1779989219779796200,3.364796142578125,-0.19074267148971558,1.105513334274292,0.5797111392021179
1779989219796125000,3.381125,0.1469130963087082,1.0412198305130005,0.6467535495758057
1779989219812444700,3.397444580078125,0.49495357275009155,0.39095374941825867,1.419498085975647
1779989219828790800,3.413790771484375,0.4433354437351227,-0.242513507604599,1.720807433128357
1779989219845129200,3.430129150390625,0.5627595782279968,0.11392636597156525,1.4915802478790283
1779989219861453300,3.446453369140625,0.8972083330154419,0.745408296585083,1.597107172012329
1779989219877794800,3.462794921875,1.3565789461135864,0.68325275182724,1.6114624738693237
1779989219894121000,3.479120849609375,1.7241671085357666,0.4683809280395508,1.5092953443527222
1779989219910449400,3.495449462890625,1.7450892925262451,0.025503624230623245,1.034500241279602
1779989219926789000,3.5117890625,1.5462526082992554,-0.6550002694129944,0.5801692605018616
1779989219943146000,3.52814599609375,1.2487612962722778,-1.0610729455947876,0.6059783101081848
1779989219959456300,3.544456298828125,0.9511171579360962,-1.2741122245788574,0.9714284539222717
1779989219975788500,3.56078857421875,0.655458390712738,-1.3822352886199951,1.2707524299621582
1779989219992121300,3.577121337890625,0.3871358633041382,-1.1676689386367798,1.429577350616455
1779989220008458800,3.593458740234375,0.19837848842144012,-0.6143777370452881,1.5383113622665405
1779989220024785000,3.609784912109375,0.10613783448934555,-0.14248432219028473,1.5961909294128418
1779989220041124400,3.626124267578125,0.13698652386665344,0.08765916526317596,1.4427109956741333
1779989220057450000,3.642449951171875,0.2716823220252991,-0.07483099400997162,1.257924199104309
1779989220073789400,3.65878955078125,0.21395555138587952,-0.19547687470912933,1.2027937173843384
1779989220090125300,3.675125244140625,-0.019547687843441963,-0.10323622822761536,1.0990992784500122
1779989220106453000,3.691452880859375,-0.11957687139511108,0.10216721147298813,0.9831876158714294
1779989220122786600,3.70778662109375,-0.11835514008998871,0.19654589891433716,0.9111055135726929
1779989220139121200,3.72412109375,0.04245513305068016,0.13347405195236206,0.7254024744033813
1779989220155453000,3.740452880859375,0.25182920694351196,0.02672535367310047,0.47250425815582275
1779989220171785700,3.75678564453125,0.3361285924911499,0.07254024595022202,0.29917123913764954
1779989220188121600,3.77312158203125,0.32421672344207764,0.1420261710882187,0.18570303916931152
1779989220204451600,3.78945166015625,0.22770002484321594,0.46181413531303406,0.15195272862911224
1779989220220785200,3.80578515625,0.23869559168815613,0.7283040881156921,0.1963931769132614
1779989220237114600,3.822114501953125,0.26969701051712036,0.8280278444290161,0.3003929853439331
1779989220253443800,3.83844384765625,0.3452915847301483,0.8367326855659485,0.39446622133255005
1779989220269783800,3.85478369140625,0.4101960062980652,0.6185010671615601,0.4755585789680481
1779989220286095000,3.87109521484375,0.42439863085746765,0.22708915174007416,0.6320928335189819
1779989220302450700,3.88745068359375,0.5670356750488281,0.05100724846124649,0.7116580009460449
1779989220318783500,3.903783447265625,0.7473936080932617,0.16691893339157104,0.7579310536384583
1779989220335118600,3.92011865234375,0.8205447196960449,0.44852781295776367,0.8289441466331482
1779989220351442700,3.936442626953125,0.8043568134307861,0.702800452709198,0.8292495608329773
1779989220367783000,3.952782958984375,0.7475463151931763,0.6546948552131653,0.7151705026626587
1779989220384117500,3.969117431640625,0.5917757153511047,0.45142942667007446,0.633009135723114
1779989220400447000,3.985447021484375,0.4893030524253845,0.26251932978630066,0.5765040516853333
1779989220416780000,4.001780029296875,0.4766276180744171,-0.029168816283345222,0.2987131178379059
1779989220433114000,4.018114013671875,0.20326541364192963,0.06765332818031311,-0.05910121276974678
1779989220449448000,4.034447998046875,-0.07971791177988052,0.10812314599752426,-0.48029279708862305
1779989220465780200,4.0507802734375,-0.09040805697441101,0.009773843921720982,-1.1154398918151855
1779989220482111000,4.067111083984375,-0.23869559168815613,0.08781187981367111,-1.6812539100646973
1779989220498451700,4.08345166015625,-0.5593998432159424,0.25732699036598206,-1.9830212593078613
1779989220514777900,4.09977783203125,-0.9566149711608887,0.5419901609420776,-1.9182696342468262
1779989220531116300,4.1161162109375,-1.2877039909362793,0.9747881889343262,-1.8289304971694946
1779989220547442700,4.132442626953125,-1.472796082496643,1.5639677047729492,-1.5485434532165527
1779989220563770400,4.148770263671875,-1.4524848461151123,1.8362609148025513,-1.2446379661560059
1779989220580114200,4.1651142578125,-1.4146112203598022,1.6000088453292847,-1.17545747756958
1779989220596426800,4.1814267578125,-1.3678799867630005,1.0590876340866089,-1.2942707538604736
1779989220612781300,4.19778125,-1.3032809495925903,0.30833423137664795,-1.2696833610534668
1779989220629114400,4.2141142578125,-1.2805262804031372,-0.25213462114334106,-1.2814425230026245
1779989220645444600,4.230444580078125,-1.3119858503341675,-0.6748533844947815,-1.5398385524749756
1779989220661777200,4.246777099609375,-1.3770430088043213,-0.6582072973251343,-1.843896746635437
1779989220678109200,4.263109130859375,-1.443169116973877,-0.6339253783226013,-2.0618228912353516
1779989220694443300,4.279443359375,-1.5625933408737183,-0.5157229900360107,-1.998598337173462
1779989220710776600,4.295776611328125,-1.5832099914550781,-0.5412266254425049,-1.8981109857559204
1779989220727118000,4.3121181640625,-1.5832099914550781,-0.7554876208305359,-1.9162843227386475
1779989220743442400,4.3284423828125,-1.6717854738235474,-0.8681922554969788,-1.7557793855667114
1779989220759777000,4.344777099609375,-1.627497673034668,-0.9576839804649353,-1.5818355083465576
1779989220776110000,4.361110107421875,-1.5312864780426025,-1.0761919021606445,-1.4899003505706787
1779989220792441600,4.377441650390625,-1.4256067276000977,-1.0627528429031372,-1.3213015794754028
1779989220808775700,4.393775634765625,-1.2344059944152832,-1.0768027305603027,-1.035722017288208
1779989220825109200,4.410109130859375,-0.9984592199325562,-1.1728612184524536,-0.7284567952156067
1779989220841440300,4.426440185546875,-0.774118959903717,-1.3144292831420898,-0.4053090810775757
1779989220857772800,4.442772705078125,-0.513126790523529,-1.3351987600326538,-0.08017606288194656
1779989220874096400,4.459096435546875,-0.26679539680480957,-0.9650143980979919,0.20128010213375092
1779989220890441500,4.47544140625,-0.10690141469240189,-0.5855143666267395,0.4411974251270294
1779989220906760200,4.49176025390625,-0.030543262138962746,-0.17302757501602173,0.6594290137290955
1779989220923108600,4.508108642578125,-0.06261368840932846,0.4550946056842804,0.9111055135726929
1779989220939439600,4.524439697265625,-0.11194105446338654,0.887739896774292,1.4080443382263184
1779989220955774200,4.540774169921875,0.22296582162380219,0.4202753007411957,1.1137601137161255
1779989220972093400,4.557093505859375,0.6172793507575989,-0.0835358202457428,0.26969701051712036
1779989220988433000,4.573432861328125,0.7189884185791016,0.23335053026676178,0.9468411207199097
1779989221004777700,4.58977783203125,0.6107125282287598,-0.21135938167572021,1.3468050956726074
1779989221021108500,4.6061083984375,0.5534439086914062,0.12629638612270355,1.3935363292694092
1779989221037438200,4.622438232421875,0.6411030888557434,0.537408709526062,1.7858645915985107
1779989221053771300,4.638771240234375,0.8726209998130798,0.6672175526618958,1.9755382537841797
1779989221070103000,4.65510302734375,1.126588225364685,0.6275113224983215,1.9147571325302124
1779989221086437600,4.671437744140625,1.3422236442565918,0.5707008838653564,1.5792393684387207
1779989221102770400,4.6877705078125,1.2877039909362793,0.38637226819992065,1.3645201921463013
1779989221119104800,4.704104736328125,1.152855396270752,0.2997821271419525,1.3561208248138428
1779989221135436500,4.7204365234375,1.0363328456878662,-0.038026362657547,1.3889548778533936
1779989221151771000,4.73677099609375,0.9491318464279175,-0.7945829629898071,1.1459832191467285
1779989221168101400,4.753101318359375,0.32559117674827576,-1.6601790189743042,1.145830512046814
1779989221184437500,4.7694375,0.14355333149433136,-1.4790574312210083,1.1523972749710083
1779989221200767700,4.785767822265625,-0.08002334833145142,-1.3923145532608032,1.2499829530715942
1779989221217090600,4.802090576171875,0.0507018156349659,-0.7634288668632507,1.4799737930297852
1779989221233435100,4.81843505859375,0.6186537742614746,-0.047800205647945404,1.5170838832855225
1779989221249747200,4.834747314453125,0.893390417098999,0.04963280260562897,1.3449726104736328
1779989221266102000,4.85110205078125,0.6856962442398071,-0.013439035043120384,1.2991576194763184
1779989221282434300,4.867434326171875,0.3245221674442291,-0.10934487730264664,1.1734721660614014
1779989221298768100,4.88376806640625,0.1437060534954071,0.01038470957428217,1.0821478366851807
1779989221315094000,4.900093994140625,0.12980885803699493,0.30894508957862854,1.0366383790969849
1779989221331433000,4.916432861328125,0.1463022232055664,0.4943426847457886,1.058171272277832
1779989221347767800,4.932767822265625,0.1359175145626068,0.4210388660430908,0.9656252264976501
1779989221364102100,4.94910205078125,0.1592831164598465,0.36911532282829285,0.7367035150527954
1779989221380433400,4.965433349609375,0.1287398487329483,0.44593164324760437,0.5007568001747131
1779989221396765200,4.98176513671875,0.08964447677135468,0.5900958180427551,0.3553708493709564
1779989221413101800,4.998101806640625,0.09834930300712585,0.8626944422721863,0.28695395588874817
1779989221429433300,5.014433349609375,0.15943582355976105,1.1693488359451294,0.2116648107767105
1779989221445766000,5.030765869140625,0.23579397797584534,1.2571606636047363,0.19578230381011963
1779989221462099000,5.047098876953125,0.32100969552993774,0.9376781582832336,0.24495697021484375
1779989221478429400,5.063429443359375,0.3413209617137909,0.6285803318023682,0.26282477378845215
1779989221494768600,5.0797685546875,0.384845107793808,0.6215553879737854,0.2695443034172058
1779989221511098600,5.0960986328125,0.4893030524253845,0.6499606370925903,0.3978259861469269
1779989221527419600,5.112419677734375,0.7275404930114746,0.4957171380519867,0.6061310172080994
1779989221543767300,5.128767333984375,0.9115636348724365,0.5494732856750488,0.8147414922714233
1779989221560099600,5.145099609375,0.9627236127853394,0.6676757335662842,0.8232936263084412
1779989221576429300,5.16142919921875,0.8668177723884583,0.6239988207817078,0.7800748944282532
1779989221592768800,5.177768798828125,0.5386304259300232,0.2243402600288391,0.5997169613838196
1779989221609097200,5.19409716796875,0.023365596309304237,-0.01466076634824276,0.36483925580978394
1779989221625417000,5.2104169921875,-0.31780263781547546,-0.03985895588994026,-0.06123924255371094
1779989221641763000,5.22676318359375,-0.4277583956718445,-0.03298672288656235,-0.6687447428703308
1779989221658095600,5.243095703125,-0.5658139586448669,0.07528914511203766,-1.4033101797103882
1779989221674430500,5.259430419921875,-0.717613935470581,0.5239696502685547,-1.9094120264053345
1779989221690762500,5.275762451171875,-0.8481863737106323,1.0642799139022827,-1.9526307582855225
1779989221707096300,5.292096435546875,-1.0322095155715942,1.3845261335372925,-1.777923345565796
1779989221723427600,5.308427490234375,-1.5656476020812988,1.3735305070877075,-1.5297592878341675
1779989221739762700,5.3247626953125,-2.0398318767547607,1.3468050956726074,-1.514487624168396
1779989221756095200,5.34109521484375,-2.18552303314209,1.0618364810943604,-1.3759739398956299
1779989221772427800,5.357427734375,-1.931708574295044,0.8778133392333984,-1.2492194175720215
1779989221788761900,5.373761962890625,-1.2939653396606445,0.4648684561252594,-1.338405728340149
1779989221805094700,5.3900947265625,-0.7704538106918335,0.042760565876960754,-1.5888605117797852
1779989221821427500,5.406427490234375,-0.8645270466804504,0.14263702929019928,-1.7660114765167236
1779989221837760300,5.42276025390625,-1.1241447925567627,0.18127426505088806,-1.9191858768463135
1779989221854093600,5.439093505859375,-1.342987298965454,-0.3793473243713379,-2.1394028663635254
1779989221870428000,5.455427978515625,-1.4353805780410767,-0.9824240207672119,-2.2059872150421143
1779989221886758700,5.471758544921875,-1.5447255373001099,-1.231351613998413,-2.0202841758728027
1779989221903092700,5.4880927734375,-1.641547679901123,-1.1081095933914185,-1.7117971181869507
1779989221919441000,5.50444091796875,-1.7594445943832397,-1.2736539840698242,-1.6252069473266602
1779989221935760600,5.5207607421875,-1.7872389554977417,-1.4140002727508545,-1.6757560968399048
1779989221952092000,5.537091796875,-1.6629278659820557,-1.6019941568374634,-1.6447546482086182
1779989221968422000,5.553421875,-1.3897184133529663,-1.9547687768936157,-1.5534303188323975
1779989221984761900,5.569761962890625,-1.116508960723877,-2.1920900344848633,-1.302059292793274
1779989222001091800,5.586091796875,-0.8852964639663696,-2.2710442543029785,-0.912327229976654
1779989222017419000,5.6024189453125,-0.646295428276062,-2.152383804321289,-0.4236350357532501
1779989222033757200,5.618757080078125,-0.3698789179325104,-1.6175711154937744,0.08261952549219131
1779989222050090500,5.635090576171875,-0.10873401165008545,-0.7872526049613953,0.39385536313056946
1779989222066424000,5.651424072265625,-0.08659014850854874,0.17562375962734222,0.6794348955154419
1779989222082756900,5.6677568359375,-0.08994990587234497,0.9049968719482422,0.9141598343849182
1779989222099090000,5.68408984375,0.11224649101495743,0.9692904353141785,1.3629931211471558
1779989222115421000,5.7004208984375,0.4199698567390442,0.793361246585846,1.4640913009643555
1779989222131761400,5.716761474609375,0.8254316449165344,0.1996002197265625,0.6140722632408142
1779989222148089600,5.733089599609375,0.8918632864952087,0.9512699246406555,0.9440922141075134
1779989222164422000,5.749421875,0.618195652961731,0.7565566301345825,1.702786922454834
1779989222180753400,5.76575341796875,0.5473352670669556,0.4389066696166992,1.6223053932189941
1779989222197092600,5.782092529296875,0.5740606188774109,0.4332561790943146,1.7750216722488403
1779989222213419800,5.798419677734375,0.8283332586288452,0.45326200127601624,1.7092009782791138
1779989222229757200,5.814757080078125,0.9395107626914978,0.6918048858642578,1.7429512739181519
1779989222246084400,5.83108447265625,0.9610437750816345,0.58062744140625,1.6522377729415894
1779989222262422800,5.8474228515625,1.1299480199813843,0.046273041516542435,1.3953689336776733
1779989222278753500,5.86375341796875,1.3084733486175537,-1.9011653661727905,1.4854716062545776
1779989222295089400,5.88008935546875,1.0089967250823975,-0.9097310900688171,1.4283556938171387
1779989222311421400,5.89642138671875,0.8414669036865234,-0.9453139901161194,1.482569932937622
1779989222327754500,5.91275439453125,0.6736316680908203,-1.0053315162658691,1.457371711730957
1779989222344087600,5.929087646484375,0.7052439451217651,-1.2524265050888062,1.38849675655365
1779989222360417800,5.945417724609375,0.7658722996711731,-1.3865114450454712,1.3154983520507812
1779989222376753200,5.961753173828125,0.697760820388794,-0.9598219990730286,1.292285442352295
1779989222393090600,5.978090576171875,0.6633996367454529,-0.23060162365436554,1.1785117387771606
1779989222409420800,5.9944208984375,0.6623306274414062,0.1771509200334549,1.0629055500030518
1779989222425752300,6.01075244140625,0.48716503381729126,0.08689557760953903,1.0326677560806274
1779989222442087000,6.0270869140625,0.2548835277557373,0.03298672288656235,1.0009026527404785
1779989222458420200,6.043420166015625,0.1895209401845932,0.12370020896196365,0.9520334601402283
1779989222474753300,6.059753173828125,0.1771509200334549,0.35811975598335266,0.8851437568664551
1779989222491085000,6.0760849609375,0.1875356286764145,0.5812382698059082,0.8006916046142578
1779989222507419600,6.092419677734375,0.27290403842926025,0.6122397184371948,0.5861251950263977
1779989222523750700,6.108750732421875,0.3761402666568756,0.5458080768585205,0.3712533414363861
1779989222540088800,6.1250888671875,0.34513887763023376,0.43967026472091675,0.2831360399723053
1779989222556419600,6.141419677734375,0.2719877362251282,0.5878050923347473,0.1693623960018158
1779989222572739600,6.157739501953125,0.37690386176109314,1.1994339227676392,0.11850785464048386
1779989222589085700,6.174085693359375,0.5343543887138367,1.4164438247680664,0.2393064647912979
1779989222605417200,6.190417236328125,0.5002986192703247,1.2513574361801147,0.44318273663520813
1779989222621751800,6.206751708984375,0.40851613879203796,0.8200865983963013,0.6430884003639221
1779989222638084000,6.223083984375,0.4888449013233185,0.41004329919815063,0.7127270102500916
1779989222654419200,6.239419189453125,0.5384777188301086,0.36163222789764404,0.8436049222946167
1779989222670749700,6.255749755859375,0.47708576917648315,0.5624541640281677,0.8032878041267395
1779989222687084500,6.27208447265625,0.5852088928222656,0.7052439451217651,0.640644907951355
1779989222703417600,6.28841748046875,0.5181664228439331,0.24862214922904968,0.4473060667514801
1779989222719751400,6.30475146484375,-0.004734205547720194,-0.36331209540367126,0.21914790570735931
1779989222736067300,6.3210673828125,-0.3927863538265228,-0.4335615932941437,-0.20112738013267517
1779989222752420400,6.33742041015625,-0.4381431043148041,-0.34804046154022217,-0.8426886200904846
1779989222768747000,6.3537470703125,-0.5914703011512756,-0.05390885844826698,-1.3776538372039795
1779989222785085700,6.370085693359375,-0.6606507897377014,0.3628539443016052,-1.778228759765625
1779989222801415400,6.38641552734375,-0.7011205554008484,0.8713992834091187,-1.9650007486343384
1779989222817750000,6.40275,-0.8529205918312073,1.29549241065979,-2.0312795639038086
1779989222834082000,6.41908203125,-1.0829113721847534,1.4552336931228638,-2.004248857498169
1779989222850417400,6.43541748046875,-1.5395331382751465,1.165683627128601,-1.7899879217147827
1779989222866747600,6.45174755859375,-1.7873916625976562,0.5791002511978149,-1.6476563215255737
1779989222883081500,6.46808154296875,-1.7014124393463135,0.20784689486026764,-1.3923145532608032
1779989222899415800,6.484415771484375,-1.5238033533096313,0.8136724829673767,-1.0873401165008545
1779989222915736800,6.50073681640625,-1.452942967414856,1.5454890727996826,-0.8087855577468872
1779989222932081700,6.51708154296875,-1.4353805780410767,1.4274393320083618,-0.9582948684692383
1779989222948400400,6.533400390625,-1.5425875186920166,0.82207190990448,-1.1902709007263184
1779989222964737800,6.54973779296875,-1.6013832092285156,-0.03390302136540413,-1.44057297706604
1779989222981080800,6.566080810546875,-1.6711746454238892,-0.7247915863990784,-1.6409367322921753
1779989222997415000,6.582414794921875,-1.7834210395812988,-1.2237157821655273,-1.7373007535934448
1779989223013748000,6.598748046875,-1.7942639589309692,-1.2620476484298706,-1.7464637756347656
1779989223030079700,6.615079833984375,-1.7812830209732056,-1.344361662864685,-1.74356210231781
1779989223046413800,6.631413818359375,-1.7689130306243896,-1.4859297275543213,-1.7174476385116577
1779989223062745600,6.64774560546875,-1.6781995296478271,-1.724014401435852,-1.6833919286727905
1779989223079076900,6.664076904296875,-1.4839444160461426,-1.9683605432510376,-1.5859588384628296
1779989223095414300,6.680414306640625,-1.36482572555542,-1.9950858354568481,-1.3144292831420898
1779989223111748000,6.696748046875,-1.2198978662490845,-2.032196044921875,-0.8988882303237915
1779989223128078800,6.713078857421875,-1.040150761604309,-2.0703749656677246,-0.3332269787788391
1779989223144413200,6.7294130859375,-0.7606799602508545,-2.2067506313323975,0.154396191239357
1779989223160746500,6.74574658203125,-0.32788193225860596,-1.8058704137802124,0.5746715068817139
1779989223177079300,6.762079345703125,0.029932396486401558,-0.4239404797554016,0.9130908250808716
1779989223193411800,6.778411865234375,0.02168571576476097,1.1175779104232788,1.078940749168396
1779989223209744600,6.79474462890625,0.11881329119205475,1.6691893339157104,1.3965907096862793
1779989223226067500,6.8110673828125,0.5151121020317078,1.2510520219802856,1.7351627349853516
1779989223242413000,6.8274130859375,0.8691084980964661,-0.00855211354792118,1.3255776166915894
1779989223258745900,6.843745849609375,1.031293272972107,0.8338310718536377,1.1125383377075195
1779989223275077400,6.860077392578125,0.9024006724357605,1.7689130306243896,2.140624523162842
1779989223291399200,6.876399169921875,0.7854200005531311,1.434922456741333,1.997223973274231
1779989223307746000,6.89274609375,0.7347181439399719,0.7719809412956238,1.750128984451294
1779989223324077600,6.90907763671875,0.9778425693511963,0.40775254368782043,1.3996449708938599
1779989223340411600,6.92541162109375,1.2234103679656982,0.18646661937236786,1.2585351467132568
1779989223356743400,6.941743408203125,1.395827054977417,0.0685696229338646,1.2421945333480835
1779989223373072400,6.958072265625,1.6079500913619995,-0.1966986060142517,1.2890783548355103
1779989223389417000,6.9744169921875,1.8419114351272583,-0.6727153658866882,1.409724235534668
1779989223405744400,6.990744384765625,1.7983872890472412,-0.8535314798355103,1.362687587738037
1779989223422077700,7.00707763671875,1.5839735269546509,-0.7800748944282532,1.3435981273651123
1779989223438410200,7.02341015625,1.2583824396133423,-0.4925101101398468,1.401477575302124
1779989223454741200,7.0397412109375,0.8147414922714233,-0.14416420459747314,1.472490668296814
1779989223471079000,7.056078857421875,0.3880521357059479,0.2981022298336029,1.3397802114486694
1779989223487409700,7.07240966796875,0.19318613409996033,0.5410739183425903,1.176526427268982
1779989223503744300,7.088744140625,0.26450464129447937,0.697149932384491,1.0137308835983276
1779989223520072200,7.105072265625,0.43279802799224854,0.9191994667053223,0.802524209022522
1779989223536416800,7.121416748046875,0.5036584138870239,0.660803496837616,0.669355571269989
1779989223552729900,7.137729736328125,0.4925101101398468,0.14645494520664215,0.7202101349830627
1779989223569064400,7.154064453125,0.4688390791416168,0.05146539583802223,0.8078693151473999
1779989223585410000,7.17041015625,0.46639561653137207,0.13790282607078552,0.8196284174919128
1779989223601742600,7.18674267578125,0.35246923565864563,0.21365012228488922,0.7376197576522827
1779989223618074600,7.20307470703125,0.17898350954055786,0.2840523421764374,0.5963571667671204
1779989223634409000,7.219408935546875,0.035124752670526505,0.41172316670417786,0.4775438904762268
1779989223650741200,7.2357412109375,-0.06902777403593063,0.6482807397842407,0.370947927236557
1779989223667076900,7.252076904296875,-0.1333213448524475,1.0911580324172974,0.4086688458919525
1779989223683409200,7.2684091796875,-0.11743884533643723,1.4640913009643555,0.3805690407752991
1779989223699741400,7.284741455078125,-0.0013744467869400978,1.3361150026321411,0.3631593883037567
1779989223716062200,7.301062255859375,0.18997909128665924,0.9085093140602112,0.5401576161384583
1779989223732408300,7.317408203125,0.4225660264492035,0.27091872692108154,0.5568036437034607
1779989223748743700,7.33374365234375,0.6501133441925049,0.13072516024112701,0.6239988207817078
1779989223765078000,7.350078125,0.7884743213653564,0.2678644061088562,0.7020368576049805
1779989223781408300,7.366408203125,0.8162686824798584,0.5329799056053162,0.6852380633354187
1779989223797738000,7.382738037109375,0.8413141369819641,0.7261660695075989,0.6021603941917419
1779989223814076400,7.399076416015625,0.8642216324806213,0.49296826124191284,0.408974289894104
1779989223830404000,7.415404052734375,0.5905539989471436,-0.15164729952812195,0.03955352306365967
1779989223846742800,7.43174267578125,-0.013744467869400978,-0.5015203952789307,-0.3237585723400116
1779989223863073300,7.4480732421875,-0.38759398460388184,-0.5974262356758118,-0.826195240020752
1779989223879393800,7.464393798828125,-0.5952881574630737,-0.44180828332901,-1.3642147779464722
1779989223895741700,7.48074169921875,-0.7635815739631653,-0.16019940376281738,-1.8002198934555054
1779989223912073700,7.49707373046875,-0.8837692737579346,0.10002918541431427,-2.175291061401367
1779989223928408000,7.513407958984375,-1.169501543045044,0.41813725233078003,-2.4136812686920166
1779989223944746200,7.529746337890625,-1.3811663389205933,0.55069500207901,-2.450944185256958
1779989223961073000,7.546072998046875,-1.4442381858825684,0.6591235995292664,-2.3020455837249756
1779989223977406500,7.562406494140625,-1.69148588180542,0.8825475573539734,-1.9390389919281006
1779989223993740000,7.578739990234375,-1.8695530891418457,0.974177360534668,-1.716989517211914
1779989224010071600,7.595071533203125,-1.6543757915496826,0.9112582206726074,-1.444696307182312
1779989224026406100,7.61140625,-1.2800681591033936,0.36850446462631226,-1.1212431192398071
1779989224042739200,7.6277392578125,-1.2035572528839111,-0.2154827117919922,-1.2006556987762451
1779989224059071700,7.64407177734375,-1.306793451309204,-0.6294966340065002,-1.6048957109451294
1779989224075406000,7.660406005859375,-1.4396566152572632,-0.8382598161697388,-2.0424280166625977
1779989224091739000,7.67673876953125,-1.6673567295074463,-1.3464996814727783,-2.258521556854248
1779989224108071000,7.69307080078125,-1.8348864316940308,-1.663996934890747,-2.2508857250213623
1779989224124405800,7.70940576171875,-1.958433985710144,-1.372156023979187,-2.032043218612671
1779989224140741000,7.7257412109375,-2.104278087615967,-1.2670872211456299,-1.8429805040359497
1779989224157069000,7.742069091796875,-2.1650590896606445,-1.3406964540481567,-1.7692184448242188
1779989224173407000,7.758406982421875,-2.2737932205200195,-1.233642339706421,-1.7272214889526367
1779989224189737200,7.7747373046875,-2.098932981491089,-1.4404202699661255,-1.659568190574646
1779989224206070800,7.79107080078125,-1.761277198791504,-1.4463762044906616,-1.3796391487121582
1779989224222405600,7.807405517578125,-1.306793451309204,-1.4640913009643555,-0.9434813857078552
1779989224238738400,7.823738525390625,-0.8316930532455444,-1.7179057598114014,-0.4567744731903076
1779989224255064300,7.840064208984375,-0.40454551577568054,-1.9897408485412598,0.03176499158143997
1779989224271403300,7.8564033203125,-0.09437867999076843,-1.7146987915039062,0.5616905689239502
1779989224287738600,7.872738525390625,0.3084869384765625,-0.9266825914382935,0.946382999420166
1779989224304070000,7.88906982421875,0.6099489331245422,0.18157969415187836,1.2075278759002686
1779989224320406500,7.905406494140625,0.7296785116195679,1.5431983470916748,1.2553280591964722
1779989224336733400,7.9217333984375,0.8709411025047302,2.2461514472961426,1.5248724222183228
1779989224353070800,7.93807080078125,0.8701775670051575,1.3784173727035522,1.3130548000335693
1779989224369403400,7.9544033203125,1.1249083280563354,1.4546228647232056,1.048397421836853
1779989224385737200,7.9707373046875,1.0102183818817139,1.5433510541915894,1.8484781980514526
1779989224402073000,7.987072998046875,0.7134906053543091,1.1621711254119873,1.6769778728485107
1779989224418399700,8.003399658203126,0.6667594313621521,1.2131783962249756,1.7884607315063477
1779989224434737200,8.019737060546875,1.010829210281372,1.2570079565048218,1.848020076751709
1779989224451065300,8.0360654296875,1.3397802114486694,1.178053617477417,1.7550158500671387
1779989224467406300,8.05240625,1.4703526496887207,1.1328495740890503,1.6165021657943726
1779989224483739100,8.0687392578125,1.5702290534973145,0.8755226135253906,1.7107281684875488
1779989224500067000,8.085067138671874,1.7624989748001099,0.4899139404296875,1.8342756032943726
1779989224516411400,8.101411376953125,1.718363881111145,0.08491026610136032,1.5624406337738037
1779989224532723700,8.1177236328125,1.3016011714935303,-0.016798794269561768,1.18492591381073
1779989224549069300,8.1340693359375,0.9808968901634216,-0.1287398487329483,0.8914051055908203
1779989224565389600,8.1503896484375,0.7867944240570068,-0.42531493306159973,0.8475755453109741
1779989224581736000,8.16673583984375,0.6285803318023682,-0.5722280144691467,0.8316930532455444
1779989224598077200,8.1830771484375,0.6056728959083557,-0.5283984541893005,0.7525860071182251
1779989224614403800,8.19940380859375,0.5690209865570068,-0.05726861581206322,0.7938193678855896
1779989224630738200,8.21573828125,0.5369505286216736,0.8880453705787659,0.9418014883995056
1779989224647071700,8.23207177734375,0.5313000679016113,0.8741481900215149,0.8903360962867737
1779989224663400400,8.248400390625,0.48945578932762146,0.5607742667198181,0.7296785116195679
1779989224679736600,8.264736572265624,0.347276896238327,0.6536257863044739,0.6319400668144226
1779989224696067000,8.281067138671874,0.2292271852493286,0.693026602268219,0.48059824109077454
1779989224712398800,8.29739892578125,0.08307767659425735,0.684474527835846,0.3222314119338989
1779989224728734500,8.313734375,-0.038026362657547,0.8356636762619019,0.23945917189121246
1779989224745070800,8.33007080078125,-0.098502017557621,1.069472312927246,0.11591167747974396
1779989224761403000,8.34640283203125,-0.05314527451992035,1.3643674850463867,0.09040805697441101
1779989224777733000,8.362733154296874,-0.04260785132646561,1.5537357330322266,0.1941024363040924
1779989224794063000,8.37906298828125,-0.025961773470044136,1.4162911176681519,0.32986724376678467
1779989224810405400,8.3954052734375,0.1108720451593399,0.9737191796302795,0.39614611864089966
1779989224826730200,8.411730224609375,0.3859141170978546,0.5053382515907288,0.342695415019989
1779989224843068700,8.428068603515625,0.6099489331245422,0.5022839307785034,0.39553526043891907
1779989224859400700,8.444400634765625,0.8252789378166199,0.3072652220726013,0.5505422949790955
1779989224875735300,8.4607353515625,1.003804326057434,0.17989981174468994,0.6649268269538879
1779989224892070100,8.477070068359374,1.1030699014663696,0.22342395782470703,0.716697633266449
1779989224908370400,8.493370361328125,0.998153805732727,0.34956762194633484,0.6633996367454529
1779989224924736800,8.50973681640625,0.8048149347305298,0.555429220199585,0.5114469528198242
1779989224941068800,8.52606884765625,0.4398229718208313,0.36010506749153137,0.2768746614456177
1779989224957400300,8.542400390625,-0.20952677726745605,0.031612277030944824,0.02519819140434265
1779989224973731800,8.55873193359375,-0.6116288304328918,-0.07849618047475815,-0.5044219493865967
1779989224990065400,8.5750654296875,-0.7212791442871094,-0.11728613078594208,-1.165683627128601
1779989225006412500,8.59141259765625,-0.9043859839439392,0.22128593921661377,-1.7592918872833252
1779989225022732800,8.60773291015625,-1.0784826278686523,0.8229882121086121,-2.0781636238098145
1779989225039065000,8.624065185546876,-1.2139419317245483,1.1612548828125,-2.0303633213043213
1779989225055400000,8.64039990234375,-1.2947288751602173,1.092837929725647,-1.8813122510910034
1779989225071733800,8.656733642578125,-1.3927727937698364,1.0821478366851807,-1.7531832456588745
1779989225088064800,8.673064697265625,-1.4428637027740479,0.9747881889343262,-1.6838500499725342
1779989225104399400,8.6893994140625,-1.47371244430542,0.7064656615257263,-1.6209309101104736
1779989225120732400,8.705732421875,-1.4941763877868652,0.6146831512451172,-1.450346827507019
1779989225137068800,8.72206884765625,-1.577254056930542,0.11774427443742752,-1.5039502382278442
1779989225153396200,8.738396240234374,-1.7536413669586182,-0.38179078698158264,-1.6969836950302124
1779989225169728300,8.754728271484375,-1.8206838369369507,-0.9699012637138367,-1.9672914743423462
1779989225186067000,8.77106689453125,-1.9333884716033936,-2.013259172439575,-2.341599225997925
1779989225202398500,8.7873984375,-1.9022343158721924,-2.8121180534362793,-2.4246768951416016
1779989225218720000,8.803719970703124,-2.007761240005493,-3.078760862350464,-2.258979558944702
1779989225235063800,8.820063720703125,-2.261728525161743,-2.813950777053833,-1.9750800132751465
1779989225251398400,8.8363984375,-2.4384212493896484,-2.428952932357788,-1.987450122833252
1779989225267732700,8.852732666015624,-2.2647829055786133,-1.6760615110397339,-1.7939585447311401
1779989225284064000,8.86906396484375,-1.7495180368423462,-1.262963891029358,-1.2443325519561768
1779989225300396500,8.885396484375,-1.2476922273635864,-1.3912456035614014,-0.7272350788116455
1779989225316732200,8.901732177734376,-0.8843801617622375,-1.715462327003479,-0.2477058619260788
1779989225333064700,8.918064697265624,-0.5198463201522827,-2.0567831993103027,0.23686300218105316
1779989225349398000,8.93439794921875,-0.1992947906255722,-1.9172005653381348,0.8431467413902283
1779989225365731600,8.950731689453125,0.11056660860776901,-1.112385630607605,1.3350459337234497
1779989225382064600,8.967064697265625,0.26511552929878235,-0.0039706239476799965,1.514182209968567
1779989225398398200,8.983398193359376,0.3323107063770294,1.116508960723877,1.5070046186447144
1779989225414731300,8.999731201171874,0.5387831330299377,1.5331190824508667,1.969735026359558
1779989225431062500,9.0160625,0.44058656692504883,1.5207489728927612,2.0080668926239014
1779989225447398000,9.03239794921875,0.7347181439399719,1.149037480354309,1.3519974946975708
1779989225463732000,9.04873193359375,1.1267409324645996,1.7565430402755737,1.6667457818984985
1779989225480066000,9.065066162109375,0.8674286603927612,1.2237157821655273,2.015855312347412
1779989225496409000,9.0814091796875,0.782976508140564,1.0448850393295288,2.020742177963257
1779989225512730000,9.097730224609375,1.0512990951538086,0.8645270466804504,1.832595705986023
1779989225529061000,9.11406103515625,1.367727279663086,0.5954409241676331,1.620778203010559
1779989225545394200,9.130394287109375,1.5935946702957153,0.5751296281814575,1.4592043161392212
1779989225561719800,9.1467197265625,1.8038851022720337,0.27809640765190125,1.4143058061599731
1779989225578062000,9.16306201171875,1.966986060142517,-0.2687807083129883,1.4474451541900635
1779989225594381300,9.17938134765625,1.6783522367477417,-0.35185837745666504,1.4676038026809692
1779989225610730000,9.19572998046875,1.2260065078735352,-0.2422080636024475,1.3278683423995972
1779989225627063800,9.212063720703124,1.0395399332046509,-0.4634940028190613,1.1603385210037231
1779989225643396000,9.22839599609375,0.9195048809051514,-0.7675521969795227,1.101084589958191
1779989225659731200,9.244731201171875,0.7406741380691528,-0.8735373020172119,1.047023057937622
1779989225676062700,9.261062744140625,0.641255795955658,-0.8043568134307861,0.9906707406044006
1779989225692396000,9.27739599609375,0.6151412725448608,-0.30634891986846924,1.0070114135742188
1779989225708730000,9.293730224609375,0.4905247986316681,-0.08811730891466141,1.021519422531128
1779989225725063400,9.3100634765625,0.4505131244659424,-0.39324450492858887,0.8857545852661133
1779989225741394700,9.326394775390625,0.4764748811721802,-0.4411974251270294,0.7382306456565857
1779989225757729300,9.342729248046876,0.47311514616012573,-0.36193767189979553,0.6417139172554016
1779989225774063000,9.35906298828125,0.3718642294406891,-0.23548854887485504,0.5529857873916626
1779989225790396700,9.375396728515625,0.10033461451530457,-0.10094548016786575,0.46181413531303406
1779989225806727200,9.39172705078125,-0.11392636597156525,0.1443169116973877,0.3425426781177521
1779989225823059700,9.408059814453125,-0.3355177342891693,0.4066835343837738,0.1264491081237793
1779989225839399200,9.424399169921875,-0.45066583156585693,0.6122397184371948,-0.04734205827116966
1779989225855730000,9.44072998046875,-0.42577308416366577,1.0558805465698242,0.1010981947183609
1779989225872061400,9.4570615234375,-0.1768454909324646,1.2214250564575195,0.08368854224681854
1779989225888391400,9.473391357421875,0.11407908797264099,1.1733194589614868,-0.2102903574705124
1779989225904725200,9.489725341796875,0.35705074667930603,1.013578176498413,-0.2793181240558624
1779989225921062400,9.5060625,0.6255260109901428,0.9695958495140076,-0.17623461782932281
1779989225937384400,9.522384521484375,0.8251262307167053,1.3394747972488403,0.14446963369846344
1779989225953718500,9.538718505859375,1.0586295127868652,1.348179578781128,0.566730260848999
1779989225970062000,9.55506201171875,1.1134545803070068,0.9503536224365234,0.912021815776825
1779989225986383400,9.57138330078125,0.946382999420166,0.5207626223564148,1.1766791343688965
1779989226002726400,9.587726318359374,0.7411322593688965,0.20494529604911804,1.2402092218399048
1779989226019060200,9.604060302734375,0.6383541822433472,-0.018020525574684143,1.0566442012786865
1779989226035394800,9.620394775390626,0.8142833709716797,0.03497203439474106,0.6641632318496704
1779989226051729000,9.63672900390625,0.8321511745452881,-0.0705549344420433,0.3228422701358795
1779989226068061200,9.653061279296875,0.40362921357154846,0.03573561832308769,-0.020005837082862854
1779989226084390700,9.669390625,0.009468411095440388,0.14584407210350037,-0.6160575747489929
1779989226100731600,9.685731689453124,-0.3517056703567505,0.3929390609264374,-1.2921327352523804
1779989226117062700,9.702062744140624,-0.764345109462738,0.5616905689239502,-1.8530597686767578
1779989226133390600,9.718390625,-1.017396092414856,0.4407392740249634,-2.191020965576172
1779989226149713400,9.73471337890625,-1.1861475706100464,0.14034628868103027,-2.2962424755096436
1779989226166062800,9.751062744140626,-1.3565789461135864,0.18906278908252716,-2.2116377353668213
1779989226182395600,9.767395751953124,-1.4749341011047363,0.8504771590232849,-2.0221166610717773
1779989226198724900,9.783724853515626,-1.389107584953308,1.3683381080627441,-1.86191725730896
1779989226215050200,9.80005029296875,-1.4563027620315552,1.4808900356292725,-1.813048005104065
1779989226231393500,9.8163935546875,-1.6183347702026367,1.5490015745162964,-1.6278032064437866
1779989226247727600,9.8327275390625,-1.6809484958648682,0.8730791807174683,-1.6676621437072754
1779989226264059100,9.84905908203125,-1.603826642036438,-0.06750060617923737,-1.904219627380371
1779989226280393500,9.8653935546875,-1.39017653465271,-0.712574303150177,-2.213928461074829
1779989226296725500,9.8817255859375,-1.4492777585983276,-1.085965633392334,-2.5806002616882324
1779989226313062400,9.8980625,-1.8500053882598877,-0.941343367099762,-2.665815830230713
1779989226329393200,9.91439306640625,-2.001805305480957,-1.2670872211456299,-2.593122959136963
1779989226345726500,9.9307265625,-2.093435287475586,-1.5036448240280151,-2.3353378772735596
1779989226362061300,9.947061279296875,-2.306016206741333,-1.0862711668014526,-1.9507981538772583
1779989226378393300,9.963393310546875,-2.2267565727233887,-1.0378600358963013,-1.7800613641738892
1779989226394725000,9.97972509765625,-1.9101755619049072,-1.0201449394226074,-1.5515977144241333
1779989226411060700,9.996060791015625,-1.4121677875518799,-1.292285442352295,-1.2641856670379639
1779989226427392500,10.012392578125,-0.8820894360542297,-1.7771596908569336,-0.9958630800247192
1779989226443727000,10.02872705078125,-0.6546948552131653,-2.155132532119751,-0.5514585971832275
1779989226460060200,10.04506005859375,-0.45326200127601624,-2.47568416595459,-0.013897184282541275
1779989226476405800,10.06140576171875,-0.12049316614866257,-2.16628098487854,0.5012149214744568
1779989226492728800,10.077728759765625,0.15286903083324432,-1.3092368841171265,0.9152288436889648
1779989226509057500,10.0940576171875,0.3065016269683838,-0.11071932315826416,1.144608736038208
1779989226525395500,10.1103955078125,0.3142901659011841,0.8121453523635864,1.401172161102295
1779989226541727500,10.1267275390625,0.5061018466949463,1.0716103315353394,1.7835737466812134
1779989226558044400,10.14304443359375,0.5697845816612244,0.4550946056842804,1.746311068534851
1779989226574393000,10.15939306640625,1.1740829944610596,1.20859694480896,1.2307407855987549
1779989226590708000,10.1757080078125,1.0462594032287598,1.489442229270935,2.302656650543213
1779989226607059200,10.19205908203125,0.7179193496704102,1.4095715284347534,2.5169174671173096
1779989226623388000,10.208387939453125,0.7250970602035522,1.2878566980361938,2.21698260307312
1779989226639724500,10.224724609375,1.0047205686569214,1.4903584718704224,1.8629863262176514
1779989226656056300,10.241056396484375,1.3324497938156128,1.4106405973434448,1.7014124393463135
1779989226672394800,10.257394775390624,1.5508341789245605,1.0906999111175537,1.5671747922897339
1779989226688704300,10.273704345703125,1.8449658155441284,0.5629123449325562,1.381929874420166
1779989226705063200,10.290063232421875,2.14428973197937,0.039095375686883926,1.3158037662506104
1779989226721391600,10.3063916015625,2.2149972915649414,-0.48777589201927185,1.3145819902420044
1779989226737725200,10.32272509765625,2.073887586593628,-0.8495608568191528,1.4753923416137695
1779989226754059000,10.33905908203125,1.7371480464935303,-1.0009026527404785,1.7191275358200073
1779989226770390800,10.355390869140624,1.16293466091156,-0.7110471725463867,1.9830212593078613
1779989226786720300,10.37172021484375,0.5227479338645935,-0.20341812074184418,2.0146336555480957
1779989226803062000,10.38806201171875,0.1062905490398407,0.03176499158143997,1.71515691280365
1779989226819386400,10.404386474609375,0.09315694868564606,-0.05619960278272629,1.3326025009155273
1779989226835729700,10.420729736328125,0.22815817594528198,0.0806342139840126,1.1062769889831543
1779989226852055800,10.437055908203124,0.16050484776496887,-0.25564709305763245,0.9198103547096252
1779989226868378600,10.453378662109374,0.1388191282749176,-0.5400048494338989,0.7113525867462158
1779989226884727300,10.469727294921874,0.15592335164546967,-0.4737260043621063,0.5389358401298523
1779989226901048000,10.486048095703126,0.11301007121801376,-0.19257527589797974,0.30802878737449646
1779989226917391000,10.50239111328125,-0.08200865983963013,0.14798210561275482,0.047189339995384216
1779989226933720600,10.518720458984374,-0.2779437005519867,0.460897833108902,-0.11010845750570297
1779989226950055700,10.5350556640625,-0.37048977613449097,0.9926560521125793,-0.0988074541091919
1779989226966413600,10.55141357421875,-0.34804046154022217,1.5265522003173828,0.018936822190880775
1779989226982731300,10.567731201171876,-0.182648703455925,1.7084373235702515,0.19883663952350616
1779989226999058200,10.58405810546875,0.15836681425571442,1.3391693830490112,0.2171625941991806
1779989227015390700,10.600390625,0.513126790523529,0.8878926634788513,0.3651446998119354
1779989227031723500,10.6167236328125,0.8316930532455444,0.7504479289054871,0.3433062732219696
1779989227048057900,10.633057861328124,1.1465940475463867,0.3245221674442291,0.45982882380485535
1779989227064388900,10.649388916015624,1.3938417434692383,-0.08445212244987488,0.7568620443344116
1779989227080723500,10.665723388671875,1.4944818019866943,0.06536258012056351,0.8558222055435181
1779989227097046300,10.68204638671875,1.2559388875961304,-0.09865473955869675,0.8089383244514465
1779989227113390300,10.698390380859376,0.7492262125015259,-0.39553526043891907,0.58062744140625
1779989227129719300,10.71471923828125,0.33628132939338684,-0.6609562039375305,0.2854267954826355
1779989227146061600,10.7310615234375,-0.014049900695681572,-1.1042916774749756,-0.11362093687057495
1779989227162390800,10.747390869140625,-0.28038713335990906,-1.270447015762329,-0.4951062798500061
1779989227178723800,10.763723876953126,-0.5204572081565857,-1.1330022811889648,-0.8924741148948669
1779989227195057400,10.780057373046875,-0.6841690540313721,-0.5126686692237854,-1.387274980545044
1779989227211390000,10.796389892578125,-0.7912232279777527,0.21105393767356873,-1.9876028299331665
1779989227227722800,10.81272265625,-1.0204503536224365,0.746630072593689,-2.523789644241333
1779989227244057600,10.8290576171875,-1.442100167274475,0.8527678847312927,-2.8208229541778564
1779989227260378600,10.845378662109376,-1.8877263069152832,0.6763805150985718,-2.903289794921875
1779989227276721200,10.86172119140625,-1.9393444061279297,0.5494732856750488,-2.7788259983062744
1779989227293056000,10.878055908203125,-1.8040378093719482,0.45814892649650574,-2.4495697021484375
1779989227309393200,10.89439306640625,-1.7033977508544922,1.0270172357559204,-1.9468275308609009
1779989227325723000,10.910722900390626,-1.550681471824646,1.3613132238388062,-1.5073100328445435
1779989227342058200,10.927058349609375,-1.4327844381332397,0.6814202070236206,-1.2873984575271606
1779989227358390300,10.943390380859375,-1.5522085428237915,-0.3729332387447357,-1.2327260971069336
1779989227374722600,10.95972265625,-1.7224873304367065,-1.2177598476409912,-1.4662293195724487
1779989227391058000,10.976057861328124,-1.9689713716506958,-1.870163917541504,-1.829999566078186
1779989227407388700,10.992388671875,-2.1281018257141113,-2.303420066833496,-2.244318962097168
1779989227423724000,11.00872412109375,-2.1395554542541504,-2.146275043487549,-2.3301453590393066
1779989227440057300,11.025057373046875,-2.1820106506347656,-1.8324429988861084,-2.1459696292877197
1779989227456407300,11.0414072265625,-2.196671485900879,-1.758375644683838,-1.9801197052001953
1779989227472724500,11.057724365234375,-2.1091649532318115,-1.7472273111343384,-1.786475419998169
1779989227489057500,11.0740576171875,-1.8657351732254028,-1.5541938543319702,-1.371850609779358
1779989227505387800,11.0903876953125,-1.5263994932174683,-1.3086260557174683,-0.8541423082351685
1779989227521722400,11.106722412109375,-1.1762210130691528,-1.231351613998413,-0.3923282027244568
1779989227538057000,11.123056884765624,-0.7567093372344971,-1.3295482397079468,0.09269879758358002
1779989227554390300,11.139390380859375,-0.4343251883983612,-1.1951578855514526,0.5823072791099548
1779989227570721500,11.155721435546875,-0.035582900047302246,-0.6472117304801941,0.955545961856842
1779989227587057700,11.1720576171875,0.28955012559890747,0.23976461589336395,1.2162326574325562
1779989227603387100,11.18838720703125,0.4784601926803589,1.339932918548584,1.3164145946502686
1779989227619723300,11.20472314453125,0.646906316280365,2.174833059310913,1.6875152587890625
1779989227636056300,11.221056396484375,0.7305948138237,1.86497163772583,1.9973766803741455
1779989227652388000,11.23738818359375,0.8206974864006042,0.9728028774261475,1.7649424076080322
1779989227668722000,11.253721923828126,1.2492194175720215,1.8689422607421875,1.8970420360565186
1779989227685058000,11.27005810546875,1.187522053718567,1.7614299058914185,2.0862574577331543
1779989227701388300,11.28638818359375,0.9616546034812927,1.2322678565979004,1.589929461479187
1779989227717721600,11.3027216796875,1.0283915996551514,1.190423607826233,1.6442965269088745
1779989227734053000,11.31905322265625,1.3168727159500122,1.3837624788284302,1.7269160747528076
1779989227750389500,11.335389404296874,1.4915802478790283,1.4501941204071045,1.6108516454696655
1779989227766720000,11.351719970703124,1.6323846578598022,0.9969320893287659,1.3842206001281738
1779989227783056100,11.36805615234375,1.9492709636688232,0.2968805134296417,1.4274393320083618
1779989227799387600,11.3843876953125,2.1371121406555176,0.14782938361167908,1.5138767957687378
1779989227815722200,11.40072216796875,2.072054862976074,-0.17272214591503143,1.4485142230987549
1779989227832056800,11.417056884765625,1.6502524614334106,-0.13255776464939117,1.4643967151641846
1779989227848387000,11.433386962890625,1.0340421199798584,0.4996877610683441,1.515709400177002
1779989227864720000,11.449719970703125,0.5783366560935974,0.7121161818504333,1.5190691947937012
1779989227881057000,11.46605712890625,0.36010506749153137,0.4642575979232788,1.250593900680542
1779989227897378000,11.4823779296875,0.39095374941825867,0.08429940044879913,0.8216137290000916
1779989227913720800,11.498720947265625,0.5322163701057434,0.19425514340400696,0.5355761051177979
1779989227930047500,11.515047607421875,0.45891252160072327,0.8659014701843262,0.46593746542930603
1779989227946407700,11.53140771484375,0.3274237811565399,0.9489791393280029,0.44516804814338684
1779989227962720500,11.547720458984376,0.32391130924224854,0.4518875777721405,0.35216382145881653
1779989227979056000,11.56405615234375,0.27748554944992065,0.039095375686883926,0.2719877362251282
1779989227995374300,11.580374267578126,0.13240504264831543,0.15913039445877075,0.39446622133255005
1779989228011721200,11.59672119140625,0.017409659922122955,0.3764457106590271,0.5740606188774109
1779989228028056300,11.613056396484374,-0.04795292019844055,0.5919284224510193,0.6262896060943604
1779989228044387300,11.62938720703125,-0.04612032696604729,0.6875288486480713,0.6450737118721008
1779989228060720400,11.645720458984375,0.04657847434282303,0.7504479289054871,0.6751587986946106
1779989228077056000,11.662055908203126,0.2477058619260788,0.827111542224884,0.6157521605491638
1779989228093374000,11.6783740234375,0.5218316316604614,0.8503243923187256,0.4889976382255554
1779989228109718800,11.69471875,0.7304421067237854,0.9146180152893066,0.5503895878791809
1779989228126061300,11.711061279296874,0.7828238010406494,0.7913759350776672,0.7327328324317932
1779989228142382000,11.727382080078126,0.718224823474884,0.46150869131088257,0.8622363209724426
1779989228158720800,11.743720703125,0.7472409009933472,0.2741257846355438,0.8240572214126587
1779989228175054800,11.760054931640624,0.880104124546051,0.11194105446338654,0.688903272151947
1779989228191387400,11.776387451171875,1.0167851448059082,0.017409659922122955,0.5621487498283386
1779989228207721500,11.792721435546875,0.9773843884468079,-0.031154127791523933,0.4492913782596588
1779989228224055300,11.80905517578125,0.8426886200904846,-0.20922134816646576,0.12446379661560059
1779989228240385000,11.825385009765625,0.4593706727027893,-0.5407684445381165,-0.14355333149433136
1779989228256707300,11.841707275390625,-0.07009678333997726,-0.7932085394859314,-0.33948835730552673
1779989228273057000,11.85805712890625,-0.5473352670669556,-0.7939720749855042,-0.7539604306221008
1779989228289384000,11.874384033203125,-0.8961393237113953,-0.3969096839427948,-1.2438743114471436
1779989228305722000,11.89072216796875,-1.1488847732543945,0.18448130786418915,-1.7342463731765747
1779989228322056000,11.907055908203125,-1.2608258724212646,0.6815729141235352,-2.1675026416778564
1779989228338387500,11.923387451171875,-1.2684617042541504,0.7313584089279175,-2.202627420425415
1779989228354720000,11.939719970703125,-1.3839151859283447,0.451582133769989,-2.10168194770813
1779989228371052000,11.956052001953125,-1.6508632898330688,0.4735732674598694,-2.1838431358337402
1779989228387385000,11.972385009765626,-1.7340936660766602,0.41340306401252747,-2.292119026184082
1779989228403720700,11.988720703125,-1.681712031364441,-0.08399397134780884,-2.1739165782928467
1779989228420054800,12.0050546875,-1.7258470058441162,-0.16783522069454193,-1.6019941568374634
1779989228436405200,12.0214052734375,-1.8014415502548218,0.09544769674539566,-0.9314168095588684
1779989228452713500,12.03771337890625,-2.028988838195801,-0.03985895588994026,-1.073595643043518
1779989228469058600,12.05405859375,-2.1424572467803955,-0.7863363027572632,-1.6978999376296997
1779989228485386500,12.070386474609375,-1.974927306175232,-1.496467113494873,-2.0567831993103027
1779989228501712600,12.086712646484376,-1.7637206315994263,-2.398562431335449,-2.2426390647888184
1779989228518052400,12.10305224609375,-1.7218763828277588,-2.5951082706451416,-2.1713204383850098
1779989228534390300,12.119390380859375,-1.7861700057983398,-2.1476495265960693,-2.0169243812561035
1779989228550719500,12.135719482421875,-1.9156733751296997,-2.054797887802124,-2.0384573936462402
1779989228567054600,12.1520546875,-1.9184223413467407,-1.9127718210220337,-2.029447078704834
1779989228583386000,12.16838623046875,-1.7234035730361938,-1.768454909324646,-1.8388570547103882
1779989228599725300,12.184725341796875,-1.4164438247680664,-1.6215417385101318,-1.5344934463500977
1779989228616054300,12.20105419921875,-1.1119275093078613,-1.3869695663452148,-1.1522445678710938
1779989228632384500,12.217384521484375,-0.9805914163589478,-1.2357803583145142,-0.6618725061416626
1779989228648716500,12.233716552734375,-0.7849618196487427,-1.1844676733016968,-0.09636399149894714
1779989228665058800,12.250058837890625,-0.39477166533470154,-1.020297646522522,0.4662429094314575
1779989228681385700,12.2663857421875,0.015271631069481373,-0.5146539807319641,0.8373435139656067
1779989228697719600,12.282719482421875,0.2742784917354584,0.16065755486488342,0.9584475755691528
1779989228714054700,12.2990546875,0.4106541574001312,0.7628179788589478,0.917061448097229
1779989228730386700,12.31538671875,0.6296493411064148,1.0445796251296997,1.1042916774749756
1779989228746717400,12.331717529296874,0.9231700897216797,1.0045678615570068,1.7250834703445435
1779989228763055400,12.348055419921875,0.902553379535675,0.827111542224884,1.7383698225021362
1779989228779384800,12.364384765625,1.141707181930542,1.1954632997512817,1.338711142539978
1779989228795720000,12.380719970703124,1.0195341110229492,1.9703458547592163,1.8877263069152832
1779989228812054500,12.397054443359375,0.7464773058891296,1.0716103315353394,1.7212655544281006
1779989228828370700,12.41337060546875,0.6513350605964661,0.44516804814338684,1.412778615951538
1779989228844720600,12.429720703125,0.8306240439414978,0.8327620625495911,1.656819224357605
1779989228861055500,12.446055419921874,1.0641272068023682,1.372156023979187,1.7452419996261597
1779989228877385500,12.462385498046874,1.3096951246261597,1.472796082496643,1.619251012802124
1779989228893719000,12.478718994140625,1.7325665950775146,1.002277135848999,1.5225815773010254
1779989228910058200,12.495058349609375,2.0890064239501953,0.6507241725921631,1.4486669301986694
1779989228926385700,12.5113857421875,2.162921190261841,0.2344195395708084,1.2113457918167114
1779989228942718500,12.527718505859376,1.8884899616241455,-0.16035212576389313,1.0852020978927612
1779989228959054600,12.5440546875,1.4874569177627563,-0.17256943881511688,1.1099421977996826
1779989228975385000,12.560385009765625,1.0141890048980713,-0.3220787048339844,1.2806789875030518
1779989228991719700,12.5767197265625,0.5522221922874451,-0.5022839307785034,1.340238332748413
1779989229008053500,12.593053466796874,0.34177911281585693,-0.35353827476501465,1.2348641157150269
1779989229024385800,12.6093857421875,0.3045163154602051,0.031154127791523933,1.0775662660598755
1779989229040718800,12.62571875,0.26801711320877075,0.5832235813140869,0.9715811610221863
1779989229057054500,12.642054443359376,0.2710714638233185,0.3845396637916565,0.8715519905090332
1779989229073384200,12.65838427734375,0.35292738676071167,0.0007635815418325365,0.7035640478134155
1779989229089720300,12.67472021484375,0.4193589985370636,0.168751522898674,0.5858197808265686
1779989229106055200,12.69105517578125,0.30833423137664795,0.2874121069908142,0.5036584138870239
1779989229122382300,12.70738232421875,0.13515393435955048,0.3715587854385376,0.3689626157283783
1779989229138721000,12.723720947265624,0.0403171069920063,0.7281513810157776,0.2675589919090271
1779989229155056600,12.740056640625,0.027030786499381065,1.1421653032302856,0.23105977475643158
1779989229171385000,12.756385009765625,0.12095131725072861,1.3794864416122437,0.20494529604911804
1779989229187716900,12.772716796875,0.2612976133823395,1.4482088088989258,0.2767219543457031
1779989229204053500,12.789053466796876,0.44913867115974426,1.3516920804977417,0.3251330256462097
1779989229220384800,12.805384765625,0.5853615999221802,1.1566733121871948,0.4106541574001312
1779989229236717300,12.82171728515625,0.6927211880683899,0.6146831512451172,0.5195409059524536
1779989229253055500,12.838055419921876,0.7881689071655273,0.1085812970995903,0.5887213945388794
1779989229269382700,12.854382568359375,0.7913759350776672,-0.1014036312699318,0.6348416805267334
1779989229285716200,12.87071630859375,0.7496843934059143,-0.2845104932785034,0.6831000447273254
1779989229302057200,12.88705712890625,0.6870706677436829,-0.10659598559141159,0.6259841322898865
1779989229318385700,12.9033857421875,0.6487388610839844,-0.22647829353809357,0.4384485185146332
1779989229334708500,12.91970849609375,0.3413209617137909,-0.304669052362442,0.19013181328773499
1779989229351058000,12.936057861328125,0.16523905098438263,-0.4902193546295166,-0.3130684494972229
1779989229367385000,12.952385009765624,-0.1111774742603302,-0.3998112976551056,-0.6763805150985718
1779989229383719400,12.968719482421875,-0.5102251768112183,0.08567385375499725,-1.0222829580307007
1779989229400056000,12.98505615234375,-0.6559165716171265,0.5893322229385376,-1.500285029411316
1779989229416385800,13.0013857421875,-0.7757988572120667,1.0807733535766602,-1.9730947017669678
1779989229432705500,13.01770556640625,-0.9308059215545654,1.3254249095916748,-2.282956123352051
1779989229449058600,13.03405859375,-1.1084150075912476,1.2806789875030518,-2.4133758544921875
1779989229465380900,13.050380859375,-1.1782063245773315,1.1966849565505981,-2.375960350036621
1779989229481718300,13.06671826171875,-1.1129964590072632,0.9521862268447876,-2.1067214012145996
1779989229498055700,13.0830556640625,-1.169501543045044,1.1786644458770752,-1.6418530941009521
1779989229514386200,13.09938623046875,-1.3026701211929321,1.5163202285766602,-1.109789490699768
1779989229530718200,13.11571826171875,-1.2994630336761475,1.4628695249557495,-0.9343183636665344
1779989229547054800,13.132054931640624,-1.337031364440918,0.9054549932479858,-1.1534663438796997
1779989229563384000,13.148384033203126,-1.3828462362289429,0.408974289894104,-1.4260649681091309
1779989229579726300,13.164726318359374,-1.5833626985549927,-0.7852672934532166,-1.9091066122055054
1779989229596051500,13.181051513671875,-1.9120081663131714,-1.6232216358184814,-2.208125114440918
1779989229612383500,13.197383544921875,-2.0509800910949707,-1.7901406288146973,-2.1927008628845215
1779989229628718600,13.213718505859376,-2.0062341690063477,-1.6502524614334106,-1.9434677362442017
1779989229645054500,13.230054443359375,-2.059837579727173,-1.8205311298370361,-1.762804388999939
1779989229661387300,13.24638720703125,-2.1322250366210938,-1.6809484958648682,-1.6627751588821411
1779989229677715700,13.2627158203125,-2.0117318630218506,-1.6565138101577759,-1.6435329914093018
1779989229694056200,13.27905615234375,-1.8759671449661255,-1.5288430452346802,-1.5833626985549927
1779989229710383900,13.2953837890625,-1.5661057233810425,-1.3724614381790161,-1.49906325340271
1779989229726717200,13.31171728515625,-1.094059705734253,-1.4530956745147705,-1.3271046876907349
1779989229743056600,13.328056640625,-0.8455902338027954,-1.2055425643920898,-0.8665123581886292
1779989229759384300,13.34438427734375,-0.5639813542366028,-1.1459832191467285,-0.41111230850219727
1779989229775718700,13.36071875,-0.50335294008255,-0.9863946437835693,0.05451972410082817
1779989229792056600,13.377056640625,-0.182648703455925,-0.8597928285598755,0.45142942667007446
1779989229808382700,13.3933828125,0.1791362315416336,-0.512210488319397,0.8193230032920837
1779989229824706600,13.40970654296875,0.47479501366615295,-0.1514945775270462,1.0873401165008545
1779989229841051400,13.426051513671876,0.641255795955658,0.10506882518529892,1.2034045457839966
1779989229857384700,13.442384765625,0.6988298296928406,0.45921793580055237,1.233642339706421
1779989229873717000,13.458717041015625,0.5558874011039734,0.8953757286071777,1.4466816186904907
1779989229890056000,13.475055908203124,0.08261952549219131,0.8177958726882935,0.8856018781661987
1779989229906373400,13.491373291015625,0.010079276748001575,0.46792277693748474,0.7336491346359253
1779989229922718700,13.50771875,0.6243042945861816,0.18310685455799103,1.4480561017990112
1779989229939055400,13.524055419921876,0.5056437253952026,-0.6374378800392151,1.3643674850463867
1779989229955385000,13.540385009765625,0.403323769569397,0.15790866315364838,1.2614367008209229
1779989229971717600,13.556717529296876,0.3413209617137909,1.0169379711151123,1.9593502283096313
1779989229988046600,13.573046630859375,0.551916778087616,1.265865445137024,2.2682952880859375
1779989230004387800,13.589387939453125,1.1681270599365234,1.5615242719650269,1.9814941883087158
1779989230020715000,13.605715087890625,1.6699528694152832,1.4257594347000122,1.5105170011520386
1779989230037057800,13.622057861328125,1.6870571374893188,0.6423248052597046,1.202946424484253
1779989230053384400,13.638384521484374,1.5305228233337402,-0.04993823543190956,1.0030407905578613
1779989230069705200,13.654705322265626,1.3426817655563354,-0.2744311988353729,1.0447323322296143
1779989230086056400,13.671056396484374,1.2136365175247192,-0.34895676374435425,1.192256212234497
1779989230102383400,13.68738330078125,1.115287184715271,-0.40775254368782043,1.299310326576233
1779989230118716000,13.7037158203125,0.8972083330154419,-0.1319468915462494,1.3810136318206787
1779989230135058400,13.720058349609374,0.6730207800865173,0.08796459436416626,1.5041029453277588
1779989230151378400,13.73637841796875,0.5607742667198181,0.2587014436721802,1.5567901134490967
1779989230167719000,13.752718994140626,0.58062744140625,0.17287486791610718,1.4691308736801147
1779989230184053500,13.769053466796874,0.6846272349357605,-0.03588833287358284,1.2524265050888062
1779989230200387000,13.785386962890625,0.6876815557479858,-0.25961771607398987,1.0514518022537231
1779989230216718800,13.80171875,0.5309945940971375,-0.32986724376678467,0.9202684760093689
1779989230233041200,13.818041259765625,0.30543261766433716,-0.08735372871160507,0.8677340745925903
1779989230249384200,13.83438427734375,0.24159720540046692,-0.0429132841527462,0.7716755270957947
1779989230265718300,13.85071826171875,0.2922990322113037,0.005803219974040985,0.6482807397842407
1779989230282052600,13.867052490234375,0.4781547784805298,0.3677408695220947,0.5528330206871033
1779989230298389200,13.88338916015625,0.5477933883666992,0.7806857824325562,0.4349360466003418
1779989230314717200,13.89971728515625,0.5148066878318787,1.0639744997024536,0.41111230850219727
1779989230331055900,13.916055908203125,0.5100724697113037,1.1511754989624023,0.4688390791416168
1779989230347383600,13.932383544921874,0.5458080768585205,0.9202684760093689,0.45814892649650574
1779989230363720400,13.948720458984376,0.6296493411064148,0.5148066878318787,0.39324450492858887
1779989230380055600,13.9650556640625,0.8048149347305298,0.13866640627384186,0.4129449129104614
1779989230396389000,13.98138916015625,0.9712757468223572,-0.15882496535778046,0.44028112292289734
1779989230412715500,13.997715576171874,0.9886853694915771,-0.23090706765651703,0.521984338760376
1779989230429051600,14.0140517578125,0.8808676600456238,-0.38698312640190125,0.6275113224983215
1779989230445384700,14.030384765625,0.6459900140762329,-0.3214678466320038,0.6911939978599548
1779989230461721300,14.046721435546875,0.37308594584465027,-0.5213735103607178,0.6979135274887085
1779989230478050000,14.063050048828124,0.18295414745807648,-0.29626965522766113,0.6090326309204102
1779989230494386400,14.079386474609375,0.44089198112487793,0.2692388594150543,0.3341432809829712
1779989230510718500,14.095718505859375,0.5923865437507629,0.23579397797584534,0.03298672288656235
1779989230527054300,14.112054443359375,0.33475416898727417,-0.1921171247959137,-0.023365596309304237
1779989230543384300,14.12838427734375,0.04199698567390442,-0.6073527932167053,-0.27809640765190125
1779989230559729200,14.144729248046875,0.04199698567390442,-0.5369505286216736,-1.0279334783554077
1779989230576055600,14.1610556640625,-0.17760907113552094,0.31551191210746765,-1.6329954862594604
1779989230592383500,14.177383544921875,-0.631481945514679,0.9361509680747986,-1.8816176652908325
1779989230608718300,14.19371826171875,-1.17240309715271,1.2111930847167969,-1.9624046087265015
1779989230625054700,14.2100546875,-1.5470162630081177,1.1583532094955444,-2.1036672592163086
1779989230641385000,14.226385009765625,-1.5766432285308838,0.8448266386985779,-2.3994786739349365
1779989230657718300,14.24271826171875,-1.4219415187835693,0.8535314798355103,-2.5358543395996094
1779989230674051000,14.259051025390624,-1.2454015016555786,0.898124635219574,-2.4074199199676514
1779989230690386000,14.275385986328125,-1.1418598890304565,0.5926920175552368,-2.116189956665039
1779989230706717000,14.291717041015625,-1.1084150075912476,0.33307427167892456,-1.7930421829223633
1779989230723055000,14.30805517578125,-1.1459832191467285,0.5575672388076782,-1.3258830308914185
1779989230739384300,14.32438427734375,-1.3536773920059204,0.5048801302909851,-1.1702650785446167
1779989230755719000,14.340718994140625,-1.662469744682312,0.22663100063800812,-1.2933543920516968
1779989230772054300,14.35705419921875,-1.9004018306732178,0.059406645596027374,-1.435227870941162
1779989230788383200,14.37338330078125,-2.143831491470337,-0.21319197118282318,-1.6336064338684082
1779989230804718600,14.389718505859374,-2.174833059310913,-0.641255795955658,-1.7872389554977417
1779989230821039400,14.406039306640626,-2.1981985569000244,-1.3190107345581055,-1.8298468589782715
1779989230837385700,14.4223857421875,-2.1671972274780273,-1.8008307218551636,-1.8208365440368652
1779989230853718800,14.43871875,-2.110081195831299,-2.045787811279297,-1.7791450023651123
1779989230870050300,14.45505029296875,-2.157728672027588,-1.9014707803726196,-1.5199854373931885
1779989230886391000,14.47139111328125,-2.0780107975006104,-1.9801197052001953,-1.4767667055130005
1779989230902718700,14.48771875,-1.681712031364441,-1.4509576559066772,-1.1007791757583618
1779989230919051000,14.504051025390625,-1.2605204582214355,-1.1688905954360962,-0.671493649482727
1779989230935385600,14.520385498046876,-0.9427177906036377,-1.1131491661071777,-0.1362229436635971
1779989230951719400,14.536719482421875,-0.6149885654449463,-1.0404561758041382,0.5158756971359253
1779989230968054300,14.55305419921875,-0.26908615231513977,-0.7400632500648499,1.0535898208618164
1779989230984374500,14.56937451171875,0.1699732542037964,-0.2454151064157486,1.3979650735855103
1779989231000718300,14.58571826171875,0.5904012322425842,0.2382374405860901,1.5315918922424316
1779989231017054200,14.60205419921875,0.9271407127380371,0.7186829447746277,1.476919412612915
1779989231033386200,14.61838623046875,1.0636690855026245,1.2814425230026245,1.4286611080169678
1779989231049728000,14.63472802734375,0.6467535495758057,1.6197092533111572,1.3800972700119019
1779989231066055200,14.65105517578125,-0.48655417561531067,0.9222537875175476,0.9787588119506836
1779989231082385400,14.667385498046874,-0.25045475363731384,0.9969320893287659,1.253800868988037
1779989231098719500,14.683719482421875,0.07987063378095627,-0.944855809211731,1.0286970138549805
1779989231115052800,14.700052734375,0.11194105446338654,-1.1820242404937744,0.5337435007095337
1779989231131387100,14.71638720703125,0.049785517156124115,0.6757696866989136,1.5288430452346802
1779989231147715000,14.732715087890625,0.24846944212913513,0.523511528968811,2.352900266647339
1779989231164054500,14.749054443359375,0.9709703326225281,1.2544118165969849,2.231032609939575
1779989231180382200,14.76538232421875,1.7008016109466553,1.7105754613876343,1.5884023904800415
1779989231196723200,14.78172314453125,1.9405661821365356,1.180649757385254,1.3794864416122437
1779989231213041000,14.798041015625,1.7912095785140991,0.6186537742614746,1.2400563955307007
1779989231229386000,14.814385986328125,1.6394095420837402,0.04993823543190956,1.2472341060638428
1779989231245716000,14.830716064453124,1.568701982498169,-0.35643985867500305,1.359480619430542
1779989231262060800,14.847060791015625,1.5549575090408325,-0.569631814956665,1.5279266834259033
1779989231278383900,14.8633837890625,1.4732542037963867,-0.379652738571167,1.6128369569778442
1779989231294719500,14.879719482421875,1.2473868131637573,-0.37491855025291443,1.5581644773483276
1779989231311051000,14.896051025390625,0.9224064946174622,-0.3361285924911499,1.53525710105896
1779989231327386000,14.91238623046875,0.632398247718811,-0.12767083942890167,1.4804319143295288
1779989231343707100,14.92870703125,0.5238169431686401,-0.07498370856046677,1.3490959405899048
1779989231360052000,14.945052001953124,0.518471896648407,-0.09728029370307922,1.171334147453308
1779989231376409300,14.961409423828124,0.41233405470848083,-0.26832255721092224,0.9663888216018677
1779989231392721700,14.9777216796875,0.2967278063297272,-0.3888157308101654,0.7619016766548157
1779989231409056000,14.994055908203125,0.24938572943210602,-0.21930062770843506,0.6640105247497559
1779989231425384000,15.010384033203126,0.3066543638706207,0.10674870014190674,0.508087158203125
1779989231441720600,15.026720458984375,0.3608686327934265,0.45784351229667664,0.3000875413417816
1779989231458055000,15.043054931640626,0.2791654169559479,1.0346530675888062,0.1238529309630394
1779989231474387500,15.059387451171874,0.11728613078594208,1.442100167274475,0.06979135423898697
1779989231490720000,15.075719970703124,0.003359758760780096,1.3341296911239624,0.05406157299876213
1779989231507054300,15.092054443359375,0.08857546001672745,1.0746647119522095,0.059406645596027374
1779989231523387000,15.108386962890625,0.2730567753314972,0.708450973033905,0.07925976812839508
1779989231539722200,15.12472216796875,0.49525898694992065,0.1748601794242859,0.25366178154945374
1779989231556055300,15.14105517578125,0.761443555355072,-0.09147707372903824,0.3819434940814972
1779989231572386300,15.15738623046875,0.9353874325752258,0.12171489745378494,0.6105598211288452
1779989231588718600,15.173718505859375,1.123686671257019,0.2704605758190155,0.8213083148002625
1779989231605056000,15.190055908203124,1.222494125366211,0.1739438772201538,0.9101892113685608
1779989231621373700,15.206373779296875,1.0395399332046509,-0.027030786499381065,0.9219483733177185
1779989231637720300,15.22272021484375,0.49495357275009155,-0.34697145223617554,0.8347473740577698
1779989231654058000,15.23905810546875,0.17531833052635193,0.38438695669174194,0.7212791442871094
1779989231670385400,15.255385498046875,0.5717698931694031,1.169501543045044,0.3920227587223053
1779989231686720800,15.271720703125,0.4129449129104614,0.8912523984909058,-0.10644327104091644
1779989231703051800,15.2880517578125,-0.07956519722938538,0.4885394871234894,-0.6458373069763184
1779989231719374000,15.3043740234375,-0.33887749910354614,0.35475999116897583,-1.274570345878601
1779989231735721500,15.320721435546876,-0.5931501388549805,0.5224425196647644,-1.825876235961914
1779989231752056300,15.337056396484375,-0.8544477820396423,0.7567093372344971,-2.282956123352051
1779989231768384000,15.353384033203126,-1.1957687139511108,0.9159924387931824,-2.4678955078125
1779989231784722400,15.369722412109375,-1.4847079515457153,0.8907942175865173,-2.3012821674346924
1779989231801053400,15.386053466796875,-1.648267149925232,1.333213448524475,-2.16628098487854
1779989231817387000,15.402386962890626,-1.6455183029174805,1.657124638557434,-2.1064159870147705
1779989231833719300,15.41871923828125,-1.6125315427780151,1.26067316532135,-1.9283488988876343
1779989231850055700,15.4350556640625,-1.5838208198547363,0.6864598393440247,-1.6882787942886353
1779989231866405600,15.451405517578126,-1.6852245330810547,0.08918632566928864,-1.7415767908096313
1779989231882711600,15.467711669921876,-1.744478464126587,-0.5279402732849121,-2.0778582096099854
1779989231899055900,15.484055908203125,-1.727832317352295,-0.722959041595459,-2.411695957183838
1779989231915387600,15.5003876953125,-1.7359262704849243,-0.7487680912017822,-2.657111167907715
1779989231931722000,15.516721923828126,-1.9639317989349365,-0.8625417351722717,-2.6424503326416016
1779989231948055800,15.533055908203124,-2.1236729621887207,-1.2524265050888062,-2.7290403842926025
1779989231964386600,15.549386474609374,-2.0780107975006104,-1.8516852855682373,-2.7455339431762695
1779989231980707800,15.565707763671876,-2.277458429336548,-1.3912456035614014,-2.5030202865600586
1779989231997056300,15.58205615234375,-2.4572055339813232,-0.8113817572593689,-2.428800106048584
1779989232013386200,15.59838623046875,-2.163684606552124,-1.368949055671692,-2.534327268600464
1779989232029733000,15.614733154296875,-1.7092009782791138,-1.7771596908569336,-2.4181101322174072
1779989232046042600,15.631042724609374,-1.4301882982254028,-1.8694003820419312,-2.0146336555480957
1779989232062388200,15.64738818359375,-1.1717922687530518,-1.9011653661727905,-1.6420058012008667
1779989232078721500,15.663721435546876,-0.940732479095459,-1.7737998962402344,-1.0807733535766602
1779989232095056600,15.680056640625,-0.6878342628479004,-1.6850718259811401,-0.27840182185173035
1779989232111388200,15.69638818359375,-0.4697553813457489,-1.585500717163086,0.5267185568809509
1779989232127718100,15.71271826171875,-0.38469240069389343,-1.016479730606079,1.0888673067092896
1779989232144047000,15.729047119140626,-0.30054569244384766,-0.3243694305419922,1.1148290634155273
1779989232160388600,15.745388671875,-0.17027868330478668,-0.47907108068466187,1.021519422531128
1779989232176723500,15.761723388671875,-0.10659598559141159,-1.107040524482727,1.1281154155731201
1779989232193059600,15.7780595703125,-0.2047925740480423,-1.3249666690826416,1.2760975360870361
1779989232209386200,15.79438623046875,-0.5838344693183899,-0.3911064863204956,0.9111055135726929
1779989232225722000,15.81072216796875,-0.6470590233802795,0.7186829447746277,-0.05253441259264946
1779989232242054700,15.8270546875,-0.14065171778202057,-1.3451253175735474,-0.07498370856046677
1779989232258389000,15.843388916015625,0.02871066704392433,-1.775479793548584,0.5251913666725159
1779989232274720500,15.859720458984375,-0.006872233934700489,-1.6655241250991821,1.2350168228149414
1779989232291056600,15.876056640625,0.22999076545238495,-0.3880521357059479,1.504713773727417
1779989232307388400,15.892388427734375,0.07590000331401825,0.8700248003005981,1.9576704502105713
1779989232323723500,15.9087236328125,0.46639561653137207,1.7328720092773438,1.8277088403701782
1779989232340051500,15.925051513671875,0.9427177906036377,2.1484131813049316,1.5150985717773438
1779989232356410600,15.94141064453125,1.228297233581543,1.9883663654327393,1.7788395881652832
1779989232372722700,15.95772265625,1.2438743114471436,1.952478051185608,2.0260872840881348
1779989232389057800,15.974057861328125,1.169806957244873,2.4077253341674805,2.2427916526794434
1779989232405387800,15.9903876953125,1.1815661191940308,2.962085485458374,2.4573581218719482
1779989232421722600,16.00672265625,1.298241376876831,3.0608930587768555,2.5382978916168213
1779989232438057700,16.0230576171875,1.5653421878814697,2.8686232566833496,2.6004533767700195
1779989232454390500,16.039390625,1.7348573207855225,2.6818511486053467,2.5590672492980957
1779989232470721000,16.055720947265623,1.9020816087722778,2.464841365814209,2.400242328643799
1779989232487058000,16.072057861328126,1.9943222999572754,1.903914213180542,2.2815816402435303
1779989232503389700,16.0883896484375,1.9511035680770874,1.434617042541504,2.204918146133423
1779989232519723800,16.104723876953123,1.733788251876831,1.1627819538116455,2.119396924972534
1779989232536044500,16.12104443359375,1.3862059116363525,1.0332785844802856,1.9567540884017944
1779989232552393000,16.13739306640625,1.0832167863845825,0.8200865983963013,1.648267149925232
1779989232568723500,16.153723388671875,0.8845328688621521,0.5868887901306152,1.394299864768982
1779989232585059000,16.17005908203125,0.7305948138237,0.41233405470848083,1.235169529914856
1779989232601389800,16.186389892578124,0.7309002876281738,0.46181413531303406,1.0723739862442017
1779989232617723100,16.20272314453125,0.9729556441307068,0.05513058975338936,0.8920159935951233
1779989232634059500,16.2190595703125,1.045495867729187,-0.6204863786697388,0.9254608750343323
1779989232650389500,16.235389404296875,0.8425359129905701,-0.8611672520637512,1.207375168800354
1779989232666724400,16.251724365234374,0.6123924255371094,-0.4596760869026184,1.4173600673675537
1779989232683055400,16.268055419921875,0.456163614988327,0.14446963369846344,1.362687587738037
1779989232699390200,16.28439013671875,0.6126978397369385,0.32757648825645447,1.183704137802124
1779989232715724300,16.300724365234377,0.7828238010406494,0.28038713335990906,1.0445796251296997
1779989232732059400,16.317059326171876,0.9233227968215942,0.1417207419872284,0.9213374853134155
1779989232748387000,16.333386962890625,1.0656543970108032,-0.036651913076639175,0.7539604306221008
1779989232764726500,16.3497265625,1.1782063245773315,0.003359758760780096,0.6136141419410706
1779989232781059000,16.36605908203125,1.1840095520019531,0.21365012228488922,0.6241515874862671
1779989232797390800,16.382390869140625,1.1345294713974,0.2935207486152649,0.7021896243095398
1779989232813724400,16.398724365234376,1.0112874507904053,0.23457226157188416,0.6905831694602966
1779989232830059500,16.4150595703125,0.7423539757728577,0.3926336467266083,0.5189300179481506
1779989232846396000,16.43139599609375,0.5091561675071716,0.6530149579048157,0.3065016269683838
1779989232862721300,16.44772119140625,0.2727513313293457,0.922711968421936,0.32009339332580566
1779989232879062800,16.464062744140627,0.020311269909143448,1.1084150075912476,0.361174076795578
1779989232895391000,16.480390869140624,-0.11392636597156525,1.2915217876434326,0.1336267739534378
1779989232911723800,16.496723876953126,-0.12217304855585098,1.4521794319152832,-0.08216137439012527
1779989232928059600,16.5130595703125,-0.0861319974064827,1.1275044679641724,-0.1846340149641037
1779989232944391400,16.529391357421876,-0.16249015927314758,0.49144110083580017,-0.10812314599752426
1779989232960722700,16.54572265625,-0.33200526237487793,0.0685696229338646,-0.23411411046981812
1779989232977059300,16.562059326171877,-0.7043276429176331,-0.31383201479911804,-0.5177083015441895
1779989232993392000,16.57839208984375,-1.2304353713989258,-0.6001750826835632,-0.811687171459198
1779989233009728500,16.594728515625,-1.6010777950286865,-0.7367035150527954,-1.3019065856933594
1779989233026059300,16.611059326171876,-1.7495180368423462,-0.9135489463806152,-1.8881844282150269
1779989233042391000,16.62739111328125,-1.8364136219024658,-0.711963415145874,-2.384359836578369
1779989233058725600,16.6437255859375,-1.9449949264526367,-0.1837177276611328,-2.621528148651123
1779989233075061200,16.660061279296876,-1.8975001573562622,-0.036193765699863434,-2.4469735622406006
1779989233091390500,16.676390380859374,-1.7073683738708496,-0.012064588256180286,-2.1621575355529785
1779989233107726000,16.69272607421875,-1.52273428440094,0.27718010544776917,-2.1030564308166504
1779989233124060200,16.70906005859375,-1.4653129577636719,0.21410827338695526,-2.373516798019409
1779989233140392400,16.725392333984374,-1.5978707075119019,0.08857546001672745,-2.5720481872558594
1779989233156725800,16.741725830078124,-1.6279559135437012,0.34208452701568604,-2.4891231060028076
1779989233173058800,16.758058837890626,-1.3542882204055786,0.6137668490409851,-2.1114556789398193
1779989233189392600,16.774392578125,-1.2409727573394775,0.30054569244384766,-1.4306464195251465
1779989233205726500,16.7907265625,-1.4460707902908325,0.07192938029766083,-1.0325149297714233
1779989233222060300,16.807060302734374,-1.7802140712738037,-0.5716171264648438,-0.936609148979187
1779989233238388700,16.823388671875,-1.8203784227371216,-1.0505355596542358,-0.9117164015769958
1779989233254731300,16.839731201171876,-1.7429512739181519,-1.3115277290344238,-0.8723155856132507
1779989233271060200,16.856060302734374,-1.6552921533584595,-1.5207489728927612,-0.7797694802284241
1779989233287392000,16.87239208984375,-1.5066990852355957,-1.626123309135437,-0.6490443348884583
1779989233303726000,16.88872607421875,-1.3350459337234497,-1.6756033897399902,-0.44577890634536743
1779989233320057600,16.9050576171875,-1.1533136367797852,-1.6733126640319824,-0.20112738013267517
1779989233336383000,16.921383056640625,-0.8894197940826416,-1.5442672967910767,0.035124752670526505
1779989233352729600,16.9377294921875,-0.5813909769058228,-1.259145975112915,0.2672535479068756
1779989233369062100,16.954062255859377,-0.20830504596233368,-0.9731083512306213,0.5120577812194824
1779989233385393700,16.9703935546875,0.2025018334388733,-0.8455902338027954,0.7776314616203308
1779989233401727200,16.986727294921874,0.6572909951210022,-0.8752171993255615,1.1684324741363525
1779989233418061600,17.0030615234375,1.0922271013259888,-1.1563678979873657,1.6949983835220337
1779989233434393900,17.019393798828126,1.4161384105682373,-1.5066990852355957,1.8996381759643555
1779989233450727400,17.0357275390625,1.38849675655365,-1.315040111541748,1.0042624473571777
1779989233467061800,17.052061767578124,0.4300491213798523,-0.6282749176025391,0.08139779418706894
1779989233483394300,17.068394287109374,-0.9237809777259827,-0.9460775256156921,-0.7186829447746277
1779989233499729000,17.08472900390625,-1.324508547782898,-1.5763378143310547,-0.8726209998130798
1779989233516061700,17.101061767578123,-1.0658071041107178,-1.058171272277832,-0.7605272531509399
1779989233532394200,17.117394287109374,-0.598953366279602,-0.7041749358177185,-0.47830748558044434
1779989233548728000,17.13372802734375,-0.004428773187100887,0.003054326167330146,0.542142927646637
1779989233565063400,17.1500634765625,-0.10094548016786575,-0.044745877385139465,1.2890783548355103
1779989233581394700,17.166394775390625,-0.6757696866989136,0.41752639412879944,1.0885618925094604
1779989233597728300,17.182728271484375,-0.8017606139183044,1.6768250465393066,0.5335907936096191
1779989233614062000,17.19906201171875,-0.880104124546051,1.0355693101882935,0.4499022662639618
1779989233630395600,17.215395751953125,-0.2597704529762268,0.1511891484260559,0.3448334336280823
1779989233646729000,17.23172900390625,0.33857205510139465,0.6061310172080994,0.5593998432159424
1779989233663062800,17.248062744140626,0.8607091307640076,1.7234035730361938,1.0612256526947021
1779989233679395000,17.26439501953125,1.5749633312225342,2.682767391204834,1.4016302824020386
1779989233695730000,17.28072998046875,2.250427484512329,1.6016886234283447,1.3183999061584473
1779989233712066300,17.29706640625,2.6810874938964844,0.14584407210350037,1.3698652982711792
1779989233728394000,17.31339404296875,2.9433014392852783,-0.5491678714752197,1.5121968984603882
1779989233744731600,17.329731689453126,2.7954721450805664,-0.35659259557724,1.8530597686767578
1779989233761063200,17.346063232421876,2.0056233406066895,-0.3352122902870178,2.0141754150390625
1779989233777396000,17.36239599609375,0.9611964821815491,0.2715296149253845,1.614822268486023
1779989233793729300,17.378729248046874,0.5296201705932617,0.8136724829673767,1.3246612548828125
1779989233810061600,17.3950615234375,0.3784310221672058,0.8976664543151855,1.5906931161880493
1779989233826410800,17.41141064453125,0.26251932978630066,0.47021353244781494,1.7534886598587036
1779989233842729500,17.4277294921875,0.3500257730484009,0.2402227520942688,1.5981762409210205
1779989233859063000,17.44406298828125,0.5807801485061646,0.3683517575263977,1.3295482397079468
1779989233875374600,17.46037451171875,0.769079327583313,0.28725937008857727,1.1520918607711792
1779989233891731200,17.476731201171877,0.9489791393280029,0.07208210229873657,0.9807441234588623
1779989233908063500,17.4930634765625,0.8086328506469727,0.3338378667831421,0.8055785298347473
1779989233924396800,17.509396728515625,0.6655376553535461,0.774118959903717,0.6925684809684753
1779989233940728600,17.525728515625,0.5757405161857605,0.9717338681221008,0.6734789609909058
1779989233957064200,17.542064208984375,0.6166684627532959,1.1409435272216797,0.650418758392334
1779989233973397800,17.558397705078125,0.7432702779769897,1.061989188194275,0.5642867684364319
1779989233989727500,17.5747275390625,0.8278751373291016,1.1030699014663696,0.39156460762023926
1779989234006063400,17.5910634765625,0.7064656615257263,0.9860892295837402,0.13148874044418335
1779989234022401800,17.60740185546875,0.42791110277175903,0.6673702597618103,0.044745877385139465
1779989234038713000,17.623713134765627,0.15103642642498016,0.6244570016860962,0.19608774781227112
1779989234055063800,17.640063720703125,-0.13179416954517365,0.537408709526062,0.21074850857257843
1779989234071393300,17.656393310546875,-0.10766500234603882,0.40393465757369995,0.08765916526317596
1779989234087747600,17.67274755859375,-0.005497787147760391,0.3179553747177124,-0.0027488935738801956
1779989234104064300,17.689064208984377,-0.08002334833145142,-0.13118331134319305,-0.08048149943351746
1779989234120398000,17.705398193359375,-0.3810271918773651,-0.39477166533470154,-0.11927144229412079
1779989234136732000,17.72173193359375,-0.8200865983963013,-0.28557950258255005,-0.29535335302352905
1779989234153062000,17.738061767578124,-1.1439979076385498,-0.2926044464111328,-0.8292495608329773
1779989234169400300,17.754400390625,-1.4911220073699951,-0.3735440969467163,-1.1951578855514526
1779989234185731600,17.770731689453125,-1.6577355861663818,-0.561079740524292,-1.8787161111831665
1779989234202065400,17.7870654296875,-1.796249270439148,-0.41370847821235657,-2.6175575256347656
1779989234218399500,17.8033994140625,-1.9062049388885498,0.06169738993048668,-2.828458786010742
1779989234234729200,17.819729248046876,-1.896889328956604,-0.009773843921720982,-2.77531361579895
1779989234251068000,17.83606787109375,-1.6740761995315552,-0.33337971568107605,-2.484999895095825
1779989234267399400,17.8523994140625,-1.415680170059204,-0.33948835730552673,-2.339461088180542
1779989234283734000,17.868734130859377,-1.1426234245300293,-0.1085812970995903,-2.507449150085449
1779989234300065000,17.88506494140625,-1.0661125183105469,0.24678955972194672,-2.5676193237304688
1779989234316410600,17.90141064453125,-1.1297953128814697,0.8043568134307861,-2.359314203262329
1779989234332729600,17.9177294921875,-1.185231328010559,0.8275696635246277,-1.9533942937850952
1779989234349066200,17.934066162109374,-1.3956743478775024,0.3013092875480652,-1.5511395931243896
1779989234365400000,17.950400146484377,-1.5619823932647705,0.04459316283464432,-1.2724323272705078
1779989234381733400,17.9667333984375,-1.4553864002227783,-0.1267545372247696,-1.048092007637024
1779989234398065400,17.9830654296875,-1.4524848461151123,-0.41523563861846924,-0.8319984674453735
1779989234414401800,17.99940185546875,-1.5207489728927612,-0.5100724697113037,-0.6304129362106323
1779989234430730800,18.015730712890626,-1.5178474187850952,-0.5972734689712524,-0.42210787534713745
1779989234447069000,18.03206884765625,-1.4271339178085327,-0.7064656615257263,-0.21151208877563477
1779989234463401200,18.048401123046876,-1.2327260971069336,-0.8484918475151062,0.004886921960860491
1779989234479735600,18.064735595703127,-0.941343367099762,-1.031598687171936,0.23426681756973267
1779989234496066600,18.081066650390625,-0.5600107312202454,-1.0780243873596191,0.4352414906024933
1779989234512399600,18.097399658203123,-0.1921171247959137,-1.1433870792388916,0.6562219858169556
1779989234528735200,18.1137353515625,0.22617286443710327,-0.9369145631790161,0.8326093554496765
1779989234545068000,18.130068115234376,0.6217080950737,-0.7461718916893005,1.108262300491333
1779989234561401600,18.146401611328123,0.9149234294891357,-0.6921103000640869,1.588249683380127
1779989234577735000,18.16273486328125,1.0864238739013672,-0.7073819637298584,1.872912883758545
1779989234594067700,18.179067626953124,1.0726794004440308,-1.0085384845733643,1.3057245016098022
1779989234610390000,18.19539013671875,0.73685622215271,-1.246165156364441,0.5390886068344116
1779989234626742500,18.211742431640626,-0.19532416760921478,-0.4879286289215088,0.08506298810243607
1779989234643064800,18.22806494140625,-0.7974845767021179,-0.25442537665367126,-0.32528573274612427
1779989234659405600,18.244405517578127,-0.8859072923660278,0.019547687843441963,-0.2551889419555664
1779989234675736600,18.260736572265625,-0.3556762933731079,0.7585419416427612,-0.07437284290790558
1779989234692070400,18.2770703125,0.14844025671482086,1.1212431192398071,-0.20723603665828705
1779989234708390400,18.293390380859375,-0.05207626149058342,1.3141238689422607,0.2695443034172058
1779989234724739000,18.309739013671877,-0.38087448477745056,2.037999153137207,0.6632469296455383
1779989234741069600,18.326069580078126,-0.14523321390151978,1.5158621072769165,0.5798638463020325
1779989234757403100,18.342403076171873,0.40714168548583984,1.153160810470581,0.3055853247642517
1779989234773724000,18.358723876953125,1.045495867729187,0.1992947906255722,0.05390885844826698
1779989234790069000,18.375069091796874,1.5383113622665405,-0.34162637591362,0.047800205647945404
1779989234806409500,18.391409423828126,1.980883240699768,-0.6542366743087769,0.5884159207344055
1779989234822737400,18.4077373046875,2.1116085052490234,-1.542281985282898,1.2189816236495972
1779989234839069000,18.42406884765625,1.8380935192108154,-0.8759807348251343,1.5193746089935303
1779989234855391700,18.440391845703125,0.9854783415794373,0.801913321018219,1.3868168592453003
1779989234871725300,18.456725341796876,0.2562579810619354,-0.06215553730726242,1.4019356966018677
1779989234888070100,18.473070068359377,-0.10506882518529892,-0.16050484776496887,1.5606080293655396
1779989234904403500,18.489403564453124,0.018936822190880775,0.4763221740722656,1.7230981588363647
1779989234920738000,18.505738037109374,0.28206703066825867,0.5384777188301086,1.563356876373291
1779989234937071400,18.5220712890625,0.43967026472091675,0.21838432550430298,1.4465289115905762
1779989234953405400,18.538405517578123,0.5917757153511047,0.2028072625398636,1.2515101432800293
1779989234969739000,18.554739013671874,0.8753699064254761,0.34834590554237366,1.041372537612915
1779989234986070800,18.57107080078125,0.9995282292366028,0.46960264444351196,0.8878926634788513
1779989235002406700,18.58740673828125,0.9648616313934326,0.5305364727973938,0.722348153591156
1779989235018726400,18.603726318359374,0.803440511226654,0.7554876208305359,0.6125451326370239
1779989235035071700,18.62007177734375,0.7014260292053223,0.8506298661231995,0.6339253783226013
1779989235051405000,18.636405029296874,0.7009678483009338,0.8448266386985779,0.6424775123596191
1779989235067742500,18.652742431640625,0.7191411256790161,0.7796167731285095,0.6221662759780884
1779989235084070100,18.669070068359375,0.7389942407608032,0.5300782918930054,0.7127270102500916
1779989235100406800,18.68540673828125,0.7672467231750488,0.24755313992500305,0.8356636762619019
1779989235116742100,18.7017421875,0.7967209815979004,0.06933320313692093,0.7476990818977356
1779989235133073700,18.71807373046875,0.7336491346359253,0.1258382350206375,0.41401392221450806
1779989235149407000,18.734406982421874,0.5870414972305298,0.41951170563697815,0.14126259088516235
1779989235165741000,18.750740966796876,0.4740314185619354,0.6233879923820496,0.002138028386980295
1779989235182075600,18.76707568359375,0.34758231043815613,0.7980954647064209,-0.06643159687519073
1779989235198402000,18.783402099609376,0.1469130963087082,0.5653557777404785,-0.16371189057826996
1779989235214741200,18.7997412109375,-0.0607810914516449,0.10308351367712021,-0.11560624837875366
1779989235231070200,18.8160703125,-0.11453723162412643,0.2054034322500229,-0.43508878350257874
1779989235247411500,18.832411376953125,-0.451123982667923,0.4645630121231079,-0.8245153427124023
1779989235263743000,18.848742919921875,-0.8258898258209229,0.48976120352745056,-1.4271339178085327
1779989235280074000,18.865073974609373,-1.2457069158554077,0.5751296281814575,-2.0916025638580322
1779989235296408600,18.88140869140625,-1.6659822463989258,0.7974845767021179,-2.5780041217803955
1779989235312742400,18.897742431640626,-1.940413475036621,0.6818783283233643,-2.5618162155151367
1779989235329075500,18.914075439453125,-1.922087550163269,0.25931230187416077,-2.213470220565796
1779989235345409300,18.9304091796875,-1.795332908630371,0.26740625500679016,-2.213928461074829
1779989235361742600,18.94674267578125,-1.6528486013412476,0.8038986921310425,-2.417804718017578
1779989235378075100,18.9630751953125,-1.47844660282135,1.2246321439743042,-2.3104450702667236
1779989235394411000,18.979410888671875,-1.4804319143295288,0.8335255980491638,-1.9734001159667969
1779989235410741500,18.995741455078125,-1.5894713401794434,-0.10399980843067169,-1.595274567604065
1779989235427075800,19.012075927734376,-1.6937766075134277,-0.5830708742141724,-1.457371711730957
1779989235443410000,19.028409912109375,-1.8498526811599731,-0.4853324294090271,-1.6584991216659546
1779989235459745300,19.044745361328125,-1.9381227493286133,-0.43737950921058655,-1.9782871007919312
1779989235476076300,19.061076171875,-2.0282254219055176,-0.6991352438926697,-2.0954205989837646
1779989235492405800,19.07740576171875,-2.105194330215454,-1.317789077758789,-2.149634838104248
1779989235508748300,19.093748291015626,-2.143373489379883,-1.7093536853790283,-2.057546854019165
1779989235525077500,19.110077392578123,-2.2070560455322266,-1.8689422607421875,-1.8127425909042358
1779989235541409800,19.126409912109374,-2.130239725112915,-1.9104810953140259,-1.517236590385437
1779989235557745200,19.1427451171875,-1.8692476749420166,-1.9379700422286987,-1.2486085891723633
1779989235574077000,19.159076904296874,-1.3868168592453003,-1.9541579484939575,-0.967915952205658
1779989235590412800,19.175412841796874,-0.8462010622024536,-1.7941112518310547,-0.5769622325897217
1779989235606733300,19.1917333984375,-0.38026362657546997,-1.8028160333633423,-0.13500121235847473
1779989235623078000,19.208077880859374,0.025656340643763542,-1.704161286354065,0.39843684434890747
1779989235639412700,19.224412841796877,0.3196352422237396,-1.3730723857879639,0.926224410533905
1779989235655745800,19.240745849609375,0.5650503635406494,-0.6948592066764832,1.3168727159500122
1779989235672082000,19.25708203125,0.6918048858642578,-0.036651913076639175,1.451874017715454
1779989235688410400,19.273410400390624,0.8119926452636719,0.5601634383201599,1.3946053981781006
1779989235704746500,19.28974658203125,0.85994553565979,1.4972307682037354,1.0768027305603027
1779989235721076700,19.30607666015625,0.4334088861942291,2.43475604057312,0.1270599663257599
1779989235737400600,19.322400634765625,0.48838675022125244,0.7330383062362671,-0.13545936346054077
1779989235753750300,19.338750244140623,0.6907358765602112,-0.1459967941045761,0.9233227968215942
1779989235770076000,19.355075927734376,0.17272214591503143,-0.3127630054950714,2.0221166610717773
1779989235786417200,19.371417236328124,0.16401731967926025,0.1264491081237793,2.0279200077056885
1779989235802748400,19.38774853515625,0.413555771112442,0.8417723178863525,2.121687650680542
1779989235819080000,19.404079833984376,0.6214026808738708,1.439045786857605,2.241722822189331
1779989235835414800,19.420414794921875,1.1592695713043213,1.4792101383209229,2.1151208877563477
1779989235851749400,19.436749267578126,1.823127269744873,0.9195048809051514,1.5468635559082031
1779989235868080600,19.45308056640625,1.807397484779358,-0.10934487730264664,1.0529789924621582
1779989235884417300,19.469417236328123,1.6508632898330688,-0.9853256344795227,0.9373727440834045
1779989235900747300,19.485747314453125,1.5781704187393188,-1.22279953956604,0.9613491892814636
1779989235917081900,19.502081787109375,1.6508632898330688,-1.4862351417541504,1.0065531730651855
1779989235933412900,19.518412841796874,1.665218710899353,-2.0198259353637695,1.0563386678695679
1779989235949749500,19.53474951171875,1.4802792072296143,-2.1592559814453125,1.1496484279632568
1779989235966084400,19.55108447265625,1.126588225364685,-1.5683965682983398,1.3075571060180664
1779989235982413600,19.56741357421875,0.7221954464912415,-0.46761733293533325,1.4338533878326416
1779989235998752800,19.583752685546877,0.48258355259895325,0.6140722632408142,1.3089314699172974
1779989236015083000,19.6000830078125,0.4132503271102905,0.9657779335975647,1.1459832191467285
1779989236031417300,19.616417236328125,0.42577308416366577,0.5254968404769897,1.0473284721374512
1779989236047748600,19.63274853515625,0.46334129571914673,-0.1875356286764145,0.860556423664093
1779989236064087000,19.649087158203123,0.37110063433647156,-0.42180246114730835,0.693637490272522
1779989236080418000,19.66541796875,0.1722639948129654,-0.24923302233219147,0.5904012322425842
1779989236096750300,19.681750244140623,0.12217304855585098,-0.040164388716220856,0.4360050559043884
1779989236113086700,19.698086669921874,0.23289237916469574,0.1339322030544281,0.23671028017997742
1779989236129427200,19.71442724609375,0.35216382145881653,0.34544429183006287,0.09437867999076843
1779989236145755400,19.73075537109375,0.4106541574001312,0.7284567952156067,0.1014036312699318
1779989236162085000,19.747085205078125,0.42302417755126953,1.238223910331726,0.24266621470451355
1779989236178419700,19.763419677734376,0.44837507605552673,1.560760736465454,0.455705463886261
1779989236194753300,19.779753173828126,0.5167919993400574,1.5632041692733765,0.6717990636825562
1779989236211085600,19.79608544921875,0.6272059082984924,1.0349584817886353,0.8323038816452026
1779989236227419600,19.812419677734376,0.7057020664215088,0.29306259751319885,0.8994990587234497
1779989236243753200,19.828753173828126,0.7145596146583557,-0.2883284091949463,0.8930850028991699
1779989236260085800,19.845085693359376,0.770301103591919,-0.38148534297943115,0.8210029006004333
1779989236276419300,19.86141943359375,0.6902777552604675,-0.289244681596756,0.6162103414535522
1779989236292754400,19.87775439453125,0.46868637204170227,-0.029474247246980667,0.39797869324684143
1779989236309087500,19.89408740234375,0.05207626149058342,0.004123340360820293,0.2165517359972
1779989236325424400,19.91042431640625,-0.168751522898674,0.48487427830696106,0.029932396486401558
1779989236341751800,19.926751708984376,-0.14294247329235077,0.2767219543457031,-0.4268420934677124
1779989236358087700,19.943087646484376,-0.4486805200576782,0.07437284290790558,-0.8371908068656921
1779989236374421800,19.959421875,-0.6427829265594482,0.1319468915462494,-1.2855658531188965
1779989236390755300,19.97575537109375,-0.6808093190193176,0.23060162365436554,-1.9628627300262451
1779989236407083300,19.992083251953126,-0.8843801617622375,1.0797042846679688,-2.445293664932251
1779989236423422700,20.008422607421874,-1.147204875946045,1.935831904411316,-2.4549148082733154
1779989236439757300,20.02475732421875,-1.3161091804504395,1.9077321290969849,-2.303267478942871
1779989236456088600,20.041088623046875,-1.4902057647705078,1.4676038026809692,-2.118480682373047
1779989236472422700,20.057422607421874,-1.75303053855896,1.1032226085662842,-1.6963727474212646
1779989236488754000,20.07375390625,-1.923767328262329,0.831234872341156,-1.1039862632751465
1779989236505083400,20.09008349609375,-2.046398639678955,0.517861008644104,-0.7258606553077698
1779989236521424000,20.106423828125,-2.0370829105377197,-0.27030786871910095,-0.8562803864479065
1779989236537756000,20.122755859375,-1.959961175918579,-0.6487388610839844,-1.4230105876922607
1779989236554090200,20.13909033203125,-1.8539760112762451,-0.6130032539367676,-1.8077030181884766
1779989236570425300,20.15542529296875,-1.9407188892364502,-0.7162395119667053,-1.7362316846847534
1779989236586758100,20.171758056640623,-2.166738986968994,-1.0268645286560059,-1.6865988969802856
1779989236603091200,20.18809130859375,-2.2204952239990234,-1.681712031364441,-1.6577355861663818
1779989236619425800,20.20442578125,-2.214233875274658,-1.9214766025543213,-1.507157325744629
1779989236635758600,20.220758544921875,-2.1543691158294678,-1.6311628818511963,-1.391703724861145
1779989236652091600,20.237091552734373,-1.9228510856628418,-1.5398385524749756,-1.3475687503814697
1779989236668419800,20.253419921875,-1.5436564683914185,-1.873218297958374,-1.2586878538131714
1779989236684762400,20.269762451171875,-1.1675162315368652,-2.1681134700775146,-1.0445796251296997
1779989236701103900,20.286103759765624,-0.8390234112739563,-2.211484909057617,-0.6507241725921631
1779989236717426700,20.3024267578125,-0.5218316316604614,-2.2954788208007812,-0.26251932978630066
1779989236733760300,20.31876025390625,-0.23365595936775208,-2.0919079780578613,0.28099802136421204
1779989236750080800,20.335080810546874,0.2177734673023224,-1.5665639638900757,0.8210029006004333
1779989236766416000,20.351415771484376,0.531758189201355,-0.6436992287635803,1.295186996459961
1779989236782761200,20.36776123046875,0.6333145499229431,0.5844452977180481,1.429577350616455
1779989236799094800,20.3840947265625,0.46822822093963623,2.4124596118927,1.3196216821670532
1779989236815427800,20.400427734375,0.09483683109283447,1.8932241201400757,0.9427177906036377
1779989236831755000,20.416755126953124,-0.027030786499381065,1.5155566930770874,1.0868819952011108
1779989236848095200,20.43309521484375,0.6009386777877808,0.004581489134579897,1.5285375118255615
1779989236864429000,20.449428955078126,0.5940664410591125,-0.949895441532135,1.2050844430923462
1779989236880760800,20.4657607421875,0.5048801302909851,0.41920626163482666,1.5369369983673096
1779989236897097500,20.482097412109376,0.5910121202468872,0.95462965965271,2.191173553466797
1779989236913419000,20.4984189453125,0.893390417098999,1.3182471990585327,2.0871739387512207
1779989236929763800,20.514763916015625,1.5387696027755737,1.4401148557662964,1.4895949363708496
1779989236946096400,20.531096435546875,1.8391625881195068,0.9083566069602966,1.1343767642974854
1779989236962434600,20.5474345703125,1.7837265729904175,0.299476683139801,0.8886561989784241
