time,seconds_elapsed,z,y,x
1778968360060636200,0.06163623046875,-4.05032694568336,0.9551587443694471,0.8655010506022721
1778968360070628000,0.071628173828125,-3.893590323573351,1.4242574345871806,0.7443953485175967
1778968360080619000,0.081618896484375,-3.6341648958832025,1.6025532698154448,0.613923486868292
1778968360090610000,0.09160986328125,-3.0963831300616262,1.445254337647557,0.29241317626293745
1778968360100602000,0.10160205078125,-2.281769459196925,1.1342802167668937,0.2605363846067339
1778968360110593000,0.111593017578125,-1.456871710205078,0.8312450721919536,0.7271012454979121
1778968360120585200,0.121585205078125,-0.6801549315363168,0.7740460981547832,1.2595339053764938
1778968360130576100,0.131576171875,-0.016973931154608726,0.88339728423357,1.6906310739800332
1778968360140568000,0.141568115234375,0.38168227257132525,1.0262611560747026,1.942836487288773
1778968360150559200,0.151559326171875,0.502868857872486,1.10203185185194,1.9172544483952223
1778968360160551200,0.16155126953125,0.3608464052915573,1.0570414942637085,1.6461824220530688
1778968360170542000,0.1715419921875,0.13187222996652126,0.9743857151478529,1.2893486134037375
1778968360180534000,0.181533935546875,0.07622340798079967,0.9987427422910928,0.9230842747166752
1778968360190525000,0.19152490234375,0.1534375805646181,1.0195549364343286,0.6307428850483149
1778968360200516000,0.20151611328125,0.4257265814810991,0.966710942736268,0.3917326880730688
1778968360210508000,0.211508056640625,0.9985814142495393,0.8739265683159232,0.2012062072271481
1778968360220499000,0.2214990234375,1.7171289125442504,0.7123387067824601,0.15019744786592198
1778968360230491100,0.2314912109375,2.294251924151182,0.45820992419570683,0.23307717193076385
1778968360240482000,0.24148193359375,2.667641000151634,0.24485037437081336,0.4488888093492016
1778968360250474200,0.25147412109375,2.993679711434245,0.38389848731607196,0.7280985859721899
1778968360260464600,0.261464599609375,3.1133763504385947,0.556042229655385,1.0337022658608854
1778968360270456600,0.27145654296875,2.8694676408320663,0.6559148087710142,1.195986292964965
1778968360280447700,0.28144775390625,2.533445880195498,0.8029781781286001,1.1736433821231127
1778968360290438700,0.291438720703125,2.317553304761648,0.8200187447786331,1.0073949814327061
1778968360300430600,0.3014306640625,2.0684774216502904,0.5106891762346029,0.7227962417803704
1778968360310421800,0.311421875,1.8835820420265197,-0.035438977649807926,0.44241563127972183
1778968360320413700,0.32141357421875,1.9038906705617904,-0.5825222403019666,0.09264913066811858
1778968360330404600,0.331404541015625,1.911224666711688,-0.47222646684944625,-0.2027993947027251
1778968360340396500,0.341396484375,2.924881485018134,1.139511395418644,-0.722506026662141
1778968360350387500,0.351387451171875,2.7964263700187204,0.09421177687495946,-0.23825455630235373
1778968360360379600,0.361379638671875,2.3777678272277116,-1.3279527770861983,0.40109292935356494
1778968360370370600,0.37137060546875,2.5229233171373604,-1.4742898779958487,1.2231162919528782
1778968360380362500,0.381362548828125,2.2034154689282177,-0.9751799342654645,1.8022595573410392
1778968360390353700,0.391353759765625,1.7524930713921785,-0.8461353289403021,1.594459833600372
1778968360400344600,0.401344482421875,1.7554226951032876,-0.6473964251421391,1.0184969518139957
1778968360410336800,0.411336669921875,1.5154764593869448,-0.5242193966761232,0.5775977164465934
1778968360420327700,0.42132763671875,0.8843295966476201,-0.6303365692697465,0.22650373009089378
1778968360430319600,0.431319580078125,-0.10697919625043868,-0.6701764122270047,-0.08789024570323527
1778968360440310800,0.441310791015625,-1.2312410000890492,-0.5125481019742787,-0.5752257266182452
1778968360450302700,0.451302734375,-1.955249686399102,-0.19072627773433923,-1.130805234132707
1778968360460293600,0.461293701171875,-2.0898989798635244,0.13996698135584593,-1.1933507568296045
1778968360470285600,0.47128564453125,-1.97899530364573,0.22142346768453716,-0.8663959536153822
1778968360480276500,0.4812763671875,-1.9286831665128468,0.04101210160702467,-0.6231226923681795
1778968360490268700,0.4912685546875,-1.6827637016057968,0.20928733194991944,-0.34703579700607806
1778968360500259600,0.501259521484375,-2.702289704206586,-0.18088102941587567,0.030220439283922314
1778968360510250500,0.51125048828125,-4.094112311396002,-0.5694526231095195,-0.19510763462372124
1778968360520242700,0.52124267578125,-4.614502212911844,-0.5073788826428354,-1.0494880101442337
1778968360530233600,0.531233642578125,-4.137732841935754,-0.1879359163634479,-2.138335678513348
1778968360540225500,0.5412255859375,-3.42118557754755,0.027519290566444397,-2.5647996343582866
1778968360550216700,0.551216796875,-3.3817636677414176,-0.10936112295091152,-2.23368931889981
1778968360560208600,0.561208740234375,-4.049862250781059,-0.1992450997546315,-1.9065305175460874
1778968360570199800,0.57119970703125,-3.1601141362160443,0.07631020948141813,-1.8598375938236713
1778968360580191500,0.58119140625,-3.148088767379522,0.4011269777536392,-1.6410551421672104
1778968360590182700,0.5911826171875,-2.917165211552381,1.4266782319933176,-0.7046746018953621
1778968360600174600,0.601174560546875,-3.5560067204475403,2.2826915424779055,-0.08290120524428785
1778968360610165500,0.61116552734375,-5.772981343650818,2.924103486382961,-0.34157311115339395
1778968360620157700,0.62115771484375,-7.095021389561891,3.1922309837058185,-0.34640652265921235
1778968360630148600,0.631148681640625,-6.830657336425781,3.0727880272015926,-0.19272592711895703
1778968360640140500,0.641140625,-4.732663312911987,2.55668120983243,-0.721555009547621
1778968360650131700,0.651131591796875,-1.3757096767783163,1.0838695876955986,-1.948734459286183
1778968360660122600,0.66112255859375,2.2278478993952273,0.15279869813919067,-2.935647793704271
1778968360670114600,0.671114501953125,4.396562641820311,0.6349009545758366,-3.760349727863073
1778968360680105700,0.681105712890625,4.176097351643443,1.0278750210121272,-3.874628141210973
1778968360690097700,0.69109765625,2.8762790744125843,1.332589789237082,-3.2082047979071735
1778968360700088600,0.701088623046875,1.9035458026468752,1.6297884827435016,-2.55238175907284
1778968360710080500,0.71108056640625,1.6903753456532955,1.9662612020179628,-2.0237825398772955
1778968360720071700,0.72107177734375,1.405600957173109,2.5054709548160434,-2.1416275596655905
1778968360730063600,0.731063720703125,0.7901841630071401,2.635632289211452,-2.227359823617339
1778968360740054500,0.741054443359375,0.6797931124866008,2.060815216459334,-1.9039355326168237
1778968360750046700,0.751046630859375,0.9796510883301496,0.17587240747362373,-0.8517827602427452
1778968360760037600,0.76103759765625,2.688079392546415,-1.176322538204491,0.3800691382862627
1778968360770029600,0.771029541015625,5.434574149182438,0.058440498530864714,1.0398754746031016
1778968360780020700,0.781020751953125,7.177846972286701,2.280989999257028,0.8273257798563689
1778968360790011600,0.79101171875,7.0850640591710805,3.7314766846001146,0.6235251356892287
1778968360800003600,0.801003662109375,5.3891152972996235,3.9914161992922423,0.7698001311480999
1778968360809994800,0.810994873046875,3.7670992021232843,3.517276007775962,0.4727274021089077
1778968360819986700,0.820986572265625,2.5396079099565743,2.3923303133264184,0.3991447178952396
1778968360829977600,0.8309775390625,1.0499468598276376,0.5321317772358656,0.6422510250777006
1778968360839969500,0.840969482421875,-1.2527379616260528,-3.1373753579244017,1.9506015683323144
1778968360849960400,0.85096044921875,-1.5155267282694578,-5.804599301707745,3.873144332394004
1778968360859952600,0.86095263671875,-0.26090543711483477,-5.444448477464914,7.160865442347526
1778968360869943600,0.870943603515625,1.6741361585140226,-1.386637605766952,7.505883579388261
1778968360879935500,0.880935546875,4.7593239408224814,2.81379982188493,2.5435610314965245
1778968360889926700,0.8909267578125,3.3346424356043336,1.1072226984933018,3.6269989497765898
1778968360899918600,0.900918701171875,0.19312252522110937,-0.5776055344268679,4.830458208970725
1778968360909909800,0.91090966796875,0.8153788100183009,0.34241204619556664,3.039189708982408
1778968360919901700,0.920901611328125,0.203265149050951,-0.5590110163331031,1.0667296523243188
1778968360929892600,0.930892578125,0.6176812319666147,-2.194514077331126,-0.019992109932005404
1778968360939884500,0.940884521484375,1.5456436341136692,-2.4194901229307053,0.02211070952117443
1778968360949875700,0.950875732421875,2.4611726711452007,-2.462011167795956,0.06812281137257814
1778968360959866600,0.96086669921875,3.7351007203161712,-2.439614627070725,1.1928735677719116
1778968360969858600,0.970858642578125,3.595328677010536,-2.085535231696069,1.2336001304358244
1778968360979849500,0.980849365234375,1.3987006762653589,-1.135100593239069,0.9418620404228567
1778968360989841700,0.990841552734375,-1.0494371567398308,-0.2174669851437211,0.7463239784926176
1778968360999832600,1.00083251953125,-1.828483839660883,0.37805414520204067,0.3774003574684262
1778968361009824500,1.010824462890625,-2.342682485321164,1.0126260139539838,1.4675006562471389
1778968361019815700,1.020815673828125,-1.1445417908012867,0.4943170103654265,0.056306701372563835
1778968361029807600,1.0308076171875,0.03791267428696155,-0.44508185481429097,0.6167804837346077
1778968361039798800,1.040798828125,0.2998386866211891,-0.9141396284997463,2.4763000976502894
1778968361049790700,1.050790771484375,-0.2806646150738001,-0.7049959428042173,2.0513903855100275
1778968361059781600,1.06078173828125,-0.7029056925266981,-0.6220163385614752,1.1856132213801145
1778968361069773600,1.070773681640625,-1.298993516844511,-0.4823308044955134,-0.3525105386227369
1778968361079764500,1.080764404296875,-2.028537625449896,-0.29393092388212677,-3.5830613161116838
1778968361089756700,1.090756591796875,-2.307399575015902,0.5298404514282942,-6.604963497945666
1778968361099747600,1.10074755859375,-3.387608302116394,0.8424427580326795,-6.294888663992285
1778968361109739500,1.110739501953125,-2.546700498566031,0.6748194157272577,-3.7333699510008094
1778968361119730700,1.120730712890625,-1.8440823908090591,0.98558106290102,-1.1463088004738091
1778968361129721600,1.1307216796875,-2.612681329473853,2.0087968599304555,1.0556535470366477
1778968361139713500,1.140713623046875,-3.4875171215891836,3.049558835044503,2.040114665997028
1778968361149704700,1.15070458984375,-3.7287446292877195,3.747899703873694,1.6083856292307377
1778968361159696600,1.160696533203125,-2.627566471655667,5.024067348664999,1.1296931812375783
1778968361169687600,1.1706875,-1.1352803337201476,6.113166069185733,1.0898732120245695
1778968361179679700,1.1806796875,-0.5383510901421308,6.58666036401391,1.382273273077607
1778968361189670700,1.190670654296875,-0.7362123343229293,6.7208823719769715,1.379854521498084
1778968361199662600,1.20066259765625,0.15013269380033015,6.520075137472152,1.544717166918516
1778968361209653500,1.210653564453125,1.5203819132156668,7.08198713594377,2.144042073461413
1778968361219645400,1.2206455078125,1.9705980621784924,8.427442544233799,3.445775828924775
1778968361229636600,1.23063671875,1.869381082716584,8.637783915281295,4.459942350319028
1778968361239628500,1.240628662109375,1.514019246315956,8.344151682084798,4.144004177290201
1778968361249619700,1.25061962890625,1.7036182735860346,8.777526147970557,3.52995282625854
1778968361259613400,1.260613525390625,2.0251006367385385,9.212940010729431,2.745783393496275
1778968361269604400,1.270604248046875,1.9353451086200772,9.544628126075864,1.4262620524078606
1778968361279596500,1.280596435546875,1.8376058882713318,9.808485398733616,-0.43689679479300975
1778968361289587500,1.29058740234375,0.4278523414634168,9.156073629647492,-1.2405600325763224
1778968361299579400,1.300579345703125,-1.4237420324109493,8.485863169020414,-0.7741893060177564
1778968361309570600,1.310570556640625,-1.9767906332083045,8.085240049135685,-0.31758009501695633
1778968361319562500,1.3205625,-1.0373021900489925,7.731561051255464,-0.9895002821713685
1778968361329553700,1.3305537109375,-0.04507116773948073,7.464624517282843,-1.994913003745675
1778968361339545600,1.340545654296875,0.25709976122155787,7.096481525242329,-2.7201404181957245
1778968361349536500,1.35053662109375,0.15804185948967933,6.161037827429175,-3.2203532086014746
1778968361359528400,1.360528564453125,-0.5517850106023252,5.361333556404709,-4.191473199951648
1778968361369519400,1.370519287109375,-1.3978992967545985,4.15752767572999,-5.43390136448741
1778968361379510500,1.380510498046875,-1.2855191182434558,3.60041284840703,-6.71165160229504
1778968361389502500,1.39050244140625,-0.7652139724016189,2.703653978297114,-8.644643279656767
1778968361399493400,1.400493408203125,-0.4802157120376825,0.9026438364952802,-11.7963870624125
1778968361409485600,1.410485595703125,1.701622131332755,-0.6837053174942731,-15.06354060063362
1778968361419476500,1.4204765625,4.075166203385591,-2.9876363396167753,-17.969898002445696
1778968361429468400,1.430468505859375,4.493278802731633,-3.0648212861061093,-18.182540051651
1778968361439459600,1.44045947265625,4.911284434571862,-3.070348525094986,-18.331988270318508
1778968361449451500,1.450451416015625,5.314660068035125,-3.005068535932898,-18.407223251783847
1778968361459442400,1.4604423828125,5.670838481515646,-2.8915900407910344,-18.41952626851797
1778968361469434600,1.4704345703125,5.9550903074264525,-2.758032634216547,-18.387195193755627
1778968361479425500,1.480425537109375,6.157171215128899,-2.6158961998671293,-18.310659066563844
1778968361489417500,1.49041748046875,6.270141760748625,-2.4629969639629126,-18.17636983858347
1778968361499408400,1.500408447265625,6.2984197607278825,-2.2971020528852937,-17.98387859700322
1778968361509400600,1.510400634765625,15.663654027205705,-9.33192996276915,-11.478465606611966
1778968361519391500,1.5203916015625,14.338963759046791,-6.95525986765027,-8.601494458281993
1778968361529383400,1.530383544921875,13.71070209635496,-3.569614390039444,-3.935492944279313
1778968361539374600,1.54037451171875,13.522348100709914,-2.715804434818029,-2.9452801299244165
1778968361549366500,1.550366455078125,8.768788130241632,-2.719683906599879,-2.770108271935582
1778968361559357400,1.560357421875,6.94173812277615,0.1705126340061426,0.4641992277383804
1778968361569349600,1.570349609375,4.17344566809088,-0.6900882965296506,-0.6217115103960037
1778968361579340500,1.580340576171875,0.525590392768383,-0.49920624371170996,0.7061094570040702
1778968361589332500,1.59033251953125,-0.9232491098895669,0.03761515264511108,2.1621879710048435
1778968361599323400,1.600323486328125,-2.3923345511101184,1.2052034725129603,5.2360839594483375
1778968361609315300,1.6103154296875,-2.6011767696410417,1.2006465398609638,4.466378520846367
1778968361619306500,1.620306396484375,-3.5683272728383537,-0.14754209278523922,1.6119342616230248
1778968361629298400,1.63029833984375,-3.04935892855823,0.10799158816337585,1.9599147556006906
1778968361639289300,1.640289306640625,-2.1738043206490576,0.7525017903447151,-0.09657412209212779
1778968361649281500,1.650281494140625,-3.609946984949708,2.5863693688705562,-0.4710223517566919
1778968361659272400,1.6602724609375,0.7428549141425639,1.1736711469128727,-2.4017571901023387
1778968361669264600,1.6702646484375,5.051402514836192,1.6892855045899748,-4.203972031518816
1778968361679255600,1.680255615234375,9.130018566414714,2.6723718280658124,-0.10662497598528861
1778968361689247500,1.69024755859375,6.597024521639943,5.863452472692727,-0.6739566614180803
1778968361699238700,1.70023876953125,1.9655226586103438,8.976527794358134,-2.532322429123521
1778968361709230300,1.710230224609375,0.21069507985599337,9.099463853675127,-3.5766812596857545
1778968361719221500,1.720221435546875,-1.5691924136139452,8.24276869840622,-2.8682617721736428
1778968361729212400,1.73021240234375,-2.7352152377307415,8.311165358284116,-4.630357953691482
1778968361739204400,1.740204345703125,-2.6508307351261378,7.989916219365596,-4.0581911031872036
1778968361749195500,1.750195556640625,-4.369828364151716,5.706150617915392,-1.9688690464287995
1778968361759187500,1.7601875,-1.5914241191662848,5.444702744486928,0.2326052253037691
1778968361769178400,1.770178466796875,-1.7945872691474853,6.8950944450229406,1.0791484043926
1778968361779170600,1.780170654296875,-0.6883756473928689,7.1108560875535005,-1.54504566822052
1778968361789161500,1.790161376953125,0.9504069467324763,6.581839227467775,-4.563217431354523
1778968361799153700,1.800153564453125,0.947958311471343,6.243048002117872,-6.117649936601519
1778968361809144600,1.81014453125,3.0282652871251106,4.069925380122661,-5.926978896185755
1778968361819136300,1.82013623046875,4.683165414771437,2.4840999577462672,-2.315146243619919
1778968361829127400,1.83012744140625,3.467525303918123,0.6828266349636017,-0.2550000124633312
1778968361839119400,1.840119384765625,-3.0225849034011363,-1.180684167480096,3.3191818316221235
1778968361849110500,1.850110595703125,0.33934652114510533,4.46941102041006,4.011042398521304
1778968361859102500,1.8601025390625,-11.682200711262226,3.111279378159344,2.891135867282748
1778968361869093400,1.87009326171875,-9.084860158783197,5.809663014838099,8.10609871276915
1778968361879085600,1.88008544921875,-6.438383527213334,5.116135976031423,6.353869260749221
1778968361889076500,1.890076416015625,-7.511749256551266,2.7765526257693764,4.341432875272631
1778968361899068700,1.900068603515625,-3.9843455302536483,1.0876040980488062,4.973766317448019
1778968361909059600,1.9100595703125,-0.812105487436056,-0.4180621843330562,6.106765554493665
1778968361919051500,1.920051513671875,0.9554828617572784,-0.02930025569908321,8.40080646624267
1778968361929042700,1.930042724609375,1.3562418829813598,0.03762008454855531,9.505312014731764
1778968361939034400,1.940034423828125,-0.11690335502400993,-0.8651099323928355,9.641515551900863
1778968361949025300,1.950025390625,-0.43985856720805167,-0.7406173643488436,9.045642831638455
1778968361959017500,1.960017578125,-1.0798472003117203,0.4834142158180475,7.024068615460395
1778968361969008400,1.97000830078125,-3.1150472062602637,1.6636017588876186,5.838208141320943
1778968361979000600,1.98000048828125,-4.324445792375505,1.942724259085953,6.05052694992125
1778968361988991500,1.989991455078125,-4.5335397937104105,1.0892937316361815,6.056591949048638
1778968361998983400,1.9999833984375,-2.5937226542428133,0.6025405075885355,4.865591189411282
1778968362008974600,2.009974609375,-0.17028145559877156,1.357750241717696,3.8603222602218388
1778968362018966500,2.019966552734375,0.939229938353598,2.773679408420622,4.699374791294336
1778968362028957700,2.029957763671875,2.923325487747788,2.048060656565428,6.422830568772554
1778968362038949400,2.039949462890625,4.224777211399376,2.570494923390448,6.638406917864084
1778968362048940500,2.0499404296875,4.052781060837209,2.2946045369811356,5.826240055629611
1778968362058932500,2.059932373046875,3.6175042684614658,1.8130157830245792,4.244097121158242
1778968362068923400,2.06992333984375,1.674771533808112,2.01645409668535,3.0341286262005567
1778968362078915600,2.07991552734375,0.402128848272562,3.950006038278341,2.711628610438108
1778968362088906500,2.089906494140625,-0.8110758521273732,6.688464203453064,1.8402987806171178
1778968362098898400,2.0998984375,-2.283413134750724,6.62990913863182,0.5591951407283544
1778968362108889600,2.1098896484375,-1.0786199966043233,4.608789972744882,-0.7377426126301289
1778968362118881500,2.119881591796875,2.907630198226869,1.6813222706258295,-2.963637624391913
1778968362128872400,2.12987255859375,6.322175314846635,0.7433253811985254,-5.312150131040811
1778968362138864600,2.13986474609375,13.702773641443251,1.3089645834997297,-10.571648868346214
1778968362148855600,2.14985546875,29.5570998781085,3.556019579929113,-22.849299690544605
1778968362158847500,2.159847412109375,24.633094493651388,5.205170934790373,-22.245832277369498
1778968362168838400,2.16983837890625,7.785948475003242,2.246157755328715,-7.737544801840186
1778968362178830300,2.179830322265625,2.2364356949985025,1.9055992280453442,-3.344616132608056
1778968362188821500,2.189821533203125,1.2821627935528754,3.1338375391870734,-5.0864387569040055
1778968362198813400,2.1998134765625,-1.1783344625487924,3.626457390245795,-6.368517963826656
1778968362208804600,2.2098046875,-3.758401516404748,2.381127366788685,-6.511113247859478
1778968362218796500,2.219796630859375,-4.955287242427468,1.1960343698903917,-5.491169896629453
1778968362228787500,2.229787353515625,-5.227874934029579,0.7878954675480723,-5.135843131542205
1778968362238779600,2.239779541015625,-5.15879321449697,-0.03740267893821001,-4.730011337098479
1778968362248770600,2.2497705078125,-3.895751008738577,-1.3408598971933126,-4.2796793066710235
1778968362258761700,2.25976171875,-3.20270064753294,-1.9710253476798534,-4.565632675802707
1778968362268753000,2.2697529296875,-4.0941634570613505,-2.352652675193548,-4.777656885370612
1778968362278744600,2.27974462890625,-4.629997888207435,-2.8648472875550386,-4.436022545549274
1778968362288735700,2.28973583984375,-3.557957854515314,-1.7691940308243035,-4.241445145344734
1778968362298727700,2.299727783203125,-2.567494280269742,-0.25542875926941633,-3.2129823875725267
1778968362308718600,2.309718505859375,-2.9916642799586057,1.4009654063269494,-1.1362170300483703
1778968362318710800,2.319710693359375,-4.11231052364856,1.9331258251354098,0.8110340588122605
1778968362328701700,2.32970166015625,-4.039896737083793,1.0785402093663812,1.975798553431034
1778968362338694000,2.33969384765625,-3.6460786210387943,-0.09645078797340392,2.2483529272854326
1778968362348684800,2.349684814453125,-2.0248878707706925,-1.1031915432810784,2.2118775923252105
1778968362358676700,2.3596767578125,-0.20627835939228534,-1.7587755126625297,2.004103441417217
1778968362368668000,2.36966796875,0.6526783110678196,-1.9102333175867794,1.7235984008193015
1778968362378659800,2.379659912109375,0.8693027079075575,-2.0616475756302473,1.7786089249014854
1778968362388650800,2.389650634765625,1.3062807512432335,-2.3050495047584176,2.4694810652852057
1778968362398642700,2.399642578125,1.7305401827812195,-2.2738161621049047,3.4497476551651953
1778968362408633600,2.409633544921875,1.7287538838863372,-2.1648881698742506,4.585202468669414
1778968362418625800,2.419625732421875,1.598966351239383,-1.9696902996838093,5.6175219018697735
1778968362428616700,2.42961669921875,1.3909154292166233,-1.592694723623991,6.2213546412259335
1778968362438608600,2.439608642578125,0.9433911496862769,-0.626731384384632,6.208301098385453
1778968362448599800,2.449599853515625,0.02790595179647207,0.4644618241973221,6.273835939091444
1778968362458591700,2.459591796875,-0.4775289571717381,0.4891989366993308,6.236951438808441
1778968362468582700,2.469582763671875,-0.33589696521311996,-0.4776845861248672,5.617894242313504
1778968362478574800,2.479574951171875,-0.031743045741319656,-1.3134279926493764,4.753734157991409
1778968362488565800,2.489565673828125,0.22908231187462805,-1.5329657927177847,3.755405841720104
1778968362498557700,2.4995576171875,0.21554069325625896,-1.2668717009186743,2.8045237517565487
1778968362508548900,2.509548828125,-0.636810003067553,-0.8281459371328354,1.8362907140195368
1778968362518540800,2.519540771484375,-1.549275268614292,-0.6144704532265662,0.8627046248167752
1778968362528531700,2.52953173828125,-1.7884890984028576,-1.2361962844088672,0.2747913391262293
1778968362538523600,2.539523681640625,-1.138904953958094,-1.562272697353363,-0.0004085808008909225
1778968362548514800,2.549514892578125,-0.1734106935352087,-1.1017346224710345,-0.31857085961997506
1778968362558506800,2.5595068359375,0.6658300535857677,-1.4179241399124265,-0.6592781477242707
1778968362568497700,2.56949755859375,1.6338818895369767,-1.8838512143567203,-0.9110556910097598
1778968362578489900,2.57948974609375,2.455424190621078,-1.4924249618843197,-1.1322551406800747
1778968362588480800,2.589480712890625,3.07264423481673,-0.9879466229885816,-1.3756956482529639
1778968362598473000,2.599472900390625,3.517458670866489,-0.9226286399036645,-1.437408884844184
1778968362608464000,2.6094638671875,3.95161171990931,-0.9836629543200135,-1.3490899654000996
1778968362618455600,2.61945556640625,4.454532307969034,-0.992785587452352,-1.059127360627055
1778968362628446700,2.62944677734375,4.826405426448583,-1.3540376509353518,-1.2668547497838736
1778968362638438700,2.639438720703125,4.189249970944226,-2.0305162320464847,-2.0408429802715777
1778968362648430800,2.649430908203125,3.333809784172475,-2.0609034792646765,-3.114929425099492
1778968362658421800,2.659421875,2.340970712967217,-1.9368372468739747,-4.100657202994824
1778968362668413700,2.66941357421875,1.1402797494426369,-1.613518462074548,-4.584005367839336
1778968362678404900,2.67940478515625,0.6130091485023498,-1.1762068028703332,-5.16865819042921
1778968362688396800,2.689396728515625,0.7989879394486546,-0.31724297201707957,-5.512707190176844
1778968362698388000,2.699387939453125,1.0790724165469407,1.0962740189775824,-5.521153531482815
1778968362708379600,2.709379638671875,0.8157073113203048,2.3878825401373205,-5.006424139946699
1778968362718370600,2.71937060546875,0.4492679083272815,2.336666732162982,-4.908871528211236
1778968362728362800,2.72936279296875,0.34255671536326404,1.4003602800406514,-5.664567146161199
1778968362738353700,2.739353759765625,0.29284429768919945,1.0682678216770292,-6.637534811204671
1778968362748345900,2.749345947265625,-0.3793386320546269,1.9078242106184362,-7.260752049988508
1778968362758336800,2.759336669921875,-1.8720882958486675,2.3139750078834593,-6.59169660461545
1778968362768328700,2.76932861328125,-2.332359828749299,2.5185461249664423,-5.266705892205238
1778968362778320000,2.77931982421875,-2.3167075015872713,3.223653419190645,-3.8586850144088265
1778968362788311800,2.789311767578125,-2.1487398758888245,3.543928744640946,-2.2804309040695427
1778968362798302700,2.799302734375,-2.0712764047190544,3.9310920789718624,-0.6205827986270189
1778968362808294700,2.809294677734375,-1.8775579594314098,4.401772777684033,1.296188396295905
1778968362818285800,2.819285888671875,-1.8470897559314965,4.80324725370109,2.927533460831642
1778968362828277800,2.82927783203125,-2.1781357739821074,5.2363119229853154,4.247683747473359
1778968362838268700,2.8392685546875,-2.8345059253051876,5.184059757700562,4.88624059420824
1778968362848260600,2.849260498046875,-3.2400375677585598,3.9565573596179484,3.987112656879425
1778968362858251800,2.859251708984375,-2.805334483617544,2.4501786911830306,2.354005258846283
1778968362868243700,2.86924365234375,-1.8758996708303688,1.7526725196123123,1.8312749316841364
1778968362878234600,2.879234619140625,-1.177557340696454,1.1074949395634233,2.3409306732177733
1778968362888226800,2.889226806640625,-0.8867945254564285,0.2492604458980262,2.8986078105986115
1778968362898217700,2.8992177734375,-0.6893886238276958,-0.3470968430109322,3.072929189237952
1778968362908210000,2.9092099609375,-0.3377583751708269,-1.0313462042540311,3.2371815938055515
1778968362918200800,2.919200927734375,-0.029470424634218215,-1.7511751206614077,3.1754660191267727
1778968362928192800,2.92919287109375,0.03634615562260151,-2.137912484665215,3.0671470987051723
1778968362938183700,2.93918359375,0.6072802494615316,-1.9927672238886356,3.2251094632178545
1778968362948175600,2.949175537109375,0.9976356578320265,-1.5988240201592445,3.435305288314819
1778968362958166800,2.959166748046875,0.6564239273369312,-1.7709823755457996,4.1049487627089025
1778968362968158700,2.96915869140625,0.31170506550371646,-1.9325313663735986,4.495830240780115
1778968362978149600,2.979149658203125,0.04799859949350357,-1.245213995862007,3.956940805977583
1778968362988141800,2.989141845703125,-0.4487175809681415,-1.2315779769584536,3.070669427612424
1778968362998132700,2.9991328125,-1.5613234338045119,-1.9153977146126329,2.140703868949413
1778968363008125000,3.009125,-2.0112620810002086,-1.8148548350200056,1.7767717726022003
1778968363018115800,3.01911572265625,-2.530997317999601,-1.4691231428824365,1.684462322217226
1778968363028107500,3.029107421875,-3.0607354780972003,-1.4260140689961611,1.4506027129381893
1778968363038098700,3.0390986328125,-3.089741792351007,-1.5421860410057007,0.99453301564157
1778968363048090600,3.049090576171875,-2.934988453012705,-1.6748093816004692,0.3093617172479629
1778968363058081500,3.05908154296875,-2.595548992887139,-1.6852859135597944,-0.30913375371098517
1778968363068073700,3.06907373046875,-2.236501745972037,-1.51655753262192,-0.6898445509016513
1778968363078065700,3.079065673828125,-1.628309057840705,-1.1839051022879779,-0.8702157310992479
1778968363088056800,3.089056884765625,-1.0657710364252329,-1.1558160490095615,-0.9410755662202834
1778968363098048800,3.099048828125,-0.0949748702019453,-1.1253370318546891,-1.1085644684910774
1778968363108040000,3.1090400390625,0.8347481118768453,-0.8709685952931642,-1.0665209780097007
1778968363118031600,3.119031494140625,0.9746534261733293,-0.6620571109183132,-0.9063117113530635
1778968363128022800,3.129022705078125,0.7885428255409002,-0.3543202183932066,-1.0324988814204932
1778968363138014700,3.1390146484375,0.4922410808742046,0.32046237245500087,-1.3593091615974902
1778968363148005600,3.149005615234375,0.9297551307827234,0.3331573111161589,-1.3531594067960977
1778968363157997800,3.158997802734375,1.9863643711090087,0.43910029618665575,-0.8374608779668807
1778968363167988700,3.16898876953125,3.542800617393851,0.5618856949865818,-0.25504852778017517
1778968363177980700,3.178980712890625,5.9194917553007596,0.5390364420577883,0.2624631879508495
1778968363187971800,3.188971923828125,9.279833864828944,0.4531770445950329,1.429603764051199
1778968363197963800,3.1989638671875,11.123105523777008,0.9812287129104137,2.7847978915452956
1778968363207954700,3.20895458984375,11.141026964914799,0.4906069038011133,3.072434683719277
1778968363217947000,3.21894677734375,10.740500875663757,-0.2614567873872816,2.4795307501345873
1778968363227937800,3.228937744140625,8.940383883309364,0.1762596532255411,1.115585160908103
1778968363237929700,3.2389296875,5.6187762858450405,0.7343680216304957,-1.0113771829366682
1778968363247920600,3.248920654296875,1.387877668955922,1.2928421546079218,-3.1030577855199573
1778968363257912000,3.258912109375,-2.4067495915621517,1.5778712485015391,-4.652844510787725
1778968363267903000,3.268903076171875,-4.489641907534003,1.3676627100534737,-5.222215593093633
1778968363277895200,3.278895263671875,-5.718193522408605,1.3855451343551277,-5.242076477861404
1778968363287886000,3.288885986328125,-5.931811138647794,1.4742343484163283,-5.257825835657119
1778968363297878000,3.2988779296875,-5.6690422457486385,1.2913704746201633,-5.466767861300706
1778968363307870200,3.3088701171875,-5.053304549065232,0.8164636826455592,-5.596431767567992
1778968363317861000,3.318861083984375,-4.190196019622683,0.15648995387256145,-5.3923880353599785
1778968363327853300,3.328853271484375,-3.907079335221648,0.4072248562373221,-4.47138845796287
1778968363337844200,3.33884423828125,-4.628604388022422,0.11088716347441077,-3.4870886670440435
1778968363347836000,3.3488359375,-4.539111164101958,-0.19582593896090983,-3.1309564307928084
1778968363357827000,3.3588271484375,-4.061910415971279,-0.16866992874890566,-2.8558757533311843
1778968363367819000,3.368819091796875,-3.7347318870037793,-0.3595589958295226,-2.703895385837555
1778968363377810000,3.378809814453125,-3.554363629415631,-0.3143640555799007,-2.308646360206604
1778968363387802000,3.388802001953125,-3.3409465041846036,0.04708586856275797,-1.7882862693071364
1778968363397793000,3.39879296875,-3.1844466134399174,0.2236354446455836,-1.4320347905904054
1778968363407785200,3.40878515625,-3.046828533297777,0.351414706210047,-0.8083762377798557
1778968363417776000,3.418776123046875,-2.5165175417482852,0.535896390466392,-0.18122867380976676
1778968363427768300,3.428768310546875,-1.8480711681842803,0.4545137000262737,0.3286988704025745
1778968363437759200,3.43875927734375,-1.2313725175142287,0.13256488840579986,0.8252396942973136
1778968363447751200,3.448751220703125,-1.1796639575868844,-0.07956263540610671,1.500059694546461
1778968363457742300,3.458742431640625,-1.33881290153563,-0.2713673560269177,2.361599367237091
1778968363467734000,3.468734130859375,-1.0375713623791933,-0.2927035740442574,3.0119185479581354
1778968363477725000,3.478724853515625,-0.9298831410765648,-0.18249182561337945,3.5020454131573437
1778968363487717000,3.488717041015625,-0.8573837220549583,-0.06511106233596801,3.9480075579375025
1778968363497708000,3.4987080078125,-0.9886100553333759,0.021321458839625117,4.427912888851761
1778968363507700200,3.5087001953125,-1.0052186603069304,0.03541968842744827,4.790450315970182
1778968363517692200,3.518692138671875,-0.6325064606547355,0.03121712217107415,4.899709732112288
1778968363527683000,3.52868310546875,-0.11030044962763785,-0.023947131168097255,5.033809575000405
1778968363537675300,3.53867529296875,0.4683958026453852,-0.23639015066996216,5.183531934434175
1778968363547666200,3.548666259765625,0.8534615801751613,-0.42668154411837456,5.28671290744543
1778968363557658000,3.558658203125,1.184053132456541,-0.6038346390523016,5.036605343198776
1778968363567649000,3.56864892578125,1.4425272507712243,-0.8883496459439396,4.499199424952268
1778968363577641000,3.578640869140625,1.5998481025099753,-1.2611650137096642,3.7367473184794187
1778968363587632000,3.588632080078125,1.7055846052229404,-1.6341230048164723,2.7895401176363226
1778968363597624000,3.5986240234375,1.576467226922512,-1.9319829387106,1.8171984755367039
1778968363607615200,3.608615234375,1.2032108373910189,-2.010240921258926,0.9987105935871601
1778968363617607200,3.618607177734375,0.7190010872811079,-1.9948687262125313,0.3656804013192653
1778968363627598000,3.62859814453125,0.5530202514857053,-1.8934816508807242,-0.3226782949388027
1778968363637590300,3.63859033203125,0.7554577175408601,-1.680934586482495,-0.8647446062117814
1778968363647581200,3.648581298828125,0.9267232157409191,-1.6932019473813473,-1.2462906851828097
1778968363657573000,3.658572998046875,1.321218792656064,-1.7132244524516165,-1.4201672426640986
1778968363667564000,3.66856396484375,1.8668349053651094,-1.6826371526166797,-1.57292736235857
1778968363677556000,3.678555908203125,2.458290393707156,-1.8277927886568008,-1.725706771275401
1778968363687548200,3.688548095703125,3.231568430098891,-2.1675166186816988,-1.7710504723459481
1778968363697539000,3.6985390625,4.3616821748360985,-2.6711238738313314,-2.21254920797646
1778968363707531300,3.70853125,4.480065100893378,-2.772168711596727,-2.656132348665595
1778968363717522200,3.718522216796875,3.2146000519022344,-2.4103115218274294,-3.128573919570446
1778968363727514000,3.72851416015625,1.8945204924091696,-2.036392722864449,-4.022552803573012
1778968363737505300,3.73850537109375,0.9399594216719269,-1.5059699415035546,-4.727052487292886
1778968363747497000,3.7484970703125,0.5439575318470597,-0.9147804106213152,-5.413191753935814
1778968363757488000,3.758488037109375,0.5279840099066495,-0.1548133989624679,-5.646142431676387
1778968363767480000,3.76847998046875,0.9521163079336286,0.8728808586552739,-5.469808544170856
1778968363777471000,3.778470947265625,1.522550051034987,1.6678624850720165,-4.882269937011599
1778968363787463200,3.788463134765625,1.6204890317395328,1.8948795349799095,-4.520074455198645
1778968363797454000,3.7984541015625,1.4902362196683883,2.290319699268788,-4.395085555005073
1778968363807446000,3.808446044921875,1.102632448093593,2.595098034249246,-4.086180933874846
1778968363817437200,3.818437255859375,0.6895473215207457,2.8128721856459973,-3.570059795719385
1778968363827429000,3.82842919921875,0.07080050614923239,3.3065772015929222,-2.8950837281256914
1778968363837421000,3.838421142578125,-0.6012187574654817,3.7689088818937537,-1.977045923143625
1778968363847412200,3.848412109375,-1.1223737981349229,4.083287550520897,-0.9667056820392608
1778968363857404200,3.858404052734375,-1.5648405020147562,4.481448664206266,-0.2058662714600563
1778968363867395000,3.86839501953125,-1.8009554890051482,4.823257191550732,0.4982113874554634
1778968363877387000,3.878386962890625,-1.8060048813492058,5.090632701462507,1.0257429774194955
1778968363887378200,3.888378173828125,-1.6057453438550233,5.342785507801175,1.4385194764345883
1778968363897370000,3.8983701171875,-1.3629659305393695,5.441231268984079,1.8482231438755987
1778968363907361000,3.908361083984375,-1.1944029692962765,5.280791700702905,2.0960084026545287
1778968363917353200,3.918353271484375,-1.1245195779919623,4.721044186788797,2.16838624112308
1778968363927344000,3.92834423828125,-1.1303756105437874,3.8087940252974626,2.2577643142312764
1778968363937336300,3.93833642578125,-1.02054044034034,2.8347911719873546,2.091839008015394
1778968363947327200,3.9483271484375,-0.9717176649823784,1.9041696336336433,2.0935329524517057
1778968363957319000,3.95831884765625,-0.9064286157310009,1.0721915709920227,2.3548639215022322
1778968363967311000,3.96831103515625,-0.9813836112111807,0.3914164617307484,2.5161159752100706
1778968363977302000,3.978302001953125,-0.878083980256319,-0.2362790915109217,2.724824192097783
1778968363987294200,3.988294189453125,-0.5086211377888917,-0.9221583920434117,3.0339328113675115
1778968363997285000,3.99828515625,-0.14366437456905842,-1.6085478340551256,3.2677596874207255
1778968364007277000,4.008277099609375,0.1333402566924691,-1.9389073311462997,3.5533407161086794
1778968364017268200,4.018268310546875,0.6568336771816015,-1.9684348927952349,3.6043344057649374
1778968364027260200,4.02826025390625,0.576027617585659,-1.9463393808431921,3.726946055433154
1778968364037251300,4.038251220703125,0.42913551314175125,-2.0443540571324528,3.8916853667348623
1778968364047243000,4.048242919921875,0.41326486705392595,-2.143154038580507,3.888769187027216
1778968364057234200,4.058234130859375,0.3555225799202919,-2.1150009801551697,3.79961381675899
1778968364067226000,4.06822607421875,0.24263737449645995,-1.9757495997227728,3.5831565931797025
1778968364077217000,4.078217041015625,-0.4084942916512489,-1.89437509258911,3.2722792106717824
1778968364087209200,4.088209228515625,-1.1430495064169168,-2.1731683608330785,2.6310879237800835
1778968364097200000,4.0982001953125,-1.853500792017579,-2.107122063473612,2.106018340015411
1778968364107192000,4.108192138671875,-1.8490905743598938,-1.780185672698915,1.618316071614623
1778968364117184300,4.118184326171875,-1.7512211517602205,-1.6974710030026734,1.2300433147370815
1778968364127175200,4.128175048828125,-1.4342851998656987,-1.4861730618827045,0.661849459517002
1778968364137167000,4.1381669921875,-0.8378554302424192,-1.1848285007432102,0.1468938580095768
1778968364147158300,4.148158203125,-0.158130122295022,-1.0090319349847734,0.007314122405648231
1778968364157150000,4.15814990234375,0.7011255311116575,-0.9726296652607619,-0.06280161634981632
1778968364167141000,4.16814111328125,1.6957257667705417,-0.7263711776576935,-0.1268862582474947
1778968364177133000,4.178133056640625,2.5901252142727373,-0.7026224916711449,-0.28124036913514133
1778968364187124000,4.1881240234375,2.9725083285897966,-0.5730648222573101,-0.4612017994880676
1778968364197116200,4.1981162109375,2.699713716238737,-0.4588122740030288,-0.508521769067645
1778968364207107000,4.208107177734375,2.174972049254179,-0.46111908964067694,-1.2606611558407543
1778968364217099300,4.218099365234375,1.7548498636513947,-0.1624088225275278,-2.1685165895044802
1778968364227090200,4.228090087890625,2.7975159188210963,0.5312674154914915,-2.2625246605008837
1778968364237082000,4.23808203125,4.421046510213613,1.1442552289448678,-1.666817359933257
1778968364247074000,4.248073974609375,6.694312929481267,1.5450388000883162,-1.0075251836836336
1778968364257065000,4.25806494140625,8.820036086919902,1.7431009736686944,-0.33873218863904475
1778968364267057200,4.26805712890625,9.395051312592624,1.8881034649737178,0.06360650299191474
1778968364277048300,4.27804833984375,9.157637810224294,1.603090883823484,-0.06136252345740795
1778968364287040300,4.288040283203125,8.339685350325704,1.6263593850776552,-0.37393268135786056
1778968364297031200,4.29803125,5.715521672850847,1.86558885082677,-1.15190209043622
1778968364307023400,4.3080234375,2.0099761328428984,1.8812967075683176,-2.283548743829131
1778968364317014300,4.31801416015625,-1.0875979605689645,1.6178905396789311,-3.1630157028764483
1778968364327006500,4.32800634765625,-2.798500545944273,1.3951348004773259,-4.123698471364379
1778968364336997400,4.337997314453125,-4.205120032510161,1.2229615397825837,-5.122974297618866
1778968364346989000,4.347989013671875,-5.641285054773092,1.709121985568851,-5.865589484721422
1778968364356981200,4.357981201171875,-7.067124497854709,1.5714803784206508,-6.027009880733489
1778968364366972200,4.36797216796875,-6.663126933100819,1.79797764223814,-5.435808659413457
1778968364376964400,4.37796435546875,-5.954753622817993,1.4535498723059892,-5.10793513391912
1778968364386955300,4.387955322265625,-5.665716316196322,0.9092005646623671,-4.574465386077762
1778968364396947200,4.397947265625,-5.418157851910591,0.6128693016402423,-3.6694881381988522
1778968364406938400,4.4079384765625,-5.1753351839751005,0.512782495252043,-2.8696798222780227
1778968364416930300,4.417930419921875,-5.02522177939713,0.3566900162644684,-2.5507453900426627
1778968364426921200,4.427921142578125,-4.968761056506634,0.12653086893856524,-2.262574344861507
1778968364436913200,4.4379130859375,-4.8851522144496435,-0.028145021249353884,-1.996201874512434
1778968364446904000,4.447904052734375,-4.683929092620313,-0.10597308794781565,-1.7104302916884422
1778968364456896300,4.457896240234375,-4.351602971631288,-0.09171046157851814,-1.3040069610923528
1778968364466888200,4.46788818359375,-3.721117787671089,-0.09025836307406425,-0.8087684519678354
1778968364476879400,4.47787939453125,-2.9614059198170897,-0.2157306628704071,-0.31722061405479907
1778968364486871300,4.487871337890625,-2.3386469461947677,-0.4453839065007865,0.2379120995402336
1778968364496862200,4.4978623046875,-2.012439015825093,-0.7488092194370924,0.697161595916748
1778968364506854400,4.5078544921875,-1.7210758966043591,-0.9259908098131417,1.2663590752214193
1778968364516845300,4.51784521484375,-1.4161205976217985,-1.1544073512554167,1.7809452588945627
1778968364526837200,4.527837158203125,-1.151037290300429,-1.273602032086998,2.393509586238861
1778968364536828200,4.537828125,-0.8091431304991245,-1.2653675799660384,2.8718068974345923
1778968364546820000,4.547820068359375,-0.5407336013644933,-1.204288403494656,3.452369820362329
1778968364556811300,4.557811279296875,-0.384198639306426,-1.0132366931982337,4.045881656712293
1778968364566803200,4.56780322265625,-0.2122162250086665,-0.7742509730771183,4.540906815347075
1778968364576795400,4.57779541015625,-0.018491057719290254,-0.5513542179696261,4.779067336690425
1778968364586786300,4.587786376953125,0.35174510720819235,-0.3801397193044424,4.842974868455529
1778968364596778200,4.5977783203125,0.8610898830965161,-0.2562543964385986,5.035847218307852
1778968364606769400,4.607769287109375,1.2621104778662324,-0.11596388221681117,5.588585145720839
1778968364616761000,4.617760986328125,1.6157041355505584,-0.06158274207934737,5.333081859910488
1778968364626752300,4.627752197265625,2.011198075853288,-0.03489990233704447,5.029836579716205
1778968364636744200,4.637744140625,2.319723926798999,-0.08188523313477634,4.819862288415432
1778968364646735000,4.647735107421875,2.4767829127311707,-0.2314860120154917,4.2835377356648445
1778968364656727300,4.657727294921875,2.3872937804639336,-0.4756280919864773,3.517586096638441
1778968364666718200,4.66771826171875,2.2241645347073673,-0.8104562589243054,2.54174199937582
1778968364676710100,4.677710205078125,1.9481334246531128,-1.055255779890716,1.4979010552078484
1778968364686701300,4.687701416015625,1.6934361945286391,-1.2448866636037825,0.5944061548411845
1778968364696693200,4.697693359375,1.3540177771911024,-1.385291159594059,-0.06881693111658096
1778968364706685200,4.707685302734375,1.0472256181702018,-1.4415030222900211,-0.5805500634461641
1778968364716676400,4.71767626953125,0.8664555017828941,-1.4289400394454597,-1.0533072761714457
1778968364726668300,4.727668212890625,0.8073957023099064,-1.4450759123407304,-1.3240566464304924
1778968364736659200,4.7376591796875,0.9017115240812301,-1.4535053025119007,-1.5530261455804109
1778968364746651100,4.747651123046875,1.498636676006019,-1.402290225189924,-2.0084259807914493
1778968364756642300,4.757642333984375,2.201637353339791,-1.5677889765568076,-2.2035171757370233
1778968364766634200,4.76763427734375,2.7337749757945535,-1.978194800917804,-2.5364070680886504
1778968364776625200,4.777625244140625,3.349505950476229,-2.2886890293270348,-2.952483193171024
1778968364786617300,4.787617431640625,3.3429043602541086,-2.1238719766139984,-3.0153765794575214
1778968364796608300,4.797608154296875,2.8934494049221278,-1.8544013941191135,-3.0128146200150248
1778968364806600400,4.807600341796875,2.47873258549422,-1.704314293026179,-3.440641388645768
1778968364816592100,4.817592041015625,1.9325331199392675,-1.2234668589562177,-4.107304385924339
1778968364826583000,4.8275830078125,1.6067477988958359,-0.439438295969367,-4.497530030435324
1778968364836575200,4.8375751953125,2.1372046286568045,0.3944789180412888,-4.066658487281203
1778968364846566100,4.847566162109375,3.2593522168204188,1.518914178750664,-3.135099521946907
1778968364856558300,4.857558349609375,3.6727883487880226,2.175278192593902,-2.9045804552674293
1778968364866549200,4.86754931640625,3.080507223276794,2.2687433888852593,-3.0971792488753795
1778968364876541200,4.877541259765625,2.455487903507054,2.108695304139703,-3.2273177869170904
1778968364886532400,4.887532470703125,1.376874044382572,2.2335325209029016,-3.0601117932409045
1778968364896524300,4.897524169921875,-0.10465367591232061,2.4420567595258356,-2.9485826786011455
1778968364906515500,4.907515380859375,-1.420106744648516,2.6631477803856134,-2.6134505602806803
1778968364916507100,4.917507080078125,-2.123203575833142,2.864419709792733,-2.274578670910001
1778968364926499000,4.9274990234375,-2.4347648489519953,3.0026500766143203,-1.6687492047786712
1778968364936490200,4.937490234375,-2.814222723472118,3.2827994356423615,-1.0266793814867734
1778968364946482200,4.947482177734375,-3.128769734403491,3.6100761642873285,-0.3332236543506384
1778968364956473300,4.957473388671875,-3.279150557745993,3.8932022010385987,0.21086393361687658
1778968364966465300,4.96746533203125,-3.199177149581909,4.157419539180398,0.5590782363504171
1778968364976456200,4.977456298828125,-2.9162077646970745,4.326985247725248,0.7451940976798533
1778968364986448400,4.987448486328125,-2.531231126755476,4.450921423995495,1.0288339291721582
1778968364996439300,4.997439208984375,-2.2738737375110385,4.315210931040347,1.3883821113467216
1778968365006431200,5.00743115234375,-2.0471920570373534,3.6298750897347927,1.6817741060465574
1778968365016423200,5.017423095703125,-1.8790370920732615,2.8354683405965564,1.7894909689217804
1778968365026414000,5.0274140625,-1.6573185869649052,1.9850962508693337,1.6249065559208393
1778968365036406300,5.03740625,-1.3195724867537617,1.0810910628929733,1.5801614052653312
1778968365046397200,5.047397216796875,-0.9962985640093683,0.1153382976643741,1.6687486202567814
1778968365056389400,5.057389404296875,-0.5543713738337159,-0.7341578860111534,1.7286141831547022
1778968365066380300,5.06738037109375,0.3368392144992947,-1.4364447159871458,1.881108345389366
1778968365076372200,5.077372314453125,1.5796087398186325,-1.858543462359905,2.2037550761461255
1778968365086363400,5.08736328125,2.556835231350362,-1.9463838045068085,2.844005282795429
1778968365096355000,5.09735498046875,2.985666208587587,-2.1863228798300027,3.3818478388935325
1778968365106346200,5.10734619140625,2.890112077192962,-2.446489627406746,3.865979847592115
1778968365116338200,5.117338134765625,2.1893615168735385,-2.4808786576122044,4.195959405454993
1778968365126330000,5.127330078125,1.2934499112427233,-2.205205274954438,4.3713276627987625
1778968365136321300,5.1373212890625,0.0803700062662363,-1.8294225818157195,4.541035410162806
1778968365146313200,5.147313232421875,-0.8213377184227109,-1.8839757175192235,4.358756350517273
1778968365156304400,5.157304443359375,-1.2470312744170426,-2.071940567716211,3.530609244340658
1778968365166296300,5.16729638671875,-1.661587642586231,-1.9009283136248587,2.8771996963888404
1778968365176287200,5.177287353515625,-2.1219190889805555,-1.5979457760199904,2.4917683004170654
1778968365186279400,5.187279541015625,-2.3958581951916216,-1.2559269669257103,1.9410785377055406
1778968365196270300,5.197270263671875,-2.2623796990722416,-0.9058334263168275,1.3470669351398945
1778968365206262300,5.20726220703125,-1.836467824152112,-0.5237321976810694,0.9588041151344776
1778968365216253200,5.217253173828125,-1.2749427791714667,-0.05335881135240197,0.8744675433248281
1778968365226245000,5.2272451171875,-0.4495405877888202,0.2145332697793841,0.48623921011090276
1778968365236237300,5.2372373046875,0.5839458433642983,0.23672990401834249,-0.06134615684449672
1778968365246228200,5.247228271484375,1.7530735016286372,0.03082476185262203,-0.4105979859322309
1778968365256220400,5.257220458984375,2.84675458150357,-0.07684343957528471,-0.5961059444963932
1778968365266210600,5.26721044921875,3.2774379086092114,-0.14693082901909946,-0.5780342812329531
1778968365276202800,5.27720263671875,3.1997213394612074,-0.19116481528207657,-0.6209808580338955
1778968365286193700,5.287193603515625,2.8802301501259207,-0.25454130891039967,-1.4899620789021253
1778968365296185900,5.297185791015625,2.8397333045646547,-0.013554624230414628,-2.1790905904889106
1778968365306176800,5.3071767578125,3.8129590360224244,0.5900906297296286,-2.0443162093400953
1778968365316168400,5.31716845703125,5.42494765818119,1.132406677979976,-1.4603794260650873
1778968365326160600,5.32716064453125,7.037939319902658,1.389400786869973,-0.3067851447582245
1778968365336151600,5.337151611328125,8.303056286108493,1.2367891357354819,0.93552436183393
1778968365346143700,5.347143798828125,8.700316067039966,1.3328345577783882,1.6358032129883766
1778968365356134700,5.357134765625,7.927281776276231,1.789255844991654,1.6636141799777746
1778968365366126800,5.367126953125,6.556443504926562,1.7061491072379051,1.2633067019134758
1778968365376117800,5.37711767578125,5.083771583521366,1.2792336082331834,0.4718541264057159
1778968365386109700,5.387109619140625,3.020449644938111,1.4726317355252803,-0.2256722111701965
1778968365396100900,5.397100830078125,0.05083060804903507,2.2863681851640343,-1.237323534873128
1778968365406092500,5.407092529296875,-1.9256141343310473,2.0970508974447846,-2.7738357680261134
1778968365416084700,5.417084716796875,-2.605178114236891,1.1890528404399752,-4.09838750449717
1778968365426075600,5.42707568359375,-3.0509003127813337,1.935078858899325,-5.498638917335867
1778968365436067600,5.437067626953125,-4.452419553598761,2.634272983556986,-4.484976838332415
1778968365446058800,5.447058837890625,-6.280695303466915,1.9127976151168344,-4.833651159793138
1778968365456050700,5.45705078125,-6.982271793216467,1.1975484277151525,-5.216935022342205
1778968365466041600,5.46704150390625,-6.82290073094964,0.698660163911432,-5.287800118160248
1778968365476033800,5.47703369140625,-6.359771762791276,-0.1011060664333403,-5.436650370934605
1778968365486024700,5.487024658203125,-5.472361735785007,0.0031646015107631683,-4.868599139055609
1778968365496016600,5.4970166015625,-4.880047584787011,0.17628844092860818,-3.8893139614284036
1778968365506007600,5.507007568359375,-4.481505362829566,-0.006710895815491676,-3.45087636693418
1778968365515999500,5.51699951171875,-4.157708292993903,-0.023778642733395097,-3.05225055834651
1778968365525991700,5.52699169921875,-4.060041699489951,0.0147878192871809,-2.6989830638766286
1778968365535982600,5.536982666015625,-3.9707919289365408,0.09906213951557874,-2.377185058903694
1778968365545974800,5.546974853515625,-3.7810581693708896,0.1904337245285511,-2.102624021402001
1778968365555965700,5.556965576171875,-3.432550436648726,0.13230579907819628,-1.8109937756776808
1778968365565957600,5.56695751953125,-2.9126240609914062,-0.0830345493003726,-1.270272449272871
1778968365575948800,5.57694873046875,-2.3752041142195464,-0.3022894407741725,-0.5846013846635818
1778968365585940500,5.5869404296875,-1.6995061620920895,-0.5762960592634976,0.016478256592154503
1778968365595931600,5.596931640625,-0.9078729693204164,-0.840043587936461,0.9334159913778305
1778968365605923600,5.606923583984375,-0.37248686646372076,-1.0319232734896242,1.7230208931922912
1778968365615915800,5.616915771484375,-0.24530191753059624,-1.1676939721994102,2.2801111705958843
1778968365625906700,5.62690673828125,-0.13574293392002582,-1.1050707811564207,2.926796963250637
1778968365635898600,5.636898681640625,-0.2043649269863963,-1.0168835252679884,3.6676819655597206
1778968365645889800,5.646889892578125,-0.18360446303039787,-0.8615025555506348,4.384281252396106
1778968365655881700,5.6568818359375,0.0615606763780117,-0.6715560300171375,4.909315764847397
1778968365665872600,5.66687255859375,0.25054244853258134,-0.5350203382842242,5.372472790056467
1778968365675864600,5.676864501953125,0.531856759686768,-0.3887127557300031,5.573472332262993
1778968365685855700,5.686855712890625,0.8621171803176403,-0.26899156680628655,5.7749745632946485
1778968365695847700,5.69684765625,0.9698886959895491,-0.19445406608581542,5.687751622393727
1778968365705838600,5.706838623046875,1.2201228092253207,-0.2528153619006276,5.380394815227389
1778968365715830500,5.71683056640625,1.3130305177643895,-0.3396652317054569,5.088752294543386
1778968365725822700,5.72682275390625,1.2715540135160088,-0.49233577342033386,4.563708429741859
1778968365735813600,5.736813720703125,1.3627663163140415,-0.7501354996047913,3.897234233033657
1778968365745805800,5.746805908203125,1.317123340035975,-1.0032914916366338,3.1509926721274852
1778968365755796700,5.756796630859375,1.355282682560384,-1.172215687407553,2.4467507625609635
1778968365765788700,5.76678857421875,1.379123576875031,-1.3454356806762515,1.79172968775928
1778968365775779800,5.77677978515625,1.3149883738338946,-1.5887728740051388,1.3504922334134577
1778968365785771500,5.786771484375,1.1989771453440188,-1.777124823823571,0.9565811783879995
1778968365795762700,5.7967626953125,1.108440257589519,-1.9481496451355516,0.6264817935377359
1778968365805754600,5.806754638671875,0.8943053394779562,-2.0709197002358732,0.36880467081964013
1778968365815746600,5.81674658203125,0.6561176378667354,-2.001106597688794,0.10037409889698028
1778968365825737700,5.82673779296875,0.5175993940144777,-1.8350886447533965,-0.33532501054406166
1778968365835729700,5.836729736328125,0.5583695035591721,-1.671163426313549,-0.8100064693301916
1778968365845720800,5.846720947265625,0.857652894385159,-1.5533515781424938,-1.4382950200289486
1778968365855712800,5.856712646484375,1.388580848789215,-1.556899479882419,-2.027509451445937
1778968365865703700,5.86670361328125,2.3092358505323527,-1.8490009963802991,-2.4925270098298786
1778968365875695600,5.876695556640625,2.8234385878458617,-2.1546131518363953,-3.030520372575521
1778968365885686500,5.8866865234375,3.304467369832098,-2.3608890270106495,-3.4893022514402863
1778968365895678700,5.8966787109375,3.45897988615185,-2.2990064252018927,-3.800283094322681
1778968365905670700,5.906670654296875,3.2456779117330905,-2.012306621617079,-4.260243953838944
1778968365915661600,5.91666162109375,2.7876068114861843,-1.3764130027420818,-4.753360648503899
1778968365925653800,5.92665380859375,2.747491950979829,-0.23295579230710864,-4.6202848879665135
1778968365935644700,5.936644775390625,2.86776434404552,0.9162896461404859,-4.354413937398791
1778968365945636900,5.946636962890625,2.6083126128703356,1.5790468681521712,-4.4418665954023595
1778968365955627800,5.956627685546875,2.177366250914335,1.8460590977095066,-4.811245851239562
1778968365965619500,5.966619384765625,1.523805019532144,2.2068049652360378,-4.834130467742681
1778968365975610600,5.976610595703125,0.6936494961425662,2.5737352204859256,-4.656481405985355
1778968365985602600,5.9866025390625,-0.18334990374743937,2.6782576712340114,-4.2787662834793325
1778968365995594800,5.9965947265625,-0.7820999330118298,2.898542051886022,-3.819645381918549
1778968366005585700,6.006585693359375,-1.0990469908222555,3.1196503161415454,-2.959300471970439
1778968366015577600,6.01657763671875,-1.4978572160661219,3.478933417639136,-1.9336516025751829
1778968366025568800,6.02656884765625,-2.1385282784759996,3.695537356212735,-1.0724112050920724
1778968366035560700,6.036560791015625,-2.7463991873070595,4.020500547218322,-0.1935048025369644
1778968366045551900,6.0465517578125,-3.162930654941499,4.295606066860258,0.4180810351639986
1778968366055543600,6.05654345703125,-3.236753723782301,4.540925520047545,0.7487146730214357
1778968366065534500,6.066534423828125,-3.030445846034586,4.761674303340912,1.0443629222154616
1778968366075526700,6.076526611328125,-2.7128958538949486,4.605386594042182,1.3302403035014867
1778968366085517600,6.086517578125,-2.3630212167337534,3.864029298046231,1.8157319101154803
1778968366095509800,6.096509765625,-1.9444863003224133,2.8193957421958444,1.8906547568917274
1778968366105501700,6.106501708984375,-1.487383460585773,1.760106030613929,1.7223603834569454
1778968366115492600,6.11649267578125,-1.1615084154322743,0.9542226325631141,1.878523589593172
1778968366125484800,6.12648486328125,-0.9664195585742592,0.05973229190707206,2.222840884888172
1778968366135475700,6.136475830078125,-0.5042421920523047,-0.9174867469705641,2.3624697203308345
1778968366145467600,6.146467529296875,0.5178630133867264,-1.7717716262273489,2.3635353037357327
1778968366155458800,6.156458740234375,1.7225974070832133,-2.3134702732317147,2.561312961286306
1778968366165450500,6.166450439453125,2.74923294942826,-2.7378350648403167,3.12649594425261
1778968366175441700,6.176441650390625,3.8548216169789433,-3.0035481944978235,3.513251282304525
1778968366185433600,6.18643359375,3.9978617221698163,-3.172405170251429,3.7293472713559863
1778968366195425800,6.19642578125,2.9378292293965815,-3.0195576645344495,3.9273447091370817
1778968366205416700,6.206416748046875,1.5674258423328398,-2.6766297777712342,4.409885649251938
1778968366215408600,6.21640869140625,0.4083902467548847,-2.3844136949829755,4.704386481976509
1778968366225399800,6.22639990234375,-0.5152341261878609,-2.1403081476300954,4.483979643988609
1778968366235391700,6.236391845703125,-1.2866668269738555,-2.1713692024566233,3.8078959074139593
1778968366245382700,6.246382568359375,-1.9674132946625351,-2.19610923756808,3.091547380468249
1778968366255374600,6.25637451171875,-2.422619945389032,-2.066402368941903,2.375167873862386
1778968366265366300,6.2663662109375,-2.67888515548259,-1.983893450950831,1.83801914524734
1778968366275358200,6.276358154296875,-2.6842522354736924,-1.884920304892957,1.5534481703847647
1778968366285349000,6.28634912109375,-2.222389926250279,-1.6085359974868594,1.3268553372383116
1778968366295341300,6.29634130859375,-1.5636629826679824,-1.1854993857420981,1.1515542999118566
1778968366305333200,6.306333251953125,-0.9094637456431984,-0.8792154685042798,0.8605611830472946
1778968366315324400,6.316324462890625,-0.18993921900987623,-0.6519084957391024,0.46553719834387297
1778968366325316000,6.326316162109375,0.6104769996762275,-0.48227951269969344,0.25398235985338685
1778968366335307300,6.336307373046875,1.37588970952034,-0.41509149795919653,0.2493319036990404
1778968366345299200,6.34629931640625,1.4920713261410594,-0.2921441865958273,0.4330430419743061
1778968366355290000,6.3562900390625,0.7598717345908284,0.14710691623836755,0.33977614473402495
1778968366365282300,6.3662822265625,0.20024170957654713,0.47293519964069125,-0.8900117339372634
1778968366375273200,6.376273193359375,1.444835235452652,0.7585476463802159,-2.1279951940238475
1778968366385265400,6.386265380859375,4.037371017998456,1.276830638744682,-2.3873300208210946
1778968366395257300,6.39625732421875,7.808871085429191,1.5137858759514986,-2.040437906602025
1778968366405248300,6.406248291015625,11.687109526091813,1.542836321607977,-1.4422715224444866
1778968366415240200,6.416240234375,12.886506358152626,1.7817935462869703,-0.7658738976150751
1778968366425231000,6.426231201171875,11.969842764133213,2.0846929356530306,-0.006165536892414092
1778968366435223300,6.436223388671875,10.295954442900419,2.182066829820722,0.055041503742337225
1778968366445214200,6.446214111328125,7.509261531388759,2.384767769117653,-1.0337070881664752
1778968366455206100,6.4562060546875,2.8028032115742563,2.3918856382988394,-2.3485598529219627
1778968366465197300,6.466197265625,-0.7941898915171622,1.7140793157152832,-3.925895679372549
1778968366475189200,6.476189208984375,-2.359107842682302,1.2427316775269805,-5.50240148473978
1778968366485180200,6.48618017578125,-4.2831767933979625,1.2064067108228802,-6.588122253260016
1778968366495172400,6.49617236328125,-7.066745143148303,1.496156257367134,-7.109325809246301
1778968366505164000,6.5061640625,-9.104164578711986,1.6651599481150507,-6.8116662202298635
1778968366515155200,6.5161552734375,-7.669342787751555,1.4752790351636706,-6.123255501523613
1778968366525147100,6.526147216796875,-6.599673574844003,1.0708683595642448,-5.590234081971645
1778968366535138000,6.536137939453125,-6.83263652754426,0.21915230788215995,-5.070507028278708
1778968366545130200,6.546130126953125,-6.729065678432583,-0.27720146900787945,-4.579439082837104
1778968366555121200,6.55612109375,-6.297396847420931,-0.25590032230392096,-4.079230384084582
1778968366565113300,6.56611328125,-5.904508121180534,-0.23583982331082223,-3.7309079448014497
1778968366575104300,6.576104248046875,-5.592383953481912,-0.003274930017441511,-3.1556349449753758
1778968366585096400,6.586096435546875,-5.27998038432002,0.3611421733677387,-2.420177228412032
1778968366595088100,6.596088134765625,-4.871598320871591,0.5173481957323849,-1.7475830875188112
1778968366605079300,6.606079345703125,-4.2791865547180175,0.37969197553694245,-1.3454717749029397
1778968366615071200,6.6160712890625,-3.529344923493266,0.0905835033752024,-0.895603854855895
1778968366625062100,6.626062255859375,-2.6813293337643147,-0.4100941280633211,-0.46641105856895443
1778968366635054300,6.636054443359375,-1.967804924328625,-0.7970888278290629,0.15954817239940167
1778968366645045200,6.646045166015625,-1.2383648606196045,-1.0994327752694486,0.8287953409522771
1778968366655037200,6.656037109375,-0.4741282088175416,-1.4385378888741134,1.6002075834721325
1778968366665028400,6.6660283203125,0.2737640419051051,-1.7171978861272335,2.4025837040543556
1778968366675020300,6.676020263671875,0.6068143855154514,-1.874944562062621,3.0577094082742926
1778968366685011200,6.68601123046875,0.627718057334423,-1.8866165874168275,3.604716683080792
1778968366695003400,6.69600341796875,0.5856462175413966,-1.782965512675792,4.180499385994673
1778968366704995000,6.7059951171875,0.6990569081440567,-1.6427308202944695,4.598848716706037
1778968366714986200,6.715986328125,0.7106672664389014,-1.5368521326318383,4.953953363475203
1778968366724978200,6.725978271484375,0.6690344025850296,-1.4254235557571053,5.2545741403847925
1778968366734969000,6.735968994140625,0.5831646298587322,-1.4018022955425082,5.409210575345158
1778968366744961300,6.745961181640625,0.3569222175851464,-1.481053673042357,5.336186255666613
1778968366754952200,6.7559521484375,-0.015087679016590118,-1.5541921206198632,5.035525146746635
1778968366764944400,6.7659443359375,-0.4380792825758457,-1.6574369526475667,4.609013552367687
1778968366774935300,6.775935302734375,-0.6069684070333838,-1.7570348064750432,4.153308596730232
1778968366784927200,6.78592724609375,-0.526123768992722,-1.9141371931575237,3.7995582871794698
1778968366794918400,6.79591845703125,-0.20505174020677805,-2.0672849969953297,3.3319296695142984
1778968366804910000,6.80591015625,0.21571575756222008,-2.039195505325496,2.8177994129151105
1778968366814902300,6.81590234375,0.5750497124642133,-1.9701301524057984,2.3158891709417104
1778968366824893200,6.82589306640625,0.8495733405649661,-1.8984039097137748,1.7438374712496996
1778968366834885400,6.835885498046875,1.0658850181937216,-1.878371467771381,1.1293027206152677
1778968366844876300,6.845876220703125,1.384284028378129,-1.8758673759959636,0.42116205004453655
1778968366854868200,6.8558681640625,1.6507716495394706,-1.911396223886311,-0.4027010952025652
1778968366864859400,6.865859375,1.787462970225513,-1.9045647704310713,-1.232946050441265
1778968366874851300,6.875851318359375,2.086128229153156,-1.723422167469561,-2.081291310516
1778968366884842200,6.88584228515625,2.4523063508614897,-1.4391360008977352,-2.779057886588573
1778968366894834200,6.895834228515625,2.050267811220884,-1.0315522482201456,-3.1013468899488448
1778968366904825000,6.9058251953125,2.16984111610651,-0.8751116864472627,-3.4704257015347477
1778968366914817300,6.9158173828125,3.325596082578599,-0.9464800556123256,-3.37275150924623
1778968366924809200,6.925809326171875,4.410739343471825,-1.132021039663255,-2.9740725091665983
1778968366934800100,6.935800048828125,4.958502697342634,-1.2948992332682012,-2.6933582097321747
1778968366944792300,6.945792236328125,4.583294589221477,-1.207003069280833,-2.6087112567991015
1778968366954783200,6.955783203125,3.6779715966448188,-1.0061962731674312,-2.979828296214342
1778968366964775400,6.965775390625,2.6967563277378677,-0.6009416940897703,-3.681380236044526
1778968366974766300,6.975766357421875,1.9391668588653206,-0.09691679804995655,-3.9417221940577027
1778968366984758000,6.985758056640625,1.704162171204388,0.5021009422399103,-3.966391940411925
1778968366994749200,6.995749267578125,1.7313105826318262,0.8900389142051338,-4.1356501904428
1778968367004741000,7.0057412109375,1.9983391788020728,0.9730052205748856,-4.619969830667972
1778968367014732300,7.015732177734375,1.9829513477951286,1.1836014431662858,-4.850248658850789
1778968367024724200,7.02572412109375,1.2709712451919912,1.587420582613349,-4.812269349068403
1778968367034716200,7.035716064453125,0.5595023069813847,1.9406381004616617,-4.959706812435388
1778968367044707300,7.045707275390625,-0.0035679216146469114,2.4325794677369297,-4.70332089857161
1778968367054699300,7.05569921875,-0.6760872437059879,3.129935271051526,-3.8980923111677166
1778968367064690400,7.0656904296875,-1.302937578295171,3.6082857737392184,-3.001943681910634
1778968367074682000,7.07568212890625,-1.7126120196416974,3.970512235212326,-1.8817326147675513
1778968367084673300,7.08567333984375,-2.128990050280094,4.325318775817752,-1.0256108754724265
1778968367094665200,7.095665283203125,-2.5390157892823217,4.617520391689241,-0.07975625828206538
1778968367104656100,7.10565625,-2.762747387778759,4.809567104372382,0.7856009268701076
1778968367114648300,7.1156484375,-2.8520108945965763,4.84663719035536,1.4540806181818247
1778968367124639200,7.12563916015625,-2.8788720135152337,4.655971410636604,1.9485726928532123
1778968367134631200,7.135631103515625,-2.8182763827770945,4.19156380084455,2.2654794186532494
1778968367144623400,7.145623291015625,-2.64003666165024,3.3723677706256505,2.441643794810772
1778968367154614300,7.1556142578125,-2.2345424285978077,2.4621669428795574,2.340368363159895
1778968367164606200,7.165606201171875,-1.8736001617163418,1.627515130984038,2.388835749208927
1778968367174597400,7.175597412109375,-1.6023054325342176,0.8945897093772888,2.5550112307935953
1778968367184589000,7.185589111328125,-1.4090572351068258,0.2597222186796367,2.739305721914768
1778968367194580200,7.195580322265625,-1.2670324444383383,-0.17536065855920313,2.962695959627628
1778968367204572200,7.205572265625,-1.3014186981648206,-0.5603530785918236,3.0907705508768557
1778968367214563000,7.21556298828125,-1.349805420193076,-1.1187944783434272,3.09898775960207
1778968367224555300,7.22555517578125,-1.133207326838374,-1.6404413941830396,3.180788090932369
1778968367234546200,7.235546142578125,-0.7439283155277371,-2.1232516527585683,3.2692987335562704
1778968367244538400,7.245538330078125,-0.3327829248458147,-2.158293009392917,3.395327498191595
1778968367254530300,7.2555302734375,-0.11793956620395182,-1.9943607766903935,3.603922902354598
1778968367264521700,7.265521728515625,-0.048960138002038,-1.98323323347643,3.7157717504680154
1778968367274513700,7.275513671875,0.054529170306026935,-2.006011174734682,3.5498195562452075
1778968367284504600,7.285504638671875,0.012048165190219878,-2.0251286937892434,3.376879987353086
1778968367294496800,7.295496826171875,-0.0441805025100708,-2.114576909524202,3.2040397871822117
1778968367304487700,7.30548779296875,-0.16386574333757162,-2.0285903785504398,3.0735739168822764
1778968367314479900,7.31547998046875,-0.3017956659078598,-1.9337990482218563,2.8566245258718728
1778968367324470800,7.325470703125,-0.2795104766026139,-1.8337671868912875,2.8136656741112467
1778968367334462700,7.335462646484375,-0.1380956345260143,-1.622877680441737,2.58752759899497
1778968367344454000,7.345453857421875,0.06937193465083837,-1.3807447483360766,2.187317736086249
1778968367354445600,7.355445556640625,0.39406507654339074,-1.1294755929641425,1.852478463232517
1778968367364436700,7.365436767578125,0.7980649793848394,-0.9120901486240327,1.5753028593182563
1778968367374428700,7.3754287109375,1.1749784301191568,-0.6237291338287294,1.3514192851305007
1778968367384420600,7.385420654296875,1.5685641987130046,-0.9141431356310844,1.2418278605550528
1778968367394411800,7.395411865234375,1.753545795315504,-0.9889084537580609,0.37879181182682514
1778968367404403700,7.40540380859375,1.5653937519833445,-0.7422862474091351,-0.8149135305941104
1778968367414395000,7.415394775390625,1.340592478428781,-0.2916322915509343,-1.952284406852722
1778968367424386800,7.42538671875,2.1572253801614045,-0.0030228549525141714,-2.308722348052263
1778968367434377700,7.435377685546875,4.0838682730183,0.3126952455848455,-2.3736206444203853
1778968367444370000,7.445369873046875,6.459987456256151,0.47884895372912284,-1.9251660983026027
1778968367454360800,7.45536083984375,9.080793055474757,0.4095664509274065,-1.2155465873509645
1778968367464352800,7.465352783203125,11.393866584473848,0.632467443818599,-0.7543103010714054
1778968367474343700,7.47534375,10.664883616882562,1.4227743564225732,-0.7114227609813213
1778968367484335600,7.485335693359375,8.1878224717319,1.992974290768057,-0.6608733079612255
1778968367494326800,7.495326904296875,6.057172379285097,2.3223950457043943,-1.4792226582229135
1778968367504318700,7.505318603515625,3.9627129596382376,2.3491094496287404,-2.9292238981366157
1778968367514311000,7.515310791015625,1.1366618512064217,2.052456261175871,-3.7624955077201125
1778968367524301800,7.5253017578125,-0.6039823769599199,1.5093142834953963,-4.288865068167448
1778968367534293800,7.535293701171875,-2.2322446730494496,1.058788337931037,-5.351667902436852
1778968367544285000,7.545284912109375,-4.643245492315292,1.4618774095378815,-6.7557970334917306
1778968367554276600,7.555276611328125,-6.772320298269391,1.3798599283255635,-5.995648527786135
1778968367564267500,7.565267578125,-7.796438889357447,1.0761218961782753,-5.667955619555712
1778968367574259700,7.575259765625,-7.429888134944439,0.6969234032467008,-6.05056319027841
1778968367584250600,7.585250732421875,-7.190901684170961,0.17466083972677587,-5.77472964862287
1778968367594242800,7.595242919921875,-6.8844193217515945,0.03596051730588078,-5.182835184341669
1778968367604233700,7.605233642578125,-6.385637440931797,0.1778372778058052,-4.46655855358839
1778968367614225700,7.6152255859375,-5.982621288430691,0.21512349075749515,-3.9824686304658647
1778968367624216800,7.625216796875,-5.6652919533044095,0.3168319069981575,-3.6033600077748296
1778968367634208800,7.635208740234375,-5.435846068814397,0.42857437212765215,-3.2109745548814534
1778968367644200700,7.64520068359375,-5.104175489124655,0.47899026189595456,-2.824223308482766
1778968367654191600,7.655191650390625,-4.6258764243632555,0.28902547005340457,-2.407894085422158
1778968367664183800,7.665183837890625,-3.9761508256211875,-0.018221739258617163,-1.9342133281111715
1778968367674174700,7.6751748046875,-3.221098474010825,-0.37940088363587854,-1.2790367704868315
1778968367684166700,7.685166748046875,-2.507649467898905,-0.6242560803122819,-0.5205056368499994
1778968367694157800,7.69515771484375,-1.8034654259994625,-0.7528786608330905,0.2917781297624111
1778968367704149800,7.705149658203125,-0.9263909150466323,-0.9180098940618335,1.1754904712945222
1778968367714140700,7.715140625,-0.05297784921079874,-1.114207881205529,2.189537165701389
1778968367724132900,7.7251328125,0.41820904545783993,-1.155635724006593,3.0666362265735865
1778968367734123800,7.735123779296875,0.49802083331942554,-1.1281716707587242,3.679145608860254
1778968367744115700,7.74511572265625,0.3949626099050045,-0.9840418706350028,4.270503482046723
1778968367754107000,7.75510693359375,0.17287088757008312,-0.7503419819623232,4.967982473349571
1778968367764098600,7.7650986328125,-0.08075316036492586,-0.494243360607326,5.517925217086076
1778968367774090800,7.7750908203125,-0.25073183362483975,-0.4250663640066981,5.848508586061
1778968367784081700,7.78508154296875,-0.3394420904740691,-0.4660277583397925,6.018076632693409
1778968367794073900,7.795073974609375,-0.4511962460413575,-0.626069413344562,5.8780187581837176
1778968367804064800,7.805064697265625,-0.6647419660881161,-0.8543111827418207,5.628133312255144
1778968367814056700,7.815056640625,-0.8227601524412631,-1.0498067207045854,5.334266685780882
1778968367824047900,7.8250478515625,-0.8888228164136409,-1.2488358396209776,5.05894109364748
1778968367834039800,7.835039794921875,-0.8654568461343646,-1.3831979867070912,4.699081945827603
1778968367844031000,7.845031005859375,-0.6556456364408135,-1.532186917299777,4.3122102879196405
1778968367854022700,7.855022705078125,-0.4861740359202027,-1.6391156985372304,3.9179070187062024
1778968367864013600,7.865013671875,-0.28839024088978765,-1.7393650020107625,3.323153657862544
1778968367874005800,7.875005859375,-0.16480974618941543,-1.8865530206613241,2.6859207532078027
1778968367883996700,7.88499658203125,0.1345323890864849,-1.9987876532219349,2.0402380001157523
1778968367893988900,7.89498876953125,0.4568582173258066,-2.072398979008198,1.1981184826880693
1778968367903979800,7.904979736328125,0.8222633088350295,-2.1015718820005653,0.26937691286206245
1778968367913971700,7.9149716796875,1.3710074904367326,-2.112276962018758,-0.6203209328204393
1778968367923964000,7.9249638671875,1.9293632577314972,-2.0539218036837874,-1.685976233911514
1778968367933954800,7.934954833984375,2.2643033606112004,-1.7717308558255433,-2.481220602917671
1778968367943946800,7.94494677734375,2.465574997757375,-1.4340455458909271,-3.0538457185834647
1778968367953937700,7.954937744140625,2.7951760776966807,-1.019989674589783,-3.4388650266230103
1778968367963929600,7.9649296875,3.446637706451118,-0.6616252953723073,-3.2981407971590757
1778968367973920800,7.974920654296875,4.450834037972986,-0.502206886832416,-2.9999317575663325
1778968367983912700,7.98491259765625,5.242076477861404,-0.559412290610373,-2.6913503770411014
1778968367993903600,7.994903564453125,5.550936675328016,-0.6608242081224918,-2.3688129518777132
1778968368003895800,8.004895751953125,4.8677100812613965,-0.6555468522414565,-2.7649270699054003
1778968368013886700,8.01488671875,3.582999356791377,-0.3360644307345152,-3.5816204696536063
1778968368023879000,8.02487890625,2.4988041904032228,0.25250921856090425,-3.955104822722077
1778968368033869800,8.034869873046874,2.2016905448317527,0.8225896181799471,-4.239185968241095
1778968368043861500,8.044861572265624,2.0280577329784633,1.2444666846260428,-4.304430301567912
1778968368053852700,8.054852783203126,1.857430240420997,1.3292428168967365,-4.33235232771635
1778968368063844600,8.0648447265625,1.6916159933641552,1.1610765998862682,-4.732259408286214
1778968368073836800,8.0748369140625,1.3009671550050377,1.0906349901773036,-5.184433267188072
1778968368083827700,8.08482763671875,0.3362564461752772,1.4000382084794343,-5.274894459357857
1778968368093820000,8.09481982421875,-0.6448083083450794,2.0342687164478,-4.705787580946088
1778968368103810800,8.104810791015625,-1.561400006172061,2.6151912664681674,-3.6499388035982845
1778968368113802800,8.114802734375,-2.1352055637940763,2.992445201203227,-2.658275205913186
1778968368123794000,8.1247939453125,-2.6778458755627272,3.3458161560475825,-1.5959411581993102
1778968368133785600,8.13478564453125,-3.163677966177463,3.6612463795542713,-0.8605898246198892
1778968368143776800,8.14477685546875,-3.4096316256150603,4.03614264524728,-0.35784663895368574
1778968368153768700,8.154768798828124,-3.4657226384103295,4.305105716611445,-0.1611982776939869
1778968368163759600,8.164759521484376,-3.387330654218793,4.664634317302704,-0.029499650728702545
1778968368173751800,8.174751708984376,-3.160556327025592,4.833257776561379,0.13338029644191265
1778968368183742700,8.18474267578125,-2.6478417824432254,4.334706197366118,0.45124797622859475
1778968368193734700,8.194734619140625,-1.9028408692479133,3.492844454091787,0.4469517403393984
1778968368203725800,8.204725830078125,-1.107789392465353,2.68663386991322,0.39569267774522304
1778968368213717800,8.2147177734375,-0.4765405306562781,1.8840866305477917,0.5518430243998765
1778968368223708700,8.224708740234375,0.277947465069592,1.007382121951133,0.8662421512931585
1778968368233700900,8.234700927734375,1.5723600838646292,0.04110036441236734,1.3293582599699496
1778968368243692500,8.244692626953125,3.203781720767915,-0.7039503792740405,2.0432605628073213
1778968368253683700,8.25468359375,4.3330397254586215,-1.3263823128990828,2.6611890475332736
1778968368263679700,8.2646796875,4.766146772579848,-1.9826434508897364,3.1579245172172783
1778968368273670700,8.274670654296875,3.8111692299962043,-2.422729689373821,3.2077924177139994
1778968368283662600,8.28466259765625,2.4589129095196722,-2.350711477997899,3.3456478137433527
1778968368293653800,8.29465380859375,0.8924901067495346,-1.8780999573536217,4.062700689566135
1778968368303645700,8.304645751953124,-0.4084682804271579,-1.4094826209120452,4.714060903772712
1778968368313636600,8.31463671875,-1.1781681660711765,-1.277304685997218,5.001390821954607
1778968368323628500,8.324628662109374,-1.7765125371441244,-1.229237697442621,5.102571561059356
1778968368333619700,8.33461962890625,-2.5437574308514592,-1.1640632144816219,5.029574713909626
1778968368343611600,8.344611572265626,-3.2903435674116013,-1.1994833413004875,4.633213927644491
1778968368353602600,8.3546025390625,-3.807672327791154,-1.2005397184856235,4.194015285649895
1778968368363594800,8.3645947265625,-3.923437472565472,-1.0433158973805605,3.65128963368535
1778968368373585700,8.374585693359375,-4.068538894200325,-1.1151344945311545,3.133746938294172
1778968368383577600,8.38457763671875,-3.8356712185680863,-1.207863339371979,2.5914976716697216
1778968368393568800,8.39456884765625,-3.2873800414308905,-1.215179069212824,1.9845184509813785
1778968368403560700,8.404560791015625,-2.6398291563794016,-1.1635973505355417,1.4845114122807979
1778968368413551600,8.414551513671874,-2.013536455672979,-1.039513144096732,0.9540390926897525
1778968368423543800,8.424543701171874,-1.394188751798868,-0.9079596246905625,0.4927665660530329
1778968368433535500,8.434535400390626,-0.6075716336235404,-0.7617327061571181,0.13336802148222923
1778968368443526700,8.444526611328126,0.331100086325407,-0.6171656836599111,-0.12308745048642158
1778968368453518600,8.4545185546875,1.431481540621817,-0.4991545135244727,-0.3811316529512405
1778968368463509500,8.464509521484375,2.228751277975738,-0.6244174083538353,-0.6439145743757486
1778968368473501700,8.474501708984375,2.738854763276875,-0.8219789389356971,-0.9881915376603603
1778968368483492600,8.48449267578125,2.985205020816624,-0.8057686856299638,-2.011896871772408
1778968368493484800,8.49448486328125,4.035011010868847,-0.2622407773718238,-2.9432074153035876
1778968368503475700,8.504475830078125,6.037376960968971,0.4016434028431773,-2.949335542795062
1778968368513467600,8.514467529296875,8.9514675873816,0.7842256929941475,-2.2460738764375447
1778968368523458800,8.524458740234374,11.205936951720714,1.0271334088645876,-1.2231243291288614
1778968368533450500,8.534450439453124,11.632180835074186,1.2362418771162629,-0.5576216078013181
1778968368543441700,8.544441650390626,10.259357527387142,1.1867482167594134,-0.600005874544382
1778968368553433600,8.55443359375,8.628347393894195,1.2951651907280086,-0.7742226237654686
1778968368563424500,8.564424560546875,7.266475103810429,1.6266751730285585,-1.2195493932515382
1778968368573416700,8.574416748046875,3.9552687811121343,2.2029970973856745,-1.605872769626975
1778968368583407600,8.58440771484375,-0.7177920037522911,2.4850655879080294,-2.317907525026798
1778968368593399800,8.59439990234375,-3.6684284000128504,2.18346486005038,-3.522378591611981
1778968368603391700,8.604391845703125,-4.38297864536494,1.657630429393053,-4.836371524667739
1778968368613382700,8.614382568359375,-5.18872716498971,0.9354612334698438,-5.77325606893897
1778968368623374600,8.62437451171875,-6.698831868210434,0.8691616920016706,-5.854423947584629
1778968368633365500,8.634365478515624,-7.231686114501953,0.9929738035008311,-5.244161467441916
1778968368643357700,8.644357666015624,-6.575387859371304,1.0136303686909376,-4.969627317947149
1778968368653348600,8.6543486328125,-6.083503336849808,0.7401292155057192,-4.595753088778257
1778968368663340500,8.664340576171876,-5.849494674488902,0.43530221907794475,-4.22692503708303
1778968368673331700,8.674331787109375,-5.63323326574266,0.43405543388724327,-3.685040512117743
1778968368683323600,8.68432373046875,-5.688728942993283,0.31916897164359687,-3.3124230050116776
1778968368693314600,8.694314453125,-5.668019332441688,0.21782368962690232,-3.08042977412641
1778968368703306800,8.704306640625,-5.4676908213645214,0.15732216691300271,-2.8808699093341827
1778968368713297700,8.714297607421875,-5.195546197354793,0.19586115640476345,-2.5666490616172553
1778968368723289900,8.724289794921875,-4.952127901613712,0.3497843285292387,-2.0977093613535165
1778968368733280800,8.73428076171875,-4.420657803156971,0.39182884192392226,-1.610814902204275
1778968368743272400,8.7442724609375,-3.7003292666643857,0.3244267460413277,-1.162648525378108
1778968368753263600,8.754263671875,-2.8357684925869107,0.10301832979544996,-0.6530933216094971
1778968368763255600,8.764255615234376,-2.1424726321876046,-0.2453973407290876,-0.07276420743763447
1778968368773246700,8.774246826171876,-1.5320041080787776,-0.3183050482906401,0.6671843908041715
1778968368783238700,8.78423876953125,-0.8358420445933937,-0.4184387625604868,1.4905103604346512
1778968368793229600,8.7942294921875,-0.2115107070878148,-0.4380969643630087,2.0385177521944047
1778968368803221800,8.8042216796875,0.37620647150874137,-0.4736984390981495,2.651718039354682
1778968368813212700,8.814212646484375,0.7834259209185839,-0.3717978612862527,3.5923826866865154
1778968368823204900,8.824204833984375,1.1066937061831355,-0.03670461367145181,4.389625536033511
1778968368833196500,8.834196533203125,1.8479799827694892,0.27512685469090936,5.153357745444774
1778968368843187500,8.8441875,2.447844403016567,0.2842136858575046,5.847798976486921
1778968368853179600,8.8541796875,2.674219501759112,0.15015139850080012,6.085491880318522
1778968368863170600,8.864170654296874,2.9265713378012177,-0.09279825681522488,5.983917757982015
1778968368873162800,8.874162841796876,3.0137437175586816,-0.5040691735729574,5.661126065796613
1778968368883153700,8.884153564453126,2.720862887251377,-0.9858896904587745,5.356876576995849
1778968368893145600,8.8941455078125,1.9128057984232902,-1.374076084227115,4.65721848808825
1778968368903136800,8.90413671875,0.9853510535374284,-1.6553651148095725,3.942202671051025
1778968368913128700,8.914128662109375,0.4128796671286225,-1.85599363174662,3.3955858568668362
1778968368923119600,8.92411962890625,0.11381225714087485,-1.9623998504146933,2.88712195546627
1778968368933111600,8.934111572265625,0.09704495447427033,-2.0634692380994557,2.5509412048757074
1778968368943102700,8.944102783203125,0.19394772399887442,-2.1781042098000643,2.145785117736459
1778968368953094700,8.9540947265625,0.2630059165254235,-2.3776735730729994,1.5874363647043703
1778968368963085600,8.96408544921875,0.4079062626302242,-2.6191853045403954,1.030930609190464
1778968368973077800,8.974077880859374,0.5679942409947514,-2.8233997171401977,0.5986772562891245
1778968368983068700,8.984068603515626,0.780965668284893,-2.820894164060056,0.17007424258887766
1778968368993060600,8.994060546875,0.8887211096048354,-2.635391173931956,-0.20153671782314775
1778968369003051800,9.0040517578125,1.5313735550902783,-2.4931986254811287,-0.5021411281198263
1778968369013043700,9.014043701171875,2.082282951901853,-2.1007729867078364,-0.9338362626165151
1778968369023034600,9.02403466796875,2.083038446444273,-1.685284013863653,-1.392299577051401
1778968369033026800,9.03402685546875,2.240722870798409,-1.271856941985339,-1.982928551441431
1778968369043018500,9.0440185546875,2.6386241645038124,-0.9539899928510188,-2.4891852981865403
1778968369053009700,9.054009765625,3.124662299084663,-0.8334789687238633,-2.7362071713775395
1778968369063000600,9.06400048828125,3.3703836110711096,-0.9464990525737405,-2.8567437683373686
1778968369072992500,9.073992431640624,3.0323510951340196,-0.9425596672981977,-3.1633477113097905
1778968369082984700,9.083984619140624,2.3488851393535732,-0.7348547822341323,-3.786225342875719
1778968369092975600,9.0939755859375,1.5385047221444546,-0.39260099534019827,-4.35961910482645
1778968369102967800,9.1039677734375,1.1829016243338584,-0.031367636557668443,-4.4909927376210685
1778968369112958700,9.113958740234375,1.2807540957987307,0.4172746872171759,-4.592572120654583
1778968369122950700,9.12395068359375,1.5718119484625757,0.9812510708726941,-4.628288161680102
1778968369132941800,9.13394189453125,1.958435038436949,1.3800490211568772,-4.660153957018256
1778968369142933500,9.14393359375,2.053695301451534,1.7708467664673924,-4.69858451769948
1778968369152924700,9.153924560546875,1.6266297264516352,2.2434628171563147,-4.778665185630321
1778968369162916600,9.16391650390625,0.6602002310052514,2.6694945190638304,-4.528833515715599
1778968369172907500,9.173907470703124,-0.3597767302334308,3.099188835132122,-3.8995308195382354
1778968369182899700,9.183899658203124,-1.102679209844768,3.4124434681653972,-3.172603030911088
1778968369192890600,9.193890625,-1.6433067204862832,3.6402158664852378,-2.1187188316345216
1778968369202882800,9.2038828125,-2.4127371415391563,3.9724358967512843,-1.25574591127038
1778968369212873700,9.213873779296875,-3.220582048921287,4.368479287630319,-0.3517518292099237
1778968369222865700,9.22386572265625,-3.730207103055715,4.673184703505039,0.20349661971926689
1778968369232856800,9.23385693359375,-3.7224841075882313,4.93713608418703,0.5268202268242835
1778968369242848500,9.2438486328125,-3.332572059071064,4.984605106848478,0.8201783192545175
1778968369252839700,9.253839599609375,-2.7162735136345026,4.590875253608822,1.062529278025031
1778968369262830000,9.263830078125,-2.078174347539246,3.625907062886655,1.2540274169147014
1778968369272821000,9.273821044921876,-1.4306930205926298,2.5410335588455197,1.0952186647057534
1778968369282813200,9.283813232421876,-0.9710179922804236,1.672501835310459,0.9207529091596602
1778968369292804000,9.29380419921875,-0.5913806695401668,0.8393409926250577,1.185171907353401
1778968369302795800,9.303795654296875,-0.008986731792986393,-0.08281710715740918,1.4556693486779928
1778968369312787000,9.313786865234375,1.0421890853077174,-0.7643485877439379,1.8216063551068304
1778968369322779000,9.32377880859375,2.4899615432560442,-1.5519925647489725,2.1435247715890404
1778968369332770000,9.33377001953125,3.54406172337085,-2.259489530588686,2.3995260700494048
1778968369342762000,9.343761962890625,3.886725406239927,-2.608615979731083,2.395067921596765
1778968369352753000,9.3537529296875,3.1075778932929037,-2.856725940419733,2.5625451334297655
1778968369362745000,9.3637451171875,1.9171485038027167,-2.5905320415079593,3.064402768433094
1778968369372736000,9.373736083984374,0.9493374908700585,-2.1139643305838107,3.628617198628187
1778968369382728200,9.383728271484374,0.3560074408277869,-1.7454785164549946,3.978164211270213
1778968369392720000,9.393719970703126,-0.3597542261406779,-1.2705603263035417,4.441603560552001
1778968369402711000,9.4037109375,-1.3027896942570805,-1.0839330083206296,4.570735551899671
1778968369412703000,9.413702880859375,-1.9896116824671626,-1.2170046772047876,4.096815140613914
1778968369422694000,9.42369384765625,-2.3575769798532127,-1.2748827195473014,3.472132505452633
1778968369432686000,9.43368603515625,-2.6373689037457106,-1.2650837945885955,2.935823150271177
1778968369442677000,9.443677001953125,-2.8536370344936848,-1.1559274004295468,2.580544900500774
1778968369452669000,9.4536689453125,-2.808812681122124,-1.0379467715628445,2.2392852392107248
1778968369462660000,9.46366015625,-2.5108304360225797,-0.9374417397625744,2.0253642561107874
1778968369472652000,9.473652099609374,-1.9899962978705763,-0.8951064267277717,1.7141648020416498
1778968369482643000,9.483642822265624,-1.2937445102751255,-0.7374031515426933,1.4340057984024286
1778968369492635100,9.49363525390625,-0.7082140280678868,-0.49147126554548737,1.1861521505624055
1778968369502626000,9.5036259765625,-0.12291589331179857,-0.39197701822295783,0.959306803959608
1778968369512618000,9.513617919921876,0.7088149165704846,-0.36896468368694185,0.8286381045639515
1778968369522609000,9.52360888671875,1.5479218081787227,-0.41968087157607076,0.7120464458376169
1778968369532600800,9.533600830078125,1.7129326298981904,-0.6311915786638855,0.7306938631623983
1778968369542592000,9.543592041015625,1.2082865332201123,-0.7643779599688947,0.4819330373495817
1778968369552584000,9.553583984375,0.4499360168471932,-0.45509325347989793,-0.6393477048516273
1778968369562575000,9.5635751953125,1.1815002331033349,0.15893398602381348,-1.7427543521881101
1778968369572567000,9.573567138671875,3.4737706280484795,0.7477338452905417,-2.497145901802182
1778968369582558000,9.583557861328124,6.588154401963949,0.8012634831652045,-2.4804268221914767
1778968369592550100,9.593550048828124,10.821957508122921,0.27344781556278464,-2.0071879634290934
1778968369602541000,9.603541015625,13.229882573205233,-0.21120047209486364,-1.1090735870569943
1778968369612533000,9.613532958984376,12.838847950398922,0.2037067553386092,-0.21861118674278257
1778968369622524000,9.62352392578125,10.403271492803096,0.812539348808676,0.17880115440189837
1778968369632515800,9.633515869140625,6.695119569689035,1.0604853511072694,-0.19354513454735278
1778968369642507000,9.643507080078125,3.5889696633726356,1.5937103304073215,-1.024393900898099
1778968369652499000,9.6534990234375,0.011769932770729064,2.469114570060372,-1.6895675364017486
1778968369662489900,9.66348974609375,-3.9167479117989537,2.805933034032583,-2.153759165355563
1778968369672482000,9.67348193359375,-5.535547383016348,2.0013459594026206,-3.345497591617703
1778968369682473000,9.683472900390624,-5.9284758567452425,1.0701859302580357,-4.564669968250394
1778968369692465200,9.693465087890624,-6.885507701510191,0.42541167031303045,-5.7114002090066665
1778968369702456000,9.7034560546875,-8.0529113124609,0.9040585255987942,-6.607338994905352
1778968369712448000,9.713447998046876,-8.281104566541314,1.4286612225040793,-5.913460658442974
1778968369722439200,9.723439208984376,-7.9522373538345095,0.7945015878148376,-4.9805344964087
1778968369732430800,9.733430908203125,-6.538911355367302,0.5433987289205193,-4.848725394806266
1778968369742422000,9.743422119140625,-5.645609932234883,0.5136639542616903,-3.986862481510639
1778968369752414000,9.7534140625,-5.170253935188055,0.5080860079988837,-3.0824440365582704
1778968369762404900,9.76340478515625,-4.791085106742382,0.5092579743877053,-2.8779624974548814
1778968369772397000,9.77339697265625,-4.568760452434421,0.3899043036021292,-2.7976258089363575
1778968369782388000,9.783387939453124,-4.45100384158194,0.25981983383521434,-2.647611188557744
1778968369792380200,9.793380126953124,-4.343678023850917,0.32222236786484715,-2.5301070911616086
1778968369802371000,9.80337109375,-4.124132186606526,0.47257659546136854,-2.3299399081259966
1778968369812363000,9.813363037109376,-3.719702367915213,0.6545059648863971,-2.0005571471124886
1778968369822354200,9.823354248046876,-2.652503344513476,0.6790405405536294,-1.4797837992370129
1778968369832345900,9.833345947265625,-1.22652098582983,0.5780823581583797,-0.668960752826929
1778968369842336800,9.843336669921875,-0.0635237931445241,0.3722920745439827,0.16630582996606827
1778968369852329000,9.853328857421875,0.9412976845383644,0.10026669299975037,1.0349527043133973
1778968369862319900,9.86331982421875,1.8314961732193826,-0.3180789844498038,1.7994693421006203
1778968369872312000,9.87331201171875,2.3365286388665436,-0.6271706525847316,2.5121833119362593
1778968369882303000,9.883302978515625,2.5717156973570585,-0.950158013472706,2.994561754965782
1778968369892295000,9.893294921875,2.5599922340765593,-1.4127800550222396,3.49366044664979
1778968369902286000,9.9032861328125,2.456472238369286,-1.8680967419944703,3.644225686648488
1778968369912278000,9.913278076171874,2.116945684482157,-2.0473830495648087,3.669863401252031
1778968369922269200,9.923269287109376,1.6491773660853504,-2.049519184810668,3.7459681512892242
1778968369932260900,9.9332607421875,1.1647928439304231,-2.035136877584457,3.793470491698384
1778968369942252000,9.943251953125,0.6079261461496352,-1.8936445863574742,3.751550919857621
1778968369952244000,9.953243896484375,-0.04552519511729478,-1.7144810283839702,3.77975176294744
1778968369962236000,9.96323583984375,-0.5568772191748023,-1.5754058813013136,3.6822704628825185
1778968369972227000,9.97322705078125,-0.9359645068168639,-1.6069427369460463,3.52260480158329
1778968369982218000,9.983218017578125,-1.168877482895553,-1.6233539196513593,3.437977722394466
1778968369992210000,9.9932099609375,-1.2593971272543072,-1.6521404536746442,3.330376594853401
1778968370002201000,10.003201171875,-1.2348434084951876,-1.74380371511057,3.174048553544283
1778968370012193000,10.013193115234374,-1.0472840703591704,-1.8582684448108076,2.9755893434703347
1778968370022184000,10.023183837890626,-0.7149024197906255,-1.940546038264036,2.7360896824777123
1778968370032176000,10.033176025390626,-0.24470307485461235,-1.939243285102397,2.532780694285035
1778968370042167800,10.043167724609376,0.10863105511069297,-1.897575349935144,2.1102274821430442
1778968370052159000,10.053158935546875,0.3119032184243202,-1.8440471733652055,1.5318717138707636
1778968370062151000,10.06315087890625,0.5011901110053062,-1.7566050367556512,0.9890285730063915
1778968370072141800,10.073141845703125,0.7390024034328758,-1.5157036922715603,0.3967833955913782
1778968370082134000,10.083134033203125,1.0487792773529887,-1.2502603194661437,-0.2656201906770468
1778968370092125000,10.093125,1.3393041921839117,-0.7572970617972314,-0.730851099550724
1778968370102116000,10.1031162109375,1.7651897636190055,-0.39020518624484535,-1.258726388385892
1778968370112108000,10.11310791015625,2.318985675652325,-0.09198679430186749,-1.6740017184793947
1778968370122100000,10.123099853515624,3.236613146267831,0.01676394166573882,-2.0372084231615064
1778968370132091100,10.133091064453126,4.031549179977178,-0.29154812039881944,-2.4455068999797103
1778968370142082800,10.143082763671876,4.305342447976768,-0.6339756564244627,-2.6022359233051535
1778968370152074000,10.153073974609375,3.8938592036426063,-0.8701441271677612,-2.8094290594547986
1778968370162066000,10.16306591796875,2.942582561403513,-1.0376511496171354,-3.306118351909518
1778968370172056800,10.173056884765625,1.8589760085582732,-1.0474012669980526,-3.8181115964800116
1778968370182048000,10.183048095703125,1.175896567877382,-0.7056329255335032,-4.048083550670743
1778968370192040000,10.1930400390625,1.0898130062699318,-0.19531492069885134,-4.215689941841363
1778968370202030800,10.20303076171875,1.4335282440185546,0.3513533314116299,-4.319097124823927
1778968370212023000,10.21302294921875,1.9628079928241668,0.8688061565622687,-4.6733892861664295
1778968370222015000,10.223014892578124,2.254448613812029,1.216857523819059,-5.132662163418531
1778968370232006100,10.233006103515624,2.1112973033316433,1.6277124071218072,-5.362689647188782
1778968370241998000,10.242998046875,1.3532862480461596,2.086052533568442,-5.286670237347483
1778968370251989000,10.252989013671876,0.3750739603474736,2.486244568559527,-4.8536833094745875
1778968370261980200,10.262980224609375,-0.5095265621960163,2.8880817404091355,-4.0726445759534835
1778968370271969500,10.272969482421875,-1.2625628978088497,3.235884539732337,-2.9941531741648912
1778968370281960700,10.282960693359374,-1.7462790191829203,3.538695520162582,-2.04848501945734
1778968370291952600,10.29295263671875,-2.175219594274461,3.923553500160575,-1.151486495372653
1778968370301944800,10.30294482421875,-2.494798461893201,4.322347651052475,-0.48786535000801085
1778968370311935700,10.312935791015626,-2.5411890416681766,4.800873510307073,-0.1271288348317146
1778968370321926700,10.3229267578125,-2.4335332613304255,5.3143537785649295,0.28148820641636846
1778968370331918600,10.332918701171875,-2.198236020463705,5.755671312409639,0.5483581048935652
1778968370341909800,10.34290966796875,-1.9820076372042297,5.78841856675744,0.7479583016961813
1778968370351901400,10.3529013671875,-1.6092472144961356,5.100055194324255,0.8956745820045471
1778968370361892600,10.362892578125,-1.0308601743027568,3.8298645781159397,1.1969412556022405
1778968370371884500,10.372884521484375,-0.5364645457431674,2.6444565239191054,1.3121458438843487
1778968370381875500,10.38287548828125,-0.15459902555942534,1.6564305520839988,1.5497873097896575
1778968370391867600,10.39286767578125,-0.027897768490016458,0.6706785165302455,2.0336282265871763
1778968370401858600,10.402858642578124,0.29646307270824906,-0.21447817859128115,2.5617507681816813
1778968370411850800,10.412850830078124,0.8270961358189582,-0.8750051573328673,2.888351789522171
1778968370421841700,10.422841552734376,1.2476783401489258,-1.476060687060654,3.207574975571036
1778968370431833600,10.43283349609375,1.5912039005443452,-2.0652311332054434,3.461290208920836
1778968370441824800,10.44282470703125,1.6435899213418363,-2.4922256887957452,3.642992345461249
1778968370451816400,10.45281640625,1.0939613581210375,-2.458769117134809,4.262945029491186
1778968370461807600,10.4628076171875,0.6524900950193405,-2.133865839622915,4.600062768670917
1778968370471799600,10.472799560546875,-0.05062164147347212,-1.905873953333497,4.975413500133157
1778968370481790500,10.48279052734375,-0.6124541449680924,-1.8976742802649735,5.0448231364458795
1778968370491782700,10.49278271484375,-1.0460746945694088,-1.9594430464357135,4.775428687927127
1778968370501773600,10.502773681640624,-1.5097992905333637,-1.9681093141026793,3.996080976232886
1778968370511765800,10.512765869140624,-1.992166043125093,-1.9630448703199623,3.3569822777062654
1778968370521756700,10.522756591796876,-2.2707167347848416,-1.9780140375234185,2.8801281510561703
1778968370531748600,10.53274853515625,-2.377397532610595,-1.9085707912020384,2.435878070890903
1778968370541739800,10.54273974609375,-2.4230095292285085,-1.8566607173532246,2.0065905820578336
1778968370551731700,10.552731689453125,-2.363197742344439,-1.8676415455728768,1.5175252086102962
1778968370561722600,10.56272265625,-2.103223448599875,-1.8610211045198142,1.133860237789154
1778968370571714600,10.572714599609375,-1.6726386134326456,-1.6323922355011105,0.8171458196908236
1778968370581705500,10.58270556640625,-1.2523831568390131,-1.2938260510787367,0.5646148276895284
1778968370591697700,10.59269775390625,-0.7161448210671544,-1.0249237699910998,0.42647301593422887
1778968370601688600,10.6026884765625,-0.08966039718091487,-0.8037890561200678,0.1196136368960142
1778968370611680500,10.612680419921874,0.9528668340399861,-0.6815490162432193,-0.24072423435151574
1778968370621671700,10.622671630859376,1.9349851892665026,-0.6107217682175338,-0.3583148409873247
1778968370631663600,10.63266357421875,2.2721692716807125,-0.48241599856093526,-0.43546646972894665
1778968370641654800,10.64265478515625,2.0266057806044815,-0.22754399639144537,-0.691753014871478
1778968370651646700,10.652646728515625,2.1296385773167015,-0.2112447496280074,-1.6382038443893194
1778968370661637600,10.6626376953125,3.4790646428033707,-0.1525733649507165,-2.2528367947012184
1778968370671629600,10.672629638671875,5.307628269702196,0.09511267123743891,-2.0882804387509823
1778968370681620500,10.682620361328125,7.869881142187118,0.4712836330413818,-1.3335977972358464
1778968370691612700,10.69261279296875,10.878173316341638,0.4542470119141042,-1.1673398980647325
1778968370701603600,10.702603515625,11.841195341432094,0.6362912398904562,-1.3241922555088996
1778968370711595500,10.712595458984374,10.47197151954174,1.1497191934391855,-0.9975228451073169
1778968370721586700,10.722586669921874,9.155793059140443,1.466807851677388,-0.9348749580144882
1778968370731578600,10.73257861328125,7.364398302423954,1.8190291980952022,-1.753624121248722
1778968370741569500,10.742569580078126,3.7815725486338136,2.1195485604569315,-2.7596494217634198
1778968370751561700,10.752561767578126,-0.08976239625066518,1.7411774582602082,-3.7473277492046355
1778968370761552600,10.762552734375,-2.104353329412639,1.1504748341120778,-5.212995344805718
1778968370771544600,10.772544677734375,-3.7621839575529097,0.8414837037421763,-6.334335708239674
1778968370781535700,10.78253564453125,-5.833154365062713,0.8399797289200127,-6.469069757378101
1778968370791527400,10.79252734375,-7.835947308403253,0.51804728391245,-5.746473275953531
1778968370801518600,10.8025185546875,-7.431735808637738,0.9521513792470097,-4.958376440614462
1778968370811510500,10.812510498046874,-6.9917410478293895,0.6842176509305834,-4.283681528049708
1778968370821501700,10.822501708984374,-6.534581801730394,0.43908392957374454,-3.1991929316729304
1778968370831493600,10.83249365234375,-6.2381689979046575,0.43319750188365574,-2.447579614600539
1778968370841484500,10.842484619140626,-6.3701353358954185,0.3645622109442949,-1.9711895983308552
1778968370851476700,10.852476806640626,-6.454993885752558,0.4124284162297845,-1.5575491759628057
1778968370861467600,10.862467529296875,-6.266041924214362,0.500129203775525,-1.4857278023332356
1778968370871459800,10.8724599609375,-6.001798282587528,0.4785052548579871,-1.5355051019370556
1778968370881450800,10.88245068359375,-5.622326087281108,0.3240731102980673,-1.6427636996507644
1778968370891442400,10.8924423828125,-5.125718043369054,0.2103589067041874,-1.636848922649026
1778968370901433600,10.90243359375,-4.40289739779979,0.15438421376496553,-1.4473720604538918
1778968370911424500,10.912424560546874,-3.6117139946222303,0.00733268097564578,-1.1267851848363877
1778968370921416400,10.92241650390625,-2.8735668928444382,-0.1517296076029539,-0.5591717598527669
1778968370931407600,10.93240771484375,-2.3309505464732645,-0.253804957459867,0.17974223464429379
1778968370941399600,10.942399658203126,-1.6559250867798923,-0.38585195947140455,0.9394032490938902
1778968370951390500,10.952390380859375,-0.6046764967039228,-0.490065782661736,1.6761960136532783
1778968370961382700,10.962382568359375,0.11996288872510194,-0.7823730508647858,2.4122481889784333
1778968370971373600,10.97237353515625,0.37164953885674473,-0.9115141023017466,3.0581898852676153
1778968370981365800,10.98236572265625,0.4869067341089248,-0.8146031494706869,3.6322646152198312
1778968370991356700,10.992356689453125,0.5231131889998912,-0.6316803850941359,4.165536210140585
1778968371001348600,11.0023486328125,0.625556495386362,-0.39920273169279097,4.68377624014616
1778968371011339800,11.01233984375,0.6296472718313336,-0.37039983105659485,4.935705174601078
1778968371021331500,11.02233154296875,0.7894333446398377,-0.258569979904592,4.988534847512841
1778968371031322600,11.032322509765624,1.076999994187057,-0.30398090099245306,5.075155146345496
1778968371041314600,11.042314453125,1.6154840630590914,-0.310264219045639,5.109153277537226
1778968371051305500,11.052305419921876,1.894708123935759,-0.30590456253141163,4.909840665504336
1778968371061297700,11.062297607421876,2.1331936394497752,-0.450434321758151,4.606391971692442
1778968371071288600,11.07228857421875,2.324941515316814,-0.6977392496742307,4.376523477876186
1778968371081280800,11.08228076171875,2.538793086442351,-0.9796990191251039,3.9697424198836084
1778968371091271700,11.092271728515625,2.589797589753568,-1.2043117843702436,3.471440431535244
1778968371101263600,11.102263671875,2.3718913364097474,-1.3544094068571924,2.8592274018466473
1778968371111254800,11.1122548828125,1.9888100106954574,-1.4528710962615907,2.039303934136033
1778968371121246500,11.12224658203125,1.6089385869383812,-1.5731566410697995,1.3050988479822874
1778968371131237600,11.132237548828124,1.2400000606060027,-1.749260080820322,0.6031517713546752
1778968371141229600,11.1422294921875,0.9987675844714045,-1.9670465071767567,-0.20675825186371802
1778968371151220500,11.152220458984376,0.9666521982863545,-2.1629633392915126,-0.7841407911896705
1778968371161212700,11.162212646484376,1.4147566157922147,-2.2404728415600954,-1.4510153853923082
1778968371171203600,11.17220361328125,1.674208639228344,-2.1587454293355344,-1.7391501902163027
1778968371181195800,11.18219580078125,1.8751466605059801,-2.0045422712258993,-1.9933581755191088
1778968371191186700,11.192186767578125,2.1366730059981345,-1.8032390698976815,-2.2166016982376573
1778968371201177600,11.202177490234375,2.595616797426343,-1.6244441991060972,-2.478213822317123
1778968371211169800,11.212169677734375,3.164676329565048,-1.6153531301558017,-2.6336808628827333
1778968371221160700,11.22216064453125,3.703095808768272,-1.803859686014056,-2.7400580015867946
1778968371231152600,11.232152587890624,3.4742554889559742,-1.7555998052358626,-2.88091141038835
1778968371241143800,11.242143798828126,2.714202844840288,-1.47241750825271,-3.1846120331346985
1778968371251135500,11.252135498046876,1.9565337348602712,-1.2449269956141709,-3.7381104235261677
1778968371261126400,11.26212646484375,1.3603634929560124,-0.8387393734700977,-4.247209115698934
1778968371271118300,11.272118408203125,1.3929938429258764,-0.258503782800585,-4.426658504876494
1778968371281109500,11.282109619140625,1.8678535808883607,0.6159257666014134,-4.140351500001549
1778968371291101400,11.292101318359375,2.448797465957701,1.3444944543033837,-3.659246145647764
1778968371301092400,11.30209228515625,2.6035227482452985,1.6786027825340628,-3.461841413062811
1778968371311084500,11.31208447265625,2.4178530232481656,1.6891203771561383,-3.577555119910836
1778968371321075500,11.322075439453124,1.6672504906535148,1.823111352842301,-3.7856484197705984
1778968371331067600,11.332067626953124,0.4852475687250495,2.1397946451500056,-3.763177644765377
1778968371341058600,11.34205859375,-0.39675679984539747,2.562810506367683,-3.5664702467948195
1778968371351050500,11.352050537109376,-1.1695444223716855,3.034473494115472,-3.0580957772433757
1778968371361041700,11.362041748046876,-1.806435673981905,3.443183474344015,-2.318978369128704
1778968371371033300,11.372033447265625,-2.5811358521312475,3.909020240156352,-1.6754998480826615
1778968371381024500,11.3820244140625,-3.242866945965588,4.404441996893286,-1.1689958485782146
1778968371391016400,11.392016357421875,-3.67461118030101,4.8082794026494025,-0.691380089905858
1778968371401007400,11.40200732421875,-3.8687805842265486,5.1157554522812365,-0.2939823618084192
1778968371410999600,11.41199951171875,-3.767342070968449,5.2671822775453325,0.09004735067188739
1778968371420990500,11.421990478515625,-3.387329777435958,5.13370728855729,0.38757366869747634
1778968371430982700,11.431982666015625,-2.726289588475227,4.391095024064183,0.66590019621253
1778968371440973600,11.4419736328125,-1.931480396015942,3.3209780673891305,0.9403355615079403
1778968371450964500,11.451964599609376,-1.216640227806568,2.427681466562301,1.0178501783430576
1778968371460956700,11.461956787109376,-0.5092570976048708,1.611217930047214,1.2556681698590517
1778968371470947600,11.471947509765625,0.01788490851968527,0.629350042450428,1.533447000363469
1778968371480939300,11.481939208984375,1.0207356706514954,-0.27481793487221,1.9071873740196228
1778968371490930400,11.491930419921875,2.6007585442289707,-1.1639976018995046,2.4032699327528477
1778968371500922400,11.50192236328125,4.080819406841695,-1.943262749876827,2.79750890455842
1778968371510913500,11.51191357421875,4.581943759134411,-2.702019070571661,2.9391724606990812
1778968371520905500,11.521905517578125,3.5995103466093537,-2.9943899055302143,3.3374335276275873
1778968371530896400,11.531896484375,2.2499647463962433,-2.7134941120490432,4.007482660213112
1778968371540888600,11.541888671875,1.1713196153506635,-2.5109382803112266,4.361141199827194
1778968371550879500,11.55187939453125,0.07020195573419333,-2.2677210601001976,4.307040776327252
1778968371560871700,11.56187158203125,-1.1356164338067174,-2.1252406346186996,4.465960587695241
1778968371570862600,11.571862548828125,-1.9900307846620677,-1.9409429286271334,4.282321345612407
1778968371580854500,11.5818544921875,-2.778957641084492,-1.7912119474954902,3.9932361081957817
1778968371590845700,11.591845703125,-3.3056258922174573,-1.7018850200526416,3.774880357518792
1778968371600837400,11.60183740234375,-3.421036816726625,-1.6059193852476774,3.4740994216114283
1778968371610828300,11.611828369140625,-3.3838340442746877,-1.4848938357271253,3.1375171044826504
1778968371620819500,11.6218193359375,-3.124332336477935,-1.4297373273029923,2.7872335942596194
1778968371630811400,11.631811279296874,-2.5884128573969005,-1.404407363474369,2.539934657692909
1778968371640802300,11.64180224609375,-2.025952577392757,-1.2349706881366669,2.3589181653290985
1778968371650794500,11.65179443359375,-1.6550257998526094,-1.0594431485779583,2.040661193963885
1778968371660785400,11.661785400390626,-1.28689157564044,-0.9907473596230149,1.6838491587549447
1778968371670777600,11.671777587890626,-0.8709060514509678,-0.7890728407643735,1.2326847691565752
1778968371680768500,11.6817685546875,-0.2994654693946242,-0.5273674854435026,0.8102548911333084
1778968371690760400,11.691760498046875,0.36053573190718885,-0.42639366708770393,0.2860515688091516
1778968371700751600,11.701751708984375,0.8330909923195838,-0.2529313894957304,-0.30640754361748695
1778968371710743600,11.71174365234375,0.9284326500073075,-0.0742874714821577,-1.1838111403942106
1778968371720734700,11.721734619140625,1.800140665490925,-0.03799216926395893,-2.5528560985863207
1778968371730726400,11.731726318359375,3.9092505417808887,0.4052751834742725,-3.4288363845616576
1778968371740717300,11.74171728515625,7.215752047789096,0.9257255830056965,-3.658033847248554
1778968371750709500,11.75170947265625,12.210330267119406,1.0418915636658668,-3.2321757483422755
1778968371760700400,11.761700439453126,15.292584334063529,1.5036084730692207,-1.6973586286693811
1778968371770692600,11.771692626953126,14.666924962824583,2.2297041947863994,-0.16563187622725964
1778968371780683500,11.78168359375,12.521108865427971,1.6998364169597624,-0.4556067559599876
1778968371790674400,11.79167431640625,10.59082820059061,1.2167096397809685,-1.5641484280973672
1778968371800666600,11.80166650390625,6.941524772286415,1.4392805239349602,-2.67777544067502
1778968371810657500,11.811657470703125,1.2012103112235664,1.970077399305254,-3.428106316721439
1778968371820649500,11.8216494140625,-2.883819699050486,1.946231536554545,-4.332808839312196
1778968371830640600,11.831640625,-4.363819771386683,1.5506193766996264,-5.955101413342357
1778968371840632300,11.84163232421875,-6.182900699669123,0.9404416522309184,-6.9170216146707535
1778968371850623500,11.85162353515625,-8.293448499807715,0.8474296065345406,-7.288173140877485
1778968371860615400,11.861615478515626,-8.652125744366645,1.0533788801029325,-6.803818429338931
1778968371870606300,11.8716064453125,-7.518426834619045,0.9618167409539222,-5.454361968713998
1778968371880598500,11.8815986328125,-6.24676263872683,0.637386341650784,-3.863983120816946
1778968371890589400,11.89158935546875,-5.622137871232629,0.5578909262619912,-2.835398197969794
1778968371900581600,11.90158154296875,-5.869506365904211,0.3516651738397777,-2.3410797262996432
1778968371910572500,11.911572509765625,-6.133503339293599,0.2548603117316961,-1.8843577025741338
1778968371920564500,11.921564453125,-6.332810690629482,0.23786329196244477,-1.6001017850100994
1778968371930555600,11.9315556640625,-6.378892058324814,0.2625876911133528,-1.483625277096033
1778968371940546600,11.941546630859374,-6.147047295999527,0.27021877051368354,-1.4478946230232714
1778968371950538500,11.95153857421875,-5.719331586527824,0.3208468417279422,-1.3546212960422037
1778968371960529700,11.96152978515625,-5.140013695225119,0.36238603594899177,-1.2546101852387188
1778968371970521300,11.971521240234376,-4.350141666907072,0.33791561155915256,-1.09099140239954
1778968371980512300,11.98151220703125,-3.449892032071948,0.17165405912622808,-0.7849561992257833
1778968371990504400,11.99150439453125,-2.726575711940229,-0.06264993291944265,-0.25843992378413677
1778968372000495400,12.001495361328125,-1.957616707791388,-0.2063455794095993,0.40537645189166066
1778968372010487600,12.011487548828125,-0.9690393856838345,-0.39139074276760216,1.1006266612291336
1778968372020478500,12.021478515625,-0.3263903011992574,-0.6930345791146159,1.788945609998703
1778968372030470700,12.031470703125,0.07426029121428727,-0.7885453097589313,2.5556144573837516
1778968372040461600,12.041461669921874,0.26472499540299177,-0.6978741281002759,3.1621313212573527
1778968372050453500,12.05145361328125,0.31536855644732714,-0.6029238078176975,3.6160458863466975
1778968372060444700,12.061444580078126,0.5096455124005675,-0.5182945366717875,4.056936719211936
1778968372070435600,12.071435546875,0.45963674212843175,-0.3416711647003889,4.525393604394793
1778968372080427500,12.081427490234375,0.5637628870353102,-0.13855886812359094,4.6826101189762355
1778968372090418700,12.091418701171875,0.9130486183926463,-0.06632219169139862,4.6317736657083035
1778968372100410400,12.101410400390625,1.3424600258663295,-0.05618745890706777,4.722003971731662
1778968372110401300,12.1114013671875,1.6502292132258414,-0.07563114117607474,4.892821726164222
1778968372120393500,12.1213935546875,1.804687953531742,-0.18183920692354438,4.724131046888232
1778968372130384400,12.13138427734375,1.899756639496982,-0.21438976965546608,4.452735779941082
1778968372140376600,12.14137646484375,1.9426842193365097,-0.38298882512524723,4.276303692758083
1778968372150367500,12.151367431640624,2.0490897073522207,-0.5252155681066215,3.921608211311698
1778968372160359400,12.161359375,2.271357663036883,-0.7508886560596525,3.5091754111677407
1778968372170350600,12.1713505859375,2.3810183534562586,-0.8845502536609768,3.190168498218059
1778968372180342500,12.181342529296876,2.4378043627783654,-0.944193844371289,2.7330104211628434
1778968372190333700,12.191333740234375,2.3841633734837173,-1.0257435619413853,2.150299380290508
1778968372200324600,12.20132470703125,2.3751731345593927,-1.1234218458831309,1.6956009713470934
1778968372210316500,12.211316650390625,2.252212671453506,-1.1749924586445093,0.9946347224503755
1778968372220307700,12.2213076171875,2.224060489811003,-1.1483329997777938,0.22386253139972687
1778968372230299400,12.23129931640625,2.297381746609509,-1.1532279322125016,-0.2696773571133613
1778968372240290300,12.241290283203124,2.1166519622325897,-1.0802053660996258,-0.797108993834257
1778968372250282500,12.251282470703124,1.9510951970681547,-0.9849673149168491,-1.38969085585773
1778968372260273400,12.2612734375,2.0045488470971584,-0.9364334395028651,-2.073086376750469
1778968372270264600,12.2712646484375,2.245115406668931,-0.9752994689919053,-2.6393852120041847
1778968372280255500,12.28125537109375,2.4454879030182957,-1.0961495158150791,-2.911371430581808
1778968372290247700,12.29124755859375,2.105944690257311,-1.095353397001326,-3.0622154875218865
1778968372300238600,12.301238525390625,1.3969181767627596,-0.8806699050962924,-3.2923686434984205
1778968372310229800,12.311229736328125,0.7452610254362225,-0.7172425531759857,-3.7895682235628363
1778968372320221700,12.3212216796875,0.33717443780302997,-0.537647618047893,-4.351385529488325
1778968372330212600,12.331212646484374,0.40275779382586474,-0.1804660188741982,-4.774460135155916
1778968372340204800,12.341204833984374,0.7727908373966813,0.3409495724275708,-5.108931743741035
1778968372350195700,12.35119580078125,1.275054130591452,1.0503550022371113,-5.110162746840715
1778968372360187600,12.361187744140626,1.779002892655134,1.7922757773347198,-5.225237571263313
1778968372370178800,12.3711787109375,1.9115911619365213,2.5077888763695952,-4.900812140396237
1778968372380170500,12.38117041015625,1.6851706166170537,3.0661230163544415,-4.3012931725859636
1778968372390161700,12.39116162109375,1.286570673123002,3.429599770149588,-3.771703481048345
1778968372400153600,12.401153564453125,0.4782081716075539,3.8442967158332464,-2.827166960719228
1778968372410144500,12.41114453125,-0.241563023263216,4.0753187635987995,-1.9455711729496716
1778968372420135700,12.4211357421875,-0.8678945946753025,4.248099927058815,-1.4153911143034696
1778968372430127600,12.431127685546874,-1.5145608058467506,4.47550933728516,-0.7963684046000242
1778968372440118500,12.441118408203126,-2.0062293475300073,4.745474863690138,-0.09216331991255283
1778968372450110700,12.45111083984375,-2.309508237732947,4.983890821099281,0.41925475511848925
1778968372460101600,12.4611015625,-2.4391473018199203,5.188413276734948,0.5639701000452041
1778968372470093800,12.47109375,-2.4959523081034423,5.275770657670497,0.7234124739825725
1778968372480084700,12.481084716796875,-2.538940970480442,4.8734290434300895,0.8594704652011393
1778968372490076400,12.491076416015625,-2.4304896558508275,3.8668741660833357,0.9953279654115438
1778968372500067600,12.501067626953125,-2.0781915909349915,2.838624758800864,0.8926064266055822
1778968372510059500,12.5110595703125,-1.7690806335777043,1.9617830336906015,0.9229384365051985
1778968372520050700,12.52105078125,-1.4285893263116478,1.0748547988519073,1.258791270315647
1778968372530041600,12.53104150390625,-1.2667150490522383,0.29668022259026766,1.734507917368412
1778968372540033500,12.541033447265624,-1.1645745250046253,-0.34480274072438477,2.241733216884732
1778968372550024700,12.551024658203126,-1.0731836507692933,-0.7389857445590198,2.706917948529124
1778968372560016600,12.5610166015625,-0.9024968292400241,-1.120949026028812,2.9999656598359343
1778968372570007600,12.571007568359375,-0.4903185883790254,-1.5591555882461368,3.1488118209570644
1778968372579999700,12.580999755859375,-0.08935790710300207,-1.8538083966620265,3.36872298438251
1778968372589990700,12.59099072265625,0.6791469235375523,-2.2191240563221273,3.2937820174276826
1778968372599982800,12.60098291015625,1.3701274927318094,-2.3209045148856937,3.4605116257637736
1778968372609973800,12.610973876953125,2.1706571086645123,-2.0516794315844775,4.033143755692243
1778968372619964700,12.620964599609374,2.559131233333051,-1.7889897414013742,4.429761147066951
1778968372629956600,12.63095654296875,2.3276421525776385,-1.6177636984288692,4.300803343242406
1778968372639947800,12.64094775390625,1.4078048969581722,-1.7608860750757156,3.99903924151659
1778968372649939700,12.650939697265626,0.40423283481448885,-1.9084666001752018,3.617195640903711
1778968372659930600,12.6609306640625,-0.1306593470454216,-1.8367171227380632,3.2024118937194346
1778968372669922600,12.670922607421875,-0.45249622272402046,-1.881554043330252,2.7706735046029087
1778968372679913700,12.680913818359375,-0.7439119489148259,-1.8251424202784894,2.500326285403967
1778968372689905700,12.69090576171875,-0.9120379800453782,-1.6400661311298608,2.246252740135789
