time,seconds_elapsed,z,y,x
1778968360060636200,0.06163623046875,0.2695830464363098,-0.8458206057548523,-0.24497929215431213
1778968360070628000,0.071628173828125,0.3583087623119354,-0.48289939761161804,-0.24419081211090088
1778968360080619000,0.081618896484375,0.3929700553417206,-0.0833120346069336,-0.24295911192893982
1778968360090610000,0.09160986328125,0.3679000437259674,0.20628048479557037,-0.2332976758480072
1778968360100602000,0.10160205078125,0.3067256212234497,0.3196485638618469,-0.1735920011997223
1778968360110593000,0.111593017578125,0.2682509124279022,0.28252267837524414,-0.07731015980243683
1778968360120585200,0.121585205078125,0.261099249124527,0.12211863696575165,0.02671317383646965
1778968360130576100,0.131576171875,0.2724837064743042,-0.12470358610153198,0.1093551367521286
1778968360140568000,0.141568115234375,0.29703405499458313,-0.37525591254234314,0.14554722607135773
1778968360150559200,0.151559326171875,0.325210303068161,-0.5097377300262451,0.126581609249115
1778968360160551200,0.16155126953125,0.3409096300601959,-0.5162609219551086,0.04286220669746399
1778968360170542000,0.1715419921875,0.3588765263557434,-0.39589765667915344,-0.08393856137990952
1778968360180534000,0.181533935546875,0.38370972871780396,-0.15210655331611633,-0.2289641946554184
1778968360190525000,0.19152490234375,0.41122743487358093,0.14969675242900848,-0.3639005422592163
1778968360200516000,0.20151611328125,0.43369466066360474,0.4292309284210205,-0.4530024528503418
1778968360210508000,0.211508056640625,0.43562445044517517,0.6050616502761841,-0.4836398661136627
1778968360220499000,0.2214990234375,0.40535202622413635,0.622474193572998,-0.4406926929950714
1778968360230491100,0.2314912109375,0.37298768758773804,0.5419207215309143,-0.3312940299510956
1778968360240482000,0.24148193359375,0.3830461800098419,0.4081006348133087,-0.20042839646339417
1778968360250474200,0.25147412109375,0.4381944537162781,0.22456151247024536,-0.08011585474014282
1778968360260464600,0.261464599609375,0.5248146057128906,0.06502377241849899,0.011790369637310505
1778968360270456600,0.27145654296875,0.6487842798233032,0.019881585612893105,0.057707712054252625
1778968360280447700,0.28144775390625,0.7940825819969177,0.10464920848608017,0.03354591503739357
1778968360290438700,0.291438720703125,0.9199516177177429,0.25746360421180725,-0.0498051792383194
1778968360300430600,0.3014306640625,0.9886593222618103,0.3921279311180115,-0.15447859466075897
1778968360310421800,0.311421875,0.9925577044487,0.4613725244998932,-0.26756155490875244
1778968360320413700,0.32141357421875,0.9451566338539124,0.4936782717704773,-0.3767207860946655
1778968360330404600,0.331404541015625,0.9191715121269226,0.27270206809043884,-0.5814249515533447
1778968360340396500,0.341396484375,0.8820249438285828,0.21606729924678802,-0.8830506205558777
1778968360350387500,0.351387451171875,0.8423452377319336,0.4257621467113495,-1.109171748161316
1778968360360379600,0.361379638671875,0.8844069242477417,0.49285197257995605,-1.202256441116333
1778968360370370600,0.37137060546875,1.0494980812072754,0.39553022384643555,-1.2214868068695068
1778968360380362500,0.381362548828125,1.2392722368240356,0.1816200613975525,-1.2386969327926636
1778968360390353700,0.391353759765625,1.3540819883346558,-0.2770921289920807,-1.2454522848129272
1778968360400344600,0.401344482421875,1.3716638088226318,-0.7360633611679077,-1.2515716552734375
1778968360410336800,0.411336669921875,1.3010073900222778,-0.9234632253646851,-1.2462795972824097
1778968360420327700,0.42132763671875,1.1740851402282715,-0.5974462628364563,-1.1753427982330322
1778968360430319600,0.431319580078125,1.0387365818023682,0.08222481608390808,-0.9845141768455505
1778968360440310800,0.441310791015625,0.9113752245903015,0.7503818869590759,-0.6864340305328369
1778968360450302700,0.451302734375,0.8116810321807861,1.1721892356872559,-0.3397960364818573
1778968360460293600,0.461293701171875,0.7344094514846802,1.3691518306732178,0.007314490154385567
1778968360470285600,0.47128564453125,0.640924870967865,1.415113925933838,0.30401092767715454
1778968360480276500,0.4812763671875,0.6126436591148376,1.1704472303390503,0.5384873151779175
1778968360490268700,0.4912685546875,0.6161813735961914,0.7265568375587463,0.7528802156448364
1778968360500259600,0.501259521484375,0.557030975818634,0.40712398290634155,1.0195544958114624
1778968360510250500,0.51125048828125,0.3981817066669464,0.39189305901527405,1.3184409141540527
1778968360520242700,0.52124267578125,0.11616786569356918,0.45148634910583496,1.5648729801177979
1778968360530233600,0.531233642578125,-0.1981014460325241,0.4773850739002228,1.7024729251861572
1778968360540225500,0.5412255859375,-0.4292127192020416,0.5279814004898071,1.741320013999939
1778968360550216700,0.551216796875,-0.5780549049377441,0.7131527066230774,1.6717623472213745
1778968360560208600,0.561208740234375,-0.7145786285400391,0.6390057802200317,1.4894179105758667
1778968360570199800,0.57119970703125,-0.828791618347168,0.5515102744102478,1.2097148895263672
1778968360580191500,0.58119140625,-0.9019606113433838,0.46298471093177795,0.8137401342391968
1778968360590182700,0.5911826171875,-0.856383740901947,0.2685626149177551,0.4540256857872009
1778968360600174600,0.601174560546875,-0.5912655591964722,0.36485666036605835,0.3341461420059204
1778968360610165500,0.61116552734375,-0.1257554590702057,0.6990792751312256,0.4548245072364807
1778968360620157700,0.62115771484375,0.35371312499046326,0.9924299120903015,0.7275732159614563
1778968360630148600,0.631148681640625,0.6462351679801941,0.9812059998512268,1.0601154565811157
1778968360640140500,0.641140625,0.5347757339477539,0.6278817653656006,1.2975552082061768
1778968360650131700,0.651131591796875,0.1341743767261505,-0.260098934173584,1.3862375020980835
1778968360660122600,0.66112255859375,-0.36271607875823975,-1.483918309211731,1.3384352922439575
1778968360670114600,0.671114501953125,-0.7303118109703064,-2.472014904022217,1.2231978178024292
1778968360680105700,0.681105712890625,-0.9391204118728638,-2.92476487159729,1.0877193212509155
1778968360690097700,0.69109765625,-1.0262608528137207,-3.0575742721557617,0.9540226459503174
1778968360700088600,0.701088623046875,-1.0288963317871094,-3.2030274868011475,0.7863984704017639
1778968360710080500,0.71108056640625,-0.9313346743583679,-3.393937349319458,0.5910689830780029
1778968360720071700,0.72107177734375,-0.7795528769493103,-3.299800395965576,0.4346213638782501
1778968360730063600,0.731063720703125,-0.7010011672973633,-2.9413435459136963,0.29436370730400085
1778968360740054500,0.741054443359375,-1.0179414749145508,-2.28825306892395,0.20898808538913727
1778968360750046700,0.751046630859375,-1.6744894981384277,-1.7559523582458496,0.14745549857616425
1778968360760037600,0.76103759765625,-2.043485641479492,-1.9720745086669922,-0.019090333953499794
1778968360770029600,0.771029541015625,-2.0068516731262207,-2.848027467727661,-0.32377713918685913
1778968360780020700,0.781020751953125,-1.8047031164169312,-3.755394458770752,-0.7000383734703064
1778968360790011600,0.79101171875,-1.5493927001953125,-4.237746238708496,-1.0688978433609009
1778968360800003600,0.801003662109375,-1.2815109491348267,-4.282288551330566,-1.3681154251098633
1778968360809994800,0.810994873046875,-1.0758556127548218,-3.9488048553466797,-1.5628554821014404
1778968360819986700,0.820986572265625,-1.0254888534545898,-3.216843605041504,-1.6968697309494019
1778968360829977600,0.8309775390625,-1.20644211769104,-1.862763524055481,-1.6026636362075806
1778968360839969500,0.840969482421875,-1.499780297279358,-0.7935880422592163,-1.1700741052627563
1778968360849960400,0.85096044921875,-1.5255597829818726,-0.3116796612739563,-0.6109893321990967
1778968360859952600,0.86095263671875,-0.9875867962837219,-0.12166710197925568,-0.10178498178720474
1778968360869943600,0.870943603515625,-0.598415732383728,-0.8684503436088562,0.17307570576667786
1778968360879935500,0.880935546875,-0.26267874240875244,-1.694761872291565,0.5612772703170776
1778968360889926700,0.8909267578125,0.020177077502012253,-1.8681567907333374,0.9343622922897339
1778968360899918600,0.900918701171875,0.23545236885547638,-2.0240132808685303,1.192651629447937
1778968360909909800,0.91090966796875,0.24560710787773132,-1.9136918783187866,1.3078681230545044
1778968360919901700,0.920901611328125,0.05317428335547447,-1.3766587972640991,1.137078046798706
1778968360929892600,0.930892578125,-0.09579282999038696,-0.7809884548187256,0.6752356290817261
1778968360939884500,0.940884521484375,-0.22804006934165955,-0.18618789315223694,0.0726696252822876
1778968360949875700,0.950875732421875,-0.3143233060836792,-0.007754825055599213,-0.44254857301712036
1778968360959866600,0.96086669921875,-0.40057751536369324,-0.38559478521347046,-0.7041652798652649
1778968360969858600,0.970858642578125,-0.5209032893180847,-0.9717898368835449,-0.6390555500984192
1778968360979849500,0.980849365234375,-0.5816201567649841,-1.5050591230392456,-0.2978449761867523
1778968360989841700,0.990841552734375,-0.45598751306533813,-2.082289934158325,0.09945417940616608
1778968360999832600,1.00083251953125,-0.05352235585451126,-2.276071071624756,0.43197354674339294
1778968361009824500,1.010824462890625,0.3086168169975281,-1.7658196687698364,0.418781042098999
1778968361019815700,1.020815673828125,0.5179306268692017,-1.08609139919281,-0.030139479786157608
1778968361029807600,1.0308076171875,1.0083541870117188,-1.2267946004867554,-0.5123060345649719
1778968361039798800,1.040798828125,1.6904478073120117,-1.4512144327163696,-0.8003745675086975
1778968361049790700,1.050790771484375,2.200606346130371,-1.7005748748779297,-0.9413044452667236
1778968361059781600,1.06078173828125,2.476012945175171,-2.1538102626800537,-0.9727004170417786
1778968361069773600,1.070773681640625,2.425281047821045,-2.909703016281128,-0.7960606813430786
1778968361079764500,1.080764404296875,2.035419464111328,-3.794236898422241,-0.3458556830883026
1778968361089756700,1.090756591796875,1.4962553977966309,-4.242281913757324,0.25232982635498047
1778968361099747600,1.10074755859375,1.0230122804641724,-4.771885871887207,0.947005033493042
1778968361109739500,1.110739501953125,0.8540633916854858,-5.313037395477295,1.517418384552002
1778968361119730700,1.120730712890625,1.1345903873443604,-5.533929824829102,2.006390333175659
1778968361129721600,1.1307216796875,1.680489420890808,-5.425854206085205,2.4233884811401367
1778968361139713500,1.140713623046875,2.213012456893921,-5.007711410522461,2.7840030193328857
1778968361149704700,1.15070458984375,2.675389289855957,-4.638424873352051,3.0701541900634766
1778968361159696600,1.160696533203125,2.9971446990966797,-4.666347026824951,3.344714641571045
1778968361169687600,1.1706875,3.1915717124938965,-5.045140743255615,3.6582932472229004
1778968361179679700,1.1806796875,3.254732131958008,-5.247370719909668,4.022130489349365
1778968361189670700,1.190670654296875,3.1682138442993164,-5.263769626617432,4.30874490737915
1778968361199662600,1.20066259765625,3.177124261856079,-5.4341349601745605,4.408995628356934
1778968361209653500,1.210653564453125,3.495117425918579,-5.547269344329834,4.466562747955322
1778968361219645400,1.2206455078125,3.9734954833984375,-5.4839301109313965,4.479877471923828
1778968361229636600,1.23063671875,4.448206901550293,-5.084468364715576,4.416975498199463
1778968361239628500,1.240628662109375,4.878614902496338,-4.487954616546631,4.252723217010498
1778968361249619700,1.25061962890625,5.242366790771484,-3.9343044757843018,4.021667957305908
1778968361259613400,1.260613525390625,5.463813781738281,-3.453699827194214,3.80120587348938
1778968361269604400,1.270604248046875,5.507627487182617,-3.293574571609497,3.7274136543273926
1778968361279596500,1.280596435546875,5.396825790405273,-3.32262921333313,3.908324718475342
1778968361289587500,1.29058740234375,5.277740478515625,-3.0304040908813477,4.2780327796936035
1778968361299579400,1.300579345703125,5.330092906951904,-2.398386001586914,4.617805004119873
1778968361309570600,1.310570556640625,5.5085835456848145,-1.7977019548416138,4.777835845947266
1778968361319562500,1.3205625,5.688311576843262,-1.2044726610183716,4.751819133758545
1778968361329553700,1.3305537109375,5.893964767456055,-0.5464826226234436,4.653975963592529
1778968361339545600,1.340545654296875,6.090146064758301,0.12190579622983932,4.4571967124938965
1778968361349536500,1.35053662109375,6.0411787033081055,0.48930293321609497,4.327376842498779
1778968361359528400,1.360528564453125,5.938147068023682,0.5942878723144531,4.461719989776611
1778968361369519400,1.370519287109375,5.845324993133545,0.5072726011276245,4.757996559143066
1778968361379510500,1.380510498046875,5.405633926391602,0.04740915447473526,5.066434860229492
1778968361389502500,1.39050244140625,4.954552173614502,0.031187215819954872,5.337051868438721
1778968361399493400,1.400493408203125,4.364882946014404,0.28842461109161377,5.33471155166626
1778968361409485600,1.410485595703125,3.5786490440368652,1.0663999319076538,4.802219867706299
1778968361419476500,1.4204765625,2.8668787479400635,1.3883811235427856,4.356741428375244
1778968361429468400,1.430468505859375,2.0403261184692383,1.3457016944885254,4.388024806976318
1778968361439459600,1.44045947265625,1.1258008480072021,1.1806195974349976,4.438089370727539
1778968361449451500,1.450451416015625,0.1849711686372757,0.9912025332450867,4.2795233726501465
1778968361459442400,1.4604423828125,-0.6043791174888611,1.2072019577026367,3.3380870819091797
1778968361469434600,1.4704345703125,-1.2814637422561646,1.4366390705108643,2.2172207832336426
1778968361479425500,1.480425537109375,-1.9728184938430786,1.3141288757324219,1.1678962707519531
1778968361489417500,1.49041748046875,-2.7282280921936035,0.9465339183807373,0.1968744546175003
1778968361499408400,1.500408447265625,-3.3697478771209717,0.6843012571334839,-0.6539442539215088
1778968361509400600,1.510400634765625,-3.8023054599761963,0.5592460632324219,-1.310207486152649
1778968361519391500,1.5203916015625,-3.8955917358398438,0.4726800322532654,-1.9695795774459839
1778968361529383400,1.530383544921875,-3.8339288234710693,0.7934481501579285,-2.966240167617798
1778968361539374600,1.54037451171875,-3.9657533168792725,0.9247800707817078,-3.510763645172119
1778968361549366500,1.550366455078125,-3.6837422847747803,0.9964166879653931,-3.7790234088897705
1778968361559357400,1.560357421875,-3.5443408489227295,0.7757061719894409,-3.740175247192383
1778968361569349600,1.570349609375,-3.5409767627716064,0.3080643117427826,-3.4159114360809326
1778968361579340500,1.580340576171875,-3.4827492237091064,-0.31158962845802307,-2.931210994720459
1778968361589332500,1.59033251953125,-3.2598466873168945,-0.7355063557624817,-2.3760955333709717
1778968361599323400,1.600323486328125,-3.144977569580078,-1.3606089353561401,-1.8581249713897705
1778968361609315300,1.6103154296875,-3.4742164611816406,-1.8954516649246216,-1.3547240495681763
1778968361619306500,1.620306396484375,-3.7596304416656494,-1.8880428075790405,-1.2272027730941772
1778968361629298400,1.63029833984375,-3.938255786895752,-1.726504921913147,-1.2992918491363525
1778968361639289300,1.640289306640625,-3.66426944732666,-1.3126890659332275,-1.281090497970581
1778968361649281500,1.650281494140625,-3.3200128078460693,-0.11655768007040024,-1.3664391040802002
1778968361659272400,1.6602724609375,-3.30484676361084,1.9071846008300781,-1.9864152669906616
1778968361669264600,1.6702646484375,-3.2941863536834717,1.7762943506240845,-3.372553825378418
1778968361679255600,1.680255615234375,-3.106733560562134,1.5418752431869507,-4.481869220733643
1778968361689247500,1.69024755859375,-3.1001951694488525,1.5462923049926758,-4.723645210266113
1778968361699238700,1.70023876953125,-2.994436264038086,1.0834070444107056,-4.2938618659973145
1778968361709230300,1.710230224609375,-2.3937532901763916,0.5616366267204285,-3.662768602371216
1778968361719221500,1.720221435546875,-1.739575743675232,0.6676474809646606,-2.9287848472595215
1778968361729212400,1.73021240234375,-1.096950650215149,0.9110169410705566,-2.1473450660705566
1778968361739204400,1.740204345703125,-0.6068973541259766,1.6575642824172974,-1.219630241394043
1778968361749195500,1.750195556640625,-0.1146511435508728,1.622449517250061,-0.20040574669837952
1778968361759187500,1.7601875,0.7252435684204102,0.24295096099376678,-0.2035762369632721
1778968361769178400,1.770178466796875,0.9499030113220215,-0.8418184518814087,-0.7546495199203491
1778968361779170600,1.780170654296875,0.379997193813324,-1.5329854488372803,-1.077203392982483
1778968361789161500,1.790161376953125,-0.7634866237640381,-1.1753777265548706,-1.045081377029419
1778968361799153700,1.800153564453125,-2.1034648418426514,-0.7324027419090271,-1.2504220008850098
1778968361809144600,1.81014453125,-2.9763705730438232,-0.909095048904419,-1.694340705871582
1778968361819136300,1.82013623046875,-3.379838466644287,-1.6355527639389038,-2.139516592025757
1778968361829127400,1.83012744140625,-4.25488805770874,-1.051100254058838,-2.5860836505889893
1778968361839119400,1.840119384765625,-3.8419687747955322,-4.154000282287598,-1.939743161201477
1778968361849110500,1.850110595703125,-3.1843481063842773,-3.796583414077759,-1.2955906391143799
1778968361859102500,1.8601025390625,-2.092595338821411,-2.9968342781066895,-0.3135316073894501
1778968361869093400,1.87009326171875,-1.0344194173812866,-3.1340622901916504,1.1606199741363525
1778968361879085600,1.88008544921875,-1.0272976160049438,-2.1030361652374268,2.196967840194702
1778968361889076500,1.890076416015625,-1.6441762447357178,-1.2857072353363037,2.598649740219116
1778968361899068700,1.900068603515625,-2.053474187850952,-1.5214086771011353,2.585803985595703
1778968361909059600,1.9100595703125,-2.093151092529297,-2.3042891025543213,2.4021382331848145
1778968361919051500,1.920051513671875,-1.842766284942627,-2.9108874797821045,2.198204755783081
1778968361929042700,1.930042724609375,-1.5775535106658936,-2.5812363624572754,1.8410760164260864
1778968361939034400,1.940034423828125,-1.2706655263900757,-1.8970296382904053,1.1925432682037354
1778968361949025300,1.950025390625,-0.9250468015670776,-1.3295791149139404,0.5677332282066345
1778968361959017500,1.960017578125,-0.46750083565711975,-0.5892226696014404,0.33675462007522583
1778968361969008400,1.97000830078125,0.03098462149500847,0.12571115791797638,0.5579772591590881
1778968361979000600,1.98000048828125,0.39349275827407837,0.7396302223205566,1.0805379152297974
1778968361988991500,1.989991455078125,0.49154093861579895,0.8366126418113708,1.7399866580963135
1778968361998983400,1.9999833984375,0.35672399401664734,0.3926602005958557,2.436490535736084
1778968362008974600,2.009974609375,0.1916186511516571,-0.030063975602388382,3.0366594791412354
1778968362018966500,2.019966552734375,0.26130184531211853,-0.8885390162467957,3.7223188877105713
1778968362028957700,2.029957763671875,0.621526837348938,-1.5356156826019287,4.1670331954956055
1778968362038949400,2.039949462890625,0.9725381731987,-2.0229692459106445,4.2931036949157715
1778968362048940500,2.0499404296875,1.1939008235931396,-2.6735193729400635,4.294699668884277
1778968362058932500,2.059932373046875,1.1773855686187744,-3.2890584468841553,4.433067798614502
1778968362068923400,2.06992333984375,1.065800428390503,-3.4274215698242188,4.528878688812256
1778968362078915600,2.07991552734375,1.3358689546585083,-2.972644567489624,4.846545219421387
1778968362088906500,2.089906494140625,2.0023183822631836,-2.1595025062561035,5.410038471221924
1778968362098898400,2.0998984375,2.9745538234710693,-1.2328152656555176,5.850953102111816
1778968362108889600,2.1098896484375,3.525538206100464,-0.8056898713111877,6.000327110290527
1778968362118881500,2.119881591796875,3.3391120433807373,-0.9492174386978149,5.910629749298096
1778968362128872400,2.12987255859375,2.6439127922058105,-2.010301351547241,5.480993270874023
1778968362138864600,2.13986474609375,0.7741890549659729,-2.6818666458129883,3.239363670349121
1778968362148855600,2.14985546875,-1.3123258352279663,-2.9090754985809326,0.8547112941741943
1778968362158847500,2.159847412109375,-1.7866148948669434,-2.26039457321167,-0.23945453763008118
1778968362168838400,2.16983837890625,-1.2139832973480225,-1.0162463188171387,-0.7870129942893982
1778968362178830300,2.179830322265625,-0.571229100227356,-0.28329694271087646,-1.1441466808319092
1778968362188821500,2.189821533203125,-0.1442694067955017,-0.118775874376297,-1.1678831577301025
1778968362198813400,2.1998134765625,0.013898930512368679,-0.3201199173927307,-0.8529983758926392
1778968362208804600,2.2098046875,0.04566514492034912,-0.6319461464881897,-0.5340793132781982
1778968362218796500,2.219796630859375,-0.014628556556999683,-0.8020952343940735,-0.3171065151691437
1778968362228787500,2.229787353515625,-0.11886671185493469,-0.6252564191818237,0.029831569641828537
1778968362238779600,2.239779541015625,-0.19355319440364838,-0.45787280797958374,0.352323055267334
1778968362248770600,2.2497705078125,-0.3130573332309723,-0.29755309224128723,0.5067083239555359
1778968362258761700,2.25976171875,-0.513722836971283,0.0387255996465683,0.6017778515815735
1778968362268753000,2.2697529296875,-0.7932553887367249,0.4553349018096924,0.6494334936141968
1778968362278744600,2.27974462890625,-1.1309151649475098,0.7085152268409729,0.6918326020240784
1778968362288735700,2.28973583984375,-1.417588710784912,0.5904576182365417,0.7096371054649353
1778968362298727700,2.299727783203125,-1.3789201974868774,0.27890872955322266,0.6777390837669373
1778968362308718600,2.309718505859375,-1.094664454460144,0.2992532551288605,0.6977614164352417
1778968362318710800,2.319710693359375,-0.7942121028900146,0.39907997846603394,0.7802086472511292
1778968362328701700,2.32970166015625,-0.5911594033241272,0.5922146439552307,0.9219666123390198
1778968362338694000,2.33969384765625,-0.4677777886390686,0.6475846767425537,1.0226452350616455
1778968362348684800,2.349684814453125,-0.4033988118171692,0.6415886878967285,0.9856597185134888
1778968362358676700,2.3596767578125,-0.387797474861145,0.6036689877510071,0.844811201095581
1778968362368668000,2.36966796875,-0.394023597240448,0.5491586327552795,0.669185996055603
1778968362378659800,2.379659912109375,-0.4170650243759155,0.4159872531890869,0.4754658043384552
1778968362388650800,2.389650634765625,-0.4401945471763611,0.3064432740211487,0.2368423193693161
1778968362398642700,2.399642578125,-0.4349409341812134,0.2890794575214386,0.0031853681430220604
1778968362408633600,2.409633544921875,-0.42711231112480164,0.3944128155708313,-0.2023121416568756
1778968362418625800,2.419625732421875,-0.37688374519348145,0.46902045607566833,-0.3744223713874817
1778968362428616700,2.42961669921875,-0.27065804600715637,0.4169670343399048,-0.4618058502674103
1778968362438608600,2.439608642578125,-0.12264783680438995,0.36920881271362305,-0.45060592889785767
1778968362448599800,2.449599853515625,0.02467218041419983,0.31881770491600037,-0.35393330454826355
1778968362458591700,2.459591796875,0.09659617394208908,0.19715279340744019,-0.221482053399086
1778968362468582700,2.469582763671875,0.1306883990764618,0.03372817859053612,-0.1285829395055771
1778968362478574800,2.479574951171875,0.1454220712184906,-0.08912929892539978,-0.11626927554607391
1778968362488565800,2.489565673828125,0.16219376027584076,-0.18726810812950134,-0.16832436621189117
1778968362498557700,2.4995576171875,0.1775069385766983,-0.22133472561836243,-0.1817735880613327
1778968362508548900,2.509548828125,0.18592289090156555,-0.1446962058544159,-0.10404548048973083
1778968362518540800,2.519540771484375,0.16201676428318024,0.04106646776199341,0.008346839807927608
1778968362528531700,2.52953173828125,0.13936083018779755,0.24549275636672974,0.10800934582948685
1778968362538523600,2.539523681640625,0.14935460686683655,0.42638933658599854,0.11367176473140717
1778968362548514800,2.549514892578125,0.17791195213794708,0.5658518075942993,0.06480797380208969
1778968362558506800,2.5595068359375,0.1974124163389206,0.6246405839920044,-0.014918552711606026
1778968362568497700,2.56949755859375,0.20947842299938202,0.539548933506012,-0.1038452684879303
1778968362578489900,2.57948974609375,0.2250126302242279,0.30570128560066223,-0.21106891334056854
1778968362588480800,2.589480712890625,0.24167998135089874,0.10885795205831528,-0.3405706286430359
1778968362598473000,2.599472900390625,0.23854225873947144,0.1086779236793518,-0.5311858654022217
1778968362608464000,2.6094638671875,0.28019440174102783,0.2728033661842346,-0.769842803478241
1778968362618455600,2.61945556640625,0.33849018812179565,0.5387189388275146,-1.0683412551879883
1778968362628446700,2.62944677734375,0.33444350957870483,0.8328321576118469,-1.3175901174545288
1778968362638438700,2.639438720703125,0.2664719223976135,0.969646155834198,-1.3929338455200195
1778968362648430800,2.649430908203125,0.0994509682059288,0.8658191561698914,-1.2736433744430542
1778968362658421800,2.659421875,-0.15378795564174652,0.5864913463592529,-0.997575044631958
1778968362668413700,2.66941357421875,-0.5882264971733093,0.27579692006111145,-0.7505905032157898
1778968362678404900,2.67940478515625,-1.0966509580612183,-0.14837725460529327,-0.648057222366333
1778968362688396800,2.689396728515625,-1.4363712072372437,-0.6777446866035461,-0.6829317808151245
1778968362698388000,2.699387939453125,-1.3496700525283813,-0.9972196221351624,-0.7918116450309753
1778968362708379600,2.709379638671875,-0.8985975384712219,-0.8963640928268433,-0.8880605101585388
1778968362718370600,2.71937060546875,-0.36971426010131836,-0.5859740376472473,-0.8882879018783569
1778968362728362800,2.72936279296875,0.05313815176486969,-0.47276371717453003,-0.7531440258026123
1778968362738353700,2.739353759765625,0.23385652899742126,-0.6841667890548706,-0.5183888077735901
1778968362748345900,2.749345947265625,0.19222857058048248,-0.8307355642318726,-0.27358320355415344
1778968362758336800,2.759336669921875,-0.00020452775061130524,-0.8493875861167908,-0.10318271070718765
1778968362768328700,2.76932861328125,-0.21402029693126678,-0.9278146028518677,-0.04343261569738388
1778968362778320000,2.77931982421875,-0.4042102098464966,-1.109665870666504,-0.07706860452890396
1778968362788311800,2.789311767578125,-0.531351625919342,-1.149792194366455,-0.18366578221321106
1778968362798302700,2.799302734375,-0.544963538646698,-1.1284091472625732,-0.32557231187820435
1778968362808294700,2.809294677734375,-0.4566241204738617,-1.0609854459762573,-0.4628467261791229
1778968362818285800,2.819285888671875,-0.23928622901439667,-0.945858895778656,-0.5465858578681946
1778968362828277800,2.82927783203125,0.07556494325399399,-0.837893009185791,-0.5330934524536133
1778968362838268700,2.8392685546875,0.3249795734882355,-0.5737875699996948,-0.43582412600517273
1778968362848260600,2.849260498046875,0.37569478154182434,-0.32052186131477356,-0.32067590951919556
1778968362858251800,2.859251708984375,0.3335595726966858,-0.4429827928543091,-0.20878267288208008
1778968362868243700,2.86924365234375,0.3164529800415039,-0.7370482087135315,-0.14460685849189758
1778968362878234600,2.879234619140625,0.34891772270202637,-1.012208104133606,-0.0932358056306839
1778968362888226800,2.889226806640625,0.39999184012413025,-1.1609382629394531,-0.05742435157299042
1778968362898217700,2.8992177734375,0.4371109902858734,-1.237250804901123,-0.04173354059457779
1778968362908210000,2.9092099609375,0.44071531295776367,-1.3474971055984497,-0.06232677772641182
1778968362918200800,2.919200927734375,0.428404837846756,-1.4099851846694946,-0.05180995166301727
1778968362928192800,2.92919287109375,0.47145700454711914,-1.6156928539276123,-0.03857780992984772
1778968362938183700,2.93918359375,0.5654079914093018,-1.9429337978363037,-0.05087016150355339
1778968362948175600,2.949175537109375,0.7003704905509949,-2.0557734966278076,-0.11206592619419098
1778968362958166800,2.959166748046875,0.8200015425682068,-1.7702391147613525,-0.45072492957115173
1778968362968158700,2.96915869140625,0.9268565773963928,-1.3475478887557983,-0.8038989901542664
1778968362978149600,2.979149658203125,0.9898861646652222,-1.2016327381134033,-0.9522756934165955
1778968362988141800,2.989141845703125,0.9339393377304077,-0.9761903285980225,-1.0348505973815918
1778968362998132700,2.9991328125,0.8714627027511597,-0.751992404460907,-1.0838490724563599
1778968363008125000,3.009125,0.8335363268852234,-0.5268030762672424,-1.1451926231384277
1778968363018115800,3.01911572265625,0.7984488606452942,-0.24356552958488464,-1.0886907577514648
1778968363028107500,3.029107421875,0.7401707768440247,0.016805624589323997,-0.9579969048500061
1778968363038098700,3.0390986328125,0.6394968628883362,0.19842788577079773,-0.817302405834198
1778968363048090600,3.049090576171875,0.506327748298645,0.3427427411079407,-0.6465579867362976
1778968363058081500,3.05908154296875,0.3462528884410858,0.4510771930217743,-0.4314882755279541
1778968363068073700,3.06907373046875,0.2005758136510849,0.44118013978004456,-0.20963969826698303
1778968363078065700,3.079065673828125,0.07705681025981903,0.3632272779941559,-0.004464978352189064
1778968363088056800,3.089056884765625,-0.07272869348526001,0.28860384225845337,0.15489037334918976
1778968363098048800,3.099048828125,-0.18463872373104095,0.12314615398645401,0.25359591841697693
1778968363108040000,3.1090400390625,-0.23715120553970337,0.011325658299028873,0.32826143503189087
1778968363118031600,3.119031494140625,-0.29170793294906616,0.03088071569800377,0.3783981204032898
1778968363128022800,3.129022705078125,-0.3080088496208191,0.18712261319160461,0.5217238068580627
1778968363138014700,3.1390146484375,-0.3755596876144409,0.31983301043510437,0.8490476012229919
1778968363148005600,3.149005615234375,-0.45691153407096863,0.4112597703933716,1.2548630237579346
1778968363157997800,3.158997802734375,-0.49015897512435913,0.49152183532714844,1.6357320547103882
1778968363167988700,3.16898876953125,-0.5592719912528992,0.4997503459453583,1.860869288444519
1778968363177980700,3.178980712890625,-0.6241092681884766,0.21218137443065643,1.7596471309661865
1778968363187971800,3.188971923828125,-0.5215939283370972,-0.1330973207950592,1.3567848205566406
1778968363197963800,3.1989638671875,-0.34080663323402405,-0.1855485439300537,0.8436989188194275
1778968363207954700,3.20895458984375,-0.05969773232936859,-0.09431754797697067,0.22627538442611694
1778968363217947000,3.21894677734375,0.28667566180229187,-0.05050455778837204,-0.442599892616272
1778968363227937800,3.228937744140625,0.47705385088920593,-0.1066569834947586,-0.9399962425231934
1778968363237929700,3.2389296875,0.48468488454818726,-0.15624424815177917,-1.2684401273727417
1778968363247920600,3.248920654296875,0.37189868092536926,-0.09045495092868805,-1.4357541799545288
1778968363257912000,3.258912109375,0.18138253688812256,0.04668586328625679,-1.4683786630630493
1778968363267903000,3.268903076171875,-0.004454982932657003,0.26696956157684326,-1.258078932762146
1778968363277895200,3.278895263671875,-0.1439572274684906,0.40840470790863037,-0.8118967413902283
1778968363287886000,3.288885986328125,-0.24472589790821075,0.44493934512138367,-0.290956974029541
1778968363297878000,3.2988779296875,-0.36277133226394653,0.3402230441570282,0.18794436752796173
1778968363307870200,3.3088701171875,-0.5943853855133057,0.15186861157417297,0.38647961616516113
1778968363317861000,3.318861083984375,-0.7854791879653931,-0.039634499698877335,0.35143348574638367
1778968363327853300,3.328853271484375,-0.897068977355957,0.03157436102628708,0.30934664607048035
1778968363337844200,3.33884423828125,-1.0090492963790894,0.18982817232608795,0.30152493715286255
1778968363347836000,3.3488359375,-1.059311866760254,0.31370413303375244,0.29793810844421387
1778968363357827000,3.3588271484375,-1.0545564889907837,0.44153186678886414,0.2792504131793976
1778968363367819000,3.368819091796875,-1.007086992263794,0.5895694494247437,0.27948176860809326
1778968363377810000,3.378809814453125,-0.8708873987197876,0.7367991209030151,0.3207991123199463
1778968363387802000,3.388802001953125,-0.6815615892410278,0.8721519708633423,0.3978394567966461
1778968363397793000,3.39879296875,-0.48108863830566406,1.0038355588912964,0.48485904932022095
1778968363407785200,3.40878515625,-0.2904762327671051,1.121411919593811,0.5302834510803223
1778968363417776000,3.418776123046875,-0.1461603194475174,1.1835764646530151,0.533065676689148
1778968363427768300,3.428768310546875,-0.05987229198217392,1.1224875450134277,0.5093076229095459
1778968363437759200,3.43875927734375,-0.017144538462162018,1.019721508026123,0.4791223108768463
1778968363447751200,3.448751220703125,-0.006888318806886673,1.0075641870498657,0.47087717056274414
1778968363457742300,3.458742431640625,-0.005902150180190802,1.0605920553207397,0.43562543392181396
1778968363467734000,3.468734130859375,-0.0069349100813269615,1.1372039318084717,0.38820788264274597
1778968363477725000,3.478724853515625,-0.013371237553656101,1.1970571279525757,0.3525335192680359
1778968363487717000,3.488717041015625,0.008518203161656857,1.2230275869369507,0.3600228726863861
1778968363497708000,3.4987080078125,0.04407859593629837,1.234226107597351,0.4200345575809479
1778968363507700200,3.5087001953125,0.0582272931933403,1.2183306217193604,0.4766860008239746
1778968363517692200,3.518692138671875,0.0643531009554863,1.1683549880981445,0.493762731552124
1778968363527683000,3.52868310546875,0.08133795112371445,1.112842082977295,0.44355615973472595
1778968363537675300,3.53867529296875,0.13541531562805176,1.101491928100586,0.36547839641571045
1778968363547666200,3.548666259765625,0.20729081332683563,1.0741955041885376,0.29800254106521606
1778968363557658000,3.558658203125,0.27974608540534973,1.0094660520553589,0.2520669996738434
1778968363567649000,3.56864892578125,0.3214750289916992,0.9058714509010315,0.21679344773292542
1778968363577641000,3.578640869140625,0.32969698309898376,0.7447560429573059,0.18041999638080597
1778968363587632000,3.588632080078125,0.31010720133781433,0.5412387847900391,0.16168205440044403
1778968363597624000,3.5986240234375,0.27072545886039734,0.38197964429855347,0.1679743081331253
1778968363607615200,3.608615234375,0.21991753578186035,0.30144673585891724,0.20501811802387238
1778968363617607200,3.618607177734375,0.14487871527671814,0.28914719820022583,0.2501874566078186
1778968363627598000,3.62859814453125,0.09969723969697952,0.23376522958278656,0.2888393998146057
1778968363637590300,3.63859033203125,0.05863635987043381,0.21794845163822174,0.3105340301990509
1778968363647581200,3.648581298828125,0.01745910570025444,0.25325724482536316,0.31136536598205566
1778968363657573000,3.658572998046875,-0.010602621361613274,0.24190738797187805,0.2824503779411316
1778968363667564000,3.66856396484375,-0.0003384137526154518,0.28238099813461304,0.16736893355846405
1778968363677556000,3.678555908203125,0.05472883582115173,0.3797176778316498,-0.028553688898682594
1778968363687548200,3.688548095703125,0.13007351756095886,0.4504116475582123,-0.35711202025413513
1778968363697539000,3.6985390625,0.1807694435119629,0.5183725357055664,-0.7268186807632446
1778968363707531300,3.70853125,0.170950248837471,0.5856636762619019,-0.9258984923362732
1778968363717522200,3.718522216796875,0.0814046561717987,0.5245896577835083,-0.9157446622848511
1778968363727514000,3.72851416015625,-0.037895895540714264,0.4493555724620819,-0.7851420640945435
1778968363737505300,3.73850537109375,-0.1918327361345291,0.38055041432380676,-0.636410117149353
1778968363747497000,3.7484970703125,-0.3216211199760437,0.24630601704120636,-0.516077995300293
1778968363757488000,3.758488037109375,-0.36084309220314026,0.06818395107984543,-0.48092690110206604
1778968363767480000,3.76847998046875,-0.28977248072624207,-0.08849778026342392,-0.5530356764793396
1778968363777471000,3.778470947265625,-0.18147826194763184,-0.19145238399505615,-0.6137770414352417
1778968363787463200,3.788463134765625,-0.055210452526807785,-0.26971444487571716,-0.6166924238204956
1778968363797454000,3.7984541015625,0.06977435946464539,-0.3603743016719818,-0.5792661905288696
1778968363807446000,3.808446044921875,0.17541584372520447,-0.5057680606842041,-0.5358356833457947
1778968363817437200,3.818437255859375,0.24432192742824554,-0.6349907517433167,-0.5038521885871887
1778968363827429000,3.82842919921875,0.27143120765686035,-0.6802300214767456,-0.4689728021621704
1778968363837421000,3.838421142578125,0.28916117548942566,-0.6813005805015564,-0.4430448114871979
1778968363847412200,3.848412109375,0.3210543990135193,-0.5486261248588562,-0.4309963285923004
1778968363857404200,3.858404052734375,0.35649600625038147,-0.305294394493103,-0.41996684670448303
1778968363867395000,3.86839501953125,0.3767137825489044,-0.057696383446455,-0.40765437483787537
1778968363877387000,3.878386962890625,0.3803548514842987,0.13252921402454376,-0.41192740201950073
1778968363887378200,3.888378173828125,0.3726046681404114,0.24282488226890564,-0.43538546562194824
1778968363897370000,3.8983701171875,0.33608368039131165,0.27949848771095276,-0.4575885236263275
1778968363907361000,3.908361083984375,0.2753329873085022,0.2379339337348938,-0.44476762413978577
1778968363917353200,3.918353271484375,0.27432313561439514,0.20871053636074066,-0.3808474838733673
1778968363927344000,3.92834423828125,0.3040446639060974,0.1196824237704277,-0.3016918897628784
1778968363937336300,3.93833642578125,0.32234910130500793,-0.010892362333834171,-0.20162709057331085
1778968363947327200,3.9483271484375,0.3410587012767792,-0.13050207495689392,-0.08943285048007965
1778968363957319000,3.95831884765625,0.3551439046859741,-0.17188973724842072,0.03735439106822014
1778968363967311000,3.96831103515625,0.34513598680496216,-0.13660874962806702,0.1701405942440033
1778968363977302000,3.978302001953125,0.32372498512268066,-0.13314051926136017,0.2855377495288849
1778968363987294200,3.988294189453125,0.2882378399372101,-0.21089892089366913,0.3933410048484802
1778968363997285000,3.99828515625,0.2774565517902374,-0.29181480407714844,0.48480328917503357
1778968364007277000,4.008277099609375,0.29600614309310913,-0.39518070220947266,0.5119703412055969
1778968364017268200,4.018268310546875,0.3232894539833069,-0.43271076679229736,0.4698132574558258
1778968364027260200,4.02826025390625,0.384924054145813,-0.3741825222969055,0.35986238718032837
1778968364037251300,4.038251220703125,0.4239380359649658,-0.2750636637210846,0.16150854527950287
1778968364047243000,4.048242919921875,0.4103074371814728,-0.1540045142173767,-0.14898544549942017
1778968364057234200,4.058234130859375,0.3575875163078308,-0.0735195204615593,-0.5236799716949463
1778968364067226000,4.06822607421875,0.34026098251342773,0.06418677419424057,-0.8474993705749512
1778968364077217000,4.078217041015625,0.3267267942428589,0.2669646739959717,-1.0186694860458374
1778968364087209200,4.088209228515625,0.29073870182037354,0.515974223613739,-1.0208157300949097
1778968364097200000,4.0982001953125,0.24026431143283844,0.6845573782920837,-0.9245834350585938
1778968364107192000,4.108192138671875,0.1755812019109726,0.7407835125923157,-0.7708196640014648
1778968364117184300,4.118184326171875,0.0827263668179512,0.66693514585495,-0.5489024519920349
1778968364127175200,4.128175048828125,-0.04040154069662094,0.5641453862190247,-0.24637478590011597
1778968364137167000,4.1381669921875,-0.15638726949691772,0.46771126985549927,0.07490842789411545
1778968364147158300,4.148158203125,-0.23771783709526062,0.43101438879966736,0.3498065769672394
1778968364157150000,4.15814990234375,-0.2672607898712158,0.4666770398616791,0.5132737755775452
1778968364167141000,4.16814111328125,-0.2885042726993561,0.44965845346450806,0.5287027359008789
1778968364177133000,4.178133056640625,-0.3096868097782135,0.31729641556739807,0.4746357500553131
1778968364187124000,4.1881240234375,-0.30627503991127014,0.18254514038562775,0.3791511058807373
1778968364197116200,4.1981162109375,-0.28780120611190796,0.0686233788728714,0.3519567549228668
1778968364207107000,4.208107177734375,-0.2809741199016571,0.08898396044969559,0.6140920519828796
1778968364217099300,4.218099365234375,-0.28927063941955566,0.08723799139261246,0.9931514859199524
1778968364227090200,4.228090087890625,-0.26159265637397766,0.002591037889942527,1.2842960357666016
1778968364237082000,4.23808203125,-0.21586325764656067,-0.16554497182369232,1.3767482042312622
1778968364247074000,4.248073974609375,-0.1937040239572525,-0.5208083987236023,1.1629618406295776
1778968364257065000,4.25806494140625,-0.17696446180343628,-0.8683357238769531,0.8447389006614685
1778968364267057200,4.26805712890625,-0.13221310079097748,-0.9659084677696228,0.43205344676971436
1778968364277048300,4.27804833984375,-0.05176699906587601,-0.9835391044616699,-0.07779089361429214
1778968364287040300,4.288040283203125,0.015562125481665134,-0.7048144340515137,-0.5387130379676819
1778968364297031200,4.29803125,0.000272117555141449,-0.049947645515203476,-1.0577229261398315
1778968364307023400,4.3080234375,-0.02566680498421192,0.538507878780365,-1.6217151880264282
1778968364317014300,4.31801416015625,-0.11163737624883652,0.5905673503875732,-2.050792694091797
1778968364327006500,4.32800634765625,-0.31337517499923706,0.24907395243644714,-2.061314344406128
1778968364336997400,4.337997314453125,-0.4645196795463562,-0.1782779097557068,-1.6824450492858887
1778968364346989000,4.347989013671875,-0.553896963596344,-0.332732230424881,-1.0684709548950195
1778968364356981200,4.357981201171875,-0.48200440406799316,-0.4852520227432251,-0.5157841444015503
1778968364366972200,4.36797216796875,-0.346741259098053,-0.6581361889839172,-0.16184571385383606
1778968364376964400,4.37796435546875,-0.2682565748691559,-0.719201385974884,0.02316354773938656
1778968364386955300,4.387955322265625,-0.3133120536804199,-0.7311527132987976,0.13662567734718323
1778968364396947200,4.397947265625,-0.37911662459373474,-0.7417467832565308,0.24644672870635986
1778968364406938400,4.4079384765625,-0.40955525636672974,-0.6859787106513977,0.3627871870994568
1778968364416930300,4.417930419921875,-0.42244574427604675,-0.5610879063606262,0.4861445426940918
1778968364426921200,4.427921142578125,-0.4037744402885437,-0.35372394323349,0.6361707448959351
1778968364436913200,4.4379130859375,-0.3609177768230438,-0.11147775501012802,0.8040151596069336
1778968364446904000,4.447904052734375,-0.28904014825820923,0.11121482402086258,0.9610846638679504
1778968364456896300,4.457896240234375,-0.20606081187725067,0.2659607231616974,1.0698087215423584
1778968364466888200,4.46788818359375,-0.14040645956993103,0.35888928174972534,1.0892776250839233
1778968364476879400,4.47787939453125,-0.08769878000020981,0.41590943932533264,1.0477778911590576
1778968364486871300,4.487871337890625,-0.05037429556250572,0.4891088604927063,0.9848807454109192
1778968364496862200,4.4978623046875,-0.02112000435590744,0.5786312222480774,0.9230831265449524
1778968364506854400,4.5078544921875,-0.008313667960464954,0.6916481852531433,0.844892144203186
1778968364516845300,4.51784521484375,-0.0005785170942544937,0.7673488259315491,0.7654820084571838
1778968364526837200,4.527837158203125,-0.005159034393727779,0.814395010471344,0.6670997142791748
1778968364536828200,4.537828125,-0.0088613610714674,0.895399272441864,0.538571834564209
1778968364546820000,4.547820068359375,0.009191694669425488,0.9970660209655762,0.4068916440010071
1778968364556811300,4.557811279296875,0.03292498737573624,1.0752599239349365,0.30277588963508606
1778968364566803200,4.56780322265625,0.04956959933042526,1.0913928747177124,0.2581610083580017
1778968364576795400,4.57779541015625,0.04139156639575958,1.058992624282837,0.25009697675704956
1778968364586786300,4.587786376953125,0.019031554460525513,1.0320104360580444,0.23047269880771637
1778968364596778200,4.5977783203125,0.07684877514839172,0.9623011350631714,0.21890100836753845
1778968364606769400,4.607769287109375,0.12521907687187195,0.8942644000053406,0.21961542963981628
1778968364616761000,4.617760986328125,0.13616733253002167,0.7758378982543945,0.2350039780139923
1778968364626752300,4.627752197265625,0.14214879274368286,0.608896017074585,0.25457555055618286
1778968364636744200,4.637744140625,0.15759485960006714,0.43782466650009155,0.2828447222709656
1778968364646735000,4.647735107421875,0.19140076637268066,0.28281161189079285,0.31454581022262573
1778968364656727300,4.657727294921875,0.20870038866996765,0.13382665812969208,0.3313192129135132
1778968364666718200,4.66771826171875,0.20044885575771332,0.006225614342838526,0.33454522490501404
1778968364676710100,4.677710205078125,0.16848373413085938,-0.07667779177427292,0.3243088126182556
1778968364686701300,4.687701416015625,0.12201663106679916,-0.14332042634487152,0.31490927934646606
1778968364696693200,4.697693359375,0.0693049430847168,-0.20033098757266998,0.3174307644367218
1778968364706685200,4.707685302734375,0.024634014815092087,-0.23525644838809967,0.32644668221473694
1778968364716676400,4.71767626953125,-0.008419010788202286,-0.24554477632045746,0.32217922806739807
1778968364726668300,4.727668212890625,-0.016131527721881866,-0.24378074705600739,0.2876134216785431
1778968364736659200,4.7376591796875,-0.017639143392443657,-0.1697739064693451,0.17057518661022186
1778968364746651100,4.747651123046875,0.0213620625436306,-0.01658608205616474,-0.05097982659935951
1778968364756642300,4.757642333984375,0.07137516140937805,0.17405098676681519,-0.3211279511451721
1778968364766634200,4.76763427734375,0.06979735195636749,0.36207127571105957,-0.6170888543128967
1778968364776625200,4.777625244140625,0.0712309330701828,0.500110387802124,-0.8619409799575806
1778968364786617300,4.787617431640625,0.06650292128324509,0.5870640873908997,-1.0069936513900757
1778968364796608300,4.797608154296875,0.012558461166918278,0.6077762842178345,-1.0491901636123657
1778968364806600400,4.807600341796875,-0.10034627467393875,0.522459089756012,-0.9468297958374023
1778968364816592100,4.817592041015625,-0.2194785177707672,0.3817001283168793,-0.7320834398269653
1778968364826583000,4.8275830078125,-0.2960115373134613,0.23753595352172852,-0.5417380332946777
1778968364836575200,4.8375751953125,-0.27005743980407715,0.05658161640167236,-0.48703908920288086
1778968364846566100,4.847566162109375,-0.2200431078672409,-0.2203829288482666,-0.5291584134101868
1778968364856558300,4.857558349609375,-0.16477958858013153,-0.5255734324455261,-0.5620439648628235
1778968364866549200,4.86754931640625,-0.09659773111343384,-0.8066903352737427,-0.5787088871002197
1778968364876541200,4.877541259765625,-0.00979200191795826,-1.027611494064331,-0.5948550701141357
1778968364886532400,4.887532470703125,0.12521959841251373,-1.0827621221542358,-0.5818169116973877
1778968364896524300,4.897524169921875,0.2985202968120575,-1.0565142631530762,-0.5045684576034546
1778968364906515500,4.907515380859375,0.4286685585975647,-0.9305171370506287,-0.44377848505973816
1778968364916507100,4.917507080078125,0.4742501676082611,-0.8154334425926208,-0.43157774209976196
1778968364926499000,4.9274990234375,0.4500074088573456,-0.7139858603477478,-0.4392309784889221
1778968364936490200,4.937490234375,0.4092429280281067,-0.6061429977416992,-0.42147621512413025
1778968364946482200,4.947482177734375,0.36607763171195984,-0.4599084258079529,-0.38415491580963135
1778968364956473300,4.957473388671875,0.3237597346305847,-0.26413944363594055,-0.3566359281539917
1778968364966465300,4.96746533203125,0.2691570520401001,-0.047263290733098984,-0.3571453392505646
1778968364976456200,4.977456298828125,0.22096052765846252,0.15803393721580505,-0.3890340328216553
1778968364986448400,4.987448486328125,0.19497859477996826,0.33381110429763794,-0.4120628833770752
1778968364996439300,4.997439208984375,0.19748489558696747,0.42034226655960083,-0.37590381503105164
1778968365006431200,5.00743115234375,0.23951277136802673,0.3905589282512665,-0.2519262135028839
1778968365016423200,5.017423095703125,0.2702009081840515,0.30448636412620544,-0.08226580917835236
1778968365026414000,5.0274140625,0.2705738842487335,0.1617426723241806,0.14009404182434082
1778968365036406300,5.03740625,0.24565628170967102,-0.010853864252567291,0.45460671186447144
1778968365046397200,5.047397216796875,0.19144205749034882,-0.18962904810905457,0.8809599280357361
1778968365056389400,5.057389404296875,0.13815966248512268,-0.3097951412200928,1.2723544836044312
1778968365066380300,5.06738037109375,0.12272822856903076,-0.3730810880661011,1.4501285552978516
1778968365076372200,5.077372314453125,0.14726924896240234,-0.4119989275932312,1.2897706031799316
1778968365086363400,5.08736328125,0.20242159068584442,-0.5038356184959412,0.9243740439414978
1778968365096355000,5.09735498046875,0.2392408698797226,-0.6324244737625122,0.4474966526031494
1778968365106346200,5.10734619140625,0.22743985056877136,-0.710324227809906,0.0061023663729429245
1778968365116338200,5.117338134765625,0.14876021444797516,-0.6631332635879517,-0.3784570097923279
1778968365126330000,5.127330078125,0.12854723632335663,-0.4543517529964447,-0.6672654747962952
1778968365136321300,5.1373212890625,0.1547735184431076,-0.1542222946882248,-0.8476270437240601
1778968365146313200,5.147313232421875,0.13661076128482819,0.10561101883649826,-0.9659687876701355
1778968365156304400,5.157304443359375,0.09175088256597519,0.328154593706131,-1.0494674444198608
1778968365166296300,5.16729638671875,0.05749170482158661,0.5458486676216125,-1.0752320289611816
1778968365176287200,5.177287353515625,0.023185929283499718,0.7558298707008362,-0.9905280470848083
1778968365186279400,5.187279541015625,-0.03873481974005699,0.8869560360908508,-0.8264683485031128
1778968365196270300,5.197270263671875,-0.14012962579727173,0.8942011594772339,-0.595431923866272
1778968365206262300,5.20726220703125,-0.22878627479076385,0.7804082632064819,-0.2905786633491516
1778968365216253200,5.217253173828125,-0.25648555159568787,0.6205035448074341,0.0515936054289341
1778968365226245000,5.2272451171875,-0.26902344822883606,0.4933057129383087,0.35063931345939636
1778968365236237300,5.2372373046875,-0.2797972559928894,0.360477089881897,0.5602703094482422
1778968365246228200,5.247228271484375,-0.3002125024795532,0.22253018617630005,0.6353569030761719
1778968365256220400,5.257220458984375,-0.301419198513031,0.1445522904396057,0.5451593995094299
1778968365266210600,5.26721044921875,-0.26804858446121216,0.09210256487131119,0.3785443603992462
1778968365276202800,5.27720263671875,-0.21901845932006836,0.0627814307808876,0.33464348316192627
1778968365286193700,5.287193603515625,-0.21764574944972992,0.02110360749065876,0.5783852934837341
1778968365296185900,5.297185791015625,-0.212577223777771,-0.09929604083299637,0.9531461000442505
1778968365306176800,5.3071767578125,-0.20706287026405334,-0.22880026698112488,1.2094621658325195
1778968365316168400,5.31716845703125,-0.17200714349746704,-0.3769140839576721,1.2006181478500366
1778968365326160600,5.32716064453125,-0.15716201066970825,-0.6236444711685181,0.9152531027793884
1778968365336151600,5.337151611328125,-0.17283524572849274,-1.0072101354599,0.4907792806625366
1778968365346143700,5.347143798828125,-0.16059616208076477,-1.2223811149597168,0.15572714805603027
1778968365356134700,5.357134765625,-0.09829843789339066,-0.9960206151008606,-0.23266160488128662
1778968365366126800,5.367126953125,-0.09244732558727264,-0.5809838175773621,-0.7067800164222717
1778968365376117800,5.37711767578125,-0.09889484196901321,-0.3352414071559906,-1.0982095003128052
1778968365386109700,5.387109619140625,-0.09305493533611298,-0.10652779787778854,-1.3353179693222046
1778968365396100900,5.397100830078125,-0.19674912095069885,0.1030011922121048,-1.5461190938949585
1778968365406092500,5.407092529296875,-0.292677104473114,0.09237213432788849,-1.7951723337173462
1778968365416084700,5.417084716796875,-0.6082401275634766,-0.05668818578124046,-1.9759472608566284
1778968365426075600,5.42707568359375,-0.6465891003608704,-0.48166564106941223,-1.8239390850067139
1778968365436067600,5.437067626953125,-0.5142310857772827,-0.733439028263092,-1.3082667589187622
1778968365446058800,5.447058837890625,-0.3447783887386322,-0.6670517325401306,-0.7288491725921631
1778968365456050700,5.45705078125,-0.13426882028579712,-0.5034143328666687,-0.21409666538238525
1778968365466041600,5.46704150390625,0.002128029242157936,-0.2689895033836365,0.1778106391429901
1778968365476033800,5.47703369140625,-0.03388829529285431,-0.0663628876209259,0.3854733109474182
1778968365486024700,5.487024658203125,-0.07786333560943604,-0.03151318058371544,0.45432689785957336
1778968365496016600,5.4970166015625,-0.14436058700084686,-0.0850009024143219,0.4490453004837036
1778968365506007600,5.507007568359375,-0.19458329677581787,-0.15181484818458557,0.4314576983451843
1778968365515999500,5.51699951171875,-0.1927955150604248,-0.12002576887607574,0.4300518333911896
1778968365525991700,5.52699169921875,-0.13333551585674286,0.0013529787538573146,0.4411638379096985
1778968365535982600,5.536982666015625,-0.026784567162394524,0.16535629332065582,0.4663485288619995
1778968365545974800,5.546974853515625,0.079152911901474,0.32747188210487366,0.49684879183769226
1778968365555965700,5.556965576171875,0.1598038226366043,0.45238691568374634,0.5238843560218811
1778968365565957600,5.56695751953125,0.2101440727710724,0.5169219374656677,0.551032543182373
1778968365575948800,5.57694873046875,0.21634045243263245,0.5868232250213623,0.5351284146308899
1778968365585940500,5.5869404296875,0.22378332912921906,0.6813565492630005,0.44596341252326965
1778968365595931600,5.596931640625,0.2406616359949112,0.7493382692337036,0.28955569863319397
1778968365605923600,5.606923583984375,0.2270401120185852,0.7879288196563721,0.1291809231042862
1778968365615915800,5.616915771484375,0.20269829034805298,0.8720237016677856,-0.028820427134633064
1778968365625906700,5.62690673828125,0.20607809722423553,0.9901618361473083,-0.1418432593345642
1778968365635898600,5.636898681640625,0.23066839575767517,1.1038633584976196,-0.19582393765449524
1778968365645889800,5.646889892578125,0.2532094120979309,1.1441842317581177,-0.21299277245998383
1778968365655881700,5.6568818359375,0.2742675542831421,1.1090878248214722,-0.20658573508262634
1778968365665872600,5.66687255859375,0.28776630759239197,1.062699317932129,-0.1971248984336853
1778968365675864600,5.676864501953125,0.30178892612457275,0.9883676767349243,-0.19447478652000427
1778968365685855700,5.686855712890625,0.30983540415763855,0.848892867565155,-0.14872856438159943
1778968365695847700,5.69684765625,0.28604990243911743,0.7087041139602661,-0.09605284035205841
1778968365705838600,5.706838623046875,0.26396164298057556,0.5585880279541016,-0.04239371791481972
1778968365715830500,5.71683056640625,0.26660457253456116,0.46576860547065735,0.014946800656616688
1778968365725822700,5.72682275390625,0.2829146981239319,0.36185014247894287,0.06769216805696487
1778968365735813600,5.736813720703125,0.3040386438369751,0.26803603768348694,0.10767287015914917
1778968365745805800,5.746805908203125,0.32081758975982666,0.18534912168979645,0.13051263988018036
1778968365755796700,5.756796630859375,0.32386505603790283,0.11334523558616638,0.14384016394615173
1778968365765788700,5.76678857421875,0.3163863718509674,0.041424766182899475,0.1424328088760376
1778968365775779800,5.77677978515625,0.3089177906513214,-0.022123318165540695,0.13434532284736633
1778968365785771500,5.786771484375,0.29914307594299316,-0.07130444049835205,0.1055605560541153
1778968365795762700,5.7967626953125,0.28042906522750854,-0.08809034526348114,0.048810455948114395
1778968365805754600,5.806754638671875,0.26273179054260254,-0.06271365284919739,-0.01953938417136669
1778968365815746600,5.81674658203125,0.2338242530822754,-0.010299178771674633,-0.08790379762649536
1778968365825737700,5.82673779296875,0.20508846640586853,0.06427042931318283,-0.16163785755634308
1778968365835729700,5.836729736328125,0.17958950996398926,0.1562938243150711,-0.2711513042449951
1778968365845720800,5.846720947265625,0.15568244457244873,0.26923826336860657,-0.4076528549194336
1778968365855712800,5.856712646484375,0.1557796448469162,0.3861158788204193,-0.5932725071907043
1778968365865703700,5.86670361328125,0.15083283185958862,0.5154700875282288,-0.7749812006950378
1778968365875695600,5.876695556640625,0.11002681404352188,0.6018974184989929,-0.9408149123191833
1778968365885686500,5.8866865234375,0.05285128578543663,0.6228349208831787,-1.0721535682678223
1778968365895678700,5.8966787109375,-0.026333283632993698,0.560039222240448,-1.1250230073928833
1778968365905670700,5.906670654296875,-0.1369566023349762,0.4010521173477173,-1.0423128604888916
1778968365915661600,5.91666162109375,-0.22801408171653748,0.20478114485740662,-0.916529655456543
1778968365925653800,5.92665380859375,-0.2741377651691437,-0.01668303832411766,-0.8551980257034302
1778968365935644700,5.936644775390625,-0.27546748518943787,-0.30591991543769836,-0.8467230200767517
1778968365945636900,5.946636962890625,-0.2748045027256012,-0.6089760065078735,-0.8482010364532471
1778968365955627800,5.956627685546875,-0.2339489459991455,-0.8733142018318176,-0.832217276096344
1778968365965619500,5.966619384765625,-0.08418834209442139,-0.9147341251373291,-0.797873854637146
1778968365975610600,5.976610595703125,0.13122223317623138,-0.795558750629425,-0.7520744204521179
1778968365985602600,5.9866025390625,0.33757299184799194,-0.6210492849349976,-0.708513617515564
1778968365995594800,5.9965947265625,0.4540708661079407,-0.5231485366821289,-0.7069519758224487
1778968366005585700,6.006585693359375,0.4693678021430969,-0.50859534740448,-0.7433300018310547
1778968366015577600,6.01657763671875,0.4397750198841095,-0.4805019497871399,-0.7683493494987488
1778968366025568800,6.02656884765625,0.3959493637084961,-0.38066789507865906,-0.7520902752876282
1778968366035560700,6.036560791015625,0.3594781756401062,-0.19579099118709564,-0.695175290107727
1778968366045551900,6.0465517578125,0.3148764967918396,0.03790554031729698,-0.6278548240661621
1778968366055543600,6.05654345703125,0.26061856746673584,0.25647833943367004,-0.5522918701171875
1778968366065534500,6.066534423828125,0.17944170534610748,0.39558637142181396,-0.43015092611312866
1778968366075526700,6.076526611328125,0.13342468440532684,0.3822338283061981,-0.22224299609661102
1778968366085517600,6.086517578125,0.13885286450386047,0.25373634696006775,0.025363925844430923
1778968366095509800,6.096509765625,0.14966370165348053,0.12060438841581345,0.23953640460968018
1778968366105501700,6.106501708984375,0.16405116021633148,-0.003977013751864433,0.44224652647972107
1778968366115492600,6.11649267578125,0.16650579869747162,-0.11259803175926208,0.7124335169792175
1778968366125484800,6.12648486328125,0.1297062337398529,-0.1936943084001541,1.0858604907989502
1778968366135475700,6.136475830078125,0.06227259710431099,-0.287343293428421,1.4360294342041016
1778968366145467600,6.146467529296875,0.010866541415452957,-0.45646244287490845,1.6535392999649048
1778968366155458800,6.156458740234375,0.06767895817756653,-0.4899524748325348,1.540608525276184
1778968366165450500,6.166450439453125,0.1603320688009262,-0.5778174996376038,1.0527772903442383
1778968366175441700,6.176441650390625,0.16803951561450958,-0.7817208170890808,0.4062243700027466
1778968366185433600,6.18643359375,0.09244023263454437,-0.8445825576782227,-0.1269124150276184
1778968366195425800,6.19642578125,0.0833069235086441,-0.659039318561554,-0.47444745898246765
1778968366205416700,6.206416748046875,0.14744114875793457,-0.34885385632514954,-0.693699061870575
1778968366215408600,6.21640869140625,0.20108093321323395,-0.051896773278713226,-0.8514894843101501
1778968366225399800,6.22639990234375,0.20438620448112488,0.14206889271736145,-0.9418994188308716
1778968366235391700,6.236391845703125,0.17604191601276398,0.28182467818260193,-0.9535150527954102
1778968366245382700,6.246382568359375,0.11509573459625244,0.41193339228630066,-0.9026931524276733
1778968366255374600,6.25637451171875,0.04380345344543457,0.5314241051673889,-0.7947312593460083
1778968366265366300,6.2663662109375,-0.01398660521954298,0.6334323883056641,-0.6309212446212769
1778968366275358200,6.276358154296875,-0.07586834579706192,0.6918211579322815,-0.4113518297672272
1778968366285349000,6.28634912109375,-0.12385545670986176,0.6578580737113953,-0.16140788793563843
1778968366295341300,6.29634130859375,-0.15980759263038635,0.5299832224845886,0.09713684022426605
1778968366305333200,6.306333251953125,-0.20588360726833344,0.3408788740634918,0.348313570022583
1778968366315324400,6.316324462890625,-0.2515837252140045,0.15232068300247192,0.5790112614631653
1778968366325316000,6.326316162109375,-0.277177095413208,-0.015728827565908432,0.6911838054656982
1778968366335307300,6.336307373046875,-0.28844013810157776,-0.12205260246992111,0.6705008745193481
1778968366345299200,6.34629931640625,-0.22341839969158173,-0.060284197330474854,0.6584675908088684
1778968366355290000,6.3562900390625,-0.11184419691562653,0.19536887109279633,0.9011534452438354
1778968366365282300,6.3662822265625,-0.11006242781877518,0.24380749464035034,1.447284460067749
1778968366375273200,6.376273193359375,-0.12016618996858597,-0.045735105872154236,2.1652684211730957
1778968366385265400,6.386265380859375,-0.08735229820013046,-0.38433292508125305,2.389174461364746
1778968366395257300,6.39625732421875,-0.01898549124598503,-0.959556519985199,2.002302885055542
1778968366405248300,6.406248291015625,0.00116743054240942,-1.5216213464736938,1.418270468711853
1778968366415240200,6.416240234375,-0.0072151352651417255,-1.681525707244873,0.715194821357727
1778968366425231000,6.426231201171875,0.10320712625980377,-1.448864459991455,-0.04294278472661972
1778968366435223300,6.436223388671875,0.24320204555988312,-0.9162775874137878,-0.7154061198234558
1778968366445214200,6.446214111328125,0.2984732985496521,-0.018338117748498917,-1.3085813522338867
1778968366455206100,6.4562060546875,0.23167268931865692,0.8321780562400818,-1.9862735271453857
1778968366465197300,6.466197265625,0.012324350886046886,0.7833824157714844,-2.635432481765747
1778968366475189200,6.476189208984375,-0.2560722231864929,-0.02038729004561901,-2.8502683639526367
1778968366485180200,6.48618017578125,-0.38531824946403503,-0.7825971841812134,-2.390397548675537
1778968366495172400,6.49617236328125,-0.3216010630130768,-0.6878331303596497,-1.5507184267044067
1778968366505164000,6.5061640625,-0.21351490914821625,-0.5597920417785645,-0.973233163356781
1778968366515155200,6.5161552734375,-0.06831963360309601,-0.6938097476959229,-0.6115782856941223
1778968366525147100,6.526147216796875,0.029981518164277077,-0.6789307594299316,-0.2634563744068146
1778968366535138000,6.536137939453125,-0.04208894819021225,-0.5261425375938416,0.0725400373339653
1778968366545130200,6.546130126953125,-0.15336047112941742,-0.4431546628475189,0.33604708313941956
1778968366555121200,6.55612109375,-0.24331992864608765,-0.43265408277511597,0.5167180895805359
1778968366565113300,6.56611328125,-0.3058567941188812,-0.39851176738739014,0.6342557668685913
1778968366575104300,6.576104248046875,-0.3027406334877014,-0.2514339089393616,0.7303133010864258
1778968366585096400,6.586096435546875,-0.22585612535476685,-0.021539762616157532,0.8267241716384888
1778968366595088100,6.596088134765625,-0.13162469863891602,0.21791596710681915,0.9304657578468323
1778968366605079300,6.606079345703125,-0.04384531080722809,0.4124508202075958,1.0306485891342163
1778968366615071200,6.6160712890625,0.00917023979127407,0.5233914852142334,1.1254749298095703
1778968366625062100,6.626062255859375,0.018865875899791718,0.595915675163269,1.1973330974578857
1778968366635054300,6.636054443359375,0.00015929900109767914,0.693111777305603,1.211892008781433
1778968366645045200,6.646045166015625,-0.025006230920553207,0.8043754696846008,1.1519951820373535
1778968366655037200,6.656037109375,-0.03592865169048309,0.9365108609199524,1.0052595138549805
1778968366665028400,6.6660283203125,-0.05529690533876419,1.0402827262878418,0.8245529532432556
1778968366675020300,6.676020263671875,-0.08270696550607681,1.0662951469421387,0.669864296913147
1778968366685011200,6.68601123046875,-0.09591290354728699,1.048345685005188,0.5669521689414978
1778968366695003400,6.69600341796875,-0.10080698877573013,0.9615518450737,0.4937320053577423
1778968366704995000,6.7059951171875,-0.10555754601955414,0.8221758008003235,0.4185071587562561
1778968366714986200,6.715986328125,-0.08524800837039948,0.6729181408882141,0.32446402311325073
1778968366724978200,6.725978271484375,-0.03490613400936127,0.5208202004432678,0.2207581251859665
1778968366734969000,6.735968994140625,0.014472335577011108,0.3871825039386749,0.14467427134513855
1778968366744961300,6.745961181640625,0.044252607971429825,0.2934582829475403,0.14566172659397125
1778968366754952200,6.7559521484375,0.04089569300413132,0.24169200658798218,0.2394968718290329
1778968366764944400,6.7659443359375,0.008839339017868042,0.22225549817085266,0.3986980617046356
1778968366774935300,6.775935302734375,-0.019529450684785843,0.2202216386795044,0.5584238171577454
1778968366784927200,6.78592724609375,-0.04501189664006233,0.2241525501012802,0.6666396856307983
1778968366794918400,6.79591845703125,-0.07188159227371216,0.23196493089199066,0.6902983784675598
1778968366804910000,6.80591015625,-0.08752287924289703,0.2614353597164154,0.6429964303970337
1778968366814902300,6.81590234375,-0.09454908967018127,0.2984072268009186,0.558397650718689
1778968366824893200,6.82589306640625,-0.07819993793964386,0.3173125684261322,0.4748411774635315
1778968366834885400,6.835885498046875,-0.062314722687006,0.3131551146507263,0.37908804416656494
1778968366844876300,6.845876220703125,-0.0437098890542984,0.2857699692249298,0.282919704914093
1778968366854868200,6.8558681640625,-0.02505630999803543,0.23150727152824402,0.20260009169578552
1778968366864859400,6.865859375,-0.02529717981815338,0.18661564588546753,0.1263454407453537
1778968366874851300,6.875851318359375,-0.05278260260820389,0.19508343935012817,-0.0048996638506650925
1778968366884842200,6.88584228515625,-0.036251820623874664,0.198130264878273,-0.06101825088262558
1778968366894834200,6.895834228515625,-0.04501335322856903,0.23880711197853088,-0.0903545692563057
1778968366904825000,6.9058251953125,-0.075300432741642,0.31047114729881287,-0.2446185052394867
1778968366914817300,6.9158173828125,-0.09402565658092499,0.3668611943721771,-0.5181592702865601
1778968366924809200,6.925809326171875,-0.1092408299446106,0.39803940057754517,-0.8108916878700256
1778968366934800100,6.935800048828125,-0.1315365433692932,0.38867759704589844,-0.9721567034721375
1778968366944792300,6.945792236328125,-0.18681256473064423,0.2406139075756073,-0.9246545433998108
1778968366954783200,6.955783203125,-0.3063592314720154,-0.04655662178993225,-0.7342954874038696
1778968366964775400,6.965775390625,-0.41397276520729065,-0.3120562732219696,-0.5358641147613525
1778968366974766300,6.975766357421875,-0.44365447759628296,-0.46702641248703003,-0.44720399379730225
1778968366984758000,6.985758056640625,-0.4071313440799713,-0.6100115776062012,-0.4767102599143982
1778968366994749200,6.995749267578125,-0.3688731789588928,-0.7877232432365417,-0.5756672024726868
1778968367004741000,7.0057412109375,-0.2944341003894806,-0.9928489327430725,-0.6804904937744141
1778968367014732300,7.015732177734375,-0.12033342570066452,-1.09002685546875,-0.7257543802261353
1778968367024724200,7.02572412109375,0.06737910211086273,-1.0412545204162598,-0.7209342122077942
1778968367034716200,7.035716064453125,0.2223511040210724,-0.9915869235992432,-0.6758833527565002
1778968367044707300,7.045707275390625,0.3098051846027374,-0.9155455827713013,-0.6314166784286499
1778968367054699300,7.05569921875,0.3048514425754547,-0.8125625252723694,-0.5925001502037048
1778968367064690400,7.0656904296875,0.2675428092479706,-0.7989307045936584,-0.5379839539527893
1778968367074682000,7.07568212890625,0.2084944099187851,-0.7852151989936829,-0.502737820148468
1778968367084673300,7.08567333984375,0.13886460661888123,-0.7181976437568665,-0.47974881529808044
1778968367094665200,7.095665283203125,0.09456957876682281,-0.5721682906150818,-0.46136823296546936
1778968367104656100,7.10565625,0.07510040700435638,-0.37503623962402344,-0.43542709946632385
1778968367114648300,7.1156484375,0.05503295734524727,-0.17681503295898438,-0.3744923770427704
1778968367124639200,7.12563916015625,0.03205679729580879,-0.02200559340417385,-0.2525445818901062
1778968367134631200,7.135631103515625,0.04665491357445717,0.02842295914888382,-0.07908891886472702
1778968367144623400,7.145623291015625,0.06055566668510437,0.00783836655318737,0.07200987637042999
1778968367154614300,7.1556142578125,0.06634404510259628,-0.036677438765764236,0.1734539419412613
1778968367164606200,7.165606201171875,0.08412504196166992,-0.06517568230628967,0.2410411834716797
1778968367174597400,7.175597412109375,0.09742220491170883,-0.09507232904434204,0.2936103940010071
1778968367184589000,7.185589111328125,0.11419332772493362,-0.1263241171836853,0.32474836707115173
1778968367194580200,7.195580322265625,0.09741408377885818,-0.11144130676984787,0.3595944941043854
1778968367204572200,7.205572265625,0.04218412935733795,-0.05682523548603058,0.4188212454319
1778968367214563000,7.21556298828125,-0.016775328665971756,-0.05220651626586914,0.5059527158737183
1778968367224555300,7.22555517578125,-0.057255759835243225,-0.012918340042233467,0.5693836808204651
1778968367234546200,7.235546142578125,-0.07397481799125671,0.032942093908786774,0.5631830096244812
1778968367244538400,7.245538330078125,-0.0755440965294838,0.061860304325819016,0.4816671311855316
1778968367254530300,7.2555302734375,-0.07188358157873154,0.09634663909673691,0.3323349058628082
1778968367264521700,7.265521728515625,-0.0757913663983345,0.10633257776498795,0.14960770308971405
1778968367274513700,7.275513671875,-0.07735038548707962,0.10731980949640274,-0.03792595863342285
1778968367284504600,7.285504638671875,-0.07236828655004501,0.1348448097705841,-0.17429518699645996
1778968367294496800,7.295496826171875,-0.06175266206264496,0.15469813346862793,-0.2610490024089813
1778968367304487700,7.30548779296875,-0.08394145220518112,0.23517809808254242,-0.2823694050312042
1778968367314479900,7.31547998046875,-0.10369065403938293,0.31605854630470276,-0.24284012615680695
1778968367324470800,7.325470703125,-0.11676758527755737,0.3617992401123047,-0.1583511382341385
1778968367334462700,7.335462646484375,-0.1300322562456131,0.380869597196579,-0.037518460303545
1778968367344454000,7.345453857421875,-0.15177667140960693,0.38851362466812134,0.10041235387325287
1778968367354445600,7.355445556640625,-0.18254178762435913,0.36913245916366577,0.22159896790981293
1778968367364436700,7.365436767578125,-0.22834919393062592,0.3539341986179352,0.2951616048812866
1778968367374428700,7.3754287109375,-0.20866045355796814,0.23498941957950592,0.28273555636405945
1778968367384420600,7.385420654296875,-0.18639765679836273,0.1338847428560257,0.21749228239059448
1778968367394411800,7.395411865234375,-0.14830486476421356,0.12289919704198837,0.21870748698711395
1778968367404403700,7.40540380859375,-0.16675004363059998,0.1604788899421692,0.4369686543941498
1778968367414395000,7.415394775390625,-0.19859158992767334,0.0643417164683342,0.886792778968811
1778968367424386800,7.42538671875,-0.1979307383298874,-0.15609009563922882,1.3975026607513428
1778968367434377700,7.435377685546875,-0.13284388184547424,-0.3216785490512848,1.6323820352554321
1778968367444370000,7.445369873046875,-0.08314342796802521,-0.5606884360313416,1.4714062213897705
1778968367454360800,7.45536083984375,-0.0804552286863327,-1.126674771308899,1.0346840620040894
1778968367464352800,7.465352783203125,-0.08465995639562607,-1.4673644304275513,0.48491740226745605
1778968367474343700,7.47534375,-0.017363213002681732,-1.2411364316940308,-0.03933488950133324
1778968367484335600,7.485335693359375,0.06989379227161407,-0.7595788836479187,-0.4779810309410095
1778968367494326800,7.495326904296875,0.09614324569702148,-0.38857150077819824,-0.7884475588798523
1778968367504318700,7.505318603515625,0.049776263535022736,-0.02160611003637314,-1.115683913230896
1778968367514311000,7.515310791015625,-0.014265570789575577,0.058622680604457855,-1.6152162551879883
1778968367524301800,7.5253017578125,-0.07861538976430893,-0.2651212811470032,-2.0039942264556885
1778968367534293800,7.535293701171875,-0.1934487670660019,-0.5668728947639465,-1.9387753009796143
1778968367544285000,7.545284912109375,-0.19654829800128937,-0.6721779704093933,-1.5435904264450073
1778968367554276600,7.555276611328125,-0.13160738348960876,-0.625805139541626,-1.0546009540557861
1778968367564267500,7.565267578125,-0.04902420565485954,-0.6940405964851379,-0.5953488945960999
1778968367574259700,7.575259765625,0.01862887665629387,-0.69455885887146,-0.18237406015396118
1778968367584250600,7.585250732421875,-0.06191643327474594,-0.5726955533027649,0.14999157190322876
1778968367594242800,7.595242919921875,-0.1840151697397232,-0.45502910017967224,0.38261866569519043
1778968367604233700,7.605233642578125,-0.2889559864997864,-0.404552698135376,0.5232576131820679
1778968367614225700,7.6152255859375,-0.35223108530044556,-0.35324105620384216,0.613652765750885
1778968367624216800,7.625216796875,-0.359786719083786,-0.2277093380689621,0.6952055096626282
1778968367634208800,7.635208740234375,-0.31378301978111267,-0.06132408231496811,0.7976602911949158
1778968367644200700,7.64520068359375,-0.24139271676540375,0.11515936255455017,0.9199872612953186
1778968367654191600,7.655191650390625,-0.16809800267219543,0.28843796253204346,1.0396957397460938
1778968367664183800,7.665183837890625,-0.10525791347026825,0.4036363661289215,1.1394473314285278
1778968367674174700,7.6751748046875,-0.0707412138581276,0.47578728199005127,1.2098711729049683
1778968367684166700,7.685166748046875,-0.053049154579639435,0.5377026200294495,1.2336009740829468
1778968367694157800,7.69515771484375,-0.04190888628363609,0.6114104390144348,1.1803017854690552
1778968367704149800,7.705149658203125,-0.030623748898506165,0.7104361653327942,1.0195585489273071
1778968367714140700,7.715140625,0.000047344714403152466,0.8389797806739807,0.7971654534339905
1778968367724132900,7.7251328125,0.018263883888721466,0.9183405041694641,0.5984944105148315
1778968367734123800,7.735123779296875,0.015717901289463043,0.9277345538139343,0.4776676297187805
1778968367744115700,7.74511572265625,0.021123189479112625,0.8843671679496765,0.43885356187820435
1778968367754107000,7.75510693359375,0.03253483399748802,0.7941831946372986,0.46431711316108704
1778968367764098600,7.7650986328125,0.05206609144806862,0.696424126625061,0.49444565176963806
1778968367774090800,7.7750908203125,0.07443025708198547,0.5967350602149963,0.5025054216384888
1778968367784081700,7.78508154296875,0.08223447948694229,0.4915938079357147,0.5085673928260803
1778968367794073900,7.795073974609375,0.06985584646463394,0.39772963523864746,0.5444849133491516
1778968367804064800,7.805064697265625,0.05801782384514809,0.3159831166267395,0.6195753812789917
1778968367814056700,7.815056640625,0.061066608875989914,0.26170629262924194,0.7061054706573486
1778968367824047900,7.8250478515625,0.07861563563346863,0.247775137424469,0.7789626717567444
1778968367834039800,7.835039794921875,0.08683840930461884,0.25888320803642273,0.798048734664917
1778968367844031000,7.845031005859375,0.09612513333559036,0.2952398955821991,0.7682583928108215
1778968367854022700,7.855022705078125,0.10244135558605194,0.34038046002388,0.7016361951828003
1778968367864013600,7.865013671875,0.09734661877155304,0.3684592843055725,0.6307597756385803
1778968367874005800,7.875005859375,0.09213002026081085,0.42212438583374023,0.5256770253181458
1778968367883996700,7.88499658203125,0.08531950414180756,0.47097909450531006,0.4049281179904938
1778968367893988900,7.89498876953125,0.05804632976651192,0.514248251914978,0.264067143201828
1778968367903979800,7.904979736328125,0.049550965428352356,0.5553215146064758,0.10170240700244904
1778968367913971700,7.9149716796875,0.03234454244375229,0.5960004925727844,-0.09410517662763596
1778968367923964000,7.9249638671875,0.020869538187980652,0.6265908479690552,-0.27919435501098633
1778968367933954800,7.934954833984375,0.029121875762939453,0.650137186050415,-0.41599056124687195
1778968367943946800,7.94494677734375,0.05082077905535698,0.6908050179481506,-0.5071287155151367
1778968367953937700,7.954937744140625,0.09184543788433075,0.7437166571617126,-0.6096771955490112
1778968367963929600,7.9649296875,0.12865298986434937,0.8160998225212097,-0.7808824777603149
1778968367973920800,7.974920654296875,0.12668198347091675,0.871817409992218,-0.9978920221328735
1778968367983912700,7.98491259765625,0.10875186324119568,0.8818294405937195,-1.1898112297058105
1778968367993903600,7.994903564453125,0.05483537167310715,0.7741868495941162,-1.200845718383789
1778968368003895800,8.004895751953125,-0.0656132698059082,0.4645478129386902,-1.0052458047866821
1778968368013886700,8.01488671875,-0.21500462293624878,0.13374961912631989,-0.7169471383094788
1778968368023879000,8.02487890625,-0.33482611179351807,-0.19358943402767181,-0.5097917914390564
1778968368033869800,8.034869873046874,-0.3908371925354004,-0.4962709844112396,-0.4516259431838989
1778968368043861500,8.044861572265624,-0.34140706062316895,-0.7294756174087524,-0.4966772198677063
1778968368053852700,8.054852783203126,-0.25432994961738586,-0.9786471128463745,-0.5619843006134033
1778968368063844600,8.0648447265625,-0.10843133181333542,-1.1601239442825317,-0.6388683915138245
1778968368073836800,8.0748369140625,0.07329825311899185,-1.1529041528701782,-0.7084054350852966
1778968368083827700,8.08482763671875,0.2733207046985626,-1.0238096714019775,-0.7442653775215149
1778968368093820000,8.09481982421875,0.4415432810783386,-0.7934651970863342,-0.7399941682815552
1778968368103810800,8.104810791015625,0.48373693227767944,-0.6748050451278687,-0.7111588716506958
1778968368113802800,8.114802734375,0.45047056674957275,-0.65938401222229,-0.6593459844589233
1778968368123794000,8.1247939453125,0.39318546652793884,-0.6291429400444031,-0.5870407223701477
1778968368133785600,8.13478564453125,0.300973504781723,-0.504606306552887,-0.5181929469108582
1778968368143776800,8.14477685546875,0.18243685364723206,-0.2893892526626587,-0.4677376449108124
1778968368153768700,8.154768798828124,0.05570421740412712,-0.03192736580967903,-0.4195637106895447
1778968368163759600,8.164759521484376,-0.041307006031274796,0.18929897248744965,-0.3274725079536438
1778968368173751800,8.174751708984376,-0.05994247645139694,0.29644569754600525,-0.16974198818206787
1778968368183742700,8.18474267578125,-0.035054948180913925,0.27580708265304565,0.03310486301779747
1778968368193734700,8.194734619140625,-0.0010650241747498512,0.19639243185520172,0.2528987526893616
1778968368203725800,8.204725830078125,0.026734113693237305,0.11481922119855881,0.5583562850952148
1778968368213717800,8.2147177734375,0.024331409484148026,0.03576621040701866,0.9722455739974976
1778968368223708700,8.224708740234375,0.004637174308300018,-0.08890140801668167,1.3763372898101807
1778968368233700900,8.234700927734375,0.03100539930164814,-0.2833121716976166,1.5273196697235107
1778968368243692500,8.244692626953125,0.1191893219947815,-0.5242527723312378,1.2542983293533325
1778968368253683700,8.25468359375,0.25214338302612305,-0.8032167553901672,0.5757560729980469
1778968368263679700,8.2646796875,0.31872066855430603,-0.9299442172050476,-0.0583687461912632
1778968368273670700,8.274670654296875,0.2619657814502716,-0.8533493280410767,-0.5540831685066223
1778968368283662600,8.28466259765625,0.21169528365135193,-0.6277426481246948,-0.8936222195625305
1778968368293653800,8.29465380859375,0.22011327743530273,-0.32426077127456665,-1.0899872779846191
1778968368303645700,8.304645751953124,0.23770728707313538,-0.06521935015916824,-1.1920877695083618
1778968368313636600,8.31463671875,0.22316616773605347,0.056870605796575546,-1.253864049911499
1778968368323628500,8.324628662109374,0.20482125878334045,0.0709834024310112,-1.2655839920043945
1778968368333619700,8.33461962890625,0.1838187575340271,0.07984906435012817,-1.1995978355407715
1778968368343611600,8.344611572265626,0.16899415850639343,0.16171641647815704,-1.0676796436309814
1778968368353602600,8.3546025390625,0.14623558521270752,0.255093514919281,-0.9374680519104004
1778968368363594800,8.3645947265625,0.12931877374649048,0.40716323256492615,-0.7875189781188965
1778968368373585700,8.374585693359375,0.1207663044333458,0.5743498206138611,-0.6055675745010376
1778968368383577600,8.38457763671875,0.10173098742961884,0.6908043622970581,-0.40638530254364014
1778968368393568800,8.39456884765625,0.07122953236103058,0.7212264537811279,-0.19907018542289734
1778968368403560700,8.404560791015625,0.027810141444206238,0.655471920967102,0.02659139782190323
1778968368413551600,8.414551513671874,-0.021290291100740433,0.5553674101829529,0.2872064709663391
1778968368423543800,8.424543701171874,-0.0881381630897522,0.4785231351852417,0.576595664024353
1778968368433535500,8.434535400390626,-0.15907171368598938,0.4538329541683197,0.8512762188911438
1778968368443526700,8.444526611328126,-0.21528732776641846,0.3681003153324127,1.044793725013733
1778968368453518600,8.4545185546875,-0.25391143560409546,0.2021118700504303,1.126588225364685
1778968368463509500,8.464509521484375,-0.2542601525783539,-0.002570074051618576,1.1452792882919312
1778968368473501700,8.474501708984375,-0.21662354469299316,-0.037459611892700195,1.2308967113494873
1778968368483492600,8.48449267578125,-0.21331363916397095,-0.07792636752128601,1.452868938446045
1778968368493484800,8.49448486328125,-0.19629444181919098,-0.3407316505908966,1.7334380149841309
1778968368503475700,8.504475830078125,-0.14143690466880798,-0.7332308292388916,1.7459102869033813
1778968368513467600,8.514467529296875,-0.07365705817937851,-1.1554940938949585,1.3878639936447144
1778968368523458800,8.524458740234374,-0.029054339975118637,-1.4745562076568604,0.8115764856338501
1778968368533450500,8.534450439453124,-0.019297052174806595,-1.4102283716201782,0.1902489811182022
1778968368543441700,8.544441650390626,0.05028987675905228,-0.9447945356369019,-0.4301774203777313
1778968368553433600,8.55443359375,0.13741092383861542,-0.5721825957298279,-0.9938935041427612
1778968368563424500,8.564424560546875,0.19839440286159515,-0.1557314097881317,-1.3765188455581665
1778968368573416700,8.574416748046875,0.15128307044506073,0.41726821660995483,-1.6400182247161865
1778968368583407600,8.58440771484375,0.01492044236510992,0.8788242936134338,-1.859103798866272
1778968368593399800,8.59439990234375,-0.12357857823371887,0.6668121814727783,-1.9437854290008545
1778968368603391700,8.604391845703125,-0.26248639822006226,-0.047198858112096786,-1.697139859199524
1778968368613382700,8.614382568359375,-0.30704614520072937,-0.48190930485725403,-1.2013921737670898
1778968368623374600,8.62437451171875,-0.22667551040649414,-0.447409063577652,-0.7123827338218689
1778968368633365500,8.634365478515624,-0.1542292833328247,-0.3251287043094635,-0.3715500235557556
1778968368643357700,8.644357666015624,-0.12031085789203644,-0.3099798858165741,-0.11475739628076553
1778968368653348600,8.6543486328125,-0.16774575412273407,-0.3558501601219177,0.09643260389566422
1778968368663340500,8.664340576171876,-0.26048344373703003,-0.42476195096969604,0.25271010398864746
1778968368673331700,8.674331787109375,-0.33516910672187805,-0.4610091745853424,0.40049052238464355
1778968368683323600,8.68432373046875,-0.3689759373664856,-0.39469093084335327,0.5154089331626892
1778968368693314600,8.694314453125,-0.3585973381996155,-0.2125118225812912,0.5772837996482849
1778968368703306800,8.704306640625,-0.3040001392364502,0.014851929619908333,0.6067662835121155
1778968368713297700,8.714297607421875,-0.19918502867221832,0.25772926211357117,0.655529797077179
1778968368723289900,8.724289794921875,-0.07233975827693939,0.4521878659725189,0.7171928882598877
1778968368733280800,8.73428076171875,0.028785793110728264,0.5900751352310181,0.761322021484375
1778968368743272400,8.7442724609375,0.0851147398352623,0.6919407248497009,0.7657380104064941
1778968368753263600,8.754263671875,0.1095588281750679,0.7770273685455322,0.7455323338508606
1778968368763255600,8.764255615234376,0.12099886685609818,0.9103969931602478,0.7024215459823608
1778968368773246700,8.774246826171876,0.13003389537334442,1.0498101711273193,0.6322072744369507
1778968368783238700,8.78423876953125,0.10251973569393158,1.1413025856018066,0.5581793189048767
1778968368793229600,8.7942294921875,0.030591744929552078,1.1898252964019775,0.49885743856430054
1778968368803221800,8.8042216796875,-0.023825576528906822,1.2254226207733154,0.4610987603664398
1778968368813212700,8.814212646484375,-0.03285262733697891,1.260151743888855,0.4818871319293976
1778968368823204900,8.824204833984375,0.0011686915531754494,1.2914180755615234,0.5162612795829773
1778968368833196500,8.834196533203125,0.07664986699819565,1.2689814567565918,0.49374690651893616
1778968368843187500,8.8441875,0.15640568733215332,1.128494143486023,0.4407433569431305
1778968368853179600,8.8541796875,0.21394488215446472,0.9129769802093506,0.33541029691696167
1778968368863170600,8.864170654296874,0.23797312378883362,0.6976021528244019,0.17105796933174133
1778968368873162800,8.874162841796876,0.27471116185188293,0.497117280960083,0.00006785494042560458
1778968368883153700,8.884153564453126,0.30151426792144775,0.3199855089187622,-0.0808807909488678
1778968368893145600,8.8941455078125,0.30032649636268616,0.1847246140241623,-0.029095090925693512
1778968368903136800,8.90413671875,0.2745020091533661,0.10329654812812805,0.09463930875062943
1778968368913128700,8.914128662109375,0.23493246734142303,0.06855987757444382,0.22275999188423157
1778968368923119600,8.92411962890625,0.20442423224449158,0.058740295469760895,0.29954084753990173
1778968368933111600,8.934111572265625,0.19816340506076813,0.06511643528938293,0.3141735792160034
1778968368943102700,8.944102783203125,0.18245099484920502,0.08495399355888367,0.2996717393398285
1778968368953094700,8.9540947265625,0.154449462890625,0.121062733232975,0.2595445513725281
1778968368963085600,8.96408544921875,0.12813504040241241,0.16253581643104553,0.20805993676185608
1778968368973077800,8.974077880859374,0.10273406654596329,0.20851129293441772,0.13998234272003174
1778968368983068700,8.984068603515626,0.07834818959236145,0.2565596103668213,0.07850002497434616
1778968368993060600,8.994060546875,0.07800810039043427,0.29167765378952026,-0.026985658332705498
1778968369003051800,9.0040517578125,0.06705599278211594,0.3050686717033386,-0.18793298304080963
1778968369013043700,9.014043701171875,0.0444103367626667,0.29341816902160645,-0.31880974769592285
1778968369023034600,9.02403466796875,0.01586258038878441,0.30172184109687805,-0.4188035726547241
1778968369033026800,9.03402685546875,-0.016726789996027946,0.342184841632843,-0.5357810854911804
1778968369043018500,9.0440185546875,-0.036949772387742996,0.3912372887134552,-0.6743377447128296
1778968369053009700,9.054009765625,-0.04642396792769432,0.4354571998119354,-0.8015167713165283
1778968369063000600,9.06400048828125,-0.06502018868923187,0.4664124846458435,-0.8410037159919739
1778968369072992500,9.073992431640624,-0.1275528073310852,0.40877288579940796,-0.7570480704307556
1778968369082984700,9.083984619140624,-0.26339954137802124,0.24808531999588013,-0.5724068284034729
1778968369092975600,9.0939755859375,-0.380267858505249,0.06706893444061279,-0.3756559491157532
1778968369102967800,9.1039677734375,-0.439741313457489,-0.13801716268062592,-0.24955995380878448
1778968369112958700,9.113958740234375,-0.45301610231399536,-0.35649117827415466,-0.24897325038909912
1778968369122950700,9.12395068359375,-0.4093691408634186,-0.596056342124939,-0.34397563338279724
1778968369132941800,9.13394189453125,-0.32307472825050354,-0.900600016117096,-0.4667084813117981
1778968369142933500,9.14393359375,-0.16674543917179108,-1.116231083869934,-0.6127984523773193
1778968369152924700,9.153924560546875,0.05248916149139404,-1.098002314567566,-0.7517642974853516
1778968369162916600,9.16391650390625,0.2852061688899994,-0.9634299278259277,-0.8149031400680542
1778968369172907500,9.173907470703124,0.42411476373672485,-0.8164505958557129,-0.8273465037345886
1778968369182899700,9.183899658203124,0.4483312964439392,-0.7526445388793945,-0.8200125098228455
1778968369192890600,9.193890625,0.3995664417743683,-0.7067444324493408,-0.7857589721679688
1778968369202882800,9.2038828125,0.34709206223487854,-0.6171115636825562,-0.702988862991333
1778968369212873700,9.213873779296875,0.2918591797351837,-0.444599986076355,-0.5843762159347534
1778968369222865700,9.22386572265625,0.22278356552124023,-0.21151405572891235,-0.46478378772735596
1778968369232856800,9.23385693359375,0.13756801187992096,-0.0087606655433774,-0.3481874167919159
1778968369242848500,9.2438486328125,0.05183148384094238,0.10339367389678955,-0.2047680765390396
1778968369252839700,9.253839599609375,0.04352961480617523,0.11794518679380417,-0.023098677396774292
1778968369262830000,9.263830078125,0.0712205097079277,0.05385326221585274,0.16177767515182495
1778968369272821000,9.273821044921876,0.07649730145931244,-0.029039490967988968,0.3814964294433594
1778968369282813200,9.283813232421876,0.05233483389019966,-0.1124258041381836,0.6836225390434265
1778968369292804000,9.29380419921875,0.0200839564204216,-0.1729876846075058,1.0241976976394653
1778968369302795800,9.303795654296875,0.01455975603312254,-0.25422269105911255,1.2734516859054565
1778968369312787000,9.313786865234375,0.06068490818142891,-0.43408486247062683,1.2781175374984741
1778968369322779000,9.32377880859375,0.16537883877754211,-0.6462198495864868,0.9165066480636597
1778968369332770000,9.33377001953125,0.2353009283542633,-0.8977468609809875,0.3493731915950775
1778968369342762000,9.343761962890625,0.2390594631433487,-1.0163860321044922,-0.11975734680891037
1778968369352753000,9.3537529296875,0.22072653472423553,-0.9192000031471252,-0.42981427907943726
1778968369362745000,9.3637451171875,0.2200251817703247,-0.7035238742828369,-0.6278373003005981
1778968369372736000,9.373736083984374,0.1865045130252838,-0.4661499559879303,-0.7992071509361267
1778968369382728200,9.383728271484374,0.17086482048034668,-0.30356863141059875,-0.9345013499259949
1778968369392720000,9.393719970703126,0.1743980348110199,-0.1420913189649582,-0.9936445951461792
1778968369402711000,9.4037109375,0.15644127130508423,0.013137977570295334,-0.9718878269195557
1778968369412703000,9.413702880859375,0.11127138882875443,0.14404405653476715,-0.9112383127212524
1778968369422694000,9.42369384765625,0.04552726447582245,0.2689969539642334,-0.8326360583305359
1778968369432686000,9.43368603515625,0.0006514051929116249,0.3986079692840576,-0.736611008644104
1778968369442677000,9.443677001953125,-0.03997589647769928,0.5062532424926758,-0.6184727549552917
1778968369452669000,9.4536689453125,-0.06373102962970734,0.5819756984710693,-0.4739145338535309
1778968369462660000,9.46366015625,-0.08041414618492126,0.611648678779602,-0.3107718527317047
1778968369472652000,9.473652099609374,-0.10911770164966583,0.5567276477813721,-0.13561388850212097
1778968369482643000,9.483642822265624,-0.13356724381446838,0.4485429525375366,0.056323498487472534
1778968369492635100,9.49363525390625,-0.16250967979431152,0.33265575766563416,0.2825246751308441
1778968369502626000,9.5036259765625,-0.19279010593891144,0.21269866824150085,0.48299503326416016
1778968369512618000,9.513617919921876,-0.21537557244300842,0.07338445633649826,0.5535528063774109
1778968369522609000,9.52360888671875,-0.23978278040885925,-0.04174913465976715,0.49235987663269043
1778968369532600800,9.533600830078125,-0.24446462094783783,-0.04346980154514313,0.38317957520484924
1778968369542592000,9.543592041015625,-0.20708045363426208,0.20794740319252014,0.45144587755203247
1778968369552584000,9.553583984375,-0.19295717775821686,0.31388741731643677,0.8118913769721985
1778968369562575000,9.5635751953125,-0.2069621980190277,-0.04451568052172661,1.392953634262085
1778968369572567000,9.573567138671875,-0.18988068401813507,-0.5758224129676819,1.8457010984420776
1778968369582558000,9.583557861328124,-0.15629969537258148,-1.0707309246063232,1.627938985824585
1778968369592550100,9.593550048828124,-0.10719579458236694,-1.5399354696273804,0.9776278138160706
1778968369602541000,9.603541015625,-0.08440050482749939,-1.8001726865768433,0.2411426603794098
1778968369612533000,9.613532958984376,-0.022688135504722595,-1.6360713243484497,-0.49448129534721375
1778968369622524000,9.62352392578125,0.09454473853111267,-0.9902830719947815,-1.1050748825073242
1778968369632515800,9.633515869140625,0.15670771896839142,-0.3079058527946472,-1.502942442893982
1778968369642507000,9.643507080078125,0.15309275686740875,0.2082318514585495,-1.6465815305709839
1778968369652499000,9.6534990234375,0.06683216989040375,0.7162801623344421,-1.6114280223846436
1778968369662489900,9.66348974609375,-0.1186361014842987,0.9152170419692993,-1.6448968648910522
1778968369672482000,9.67348193359375,-0.29743221402168274,0.46165940165519714,-1.626294493675232
1778968369682473000,9.683472900390624,-0.44274210929870605,-0.28742045164108276,-1.3013578653335571
1778968369692465200,9.693465087890624,-0.5055122375488281,-0.6527496576309204,-0.7678953409194946
1778968369702456000,9.7034560546875,-0.4146232306957245,-0.5150711536407471,-0.2374030202627182
1778968369712448000,9.713447998046876,-0.2207762748003006,-0.20569247007369995,0.18377350270748138
1778968369722439200,9.723439208984376,-0.10479830950498581,-0.09875420480966568,0.4280867278575897
1778968369732430800,9.733430908203125,-0.12229527533054352,-0.15366938710212708,0.5645103454589844
1778968369742422000,9.743422119140625,-0.1513247787952423,-0.2542582154273987,0.6294520497322083
1778968369752414000,9.7534140625,-0.20651373267173767,-0.34364721179008484,0.6413342952728271
1778968369762404900,9.76340478515625,-0.2270606905221939,-0.3418557643890381,0.6367568969726562
1778968369772397000,9.77339697265625,-0.20437856018543243,-0.18207409977912903,0.6302604079246521
1778968369782388000,9.783387939453124,-0.13795383274555206,0.10890449583530426,0.6738113760948181
1778968369792380200,9.793380126953124,-0.08415879309177399,0.4356599748134613,0.8258610963821411
1778968369802371000,9.80337109375,-0.049665410071611404,0.7206829786300659,1.1317057609558105
1778968369812363000,9.813363037109376,-0.009227970615029335,0.9275197982788086,1.4503612518310547
1778968369822354200,9.823354248046876,0.017259439453482628,0.9944280982017517,1.6391032934188843
1778968369832345900,9.833345947265625,-0.0023962873965501785,1.019972562789917,1.7054167985916138
1778968369842336800,9.843336669921875,-0.03416527062654495,1.0481623411178589,1.671445369720459
1778968369852329000,9.853328857421875,-0.07476835697889328,1.0527371168136597,1.5378057956695557
1778968369862319900,9.86331982421875,-0.11094501614570618,1.003827691078186,1.3455815315246582
1778968369872312000,9.87331201171875,-0.15268394351005554,0.9053741693496704,1.124515175819397
1778968369882303000,9.883302978515625,-0.16524380445480347,0.7287973761558533,0.9129958748817444
1778968369892295000,9.893294921875,-0.16571465134620667,0.5006563663482666,0.7084227800369263
1778968369902286000,9.9032861328125,-0.14761114120483398,0.31657353043556213,0.4988139569759369
1778968369912278000,9.913278076171874,-0.10843578726053238,0.22122062742710114,0.29345467686653137
1778968369922269200,9.923269287109376,-0.05930975079536438,0.18193946778774261,0.10889437794685364
1778968369932260900,9.9332607421875,-0.006916583050042391,0.1418551653623581,-0.0402117557823658
1778968369942252000,9.943251953125,0.053187623620033264,0.11675933003425598,-0.12988002598285675
1778968369952244000,9.953243896484375,0.11052175611257553,0.09876728057861328,-0.16507795453071594
1778968369962236000,9.96323583984375,0.1337817907333374,0.08826468139886856,-0.14997977018356323
1778968369972227000,9.97322705078125,0.11095291376113892,0.082095205783844,-0.07375185191631317
1778968369982218000,9.983218017578125,0.08655143529176712,0.09498047828674316,0.04348498955368996
1778968369992210000,9.9932099609375,0.0642719641327858,0.13198935985565186,0.17741721868515015
1778968370002201000,10.003201171875,0.04442901164293289,0.17285652458667755,0.29303866624832153
1778968370012193000,10.013193115234374,0.025506718084216118,0.2247903048992157,0.3594323396682739
1778968370022184000,10.023183837890626,0.020540863275527954,0.2719459533691406,0.3483258783817291
1778968370032176000,10.033176025390626,0.023251164704561234,0.30997589230537415,0.2725642919540405
1778968370042167800,10.043167724609376,0.02151559293270111,0.3512635827064514,0.1674443483352661
1778968370052159000,10.053158935546875,0.019543789327144623,0.3850939869880676,0.06885599344968796
1778968370062151000,10.06315087890625,0.011095964349806309,0.4096447229385376,-0.012342535890638828
1778968370072141800,10.073141845703125,-0.015984654426574707,0.45742741227149963,-0.08880455046892166
1778968370082134000,10.083134033203125,-0.03186933696269989,0.4990340769290924,-0.14551474153995514
1778968370092125000,10.093125,-0.05339859426021576,0.5574012398719788,-0.20723989605903625
1778968370102116000,10.1031162109375,-0.06826476007699966,0.5875048041343689,-0.27300259470939636
1778968370112108000,10.11310791015625,-0.07197267562150955,0.5819262862205505,-0.39098116755485535
1778968370122100000,10.123099853515624,-0.09074317663908005,0.5772302150726318,-0.5664754509925842
1778968370132091100,10.133091064453126,-0.09816008061170578,0.5465373396873474,-0.7236190438270569
1778968370142082800,10.143082763671876,-0.09139350056648254,0.4869140088558197,-0.7920471429824829
1778968370152074000,10.153073974609375,-0.15056253969669342,0.36478543281555176,-0.7478493452072144
1778968370162066000,10.16306591796875,-0.2689787745475769,0.17841850221157074,-0.6091819405555725
1778968370172056800,10.173056884765625,-0.37673136591911316,0.02275620773434639,-0.4376128911972046
1778968370182048000,10.183048095703125,-0.4553796052932739,-0.08882351219654083,-0.3155772089958191
1778968370192040000,10.1930400390625,-0.47989827394485474,-0.2150573581457138,-0.2787158489227295
1778968370202030800,10.20303076171875,-0.4582274556159973,-0.4036501944065094,-0.3281124532222748
1778968370212023000,10.21302294921875,-0.3900667726993561,-0.6432183384895325,-0.4096214473247528
1778968370222015000,10.223014892578124,-0.25867772102355957,-0.8647722005844116,-0.5378258228302002
1778968370232006100,10.233006103515624,-0.04882008209824562,-0.9492077231407166,-0.6792077422142029
1778968370241998000,10.242998046875,0.1824280470609665,-0.8987995386123657,-0.772536039352417
1778968370251989000,10.252989013671876,0.3594222664833069,-0.8100640773773193,-0.7887659072875977
1778968370261980200,10.262980224609375,0.43038004636764526,-0.7397212982177734,-0.7434577345848083
1778968370271969500,10.272969482421875,0.41021832823753357,-0.711796224117279,-0.6840351819992065
1778968370281960700,10.282960693359374,0.3485579192638397,-0.6483939290046692,-0.6457676887512207
1778968370291952600,10.29295263671875,0.2823679745197296,-0.5203582048416138,-0.627730131149292
1778968370301944800,10.30294482421875,0.20898842811584473,-0.33125633001327515,-0.6443559527397156
1778968370311935700,10.312935791015626,0.16428779065608978,-0.10317415744066238,-0.6914025545120239
1778968370321926700,10.3229267578125,0.15714363753795624,0.07836776971817017,-0.7281456589698792
1778968370331918600,10.332918701171875,0.17068101465702057,0.1988595575094223,-0.7015742659568787
1778968370341909800,10.34290966796875,0.1959913969039917,0.26889127492904663,-0.5593177676200867
1778968370351901400,10.3529013671875,0.25656235218048096,0.2043871283531189,-0.36366674304008484
1778968370361892600,10.362892578125,0.330868124961853,0.06680212914943695,-0.15961557626724243
1778968370371884500,10.372884521484375,0.3700149953365326,-0.07210063189268112,0.06269312649965286
1778968370381875500,10.38287548828125,0.3521561026573181,-0.1523739993572235,0.3090784549713135
1778968370391867600,10.39286767578125,0.3048253357410431,-0.2065589427947998,0.5208620429039001
1778968370401858600,10.402858642578124,0.2685055434703827,-0.28047022223472595,0.6040024757385254
1778968370411850800,10.412850830078124,0.26914525032043457,-0.42338448762893677,0.5291202664375305
1778968370421841700,10.422841552734376,0.29185935854911804,-0.5534189939498901,0.23736710846424103
1778968370431833600,10.43283349609375,0.25778552889823914,-0.665432870388031,-0.13753725588321686
1778968370441824800,10.44282470703125,0.21750468015670776,-0.67636638879776,-0.43456795811653137
1778968370451816400,10.45281640625,0.17439210414886475,-0.580499529838562,-0.6682374477386475
1778968370461807600,10.4628076171875,0.15600454807281494,-0.4016067087650299,-0.8492871522903442
1778968370471799600,10.472799560546875,0.16555491089820862,-0.24310414493083954,-0.9790909886360168
1778968370481790500,10.48279052734375,0.18631720542907715,-0.0887703001499176,-1.0542640686035156
1778968370491782700,10.49278271484375,0.16784659028053284,0.03240353241562843,-1.1009846925735474
1778968370501773600,10.502773681640624,0.12748916447162628,0.1702807992696762,-1.1094390153884888
1778968370511765800,10.512765869140624,0.09555840492248535,0.3112693428993225,-1.0776432752609253
1778968370521756700,10.522756591796876,0.07265724241733551,0.4683447778224945,-1.0176482200622559
1778968370531748600,10.53274853515625,0.05930574983358383,0.6203521490097046,-0.9263963103294373
1778968370541739800,10.54273974609375,0.03683611750602722,0.7339803576469421,-0.7906054258346558
1778968370551731700,10.552731689453125,0.002384400926530361,0.7600201964378357,-0.6136905550956726
1778968370561722600,10.56272265625,-0.034871093928813934,0.6454688310623169,-0.3592469096183777
1778968370571714600,10.572714599609375,-0.07255322486162186,0.4869622588157654,-0.060707882046699524
1778968370581705500,10.58270556640625,-0.10393576323986053,0.3346685469150543,0.22912737727165222
1778968370591697700,10.59269775390625,-0.15017303824424744,0.24418099224567413,0.5125753283500671
1778968370601688600,10.6026884765625,-0.2094665765762329,0.19130165874958038,0.7403560280799866
1778968370611680500,10.612680419921874,-0.25511395931243896,0.11274772882461548,0.8212705850601196
1778968370621671700,10.622671630859376,-0.2882617115974426,0.05178802087903023,0.7620648145675659
1778968370631663600,10.63266357421875,-0.2787243723869324,0.036667924374341965,0.7249456644058228
1778968370641654800,10.64265478515625,-0.2344823181629181,0.14617837965488434,0.8965493440628052
1778968370651646700,10.652646728515625,-0.23190996050834656,0.08909110724925995,1.2422741651535034
1778968370661637600,10.6626376953125,-0.2238456755876541,-0.10211329162120819,1.616099238395691
1778968370671629600,10.672629638671875,-0.18010298907756805,-0.23568226397037506,1.6085790395736694
1778968370681620500,10.682620361328125,-0.13473919034004211,-0.6742481589317322,1.2273433208465576
1778968370691612700,10.69261279296875,-0.12453155964612961,-1.2187305688858032,0.7650303840637207
1778968370701603600,10.702603515625,-0.11226785182952881,-1.2562315464019775,0.2661058008670807
1778968370711595500,10.712595458984374,-0.015634790062904358,-1.0244196653366089,-0.277258962392807
1778968370721586700,10.722586669921874,0.06960287690162659,-0.8347424864768982,-0.7642906308174133
1778968370731578600,10.73257861328125,0.06251673400402069,-0.5337072610855103,-1.1384152173995972
1778968370741569500,10.742569580078126,-0.015469664707779884,-0.06078619137406349,-1.4897842407226562
1778968370751561700,10.752561767578126,-0.10736522823572159,0.10880497097969055,-1.8811346292495728
1778968370761552600,10.762552734375,-0.20958882570266724,-0.19377049803733826,-1.9537999629974365
1778968370771544600,10.772544677734375,-0.18092921376228333,-0.5230340957641602,-1.6920835971832275
1778968370781535700,10.78253564453125,-0.12129345536231995,-0.47339004278182983,-1.1438742876052856
1778968370791527400,10.79252734375,-0.005495751276612282,-0.4226352274417877,-0.5893338918685913
1778968370801518600,10.8025185546875,0.0722503587603569,-0.3687301576137543,-0.13558329641819
1778968370811510500,10.812510498046874,0.051361583173274994,-0.3097589910030365,0.14675065875053406
1778968370821501700,10.822501708984374,-0.0054103960283100605,-0.25787076354026794,0.2674160301685333
1778968370831493600,10.83249365234375,-0.06397703289985657,-0.17367996275424957,0.32936275005340576
1778968370841484500,10.842484619140626,-0.11282872408628464,-0.086384117603302,0.418351948261261
1778968370851476700,10.852476806640626,-0.1611376702785492,-0.030508065596222878,0.5356367826461792
1778968370861467600,10.862467529296875,-0.19003041088581085,0.04355328902602196,0.6591548323631287
1778968370871459800,10.8724599609375,-0.16674506664276123,0.14680883288383484,0.8104761838912964
1778968370881450800,10.88245068359375,-0.10711584985256195,0.2799549102783203,0.9769660234451294
1778968370891442400,10.8924423828125,-0.04374566674232483,0.4094220995903015,1.121852993965149
1778968370901433600,10.90243359375,-0.004660950507968664,0.5118204355239868,1.2250338792800903
1778968370911424500,10.912424560546874,0.01846380904316902,0.5666695833206177,1.291632056236267
1778968370921416400,10.92241650390625,0.0540793277323246,0.6110948324203491,1.3376281261444092
1778968370931407600,10.93240771484375,0.07410949468612671,0.6812440752983093,1.34600830078125
1778968370941399600,10.942399658203126,0.08934928476810455,0.7756023406982422,1.2776767015457153
1778968370951390500,10.952390380859375,0.09444896876811981,0.7975925803184509,1.1396995782852173
1778968370961382700,10.962382568359375,0.08737336844205856,0.8229849934577942,0.991716206073761
1778968370971373600,10.97237353515625,0.07410682737827301,0.849306583404541,0.8705564737319946
1778968370981365800,10.98236572265625,0.07016894221305847,0.8721340298652649,0.8021540641784668
1778968370991356700,10.992356689453125,0.08238139748573303,0.8657917380332947,0.7774298191070557
1778968371001348600,11.0023486328125,0.08366172760725021,0.8609276413917542,0.7889922261238098
1778968371011339800,11.01233984375,0.07342187315225601,0.837716281414032,0.8129718899726868
1778968371021331500,11.02233154296875,0.06231902912259102,0.7934650778770447,0.8055222034454346
1778968371031322600,11.032322509765624,0.06992395967245102,0.6999865174293518,0.7451478242874146
1778968371041314600,11.042314453125,0.09028205275535583,0.561335027217865,0.6785987019538879
1778968371051305500,11.052305419921876,0.11029836535453796,0.449896901845932,0.609706461429596
1778968371061297700,11.062297607421876,0.15733222663402557,0.39021986722946167,0.5432068705558777
1778968371071288600,11.07228857421875,0.1995752900838852,0.3671387732028961,0.46388280391693115
1778968371081280800,11.08228076171875,0.22733822464942932,0.3359847366809845,0.3721494972705841
1778968371091271700,11.092271728515625,0.24797426164150238,0.2741983234882355,0.29243868589401245
1778968371101263600,11.102263671875,0.23998476564884186,0.20182082056999207,0.23516017198562622
1778968371111254800,11.1122548828125,0.21204233169555664,0.1446579247713089,0.19302603602409363
1778968371121246500,11.12224658203125,0.18717679381370544,0.11541404575109482,0.15998399257659912
1778968371131237600,11.132237548828124,0.1474381685256958,0.12100162357091904,0.13334891200065613
1778968371141229600,11.1422294921875,0.12599977850914001,0.14167165756225586,0.10978735238313675
1778968371151220500,11.152220458984376,0.09549938887357712,0.17639155685901642,0.031302936375141144
1778968371161212700,11.162212646484376,0.08521515876054764,0.21408003568649292,-0.07463036477565765
1778968371171203600,11.17220361328125,0.07256967574357986,0.2445141077041626,-0.17949871718883514
1778968371181195800,11.18219580078125,0.04933542758226395,0.26724332571029663,-0.27439287304878235
1778968371191186700,11.192186767578125,0.019481927156448364,0.29797273874282837,-0.39499014616012573
1778968371201177600,11.202177490234375,-0.007042585872113705,0.33434101939201355,-0.5578857660293579
1778968371211169800,11.212169677734375,-0.026911631226539612,0.3840627670288086,-0.7675883769989014
1778968371221160700,11.22216064453125,-0.050761349499225616,0.43386179208755493,-0.9233572483062744
1778968371231152600,11.232152587890624,-0.1122920885682106,0.4148441553115845,-0.9237828254699707
1778968371241143800,11.242143798828126,-0.2237989902496338,0.3360787630081177,-0.7992668747901917
1778968371251135500,11.252135498046876,-0.3560289442539215,0.2043771743774414,-0.5838067531585693
1778968371261126400,11.26212646484375,-0.4600490927696228,0.03319788724184036,-0.38126081228256226
1778968371271118300,11.272118408203125,-0.49446219205856323,-0.16659939289093018,-0.28350895643234253
1778968371281109500,11.282109619140625,-0.4512481391429901,-0.38889145851135254,-0.30599644780158997
1778968371291101400,11.292101318359375,-0.36067989468574524,-0.6449450850486755,-0.37435847520828247
1778968371301092400,11.30209228515625,-0.25196802616119385,-0.9217606782913208,-0.46132680773735046
1778968371311084500,11.31208447265625,-0.12786580622196198,-1.1279460191726685,-0.5786840319633484
1778968371321075500,11.322075439453124,0.05571029335260391,-1.1262242794036865,-0.6880815029144287
1778968371331067600,11.332067626953124,0.24191664159297943,-1.0161584615707397,-0.7823770642280579
1778968371341058600,11.34205859375,0.359985888004303,-0.8316500782966614,-0.8646360039710999
1778968371351050500,11.352050537109376,0.38704919815063477,-0.7060953378677368,-0.9293457865715027
1778968371361041700,11.362041748046876,0.3593837320804596,-0.6422553658485413,-0.9553928375244141
1778968371371033300,11.372033447265625,0.2929418683052063,-0.5565625429153442,-0.9459870457649231
1778968371381024500,11.3820244140625,0.21764805912971497,-0.38744258880615234,-0.9154731035232544
1778968371391016400,11.392016357421875,0.1563705950975418,-0.15668661892414093,-0.8609906435012817
1778968371401007400,11.40200732421875,0.11281414330005646,0.06114612892270088,-0.7606990933418274
1778968371410999600,11.41199951171875,0.08146553486585617,0.18771232664585114,-0.5843027234077454
1778968371420990500,11.421990478515625,0.06395754218101501,0.21076726913452148,-0.3299413323402405
1778968371430982700,11.431982666015625,0.08427905291318893,0.14666524529457092,-0.06160522252321243
1778968371440973600,11.4419736328125,0.13583077490329742,0.07013610750436783,0.19271992146968842
1778968371450964500,11.451964599609376,0.17545169591903687,-0.04802834242582321,0.4646361172199249
1778968371460956700,11.461956787109376,0.15777340531349182,-0.1772453933954239,0.8511607050895691
1778968371470947600,11.471947509765625,0.09890876710414886,-0.32651981711387634,1.2697113752365112
1778968371480939300,11.481939208984375,0.06257005035877228,-0.5989584922790527,1.4660125970840454
1778968371490930400,11.491930419921875,0.12715329229831696,-0.893996000289917,1.1558877229690552
1778968371500922400,11.50192236328125,0.19930846989154816,-1.1496511697769165,0.5572476387023926
1778968371510913500,11.51191357421875,0.1993822455406189,-1.2143402099609375,-0.01399722509086132
1778968371520905500,11.521905517578125,0.19261139631271362,-0.9973292946815491,-0.45564407110214233
1778968371530896400,11.531896484375,0.20551681518554688,-0.6693322658538818,-0.7835665345191956
1778968371540888600,11.541888671875,0.18120282888412476,-0.4104102849960327,-1.038276195526123
1778968371550879500,11.55187939453125,0.17471615970134735,-0.18341736495494843,-1.1724661588668823
1778968371560871700,11.56187158203125,0.14053313434123993,-0.05736721679568291,-1.204402208328247
1778968371570862600,11.571862548828125,0.09005053341388702,0.024852287024259567,-1.1476411819458008
1778968371580854500,11.5818544921875,0.04263589531183243,0.12358997762203217,-1.0327363014221191
1778968371590845700,11.591845703125,0.004088768735527992,0.2442636638879776,-0.9061964154243469
1778968371600837400,11.60183740234375,-0.01420300081372261,0.38439884781837463,-0.7632524371147156
1778968371610828300,11.611828369140625,-0.034156203269958496,0.5134044885635376,-0.5953454375267029
1778968371620819500,11.6218193359375,-0.06500651687383652,0.5667857527732849,-0.4098849594593048
1778968371630811400,11.631811279296874,-0.09076807647943497,0.515884518623352,-0.213216632604599
1778968371640802300,11.64180224609375,-0.10491782426834106,0.4291229546070099,-0.02836732193827629
1778968371650794500,11.65179443359375,-0.13359926640987396,0.3359743654727936,0.13995909690856934
1778968371660785400,11.661785400390626,-0.19908609986305237,0.26690685749053955,0.32108232378959656
1778968371670777600,11.671777587890626,-0.2709832191467285,0.1922946572303772,0.5308904647827148
1778968371680768500,11.6817685546875,-0.3330261707305908,0.12459128350019455,0.6981276273727417
1778968371690760400,11.691760498046875,-0.3847138583660126,0.0794280618429184,0.7851139307022095
1778968371700751600,11.701751708984375,-0.36066070199012756,0.16480283439159393,0.9126933813095093
1778968371710743600,11.71174365234375,-0.36554762721061707,0.26231715083122253,1.205838680267334
1778968371720734700,11.721734619140625,-0.390405535697937,-0.012113957665860653,1.7516303062438965
1778968371730726400,11.731726318359375,-0.3649177551269531,-0.5772466063499451,2.3479833602905273
1778968371740717300,11.74171728515625,-0.3362322747707367,-1.1613303422927856,2.297203779220581
1778968371750709500,11.75170947265625,-0.2499600052833557,-1.596960186958313,1.7206053733825684
1778968371760700400,11.761700439453126,-0.145029678940773,-1.7391932010650635,0.8997892141342163
1778968371770692600,11.771692626953126,-0.043118227273225784,-1.3706759214401245,-0.020522546023130417
1778968371780683500,11.78168359375,0.09723728895187378,-0.9396867752075195,-0.9067797064781189
1778968371790674400,11.79167431640625,0.16818657517433167,-0.6315390467643738,-1.5331687927246094
1778968371800666600,11.80166650390625,0.10014820098876953,-0.0012786202132701874,-1.9972479343414307
1778968371810657500,11.811657470703125,-0.06477923691272736,0.6533032059669495,-2.4732868671417236
1778968371820649500,11.8216494140625,-0.246291384100914,0.6306880712509155,-2.7805068492889404
1778968371830640600,11.831640625,-0.37866008281707764,0.007171516306698322,-2.545100212097168
1778968371840632300,11.84163232421875,-0.3111054003238678,-0.4814729392528534,-1.7839248180389404
1778968371850623500,11.85162353515625,-0.15640369057655334,-0.55229252576828,-0.8845822215080261
1778968371860615400,11.861615478515626,0.001733546145260334,-0.47189056873321533,-0.18472984433174133
1778968371870606300,11.8716064453125,-0.00023852474987506866,-0.4496814012527466,0.21362179517745972
1778968371880598500,11.8815986328125,-0.066196508705616,-0.5121511816978455,0.3479994535446167
1778968371890589400,11.89158935546875,-0.15995389223098755,-0.4974284768104553,0.3711859881877899
1778968371900581600,11.90158154296875,-0.25954270362854004,-0.4559808373451233,0.4034981429576874
1778968371910572500,11.911572509765625,-0.3419124186038971,-0.3810349702835083,0.48791584372520447
1778968371920564500,11.921564453125,-0.38488447666168213,-0.22416120767593384,0.6219220161437988
1778968371930555600,11.9315556640625,-0.38386183977127075,-0.007519714068621397,0.7817487120628357
1778968371940546600,11.941546630859374,-0.32651957869529724,0.21276067197322845,0.9383630752563477
1778968371950538500,11.95153857421875,-0.24427743256092072,0.3837217688560486,1.0831061601638794
1778968371960529700,11.96152978515625,-0.15981662273406982,0.46927785873413086,1.2042195796966553
1778968371970521300,11.971521240234376,-0.09745843708515167,0.5045202374458313,1.2928730249404907
1778968371980512300,11.98151220703125,-0.04900963976979256,0.5396814942359924,1.3573758602142334
1778968371990504400,11.99150439453125,-0.016325728967785835,0.6430675387382507,1.3853542804718018
1778968372000495400,12.001495361328125,0.005279479548335075,0.7148155570030212,1.3453270196914673
1778968372010487600,12.011487548828125,0.006094940006732941,0.7374250292778015,1.2528189420700073
1778968372020478500,12.021478515625,-0.00431621540337801,0.7517635822296143,1.1128798723220825
1778968372030470700,12.031470703125,-0.017690077424049377,0.7996698617935181,0.9590615630149841
1778968372040461600,12.041461669921874,-0.03516614809632301,0.8522445559501648,0.8510840535163879
1778968372050453500,12.05145361328125,-0.05402505770325661,0.8630719184875488,0.7701931595802307
1778968372060444700,12.061444580078126,-0.053985632956027985,0.8604761958122253,0.7318302392959595
1778968372070435600,12.071435546875,-0.04461450129747391,0.8351234793663025,0.7303996086120605
1778968372080427500,12.081427490234375,-0.03962069749832153,0.7675610184669495,0.7206112146377563
1778968372090418700,12.091418701171875,-0.027622094377875328,0.6569242477416992,0.6869203448295593
1778968372100410400,12.101410400390625,0.019238000735640526,0.570096492767334,0.6140416860580444
1778968372110401300,12.1114013671875,0.07418380677700043,0.5021712183952332,0.5490336418151855
1778968372120393500,12.1213935546875,0.1076776534318924,0.4108545482158661,0.5283524990081787
1778968372130384400,12.13138427734375,0.13163037598133087,0.33466047048568726,0.5406014323234558
1778968372140376600,12.14137646484375,0.1477527916431427,0.25828129053115845,0.5723476409912109
1778968372150367500,12.151367431640624,0.14209970831871033,0.20242469012737274,0.5887992978096008
1778968372160359400,12.161359375,0.15169396996498108,0.15750505030155182,0.5747203826904297
1778968372170350600,12.1713505859375,0.16164912283420563,0.13966214656829834,0.5101930499076843
1778968372180342500,12.181342529296876,0.16042029857635498,0.12116990238428116,0.41161003708839417
1778968372190333700,12.191333740234375,0.1687016636133194,0.10749936103820801,0.28563451766967773
1778968372200324600,12.20132470703125,0.16887496411800385,0.09251704812049866,0.1631372720003128
1778968372210316500,12.211316650390625,0.1469784528017044,0.06732940673828125,0.04633050039410591
1778968372220307700,12.2213076171875,0.13937224447727203,0.054657381027936935,-0.09403488039970398
1778968372230299400,12.23129931640625,0.13947904109954834,0.06285405904054642,-0.23180313408374786
1778968372240290300,12.241290283203124,0.13770990073680878,0.07855924963951111,-0.3597390055656433
1778968372250282500,12.251282470703124,0.11502669751644135,0.11977753043174744,-0.5237071514129639
1778968372260273400,12.2612734375,0.09106345474720001,0.183162122964859,-0.7561193108558655
1778968372270264600,12.2712646484375,0.10728316754102707,0.27798131108283997,-1.0551366806030273
1778968372280255500,12.28125537109375,0.11937189847230911,0.3155220150947571,-1.3055663108825684
1778968372290247700,12.29124755859375,0.08370232582092285,0.3112180829048157,-1.410101056098938
1778968372300238600,12.301238525390625,0.0007321741431951523,0.32453063130378723,-1.390390157699585
1778968372310229800,12.311229736328125,-0.10983695089817047,0.35238808393478394,-1.292417287826538
1778968372320221700,12.3212216796875,-0.2127113938331604,0.3749946057796478,-1.1935399770736694
1778968372330212600,12.331212646484374,-0.29052498936653137,0.39159488677978516,-1.141025424003601
1778968372340204800,12.341204833984374,-0.278337299823761,0.3106076121330261,-1.1281647682189941
1778968372350195700,12.35119580078125,-0.2444687932729721,0.12680260837078094,-1.1443718671798706
1778968372360187600,12.361187744140626,-0.16864418983459473,-0.10136102139949799,-1.1541523933410645
1778968372370178800,12.3711787109375,-0.019264549016952515,-0.26276031136512756,-1.1502021551132202
1778968372380170500,12.38117041015625,0.12520411610603333,-0.39714914560317993,-1.135056972503662
1778968372390161700,12.39116162109375,0.2803191542625427,-0.5129809379577637,-1.071250319480896
1778968372400153600,12.401153564453125,0.38486596941947937,-0.6381689310073853,-0.971400797367096
1778968372410144500,12.41114453125,0.41239985823631287,-0.6938718557357788,-0.9013420939445496
1778968372420135700,12.4211357421875,0.39117076992988586,-0.6808018684387207,-0.8546426296234131
1778968372430127600,12.431127685546874,0.3647226393222809,-0.5962978601455688,-0.825810432434082
1778968372440118500,12.441118408203126,0.3552275598049164,-0.4218239188194275,-0.8303420543670654
1778968372450110700,12.45111083984375,0.32295432686805725,-0.18376821279525757,-0.8662593364715576
