time,seconds_elapsed,z,y,x
1779964880678869200,0.154869140625,0.4257233440876007,-1.312535285949707,0.9296966791152954
1779964880695199500,0.171199462890625,2.1827785968780518,-1.3399553298950195,-0.16706645488739014
1779964880711533800,0.187533935546875,2.7291758060455322,-0.6849699020385742,-1.0731117725372314
1779964880727876000,0.2038759765625,2.807893991470337,0.042288780212402344,-1.3234344720840454
1779964880744188000,0.22018798828125,3.3626596927642822,0.12755680084228516,-2.108968734741211
1779964880760522500,0.2365224609375,-0.5104281902313232,0.9972677230834961,-2.996070384979248
1779964880776852200,0.252852294921875,-3.205806016921997,0.22368526458740234,-0.26217854022979736
1779964880793182700,0.2691826171875,-1.3443942070007324,-0.7938423156738281,0.8189743757247925
1779964880809510400,0.285510498046875,0.38912758231163025,0.9785242080688477,-0.16347432136535645
1779964880825842400,0.301842529296875,1.7640562057495117,0.8551082611083984,0.033829689025878906
1779964880842175700,0.31817578125,-0.08709162473678589,1.1688308715820312,-1.7811942100524902
1779964880858511400,0.334511474609375,-1.476081132888794,0.2567634582519531,-2.6164662837982178
1779964880874848500,0.3508486328125,-0.9626225233078003,-3.3967905044555664,1.2346105575561523
1779964880891175700,0.36717578125,0.5935121774673462,1.8791074752807617,-2.7056808471679688
1779964880907504000,0.383504150390625,1.2368303537368774,1.2596540451049805,-3.183189868927002
1779964880923835400,0.39983544921875,-1.3847460746765137,-0.38498973846435547,-1.6040000915527344
1779964880940136000,0.416135986328125,-1.9410563707351685,0.2937154769897461,-1.7186434268951416
1779964880956471000,0.432470947265625,0.7868365049362183,0.6118278503417969,-1.9260413646697998
1779964880972825600,0.44882568359375,-0.7502398490905762,0.02012920379638672,-1.1915321350097656
1779964880989156000,0.465156005859375,-1.370215654373169,-0.08327674865722656,-1.2121026515960693
1779964881005481200,0.481481201171875,-2.0365757942199707,-1.1542844772338867,-0.20820176601409912
1779964881021816000,0.497816162109375,-2.172243118286133,-7.733616828918457,2.105180263519287
1779964881038145500,0.5141455078125,0.5493547916412354,5.857686996459961,-3.2417116165161133
1779964881054475800,0.530475830078125,0.8421354293823242,6.010143280029297,-2.519810676574707
1779964881070806800,0.546806884765625,-1.0009543895721436,-1.0274639129638672,-0.15219926834106445
1779964881087135700,0.5631357421875,-1.3236734867095947,-3.170948028564453,-1.605405330657959
1779964881103466000,0.579466064453125,-2.067991018295288,-2.8139142990112305,-3.028726100921631
1779964881119766800,0.595766845703125,-3.485513687133789,-2.868743896484375,-3.816132068634033
1779964881136116200,0.6121162109375,-5.056478977203369,-2.2108473777770996,-4.19472074508667
1779964881152443100,0.628443115234375,-4.471230983734131,-4.000028610229492,-3.2626309394836426
1779964881168769000,0.64476904296875,-3.245140552520752,-5.413932800292969,-1.7837016582489014
1779964881185105400,0.66110546875,1.5196404457092285,-5.916428089141846,0.4085571765899658
1779964881201429500,0.677429443359375,6.84297513961792,-6.4398603439331055,1.7055413722991943
1779964881217752300,0.69375244140625,6.306761741638184,-5.499436378479004,1.4402780532836914
1779964881234090000,0.710090087890625,3.541189193725586,-3.221499443054199,2.5285918712615967
1779964881250411500,0.72641162109375,2.753814220428467,-2.2444519996643066,3.600975751876831
1779964881266752000,0.742751953125,2.9579010009765625,-1.6626262664794922,4.3605875968933105
1779964881283069000,0.75906884765625,4.8007354736328125,-1.444718837738037,5.307584762573242
1779964881299412500,0.77541259765625,4.81838846206665,-0.2474966049194336,6.046425819396973
1779964881315742000,0.791741943359375,4.695779800415039,0.9267401695251465,6.5732269287109375
1779964881332069400,0.8080693359375,3.12089204788208,2.3304052352905273,6.600886821746826
1779964881348423000,0.8244228515625,2.468123435974121,2.4739112854003906,6.428840160369873
1779964881364746000,0.84074609375,2.634155750274658,1.057161569595337,6.128769397735596
1779964881381074400,0.857074462890625,3.082857608795166,0.0066204071044921875,6.722721099853516
1779964881397390600,0.873390625,4.50241756439209,1.6280765533447266,8.085090637207031
1779964881413732600,0.889732666015625,-3.359896183013916,5.091453552246094,10.655208587646484
1779964881430065700,0.906065673828125,-2.227313995361328,5.734802722930908,11.391241073608398
1779964881446396700,0.922396728515625,0.06744861602783203,8.335512161254883,9.501980781555176
1779964881462726700,0.9387265625,1.3203387260437012,2.109565258026123,7.100368499755859
1779964881479048200,0.955048095703125,0.5479221343994141,-0.27530837059020996,4.088354110717773
1779964881495394600,0.97139453125,0.10698890686035156,-0.3524158000946045,0.8189067840576172
1779964881511711000,0.9877109375,-1.1600008010864258,1.7268261909484863,0.11777043342590332
1779964881528050000,1.0040498046875,0.0761556625366211,2.58959698677063,-0.11461114883422852
1779964881544372200,1.020372314453125,0.9881138801574707,2.7095823287963867,-0.407855749130249
1779964881560680700,1.0366806640625,0.670534610748291,1.5469799041748047,0.24421238899230957
1779964881577037800,1.053037841796875,0.8230504989624023,0.22142338752746582,-0.31569910049438477
1779964881593349000,1.06934912109375,0.3798828125,1.6173338890075684,-2.705761432647705
1779964881609696500,1.085696533203125,-0.044467926025390625,4.380090713500977,-0.8431079387664795
1779964881626009600,1.102009521484375,2.178913116455078,2.696425199508667,-3.510880947113037
1779964881642338000,1.118338134765625,1.1180334091186523,-3.3394293785095215,-0.9944875240325928
1779964881658672600,1.134672607421875,0.795067310333252,-6.139673233032227,-1.7980034351348877
1779964881675002400,1.15100244140625,4.13454532623291,-3.5568807125091553,2.1626172065734863
1779964881691332400,1.167332275390625,1.562582015991211,0.06185007095336914,3.2669334411621094
1779964881707662600,1.18366259765625,2.435703754425049,1.644118309020996,3.4389028549194336
1779964881723992300,1.199992431640625,0.4362459182739258,1.3371264934539795,3.5196805000305176
1779964881740322300,1.216322265625,-9.780572891235352,-2.136490821838379,8.757087707519531
1779964881756652500,1.232652587890625,0.5365333557128906,-0.5959832668304443,8.871198654174805
1779964881772982800,1.248982666015625,4.73822546005249,0.41924524307250977,7.18412446975708
1779964881789308400,1.265308349609375,2.053213596343994,1.1331875324249268,4.671795845031738
1779964881805646600,1.281646484375,1.4993128776550293,2.9993021488189697,3.4994029998779297
1779964881821967600,1.297967529296875,0.46740102767944336,3.67272686958313,3.101813316345215
1779964881838296300,1.31429638671875,1.0650968551635742,-1.327204942703247,3.9727749824523926
1779964881854647600,1.3306474609375,-0.3124537467956543,-1.398501992225647,-1.4054155349731445
1779964881870965200,1.34696533203125,-0.8250136375427246,1.3290653228759766,-0.7057976722717285
1779964881887306200,1.36330615234375,0.609161376953125,0.799217939376831,0.8980741500854492
1779964881903632400,1.37963232421875,0.9874224662780762,0.6290843486785889,1.1849555969238281
1779964881919970600,1.395970458984375,-0.39974021911621094,-2.5674636363983154,1.802065372467041
1779964881936283100,1.412283203125,1.611215591430664,-3.5032296180725098,-2.903311014175415
1779964881952626200,1.428626220703125,-0.0803980827331543,-5.227323055267334,-2.051706075668335
1779964881968957200,1.444957275390625,-0.5863852500915527,-2.9944698810577393,1.024695873260498
1779964881985286400,1.461286376953125,2.475525379180908,-0.80021071434021,2.703131675720215
1779964882001616600,1.47761669921875,3.268914222717285,0.5131552219390869,2.307896614074707
1779964882017961200,1.493961181640625,2.6291451454162598,1.3157789707183838,1.8714566230773926
1779964882034277400,1.51027734375,1.6386127471923828,0.8988487720489502,0.6228156089782715
1779964882050606300,1.5266064453125,0.9362163543701172,-0.7856628894805908,-0.38513898849487305
1779964882066936300,1.542936279296875,1.2105178833007812,-2.1725142002105713,1.050196647644043
1779964882083266300,1.559266357421875,0.836822509765625,-1.599331259727478,1.403090000152588
1779964882099595300,1.57559521484375,0.4450383186340332,-1.2881128787994385,1.3611483573913574
1779964882115911400,1.591911376953125,0.6218442916870117,-1.5434008836746216,0.8894228935241699
1779964882132237000,1.608237060546875,-0.503943920135498,-1.9565017223358154,-0.6602058410644531
1779964882148574200,1.62457421875,-0.5196356773376465,2.3085365295410156,-2.8995361328125
1779964882164891100,1.64089111328125,-1.9833450317382812,6.147660255432129,-0.29589128494262695
1779964882181243100,1.6572431640625,-1.8893566131591797,4.576307773590088,0.01793384552001953
1779964882197563000,1.67356298828125,8.123751640319824,2.6290652751922607,1.5292081832885742
1779964882213892900,1.689892822265625,-2.8163037300109863,6.085162162780762,-0.7602910995483398
1779964882230223000,1.70622314453125,-1.5961122512817383,3.851170778274536,-2.534904718399048
1779964882246558000,1.722557861328125,-0.4984588623046875,4.208159923553467,-3.0772533416748047
1779964882262883000,1.738883056640625,5.453803539276123,2.5451574325561523,-2.077812433242798
1779964882279212000,1.7552119140625,8.449443817138672,0.12719511985778809,-0.9021544456481934
1779964882295540000,1.7715400390625,7.354123115539551,-3.170034408569336,0.37164974212646484
1779964882311874000,1.7878740234375,-2.912478446960449,-11.757087707519531,5.465730667114258
1779964882328222700,1.80422265625,0.8282461166381836,-8.847536087036133,3.8769822120666504
1779964882344545000,1.820544921875,1.6799373626708984,-6.106001377105713,1.4394268989562988
1779964882360876800,1.836876708984375,0.4307403564453125,-1.1503782272338867,3.4368534088134766
1779964882377201200,1.853201171875,-3.8211874961853027,-5.0014448165893555,10.523174285888672
1779964882393544400,1.86954443359375,-0.23279333114624023,-3.524448871612549,7.074423313140869
1779964882409861600,1.885861572265625,-0.8836073875427246,-4.0685648918151855,1.7582693099975586
1779964882426182000,1.902181884765625,-1.3944602012634277,-5.926247596740723,-0.41003942489624023
1779964882442526700,1.918526611328125,-1.5003876686096191,-3.9731383323669434,0.01300954818725586
1779964882458840600,1.934840576171875,0.0037436485290527344,-3.3220999240875244,-1.0251541137695312
1779964882475188200,1.951188232421875,1.985006332397461,-2.928145170211792,-0.9137730598449707
1779964882491492000,1.9674921875,3.6469473838806152,-1.7366511821746826,-0.6373629570007324
1779964882507847200,1.98384716796875,4.141319274902344,-0.17584729194641113,-0.825080394744873
1779964882524180000,2.000179931640625,2.6887705326080322,1.1250579357147217,0.04568910598754883
1779964882540507600,2.016507568359375,1.447007179260254,2.206530809402466,2.9497451782226562
1779964882556847600,2.03284765625,-0.2924952507019043,3.525480270385742,3.4743094444274902
1779964882573166800,2.049166748046875,-1.2437419891357422,0.531048059463501,1.8913483619689941
1779964882589497300,2.065497314453125,-1.7159299850463867,-1.152450442314148,0.11525583267211914
1779964882605825300,2.0818251953125,-1.3581347465515137,-1.5314725637435913,-0.6160531044006348
1779964882622140400,2.098140380859375,-1.0843839645385742,-1.4533941745758057,-0.9490847587585449
1779964882638470100,2.11447021484375,-0.6578731536865234,-1.0570499897003174,-1.333099365234375
1779964882654806300,2.13080615234375,-0.029237747192382812,-0.738983154296875,-1.5979986190795898
1779964882671134000,2.147134033203125,0.63861083984375,-0.5734927654266357,-1.6216206550598145
1779964882687463200,2.163463134765625,0.7199831008911133,-0.6403357982635498,-1.5992436408996582
1779964882703793400,2.17979345703125,0.5479350090026855,-0.7142164707183838,-1.5193915367126465
1779964882720120600,2.19612060546875,0.255704402923584,-0.7880260944366455,-1.1785492897033691
1779964882736456700,2.212456787109375,0.04336261749267578,-0.6371049880981445,-0.6525206565856934
1779964882752786700,2.22878662109375,-0.02843952178955078,-0.39609241485595703,-0.20949220657348633
1779964882769106000,2.24510595703125,0.07663631439208984,-0.5031518936157227,-0.115692138671875
1779964882785443300,2.261443359375,0.4997446537017822,-0.7557919025421143,-0.1845874786376953
1779964882801754600,2.277754638671875,0.41387414932250977,-1.0872647762298584,0.05490684509277344
1779964882818107000,2.29410693359375,0.5800597667694092,-1.129767894744873,0.4156618118286133
1779964882834457000,2.31045703125,1.3890104293823242,-0.8332831859588623,0.9295988082885742
1779964882850775600,2.326775634765625,1.6998214721679688,-0.5806131362915039,1.3564739227294922
1779964882867108600,2.343108642578125,1.5837935209274292,-0.5751309394836426,1.5987119674682617
1779964882883437600,2.3594375,1.157699465751648,-0.8570005893707275,1.2214384078979492
1779964882899768300,2.375768310546875,1.5998163223266602,-1.0264811515808105,0.9951839447021484
1779964882916087800,2.392087890625,1.9238560199737549,-1.5328394174575806,0.8775224685668945
1779964882932428500,2.408428466796875,1.947385549545288,-1.5623263120651245,0.5382699966430664
1779964882948741400,2.424741455078125,1.7825512886047363,-1.0861892700195312,0.5713176727294922
1779964882965088000,2.441087890625,2.256855010986328,-0.8611311912536621,0.5167312622070312
1779964882981415700,2.457415771484375,2.0986056327819824,-1.2686262130737305,0.26821136474609375
1779964882997744400,2.473744384765625,2.0893352031707764,-0.9617726802825928,0.10613536834716797
1779964883014065700,2.490065673828125,1.532644510269165,-1.465538740158081,0.4719696044921875
1779964883030405000,2.506405029296875,1.8882336616516113,-1.3253355026245117,0.5489616394042969
1779964883046740200,2.522740234375,1.7576894760131836,-1.3540821075439453,0.46939945220947266
1779964883063073500,2.539073486328125,1.4656360149383545,-1.3749719858169556,0.5978803634643555
1779964883079376400,2.55537646484375,1.5574926137924194,-0.5375118255615234,0.6507806777954102
1779964883095727900,2.571727783203125,2.9902875423431396,-0.4689805507659912,2.7559595108032227
1779964883112029700,2.58802978515625,3.234541416168213,-0.8932008743286133,5.165046691894531
1779964883128375800,2.604375732421875,-0.045380473136901855,-1.93648362159729,2.914104461669922
1779964883144691500,2.62069140625,-0.6525833606719971,-0.7351808547973633,-2.1690807342529297
1779964883161034800,2.63703466796875,-0.8940811157226562,-0.48244643211364746,-2.3137779235839844
1779964883177364500,2.653364501953125,0.9211635589599609,-0.4076967239379883,-1.1678853034973145
1779964883193694700,2.66969482421875,0.4870142936706543,-0.5673315525054932,-0.29908132553100586
1779964883210030300,2.6860302734375,0.5992250442504883,-1.6089366674423218,-1.0138616561889648
1779964883226354700,2.702354736328125,-0.1472482681274414,-0.6517852544784546,-1.8891658782958984
1779964883242685000,2.718684814453125,0.38610172271728516,-0.8290618658065796,-1.2243762016296387
1779964883259014700,2.7350146484375,0.25039005279541016,-0.9054303169250488,-1.1957449913024902
1779964883275345000,2.751344970703125,0.9636564254760742,-0.9711230993270874,-0.48633718490600586
1779964883291674600,2.767674560546875,0.7182073593139648,-0.7731305360794067,-0.3667464256286621
1779964883308004600,2.784004638671875,0.42053699493408203,-0.8589150905609131,-0.21835994720458984
1779964883324351700,2.800351806640625,0.7327432632446289,-1.047717571258545,-0.22025251388549805
1779964883340674600,2.816674560546875,1.2960600852966309,-0.904009997844696,-0.2895035743713379
1779964883356998100,2.832998046875,1.5561141967773438,-1.2161462306976318,-0.6496801376342773
1779964883373346600,2.8493466796875,0.6073365211486816,-1.037343978881836,-0.8118762969970703
1779964883389644500,2.86564453125,-0.047059059143066406,-1.0622551441192627,-0.8297262191772461
1779964883405999000,2.8819990234375,0.11436939239501953,-1.1771345138549805,-0.6624350547790527
1779964883422311200,2.898311279296875,0.7928385734558105,-0.8766019940376282,-0.845029354095459
1779964883438659300,2.914659423828125,1.1651930809020996,-1.330824613571167,-0.9177141189575195
1779964883454968800,2.93096875,1.2937312126159668,-1.0753059387207031,-0.8832507133483887
1779964883471322400,2.947322265625,1.5828189849853516,-1.0461413860321045,-0.6181626319885254
1779964883487647200,2.963647216796875,1.5790767669677734,-1.0213803052902222,-0.39841794967651367
1779964883503978800,2.979978759765625,1.3560051918029785,-1.047370195388794,-0.475679874420166
1779964883520309200,2.996309326171875,1.3112115859985352,-1.1610755920410156,-0.6184835433959961
1779964883536639500,3.012639404296875,1.3262100219726562,-1.0015537738800049,-0.3964376449584961
1779964883552969200,3.02896923828125,1.3241477012634277,-0.9905979633331299,-0.35001564025878906
1779964883569299200,3.04529931640625,1.0418682098388672,-0.9298489093780518,-0.4721646308898926
1779964883585629700,3.061629638671875,0.8244972229003906,-0.9145208597183228,-0.6298723220825195
1779964883601928700,3.0779287109375,0.6947412490844727,-0.9048337340354919,-0.6564788818359375
1779964883618274000,3.094274169921875,0.7370233535766602,-0.9193994998931885,-0.6137938499450684
1779964883634605800,3.110605712890625,0.6277408599853516,-0.9187843799591064,-0.6346859931945801
1779964883650930400,3.126930419921875,0.726529598236084,-0.8759835958480835,-0.6950836181640625
1779964883667271200,3.143271240234375,0.5721988677978516,-0.8806468844413757,-0.8032059669494629
1779964883683595500,3.159595458984375,0.5693254470825195,-0.896001935005188,-0.712956428527832
1779964883699929600,3.1759296875,0.5830230712890625,-0.9002199172973633,-0.7244868278503418
1779964883716240400,3.192240478515625,0.5255908966064453,-0.8965457677841187,-0.8816957473754883
1779964883732572700,3.20857275390625,0.20396041870117188,-0.9127376675605774,-0.8871703147888184
1779964883748917500,3.22491748046875,-0.0685887336730957,-0.9204649329185486,-0.8596353530883789
1779964883765245700,3.24124560546875,0.7658367156982422,-0.8913873434066772,-0.8244748115539551
1779964883781576000,3.257575927734375,0.929603099822998,-0.8131375312805176,-0.7296876907348633
1779964883797912000,3.273912109375,0.6268582344055176,-0.898188591003418,-0.7867398262023926
1779964883814252000,3.290251953125,0.8225407600402832,-0.8572022318840027,-0.7422480583190918
1779964883830576600,3.30657666015625,0.8510236740112305,-0.8654406666755676,-0.705904483795166
1779964883846892800,3.322892822265625,0.792755126953125,-0.8411592841148376,-0.7149262428283691
1779964883863211800,3.339211669921875,0.4852867126464844,-0.7659616470336914,-0.8645596504211426
1779964883879542500,3.35554248046875,0.4626612663269043,-0.7941508293151855,-0.7083554267883301
1779964883895876400,3.37187646484375,0.38782453536987305,-0.7808496952056885,-0.8200058937072754
1779964883912216300,3.38821630859375,0.006854057312011719,-0.7874085903167725,-0.8330559730529785
1779964883928546600,3.404546630859375,0.2931947708129883,-0.8397899866104126,-0.7527828216552734
1779964883944876500,3.42087646484375,0.4512672424316406,-0.7704224586486816,-0.7068510055541992
1779964883961217300,3.43721728515625,0.4484434127807617,-0.7577732801437378,-0.6952786445617676
1779964883977556200,3.45355615234375,0.40093994140625,-0.7670144438743591,-0.6757841110229492
1779964883993879600,3.469879638671875,0.43634605407714844,-0.7725528478622437,-0.7058701515197754
1779964884010209800,3.486209716796875,0.7136297225952148,-0.8313707709312439,-0.7466142177581787
1779964884026541600,3.50254150390625,0.2527036666870117,-0.7827998399734497,-0.779364824295044
1779964884042853400,3.518853271484375,0.8688344955444336,-0.6403614282608032,-0.8255984783172607
1779964884059200800,3.53520068359375,1.3603620529174805,-0.869924008846283,-1.1908795833587646
1779964884075513900,3.551513916015625,1.4032793045043945,-0.956376314163208,-0.32823920249938965
1779964884091829500,3.56782958984375,0.9938859939575195,-0.9856610298156738,-0.6299476623535156
1779964884108166100,3.584166259765625,0.4342966079711914,-0.819869875907898,-0.75699782371521
1779964884124507000,3.6005068359375,0.4863004684448242,-0.8259388208389282,-0.6339197158813477
1779964884140837600,3.616837646484375,1.4182071685791016,-0.0953681468963623,-2.8083014488220215
1779964884157167000,3.6331669921875,0.49242496490478516,-0.828265905380249,-1.4791278839111328
1779964884173496800,3.649496826171875,2.8991222381591797,-0.5689681768417358,-3.4022116661071777
1779964884189830400,3.665830322265625,4.374485969543457,0.4976586103439331,-3.313082695007324
1779964884206154500,3.682154541015625,4.920886039733887,0.9541317224502563,-2.6174826622009277
1779964884222487300,3.6984873046875,4.192933082580566,-0.6527359485626221,-1.7420563697814941
1779964884238817300,3.7148173828125,4.261801719665527,-0.0339430570602417,-4.152937889099121
1779964884255147000,3.73114697265625,6.625495910644531,2.891836404800415,-4.7984395027160645
1779964884271474700,3.747474609375,3.0748977661132812,2.422470808029175,-6.184318542480469
1779964884287810800,3.763810791015625,0.7098770141601562,2.525862693786621,-4.211089611053467
1779964884304142300,3.780142333984375,-2.3702855110168457,0.004213809967041016,-1.7732957601547241
1779964884320479700,3.796479736328125,4.6915693283081055,-0.5838374495506287,3.486210346221924
1779964884336811500,3.8128115234375,-4.106284141540527,-1.146274447441101,2.882202386856079
1779964884353123300,3.829123291015625,-5.373981952667236,-2.752584934234619,-1.071195125579834
1779964884369471200,3.84547119140625,-4.632959365844727,-3.6420388221740723,-0.11862897872924805
1779964884385801700,3.8618017578125,-7.660159587860107,-2.9992454051971436,2.4988982677459717
1779964884402132200,3.87813232421875,-1.2661352157592773,-6.1163835525512695,4.416596412658691
1779964884418445600,3.894445556640625,-6.118251323699951,-3.426725387573242,5.319512367248535
1779964884434792000,3.9107919921875,-6.139220237731934,-1.997330904006958,4.727534770965576
1779964884451119600,3.92711962890625,-6.162616729736328,-2.595390796661377,4.4868268966674805
1779964884467451100,3.943451171875,-5.674605369567871,-3.1581661701202393,3.9046783447265625
1779964884483782400,3.959782470703125,-4.570097923278809,-0.7166415452957153,4.16263484954834
1779964884500111600,3.976111572265625,3.486949920654297,-0.008200764656066895,0.8849530816078186
1779964884516441900,3.99244189453125,4.595633506774902,0.7169867753982544,0.5079218745231628
1779964884532772600,4.008772705078125,-5.477299213409424,-1.038982629776001,-1.51070237159729
1779964884549102000,4.02510205078125,-0.6745090484619141,-0.3865237832069397,-0.4074084758758545
1779964884565431800,4.041431884765625,0.4191131591796875,-0.46433132886886597,-0.19573169946670532
1779964884581740800,4.05774072265625,2.7744312286376953,-0.9762879610061646,-1.1246583461761475
1779964884598077700,4.07407763671875,3.9999990463256836,-0.7504061460494995,-1.0686291456222534
1779964884614405000,4.090405029296875,6.066886901855469,-0.9009391069412231,-0.4440898299217224
1779964884630741800,4.10674169921875,6.899593353271484,-0.8322445154190063,-0.7281123995780945
1779964884647065300,4.1230654296875,5.89316463470459,-0.746311604976654,-0.6735134720802307
1779964884663389000,4.139388916015625,4.931666374206543,-0.6432696580886841,-0.6922216415405273
1779964884679732000,4.15573193359375,3.085299491882324,-0.6412774324417114,-0.6156439781188965
1779964884696054000,4.172053955078125,1.406722068786621,-0.5402222871780396,-0.6723781824111938
1779964884712387600,4.1883876953125,0.6303443908691406,-0.4266989231109619,-0.6403788328170776
1779964884728719600,4.2047197265625,0.10022258758544922,-0.3619208335876465,-0.8218493461608887
1779964884745049000,4.221049072265625,-0.5193862915039062,-0.36720919609069824,-0.9288206100463867
1779964884761379300,4.23737939453125,-0.6552953720092773,-0.4364163875579834,-0.9435540437698364
1779964884777709000,4.253708984375,-0.964655876159668,-0.4486583173274994,-1.0016136169433594
1779964884794039300,4.270039306640625,-1.114501953125,-0.447795033454895,-1.0495656728744507
1779964884810386400,4.286386474609375,-1.5841617584228516,-0.41756772994995117,-1.100137710571289
1779964884826696000,4.302696044921875,-1.5524377822875977,-0.37649545073509216,-1.0985264778137207
1779964884843036700,4.31903662109375,-0.4250173568725586,-0.35563939809799194,-1.057734489440918
1779964884859361800,4.33536181640625,0.5714864730834961,-0.4042315185070038,-1.080424189567566
1779964884875702800,4.351702880859375,1.0499382019042969,-0.44600820541381836,-1.031369686126709
1779964884892030000,4.368030029296875,1.1790084838867188,-0.4508242607116699,-1.029700756072998
1779964884908366800,4.384366943359375,1.1453857421875,-0.43319374322891235,-1.0136611461639404
1779964884924671700,4.400671630859375,1.139988899230957,-0.42564380168914795,-0.9956420660018921
1779964884941028000,4.417028076171875,1.0687751770019531,-0.4286975860595703,-0.9553013443946838
1779964884957349600,4.433349609375,0.9538869857788086,-0.39782512187957764,-0.9131336808204651
1779964884973682700,4.4496826171875,0.757868766784668,-0.39696162939071655,-0.8981634378433228
1779964884990016800,4.466016845703125,0.42266178131103516,-0.4029585123062134,-0.9132995009422302
1779964885006344000,4.482343994140625,0.030529022216796875,-0.37779948115348816,-0.9484217762947083
1779964885022673200,4.498673095703125,-0.23285961151123047,-0.3307606279850006,-0.9651434421539307
1779964885039003600,4.515003662109375,-0.38523101806640625,-0.3206765353679657,-0.9603945016860962
1779964885055329800,4.531329833984375,-0.35548973083496094,-0.3481043577194214,-0.9763510227203369
1779964885071650600,4.547650634765625,-0.2108745574951172,-0.33440664410591125,-0.9975501298904419
1779964885087978500,4.563978515625,-0.11836624145507812,-0.31696441769599915,-0.987343430519104
1779964885104309500,4.5803095703125,-0.16819286346435547,-0.29422321915626526,-0.9985865950584412
1779964885120640300,4.59664013671875,-0.2788066864013672,-0.27728942036628723,-1.0191363096237183
1779964885136970500,4.612970458984375,-0.3931150436401367,-0.28793346881866455,-1.0549037456512451
1779964885153302800,4.629302734375,-0.5019168853759766,-0.2799862027168274,-1.076838493347168
1779964885169644500,4.64564453125,-0.4993152618408203,-0.2625338137149811,-1.094879150390625
1779964885185974300,4.661974365234375,-0.42494964599609375,-0.2654385566711426,-1.0864248275756836
1779964885202288400,4.678288330078125,-0.2726154327392578,-0.2661885619163513,-1.0733635425567627
1779964885218618000,4.6946181640625,-0.15382671356201172,-0.29672712087631226,-1.0445990562438965
1779964885234950400,4.710950439453125,-0.10584545135498047,-0.31923165917396545,-1.051512598991394
1779964885251281000,4.727281005859375,-0.04378700256347656,-0.33569467067718506,-1.0430934429168701
1779964885267610600,4.743610595703125,0.004244804382324219,-0.33270737528800964,-1.010640263557434
1779964885283940400,4.7599404296875,0.034081459045410156,-0.3395724892616272,-0.9960564970970154
1779964885300291000,4.776291015625,0.04983234405517578,-0.35946959257125854,-0.9948160648345947
1779964885316613000,4.792613037109375,0.07480621337890625,-0.3640323579311371,-0.9819971919059753
1779964885332944400,4.8089443359375,0.057465553283691406,-0.3623688817024231,-0.9756973385810852
1779964885349269200,4.825269287109375,-0.012424468994140625,-0.35517603158950806,-0.9706154465675354
1779964885365608400,4.8416083984375,-0.07742691040039062,-0.3473846912384033,-0.9661699533462524
1779964885381935000,4.85793505859375,-0.08005809783935547,-0.3400115966796875,-0.9715296626091003
1779964885398265300,4.874265380859375,-0.04481792449951172,-0.3244491517543793,-0.9627275466918945
1779964885414593800,4.89059375,0.038402557373046875,-0.33047395944595337,-0.9587500691413879
1779964885430908000,4.906907958984375,0.14557456970214844,-0.34742629528045654,-0.9634151458740234
1779964885447255300,4.92325537109375,0.24787044525146484,-0.3525424599647522,-0.9566153287887573
1779964885463585300,4.939585205078125,0.29302215576171875,-0.34446781873703003,-0.9364893436431885
1779964885479913000,4.955912841796875,0.3084125518798828,-0.3473406434059143,-0.9218214154243469
1779964885496229000,4.97222900390625,0.2568340301513672,-0.34090203046798706,-0.9018567800521851
1779964885512575200,4.9885751953125,0.1999359130859375,-0.3441958725452423,-0.8967762589454651
1779964885528891400,5.004891357421875,0.1520853042602539,-0.3325844407081604,-0.8823838233947754
1779964885545234400,5.021234375,0.11398983001708984,-0.31994813680648804,-0.8974664807319641
1779964885561548300,5.03754833984375,0.09414958953857422,-0.31499868631362915,-0.9006756544113159
1779964885577881900,5.0538818359375,0.09323787689208984,-0.3241710364818573,-0.9117093086242676
1779964885594211800,5.0702119140625,0.09218692779541016,-0.3181893527507782,-0.912043035030365
1779964885610537500,5.086537353515625,0.07669258117675781,-0.3165292739868164,-0.9164130687713623
1779964885626875100,5.102875244140625,0.05217170715332031,-0.3192959129810333,-0.9256548881530762
1779964885643202000,5.1192021484375,0.041436195373535156,-0.313081294298172,-0.9294990301132202
1779964885659549000,5.135548828125,0.03555870056152344,-0.32148128747940063,-0.9290705323219299
1779964885675883800,5.1518837890625,0.04411125183105469,-0.32049834728240967,-0.9243964552879333
1779964885692183000,5.16818310546875,0.03358936309814453,-0.3194781541824341,-0.9155218005180359
1779964885708522200,5.184522216796875,0.01416778564453125,-0.3228641450405121,-0.9121732115745544
1779964885724852200,5.200852294921875,-0.005756378173828125,-0.3166430592536926,-0.9150809645652771
1779964885741182000,5.217181884765625,-0.011225700378417969,-0.3153126835823059,-0.9087007641792297
1779964885757500400,5.23350048828125,-0.016594886779785156,-0.3092324733734131,-0.912842333316803
1779964885773842400,5.249842529296875,-0.012310028076171875,-0.29834872484207153,-0.9082055687904358
1779964885790176800,5.2661767578125,-0.007914543151855469,-0.2970946431159973,-0.8902825713157654
1779964885806514700,5.2825146484375,0.001399993896484375,-0.30581334233283997,-0.8921226263046265
1779964885822843400,5.298843505859375,0.020377159118652344,-0.29560863971710205,-0.9049782156944275
1779964885839180000,5.315179931640625,0.025056838989257812,-0.3045702874660492,-0.8992912769317627
1779964885855517700,5.331517578125,0.02500629425048828,-0.30393877625465393,-0.8941649794578552
1779964885871833600,5.34783349609375,0.0339508056640625,-0.3080885708332062,-0.8749018907546997
1779964885888167400,5.36416748046875,0.03933525085449219,-0.30711859464645386,-0.8799535036087036
1779964885904501000,5.3805009765625,0.043501853942871094,-0.31555601954460144,-0.8704712986946106
1779964885920827100,5.3968271484375,0.043437957763671875,-0.3046101927757263,-0.8701809048652649
1779964885937144800,5.413144775390625,0.043328285217285156,-0.2983575463294983,-0.8694583773612976
1779964885953479700,5.429479736328125,0.052779197692871094,-0.30186209082603455,-0.8685788512229919
1779964885969821700,5.44582177734375,0.05739879608154297,-0.305387943983078,-0.8720154166221619
1779964885986147300,5.462147216796875,0.07155227661132812,-0.2994435429573059,-0.8654634356498718
1779964886002478000,5.47847802734375,0.061736106872558594,-0.303169846534729,-0.8584697246551514
1779964886018807300,5.494807373046875,0.04231739044189453,-0.29753240942955017,-0.8558856248855591
1779964886035141600,5.5111416015625,0.03247642517089844,-0.2964717149734497,-0.858189046382904
1779964886051445800,5.52744580078125,0.027434349060058594,-0.30015501379966736,-0.846291184425354
1779964886067784400,5.543784423828125,0.031940460205078125,-0.30843570828437805,-0.8533241152763367
1779964886084114400,5.560114501953125,0.031622886657714844,-0.2928733825683594,-0.8503690958023071
1779964886100444400,5.5764443359375,0.045635223388671875,-0.2960486114025116,-0.8472262620925903
1779964886116774100,5.592774169921875,0.040477752685546875,-0.2895275056362152,-0.8486112356185913
1779964886133105000,5.60910498046875,0.03530693054199219,-0.2788267433643341,-0.8305414915084839
1779964886149430800,5.6254306640625,0.044493675231933594,-0.28258511424064636,-0.826799750328064
1779964886165778000,5.64177783203125,0.034531593322753906,-0.28140413761138916,-0.8325746059417725
1779964886182090200,5.65809033203125,0.05326557159423828,-0.2851018011569977,-0.8333444595336914
1779964886198424600,5.674424560546875,0.04326629638671875,-0.2790355384349823,-0.8243697881698608
1779964886214755000,5.690755126953125,0.03326892852783203,-0.2871759533882141,-0.820198118686676
1779964886231084500,5.70708447265625,0.01908588409423828,-0.285641074180603,-0.8256403207778931
1779964886247414800,5.723414794921875,0.013896942138671875,-0.27938711643218994,-0.8216935992240906
1779964886263745500,5.73974560546875,-0.000827789306640625,-0.2874318063259125,-0.8282963037490845
1779964886280078600,5.75607861328125,0.0036573410034179688,-0.2811774015426636,-0.8200287818908691
1779964886296402400,5.77240234375,0.008187294006347656,-0.2750377357006073,-0.8223803043365479
1779964886312747000,5.7887470703125,0.012775421142578125,-0.27841925621032715,-0.8110186457633972
1779964886329078800,5.805078857421875,0.017374038696289062,-0.28203362226486206,-0.8092859387397766
1779964886345414400,5.821414306640625,0.012411117553710938,-0.28077152371406555,-0.8028801083564758
1779964886361734400,5.837734375,0.017060279846191406,-0.27495431900024414,-0.8112058639526367
1779964886378053000,5.85405322265625,0.025930404663085938,-0.2692420184612274,-0.8007416129112244
1779964886394398700,5.870398681640625,0.040184974670410156,-0.2732846140861511,-0.7998107671737671
1779964886410729000,5.88672900390625,0.054416656494140625,-0.27215394377708435,-0.7939254641532898
1779964886427042300,5.903042236328125,0.039890289306640625,-0.27574795484542847,-0.7827791571617126
1779964886443387400,5.919387451171875,0.044483184814453125,-0.2795603275299072,-0.7809092998504639
1779964886459720400,5.935720458984375,0.034699440002441406,-0.27381274104118347,-0.7835834622383118
1779964886476050000,5.9520498046875,0.044060707092285156,-0.2682318687438965,-0.786248505115509
1779964886492363300,5.96836328125,0.030055999755859375,-0.2721017599105835,-0.7837429046630859
1779964886508709000,5.984709228515625,0.029181480407714844,-0.2615445852279663,-0.7713459134101868
1779964886525024800,6.001024658203125,0.019908905029296875,-0.2654757499694824,-0.7825767993927002
1779964886541353200,6.017353271484375,0.010051727294921875,-0.2645486891269684,-0.7796005010604858
1779964886557686500,6.0336865234375,0.024127960205078125,-0.26852622628211975,-0.7814409136772156
1779964886574016300,6.050016357421875,0.02382946014404297,-0.272341251373291,-0.7783141732215881
1779964886590346200,6.06634619140625,0.027739524841308594,-0.26202064752578735,-0.7657889723777771
1779964886606676200,6.08267626953125,0.018487930297851562,-0.2659973204135895,-0.7676063776016235
1779964886623006700,6.0990068359375,0.008639335632324219,-0.25549042224884033,-0.7694727182388306
1779964886639340300,6.11534033203125,0.022754669189453125,-0.2547014057636261,-0.7669135928153992
1779964886655663400,6.131663330078125,0.02252483367919922,-0.25881993770599365,-0.764432966709137
1779964886672004000,6.148004150390625,0.021715164184570312,-0.24855419993400574,-0.7478170990943909
1779964886688323800,6.16432373046875,0.022095680236816406,-0.26203271746635437,-0.7455313801765442
1779964886704657200,6.1806572265625,0.00275421142578125,-0.2659931778907776,-0.7482150793075562
1779964886720987400,6.1969873046875,0.01214599609375,-0.25566890835762024,-0.7510970234870911
1779964886737317000,6.213317138671875,0.0023975372314453125,-0.2550545632839203,-0.7491980791091919
1779964886753643800,6.229643798828125,0.007014274597167969,-0.2544884979724884,-0.7473661303520203
1779964886769980700,6.245980712890625,0.03974342346191406,-0.2488858550786972,-0.7455623149871826
1779964886786321200,6.262321044921875,0.03957939147949219,-0.2577390968799591,-0.7390401363372803
1779964886802657800,6.27865771484375,0.020244598388671875,-0.24746906757354736,-0.7273761034011841
1779964886818977300,6.294977294921875,0.02006244659423828,-0.25169792771339417,-0.730157196521759
1779964886835291600,6.311291748046875,0.029460906982421875,-0.2510896921157837,-0.7378489971160889
1779964886851628000,6.3276279296875,0.03884124755859375,-0.2504681646823883,-0.7309596538543701
1779964886867972000,6.34397216796875,0.03386116027832031,-0.24975597858428955,-0.7144843339920044
1779964886884285000,6.360284912109375,0.02406024932861328,-0.24391914904117584,-0.7263662815093994
1779964886900632600,6.376632568359375,0.024420738220214844,-0.24784071743488312,-0.7237437963485718
1779964886916961800,6.3929619140625,0.02417755126953125,-0.25170445442199707,-0.7258581519126892
1779964886933291800,6.409291748046875,0.019161224365234375,-0.24603398144245148,-0.7232963442802429
1779964886949619700,6.42561962890625,0.009369850158691406,-0.24529409408569336,-0.7208307981491089
1779964886965955000,6.441955078125,0.028288841247558594,-0.24434338510036469,-0.7183698415756226
1779964886982279700,6.45827978515625,0.023271560668945312,-0.2435353398323059,-0.7157688140869141
1779964886998612700,6.47461279296875,0.01766681671142578,-0.24291810393333435,-0.7036619782447815
1779964887014941000,6.49094091796875,0.012661933898925781,-0.24206796288490295,-0.7012025117874146
1779964887031255600,6.507255615234375,0.012449264526367188,-0.24138419330120087,-0.7035606503486633
1779964887047572500,6.523572509765625,0.007466316223144531,-0.24077598750591278,-0.6964990496635437
1779964887063905800,6.53990576171875,0.007274627685546875,-0.2354593127965927,-0.6990697383880615
1779964887080250600,6.556250732421875,0.01665210723876953,-0.22999761998653412,-0.7016299962997437
1779964887096579000,6.5725791015625,0.017061233520507812,-0.2389429658651352,-0.6994504332542419
1779964887112909000,6.588908935546875,0.012104988098144531,-0.23836885392665863,-0.697469174861908
1779964887129231400,6.6052314453125,0.02630615234375,-0.2377501279115677,-0.6909176111221313
1779964887145581800,6.621581787109375,0.025543212890625,-0.23220378160476685,-0.6890507340431213
1779964887161909000,6.637908935546875,0.02536773681640625,-0.23632469773292542,-0.6822207570075989
1779964887178230300,6.654230224609375,0.016228675842285156,-0.22605125606060028,-0.6851085424423218
1779964887194559200,6.670559326171875,0.025040626525878906,-0.2348562479019165,-0.6832646727561951
1779964887210888400,6.686888427734375,0.024873733520507812,-0.22930382192134857,-0.6861425638198853
1779964887227219500,6.703219482421875,0.0294952392578125,-0.22858721017837524,-0.6746580600738525
1779964887243549700,6.7195498046875,0.024526596069335938,-0.22789418697357178,-0.6820976138114929
1779964887259879700,6.735879638671875,0.020155906677246094,-0.23678936064243317,-0.6751502752304077
1779964887276211000,6.7522109375,0.010384559631347656,-0.2216799259185791,-0.6775704622268677
1779964887292553500,6.768553466796875,0.028748512268066406,-0.23048777878284454,-0.6706752181053162
1779964887308883200,6.78488330078125,0.03811359405517578,-0.2153031975030899,-0.6634595394134521
1779964887325213200,6.801213134765625,0.033107757568359375,-0.2288021296262741,-0.665620744228363
1779964887341544700,6.817544677734375,0.0047779083251953125,-0.2232537865638733,-0.6678221225738525
1779964887357873700,6.833873779296875,0.004572868347167969,-0.23191489279270172,-0.6653921008110046
1779964887374204400,6.850204345703125,0.00916290283203125,-0.22642970085144043,-0.658245861530304
1779964887390522000,6.866522216796875,-0.005396842956542969,-0.22125090658664703,-0.6509113311767578
1779964887406862000,6.882862060546875,0.013547897338867188,-0.22535397112369537,-0.6532846093177795
1779964887423177700,6.899177734375,0.003795623779296875,-0.22458067536354065,-0.660668134689331
1779964887439524900,6.91552490234375,0.00839996337890625,-0.21906942129135132,-0.6441211700439453
1779964887455833600,6.93183349609375,0.0028533935546875,-0.20883478224277496,-0.6469159722328186
1779964887472180500,6.948180419921875,0.012860298156738281,-0.21758723258972168,-0.6497402787208557
1779964887488507400,6.96450732421875,0.031233787536621094,-0.21690459549427032,-0.6428675055503845
1779964887504832000,6.98083203125,0.02626514434814453,-0.2161235362291336,-0.6406314969062805
1779964887521144300,6.997144287109375,0.017114639282226562,-0.22033590078353882,-0.6384032964706421
1779964887537492500,7.013492431640625,0.016939163208007812,-0.2100100964307785,-0.6362361907958984
1779964887553821200,7.0298212890625,0.02155017852783203,-0.21409772336483002,-0.6388593912124634
1779964887570151200,7.046151123046875,0.011800765991210938,-0.21328555047512054,-0.6318597793579102
1779964887586467800,7.0624677734375,0.01161956787109375,-0.21719084680080414,-0.6344045400619507
1779964887602811600,7.078811767578125,0.0018739700317382812,-0.2115885466337204,-0.6322522163391113
1779964887619146200,7.095146240234375,0.02086353302001953,-0.21545971930027008,-0.6303892731666565
1779964887635484200,7.111484130859375,0.015324592590332031,-0.2147025465965271,-0.6236558556556702
1779964887651803100,7.12780322265625,0.006186485290527344,-0.21881237626075745,-0.6215764880180359
1779964887668130800,7.144130859375,0.024580955505371094,-0.2085404396057129,-0.6196890473365784
1779964887684462000,7.160462158203125,0.019639015197753906,-0.2029598355293274,-0.6129372119903564
1779964887700792300,7.176792236328125,0.0009365081787109375,-0.211676225066185,-0.6157550811767578
1779964887717119700,7.19311962890625,0.01513671875,-0.20629236102104187,-0.6137521862983704
1779964887733454600,7.20945458984375,0.010201454162597656,-0.20559677481651306,-0.6213980317115784
1779964887749776600,7.225776611328125,0.014828681945800781,-0.20003174245357513,-0.6098190546035767
1779964887766129400,7.24212939453125,0.0050983428955078125,-0.20891225337982178,-0.6125609874725342
1779964887782456800,7.258456787109375,0.013916015625,-0.20348693430423737,-0.6009668707847595
1779964887798785000,7.274784912109375,0.018548965454101562,-0.20752255618572235,-0.5989965796470642
1779964887815116500,7.291116455078125,0.013602256774902344,-0.20677193999290466,-0.6016987562179565
1779964887831446500,7.307446533203125,0.004479408264160156,-0.20110882818698883,-0.6093704700469971
1779964887847766500,7.3237666015625,0.01809406280517578,-0.205196350812912,-0.5979194641113281
1779964887864111900,7.34011181640625,0.013167381286621094,-0.19973024725914001,-0.5960943102836609
1779964887880440600,7.356440673828125,0.022599220275878906,-0.20369842648506165,-0.589512050151825
1779964887896764000,7.372763916015625,0.012869834899902344,-0.20783111453056335,-0.5921979546546936
1779964887913098500,7.389098388671875,0.0037431716918945312,-0.2021871656179428,-0.5949786305427551
1779964887929427500,7.405427490234375,0.008381843566894531,-0.19195565581321716,-0.593043863773346
1779964887945753900,7.42175390625,0.022599220275878906,-0.2010168880224228,-0.5911455154418945
1779964887962091000,7.438091064453125,0.032024383544921875,-0.19552446901798248,-0.5892055630683899
1779964887978417700,7.454417724609375,0.02648162841796875,-0.18993812799453735,-0.5775207281112671
1779964887994747400,7.470747314453125,0.0077648162841796875,-0.1984431892633438,-0.5800510048866272
1779964888011060200,7.487060302734375,-0.0019636154174804688,-0.19295217096805573,-0.577942967414856
1779964888027380700,7.503380615234375,0.0074634552001953125,-0.19707326591014862,-0.5807720422744751
1779964888043725800,7.519725830078125,-0.01183319091796875,-0.18696758151054382,-0.5738487243652344
1779964888060052700,7.536052734375,0.0017576217651367188,-0.19122186303138733,-0.571514368057251
1779964888076384300,7.55238427734375,0.006999015808105469,-0.19533221423625946,-0.5743536353111267
1779964888092714200,7.56871435546875,0.0020742416381835938,-0.18992802500724792,-0.5724452137947083
1779964888109061600,7.5850615234375,0.006714820861816406,-0.19481095671653748,-0.5656265616416931
1779964888125371100,7.60137109375,0.0017871856689453125,-0.18903914093971252,-0.5636134743690491
1779964888141718000,7.617718017578125,0.02079296112060547,-0.18426792323589325,-0.5665140151977539
1779964888158016300,7.634016357421875,0.02065753936767578,-0.18856172263622284,-0.5550313591957092
1779964888174364700,7.65036474609375,0.015727996826171875,-0.1879780888557434,-0.5482089519500732
1779964888190695000,7.66669482421875,0.020363807678222656,-0.19204869866371155,-0.5557026267051697
1779964888207025200,7.683025146484375,0.015423774719238281,-0.19060634076595306,-0.5535717606544495
1779964888223354400,7.699354248046875,0.010477066040039062,-0.18484492599964142,-0.5513419508934021
1779964888239685400,7.715685302734375,-0.0040264129638671875,-0.18395991623401642,-0.5540918111801147
1779964888256009700,7.732009765625,-0.008961677551269531,-0.18784955143928528,-0.5520216226577759
1779964888272364300,7.7483642578125,0.005257606506347656,-0.1823856085538864,-0.5548474192619324
1779964888288667000,7.7646669921875,0.0051403045654296875,-0.18642854690551758,-0.553208589553833
1779964888305019100,7.78101904296875,0.013994216918945312,-0.17617036402225494,-0.5419651865959167
1779964888321349400,7.797349365234375,0.0048885345458984375,-0.18481476604938507,-0.5401094555854797
1779964888337680100,7.81368017578125,0.004164695739746094,-0.1792037934064865,-0.5335671901702881
1779964888354009000,7.830009033203125,0.0040435791015625,-0.16908614337444305,-0.5365977883338928
1779964888370339300,7.84633935546875,0.0045337677001953125,-0.17819242179393768,-0.5398187637329102
1779964888386663400,7.862663330078125,0.004412651062011719,-0.17274396121501923,-0.5332861542701721
1779964888402969900,7.878969970703125,0.013867378234863281,-0.1817229986190796,-0.5316013693809509
1779964888419350800,7.895350830078125,0.013136863708496094,-0.16672804951667786,-0.5248842835426331
1779964888435660800,7.911660888671875,0.01360321044921875,-0.17559035122394562,-0.5277513265609741
1779964888451984400,7.927984375,0.0038967132568359375,-0.17965461313724518,-0.5257744193077087
1779964888468320800,7.94432080078125,-0.005806922912597656,-0.17880068719387054,-0.5238592028617859
1779964888484637200,7.96063720703125,0.0036497116088867188,-0.1733247935771942,-0.5174002051353455
1779964888500963800,7.9769638671875,-0.00124359130859375,-0.17271728813648224,-0.5206225514411926
1779964888517294300,7.99329443359375,0.017194747924804688,-0.17215809226036072,-0.523834228515625
1779964888533629200,8.009629150390625,0.017086029052734375,-0.16683129966259003,-0.5174379944801331
1779964888549955600,8.02595556640625,0.00799560546875,-0.18050092458724976,-0.5156939625740051
1779964888566286800,8.042286865234376,0.016855239868164062,-0.17507213354110718,-0.5139961242675781
1779964888582623500,8.05862353515625,0.0029754638671875,-0.1695767194032669,-0.5169995427131653
1779964888598950400,8.074950439453126,0.0022611618041992188,-0.1688307672739029,-0.5104852914810181
1779964888615286000,8.0912861328125,0.011712074279785156,-0.1730119287967682,-0.5038792490959167
1779964888631624400,8.10762451171875,0.0020322799682617188,-0.16301216185092926,-0.5069889426231384
1779964888647933700,8.12393359375,0.01627349853515625,-0.16730119287967682,-0.5099948644638062
1779964888664265200,8.14026513671875,0.006579399108886719,-0.16199040412902832,-0.5033139586448669
1779964888680596500,8.156596435546875,-0.0025196075439453125,-0.16623295843601227,-0.5013682842254639
1779964888696927700,8.172927734375,-0.00263214111328125,-0.17038291692733765,-0.49966418743133545
1779964888713258000,8.189258056640625,0.020585060119628906,-0.17024405300617218,-0.48837652802467346
1779964888729588000,8.205587890625,-0.0028781890869140625,-0.16411510109901428,-0.4911121428012848
1779964888745918200,8.221918212890625,-0.0078125,-0.15861299633979797,-0.49836403131484985
1779964888762265000,8.23826513671875,-0.0031480789184570312,-0.16272784769535065,-0.4917035698890686
1779964888778596400,8.254596435546874,0.0015392303466796875,-0.16707320511341095,-0.4853654205799103
1779964888794901500,8.270901611328124,0.0014295578002929688,-0.16196559369564056,-0.49316877126693726
1779964888811250000,8.28725,0.0061016082763671875,-0.15200906991958618,-0.4913569688796997
1779964888827580200,8.303580078125,0.015559196472167969,-0.16106410324573517,-0.4895511269569397
1779964888843904000,8.319904052734374,0.015440940856933594,-0.16110850870609283,-0.482876181602478
1779964888860238800,8.33623876953125,-0.0038118362426757812,-0.16000238060951233,-0.48110532760620117
1779964888876567300,8.3525673828125,0.0008611679077148438,-0.15434089303016663,-0.47937309741973877
1779964888892906800,8.36890673828125,0.010320663452148438,-0.15843112766742706,-0.4775894284248352
1779964888909233000,8.38523291015625,0.00542449951171875,-0.15792879462242126,-0.480587899684906
1779964888925546200,8.401546142578125,0.0005340576171875,-0.15732096135616302,-0.47413623332977295
1779964888941893600,8.4178935546875,0.0004253387451171875,-0.1566234827041626,-0.4819813072681427
1779964888958219800,8.4342197265625,0.00032806396484375,-0.1656293272972107,-0.4756200313568115
1779964888974546700,8.450546630859375,0.00024127960205078125,-0.1555032730102539,-0.46942681074142456
1779964888990866400,8.466866455078126,-0.0046405792236328125,-0.15975236892700195,-0.46786797046661377
1779964889007199700,8.48319970703125,0.00004673004150390625,-0.14964336156845093,-0.4662818908691406
1779964889023529700,8.49952978515625,0.009527206420898438,-0.1587725579738617,-0.4695664048194885
1779964889039859700,8.515859619140626,-0.000125885009765625,-0.14856824278831482,-0.4586692750453949
1779964889056177700,8.532177734375,0.004567146301269531,-0.1576390266418457,-0.4715164005756378
1779964889072520700,8.548520751953125,0.0140380859375,-0.14738623797893524,-0.46509718894958496
1779964889088863200,8.56486328125,0.013936042785644531,-0.1563069224357605,-0.45864206552505493
1779964889105193700,8.58119384765625,-0.000522613525390625,-0.1508389413356781,-0.4617481827735901
1779964889121524000,8.59752392578125,0.013728141784667969,-0.15026402473449707,-0.45520567893981934
1779964889137854200,8.613854248046875,-0.0055294036865234375,-0.1495446413755417,-0.45807909965515137
1779964889154166800,8.630166748046875,-0.0056476593017578125,-0.1536455750465393,-0.4512985348701477
1779964889170502000,8.646501953125,0.0038166046142578125,-0.14825110137462616,-0.449504017829895
1779964889186829000,8.6628291015625,-0.0010633468627929688,-0.14291861653327942,-0.4431321322917938
1779964889203161300,8.679161376953125,-0.005939483642578125,-0.14719167351722717,-0.44638484716415405
1779964889219490800,8.69549072265625,-0.0012378692626953125,-0.1515100598335266,-0.4545084536075592
1779964889235813600,8.711813720703125,-0.015671730041503906,-0.14143195748329163,-0.4436498284339905
1779964889252150800,8.72815087890625,-0.0013914108276367188,-0.15059028565883636,-0.4423406720161438
1779964889268499200,8.744499267578124,0.008099555969238281,-0.15007588267326355,-0.440970778465271
1779964889284824600,8.760824462890625,0.003231048583984375,-0.14465399086475372,-0.43956470489501953
1779964889301139000,8.777138916015625,-0.0022411346435546875,-0.14880090951919556,-0.42850401997566223
1779964889317469200,8.79346923828125,0.0024614334106445312,-0.14334776997566223,-0.4318927228450775
1779964889333801000,8.809801025390625,0.007159233093261719,-0.14746540784835815,-0.43039461970329285
1779964889350138400,8.826138427734374,0.012436866760253906,-0.13261829316616058,-0.438090443611145
1779964889366475500,8.8424755859375,0.012324333190917969,-0.13676302134990692,-0.43134617805480957
1779964889382803000,8.858802978515625,-0.00691986083984375,-0.13627265393733978,-0.42953312397003174
1779964889399127600,8.87512744140625,-0.0070171356201171875,-0.13578683137893677,-0.4230371415615082
1779964889415462000,8.8914619140625,0.007254600524902344,-0.1447509229183197,-0.4263363480567932
1779964889431799300,8.90779931640625,0.0023641586303710938,-0.13456706702709198,-0.41969528794288635
1779964889448118000,8.924117919921875,-0.026459693908691406,-0.13406917452812195,-0.4224874973297119
1779964889464442000,8.940442138671875,-0.01220703125,-0.14299674332141876,-0.4301999509334564
1779964889480756200,8.956756103515625,-0.017065048217773438,-0.13288284838199615,-0.42413759231567383
1779964889497102600,8.9731025390625,-0.0027742385864257812,-0.1326121687889099,-0.41336753964424133
1779964889513433000,8.98943310546875,0.001934051513671875,-0.13218696415424347,-0.42154014110565186
1779964889529762600,9.005762451171876,0.011419296264648438,-0.13151605427265167,-0.4248097240924835
1779964889546093300,9.02209326171875,0.006543159484863281,-0.13622115552425385,-0.4136139750480652
1779964889562422800,9.0384228515625,-0.0031261444091796875,-0.1355925351381302,-0.4118390679359436
1779964889578746000,9.05474609375,-0.0032205581665039062,-0.13004560768604279,-0.4053589999675751
1779964889595097000,9.07109716796875,-0.0033102035522460938,-0.13420429825782776,-0.41330486536026
1779964889611422500,9.08742236328125,0.0007886886596679688,-0.13774891197681427,-0.40213045477867126
1779964889627761700,9.10376171875,0.000698089599609375,-0.13698509335517883,-0.40049222111701965
1779964889644071200,9.1200712890625,-0.008370399475097656,-0.1315101534128189,-0.4083177447319031
1779964889660403500,9.136403564453126,-0.0036773681640625,-0.1355782151222229,-0.41617175936698914
1779964889676732000,9.15273193359375,0.005801200866699219,-0.13489069044589996,-0.40489712357521057
1779964889693065700,9.169065673828126,-0.008633613586425781,-0.134159117937088,-0.3986899256706238
1779964889709395200,9.185395263671875,-0.008723258972167969,-0.1333325207233429,-0.4018478989601135
1779964889725723000,9.201722900390624,-0.008807182312011719,-0.12315621972084045,-0.3954974412918091
1779964889742057500,9.218057373046875,-0.008873939514160156,-0.13225692510604858,-0.38945242762565613
1779964889758397700,9.234397705078125,0.0006380081176757812,-0.12706482410430908,-0.3931361138820648
1779964889774726700,9.2507265625,0.0005655288696289062,-0.13601648807525635,-0.39176905155181885
1779964889791058000,9.267057861328125,-0.004302024841308594,-0.13026902079582214,-0.39026886224746704
1779964889807397600,9.283397705078125,0.00040340423583984375,-0.1254526972770691,-0.38876479864120483
1779964889823722200,9.29972216796875,-0.009241104125976562,-0.12407155334949493,-0.3921986520290375
1779964889840044000,9.3160439453125,0.005042076110839844,-0.11935606598854065,-0.3907943367958069
1779964889856364000,9.332364013671874,0.0049686431884765625,-0.12828165292739868,-0.3894006311893463
1779964889872708400,9.348708251953125,0.014470100402832031,-0.12699496746063232,-0.3832828998565674
1779964889889040600,9.36504052734375,0.009607315063476562,-0.13091233372688293,-0.381850004196167
1779964889905369300,9.381369384765625,-0.00003814697265625,-0.13005423545837402,-0.3852471709251404
1779964889921699600,9.397699462890625,-0.0049076080322265625,-0.12417638301849365,-0.37890005111694336
1779964889938022700,9.414022705078125,-0.009775161743164062,-0.12806910276412964,-0.3821216821670532
1779964889954358800,9.43035888671875,-0.000274658203125,-0.12733350694179535,-0.38075706362724304
1779964889970673000,9.4466728515625,0.009226799011230469,-0.12658970057964325,-0.37942710518836975
1779964889987006000,9.463005859375,-0.0004100799560546875,-0.12119275331497192,-0.3733726441860199
1779964890003336200,9.479336181640624,-0.010046958923339844,-0.12527498602867126,-0.38167062401771545
1779964890019664400,9.495664306640625,-0.0005483627319335938,-0.1246669739484787,-0.3802386224269867
1779964890035988500,9.511988525390626,0.004158973693847656,-0.1244606226682663,-0.3739277124404907
1779964890052326000,9.528325927734375,0.004082679748535156,-0.11897780001163483,-0.3724156320095062
1779964890068660200,9.54466015625,0.008786201477050781,-0.12305063009262085,-0.37558019161224365
1779964890085000000,9.561,0.013494491577148438,-0.11748968064785004,-0.3692355751991272
1779964890101330400,9.577330322265626,0.008623123168945312,-0.1214330792427063,-0.36755260825157166
1779964890117659600,9.59365966796875,-0.015376091003417969,-0.11048408597707748,-0.366119384765625
1779964890133986600,9.609986572265624,-0.02501201629638672,-0.13368982076644897,-0.36064907908439636
1779964890150295800,9.6262958984375,-0.001140594482421875,-0.12357023358345032,-0.36370331048965454
1779964890166636500,9.642636474609375,-0.0011959075927734375,-0.12292393296957016,-0.3530287742614746
1779964890182967000,9.658967041015625,-0.010851860046386719,-0.12230339646339417,-0.3608419597148895
1779964890199296800,9.675296875,0.0034313201904296875,-0.12141946703195572,-0.35937386751174927
1779964890215626800,9.691626708984375,0.0033597946166992188,-0.11096809804439545,-0.3627191185951233
1779964890231956000,9.7079560546875,0.008072853088378906,-0.11044225096702576,-0.36120346188545227
1779964890248289500,9.72428955078125,-0.0015811920166015625,-0.10984993726015091,-0.35467156767845154
1779964890264610600,9.740610595703124,0.007905960083007812,-0.11395550519227982,-0.35292214155197144
1779964890280944600,9.756944580078125,-0.006531715393066406,-0.11328911781311035,-0.3464508354663849
1779964890297267200,9.77326708984375,-0.006622314453125,-0.11260217428207397,-0.3493128716945648
1779964890313607400,9.789607421875,0.0028629302978515625,-0.11181667447090149,-0.34749168157577515
1779964890329924600,9.805924560546876,-0.0115814208984375,-0.12039314955472946,-0.3552163243293762
1779964890346268000,9.822267822265625,-0.011661529541015625,-0.10993948578834534,-0.3535299003124237
1779964890362592500,9.838592529296875,-0.01651477813720703,-0.11399476230144501,-0.3520848751068115
1779964890378933500,9.85493359375,-0.016571998596191406,-0.10834856331348419,-0.3461199700832367
1779964890395261400,9.871261474609375,-0.007049560546875,-0.10765717923641205,-0.34509024024009705
1779964890411600100,9.88760009765625,-0.0023069381713867188,-0.10690233111381531,-0.3442017734050751
1779964890427926500,9.903926513671875,-0.01671123504638672,-0.11592508107423782,-0.343169629573822
1779964890444254500,9.92025439453125,-0.007191658020019531,-0.11050578951835632,-0.346868634223938
1779964890460577800,9.936577880859375,-0.0024471282958984375,-0.10521011054515839,-0.34598061442375183
1779964890476909000,9.952908935546875,-0.007274627685546875,-0.10455679893493652,-0.3355099856853485
1779964890493227500,9.9692275390625,-0.0073184967041015625,-0.11360029876232147,-0.3297787606716156
1779964890509565700,9.985565673828125,-0.0025815963745117188,-0.10338637232780457,-0.33830156922340393
1779964890525899500,10.0018994140625,-0.0026397705078125,-0.10816580057144165,-0.3274500370025635
1779964890542232300,10.018232421875,0.0068721771240234375,-0.10770771652460098,-0.340497225522995
1779964890558562800,10.034562744140626,-0.0027666091918945312,-0.10715761035680771,-0.3246328830718994
1779964890574906400,10.05090625,-0.0028324127197265625,-0.11137376725673676,-0.3327256441116333
1779964890591234000,10.067234130859376,0.0018863677978515625,-0.10056520253419876,-0.33124372363090515
1779964890607561000,10.08356103515625,-0.0029621124267578125,-0.09992377460002899,-0.3250388205051422
1779964890623892700,10.099892822265625,-0.012595176696777344,-0.10887789726257324,-0.3236403465270996
1779964890640208600,10.116208740234375,-0.007870674133300781,-0.11298029124736786,-0.3318418264389038
1779964890656539600,10.13253955078125,-0.007923126220703125,-0.10286109894514084,-0.330655038356781
1779964890672870400,10.148870361328125,-0.012765884399414062,-0.10222172737121582,-0.32455772161483765
1779964890689199900,10.165199951171875,-0.017607688903808594,-0.10629840940237045,-0.3280842900276184
1779964890705530400,10.1815302734375,-0.012874603271484375,-0.10589232295751572,-0.3220830261707306
1779964890721860600,10.197860595703125,-0.02249622344970703,-0.11017592251300812,-0.3209383189678192
1779964890738207700,10.214207763671874,-0.008183479309082031,-0.1048748716711998,-0.3247123658657074
1779964890754534100,10.2305341796875,0.0013446807861328125,-0.09958919882774353,-0.32371243834495544
1779964890770864400,10.246864501953125,0.015651702880859375,-0.0943264365196228,-0.3225288689136505
1779964890787192000,10.263192138671876,0.006031036376953125,-0.09852816164493561,-0.3214133381843567
1779964890803527700,10.279527587890625,-0.0035953521728515625,-0.09790552407503128,-0.31534600257873535
1779964890819854800,10.295854736328126,-0.013215065002441406,-0.09758255630731583,-0.3189517855644226
1779964890836172500,10.312172607421875,-0.022832870483398438,-0.0971050038933754,-0.3178735077381134
1779964890852513300,10.32851318359375,-0.022861480712890625,-0.10159523785114288,-0.31778550148010254
1779964890868845000,10.344844970703125,-0.008532524108886719,-0.10617198050022125,-0.3069513440132141
1779964890885175300,10.36117529296875,-0.0037889480590820312,-0.11049454659223557,-0.30594706535339355
1779964890901505500,10.377505615234375,-0.008626937866210938,-0.09597072750329971,-0.3094627857208252
1779964890917833500,10.39383349609375,0.005679130554199219,-0.09545271843671799,-0.308262437582016
1779964890934165500,10.41016552734375,0.005639076232910156,-0.09512528032064438,-0.30730995535850525
1779964890950475500,10.4264755859375,0.005593299865722656,-0.09511027485132217,-0.31094250082969666
1779964890966815000,10.44281494140625,0.0007572174072265625,-0.09489192068576813,-0.3097279965877533
1779964890983142400,10.459142333984374,0.00550079345703125,-0.09958776831626892,-0.30390357971191406
1779964890999469300,10.47546923828125,0.000667572021484375,-0.09453818202018738,-0.2979446053504944
1779964891015805400,10.491805419921874,0.0006113052368164062,-0.10357101261615753,-0.30613455176353455
1779964891032129000,10.50812890625,-0.013803482055664062,-0.09816420823335648,-0.3047010600566864
1779964891048475000,10.524474853515626,-0.009073257446289062,-0.10241033881902695,-0.2937755584716797
1779964891064829000,10.540828857421875,-0.004345893859863281,-0.09231393039226532,-0.3019222617149353
1779964891081119700,10.55711962890625,-0.01875019073486328,-0.09677726030349731,-0.30551573634147644
1779964891097465000,10.573465087890625,-0.018787384033203125,-0.08684924244880676,-0.3045802414417267
1779964891113794300,10.589794189453125,-0.01881694793701172,-0.09143474698066711,-0.29907411336898804
1779964891130109400,10.606109375,-0.009272575378417969,-0.09595055878162384,-0.2936270833015442
1779964891146443000,10.622443115234375,-0.014094352722167969,-0.09563262015581131,-0.3022787570953369
1779964891162773000,10.63877294921875,-0.00934600830078125,-0.10028836876153946,-0.2869735062122345
1779964891179103700,10.655103759765625,-0.009367942810058594,-0.09052217751741409,-0.29119569063186646
1779964891195433500,10.67143359375,0.00018215179443359375,-0.09523692727088928,-0.30023708939552307
1779964891211764000,10.687763916015625,-0.0046215057373046875,-0.1000998243689537,-0.29497185349464417
1779964891228103000,10.70410302734375,0.0049228668212890625,-0.09051110595464706,-0.28949838876724243
1779964891244435500,10.720435546875,0.00010013580322265625,-0.09529095888137817,-0.28854313492774963
1779964891260759600,10.736759521484375,-0.004723548889160156,-0.09049598127603531,-0.28755122423171997
1779964891277102300,10.753102294921876,-0.004750251770019531,-0.090497687458992,-0.29641807079315186
1779964891293414400,10.769414306640625,-0.009555816650390625,-0.08562500029802322,-0.28632470965385437
1779964891309776000,10.78577587890625,-0.004790306091308594,-0.09508711844682693,-0.29060593247413635
1779964891326067500,10.8020673828125,-0.009587287902832031,-0.09023849666118622,-0.28074121475219727
1779964891342418400,10.81841845703125,-0.014384269714355469,-0.09008917212486267,-0.29001423716545105
1779964891358745000,10.8347451171875,-0.009607315063476562,-0.08520159125328064,-0.2850278317928314
1779964891375080200,10.851080078125,-0.00005054473876953125,-0.08974136412143707,-0.27987226843833923
1779964891391391500,10.8673916015625,-0.00006198883056640625,-0.09460018575191498,-0.274766206741333
1779964891407738400,10.88373828125,-0.00008106231689453125,-0.09930282086133957,-0.27426955103874207
1779964891424068600,10.900068603515624,0.004687309265136719,-0.08985453844070435,-0.2738233208656311
1779964891440379000,10.91637890625,0.009441375732421875,-0.09048346430063248,-0.27297893166542053
1779964891456716000,10.932716064453125,-0.0001678466796875,-0.09052734076976776,-0.2719915509223938
1779964891473034500,10.949034423828126,0.0045757293701171875,-0.09505357593297958,-0.2709016799926758
1779964891489366000,10.965365966796876,0.009310722351074219,-0.08530310541391373,-0.26953989267349243
1779964891505705500,10.98170556640625,-0.000308990478515625,-0.08516067266464233,-0.27781736850738525
1779964891522036200,10.9980361328125,-0.009926795959472656,-0.08492853492498398,-0.27180877327919006
1779964891538373000,11.014373046875,-0.02911376953125,-0.09861820191144943,-0.2760133445262909
1779964891554709200,11.030709228515626,-0.024367332458496094,-0.08891622722148895,-0.2749752700328827
1779964891571040000,11.0470400390625,-0.024404525756835938,-0.09367813915014267,-0.2733514904975891
1779964891587378400,11.06337841796875,-0.019659042358398438,-0.08898192644119263,-0.2722824811935425
1779964891603704300,11.079704345703124,-0.005324363708496094,-0.07465797662734985,-0.27165594696998596
1779964891620011300,11.09601123046875,-0.005343437194824219,-0.08433833718299866,-0.2615647315979004
1779964891636346400,11.112346435546876,-0.010149002075195312,-0.07957485318183899,-0.25623005628585815
1779964891652678000,11.128677978515626,-0.0005950927734375,-0.08462467044591904,-0.2701115906238556
1779964891669006600,11.145006591796875,0.008958816528320312,-0.07987036556005478,-0.26963725686073303
1779964891685336000,11.161336181640625,0.013721466064453125,-0.07960866391658783,-0.2690265476703644
1779964891701667300,11.177667236328125,0.004124641418457031,-0.08422096818685532,-0.25875771045684814
1779964891718000400,11.19400048828125,-0.010266304016113281,-0.08408894389867783,-0.2530592978000641
1779964891734341000,11.210341064453125,-0.010293960571289062,-0.08864670246839523,-0.2666586935520172
1779964891750668500,11.22666845703125,-0.005542755126953125,-0.07886054366827011,-0.25615444779396057
1779964891767000800,11.243000732421875,-0.000789642333984375,-0.08829784393310547,-0.2648196220397949
1779964891783332000,11.25933203125,-0.0103912353515625,-0.08328394591808319,-0.2544197738170624
1779964891799660000,11.275659912109376,-0.024776458740234375,-0.07828690111637115,-0.25364306569099426
1779964891816004600,11.292004638671875,-0.005656242370605469,-0.08309216797351837,-0.26260972023010254
1779964891832318000,11.30831787109375,0.003894805908203125,-0.08305741101503372,-0.26206380128860474
1779964891848650500,11.324650390625,-0.00091552734375,-0.08309262990951538,-0.2661421597003937
1779964891864964600,11.340964599609375,-0.005725860595703125,-0.07818403095006943,-0.25588274002075195
1779964891881310000,11.35731005859375,0.003818511962890625,-0.08763536810874939,-0.25516554713249207
1779964891897642800,11.373642822265625,0.0037908554077148438,-0.08297346532344818,-0.2543526589870453
1779964891913972000,11.389971923828124,-0.00102996826171875,-0.07832036912441254,-0.253347784280777
1779964891930284800,11.406284912109374,-0.005850791931152344,-0.07361374795436859,-0.247561514377594
1779964891946618000,11.4226181640625,-0.010667800903320312,-0.07838122546672821,-0.25144755840301514
1779964891962944300,11.4389443359375,-0.005913734436035156,-0.06950666010379791,-0.2553193271160126
1779964891979278800,11.45527880859375,-0.010728836059570312,-0.0785227045416832,-0.2497290074825287
1779964891995608800,11.47160888671875,-0.005977630615234375,-0.08381711691617966,-0.24872347712516785
1779964892011934700,11.487934814453125,-0.006005287170410156,-0.08305758237838745,-0.2527594268321991
1779964892028288300,11.504288330078126,-0.015605926513671875,-0.08284728974103928,-0.24713799357414246
1779964892044608800,11.52060888671875,-0.0060577392578125,-0.07849977910518646,-0.24649128317832947
1779964892060946200,11.5369462890625,-0.00608062744140625,-0.08336218446493149,-0.24103829264640808
1779964892077271800,11.553271728515625,-0.010875701904296875,-0.07811678200960159,-0.24553176760673523
1779964892093602600,11.5696025390625,-0.020462989807128906,-0.07809573411941528,-0.23549172282218933
1779964892109929500,11.585929443359374,-0.010901451110839844,-0.07813218235969543,-0.23998773097991943
1779964892126236400,11.602236328125,0.008228302001953125,-0.08293534070253372,-0.2396087646484375
1779964892142580000,11.618580078125,0.0028228759765625,-0.07807010412216187,-0.2342199981212616
1779964892158910000,11.634909912109375,-0.0013866424560546875,-0.07317999750375748,-0.23838716745376587
1779964892175240200,11.651240234375,0.008154869079589844,-0.07835441827774048,-0.23270940780639648
1779964892191570000,11.66756982421875,0.0033254623413085938,-0.07748574763536453,-0.23147046566009521
1779964892207900000,11.68389990234375,-0.0015001296997070312,-0.07269485294818878,-0.23987936973571777
1779964892224209200,11.700209228515625,-0.011114120483398438,-0.07250264286994934,-0.23384743928909302
1779964892240578600,11.71657861328125,-0.015939712524414062,-0.08192557841539383,-0.23743867874145508
1779964892256887600,11.732887451171875,-0.030336380004882812,-0.07696975767612457,-0.23147279024124146
1779964892273241300,11.749241455078124,-0.025590896606445312,-0.07689563184976578,-0.23506441712379456
1779964892289537000,11.765537109375,-0.01605987548828125,-0.07241810858249664,-0.23388400673866272
1779964892305894100,11.78189404296875,-0.001739501953125,-0.07690633088350296,-0.2280670404434204
1779964892322220500,11.798220458984375,-0.011336326599121094,-0.07680772989988327,-0.2368781864643097
1779964892338559700,11.814559814453125,-0.011368751525878906,-0.07208670675754547,-0.22629070281982422
1779964892354881500,11.830881591796874,-0.0018253326416015625,-0.07616685330867767,-0.23024225234985352
1779964892371214300,11.84721435546875,0.0077190399169921875,-0.06655837595462799,-0.23422712087631226
1779964892387543000,11.86354296875,0.0029010772705078125,-0.07668030261993408,-0.22368881106376648
1779964892403894800,11.879894775390625,-0.001918792724609375,-0.0711672380566597,-0.23223012685775757
1779964892420192500,11.896192626953125,-0.0067386627197265625,-0.06127127632498741,-0.2216114103794098
1779964892436518700,11.9125185546875,-0.0067691802978515625,-0.06563742458820343,-0.2254813015460968
1779964892452855300,11.928855224609375,-0.002613067626953125,-0.06053968146443367,-0.2149655818939209
1779964892469182000,11.945181884765624,-0.016404151916503906,-0.07445171475410461,-0.223570317029953
1779964892485512000,11.961511962890626,-0.0068569183349609375,-0.0740661770105362,-0.2228514552116394
1779964892501842200,11.97784228515625,-0.016455650329589844,-0.06418666243553162,-0.22681427001953125
1779964892518166500,11.99416650390625,-0.00690460205078125,-0.07353326678276062,-0.22618058323860168
1779964892534510600,12.010510498046875,-0.0021457672119140625,-0.07349604368209839,-0.2253626585006714
1779964892550846500,12.026846435546876,-0.011740684509277344,-0.0739198625087738,-0.21505048871040344
1779964892567176700,12.0431767578125,-0.006968498229980469,-0.06901608407497406,-0.22419989109039307
1779964892583504100,12.059504150390625,-0.011768341064453125,-0.07848833501338959,-0.2141934037208557
1779964892599832800,12.075832763671874,-0.011783599853515625,-0.06878690421581268,-0.19938820600509644
1779964892616137500,12.092137451171874,0.002559661865234375,-0.0732344463467598,-0.21331161260604858
1779964892632486100,12.108486083984374,-0.0022516250610351562,-0.05808475613594055,-0.22208434343338013
1779964892648811800,12.124811767578125,-0.0022821426391601562,-0.06723664700984955,-0.21638253331184387
1779964892665143000,12.14114306640625,-0.0070953369140625,-0.07164710760116577,-0.21072429418563843
1779964892681473500,12.1574736328125,0.0024471282958984375,-0.06667069345712662,-0.20981445908546448
1779964892697800000,12.173800048828125,-0.016722679138183594,-0.061761029064655304,-0.20895704627037048
1779964892714123800,12.190123779296876,-0.01675128936767578,-0.07121871411800385,-0.21760782599449158
1779964892730477300,12.206477294921875,-0.011991500854492188,-0.0663028284907341,-0.21199387311935425
1779964892746807000,12.22280712890625,-0.012021064758300781,-0.06687776744365692,-0.21107995510101318
1779964892763137300,12.23913720703125,-0.012037277221679688,-0.0665118545293808,-0.2105681598186493
1779964892779468300,12.25546826171875,-0.02641010284423828,-0.07107251137495041,-0.2052808701992035
1779964892795817500,12.2718173828125,0.002288818359375,-0.07567428052425385,-0.21439209580421448
1779964892812127000,12.288126953125,-0.0025119781494140625,-0.06591863930225372,-0.20432129502296448
1779964892828459300,12.304459228515626,0.0022525787353515625,-0.06579113006591797,-0.21323221921920776
1779964892844786700,12.32078662109375,-0.007332801818847656,-0.07457469403743744,-0.20799189805984497
1779964892861100000,12.33710009765625,-0.007348060607910156,-0.0696801245212555,-0.20748141407966614
1779964892877450200,12.3534501953125,-0.0025806427001953125,-0.0702500119805336,-0.20688408613204956
1779964892893786600,12.36978662109375,-0.0026082992553710938,-0.07016345113515854,-0.20598745346069336
1779964892910091500,12.386091552734374,0.0021562576293945312,-0.06516528129577637,-0.20052868127822876
1779964892926425000,12.402425048828125,-0.002655029296875,-0.05549435690045357,-0.19492626190185547
1779964892942755300,12.41875537109375,0.006885528564453125,-0.059489212930202484,-0.20346269011497498
1779964892959085000,12.4350849609375,-0.0027189254760742188,-0.05919123813509941,-0.19282862544059753
1779964892975415000,12.4514150390625,-0.01710224151611328,-0.05407708138227463,-0.19675099849700928
1779964892991728600,12.467728759765626,-0.007552146911621094,-0.06338734179735184,-0.1912516951560974
1779964893008095500,12.484095458984376,-0.017145156860351562,-0.07281684130430222,-0.19531694054603577
1779964893024418600,12.50041845703125,-0.01717376708984375,-0.05819350853562355,-0.2039584517478943
1779964893040745700,12.516745849609375,-0.012416839599609375,-0.06268300116062164,-0.19820639491081238
1779964893057092000,12.533092041015625,-0.00765228271484375,-0.06241113692522049,-0.19753527641296387
1779964893073409800,12.549409912109375,-0.017235755920410156,-0.05751881003379822,-0.19711050391197205
1779964893089734400,12.565734375,-0.0124664306640625,-0.06244174391031265,-0.18699544668197632
1779964893106056700,12.582056640625,-0.0029153823852539062,-0.05770104378461838,-0.2006697952747345
1779964893122386000,12.598385986328125,0.0066356658935546875,-0.06223815679550171,-0.19040343165397644
1779964893138716200,12.614716064453125,0.0012350082397460938,-0.06671011447906494,-0.18508058786392212
1779964893155032800,12.63103271484375,-0.0029783248901367188,-0.06166653335094452,-0.19374948740005493
1779964893171377200,12.647377197265625,0.0065708160400390625,-0.0565485879778862,-0.1929962933063507
1779964893187702000,12.663701904296875,-0.0030269622802734375,-0.06096264719963074,-0.19214865565299988
1779964893204045000,12.680045166015624,-0.012620925903320312,-0.06540350615978241,-0.19135281443595886
1779964893220378600,12.696378662109375,-0.017425537109375,-0.06504432111978531,-0.190697580575943
1779964893236710100,12.712710205078125,-0.012660980224609375,-0.06480801105499268,-0.1947900354862213
1779964893253038600,12.72903857421875,-0.0126800537109375,-0.06460542231798172,-0.18935415148735046
1779964893269372200,12.7453720703125,-0.012696266174316406,-0.05937126651406288,-0.19359731674194336
1779964893285704200,12.7617041015625,-0.012711524963378906,-0.0544019490480423,-0.1882709562778473
1779964893302015000,12.778014892578126,-0.017513275146484375,-0.05895292013883591,-0.18773269653320312
1779964893318354200,12.794354248046876,-0.0031709671020507812,-0.058732617646455765,-0.187236487865448
1779964893334699000,12.810698974609375,-0.007966995239257812,-0.06332788616418839,-0.1916254460811615
1779964893351015700,12.827015625,-0.003192901611328125,-0.05863688141107559,-0.19122084975242615
1779964893367353000,12.84335302734375,0.001575469970703125,-0.0544108971953392,-0.181077241897583
1779964893383684400,12.859684326171875,0.0015592575073242188,-0.05911319702863693,-0.18050673604011536
1779964893399995000,12.875994873046874,-0.0032434463500976562,-0.04873496666550636,-0.1847066879272461
1779964893416328400,12.892328369140625,0.001522064208984375,-0.058053433895111084,-0.17920821905136108
1779964893432658400,12.908658447265625,-0.017635345458984375,-0.04825524985790253,-0.17387646436691284
1779964893448973800,12.924973876953125,-0.012872695922851562,-0.062297653406858444,-0.18745988607406616
1779964893465309000,12.941308837890626,-0.008109092712402344,-0.06269319355487823,-0.18668851256370544
1779964893481647000,12.957647216796875,0.0014467239379882812,-0.05746004730463028,-0.1813296675682068
1779964893497982200,12.973982177734374,-0.008143424987792969,-0.05723364278674126,-0.17590069770812988
1779964893514322000,12.990322021484374,-0.01294708251953125,-0.05222240462899208,-0.18002864718437195
1779964893530654500,13.006654541015624,-0.017747879028320312,-0.05688187852501869,-0.17470231652259827
1779964893546981600,13.022981689453125,-0.003406524658203125,-0.061424680054187775,-0.17413178086280823
1779964893563313000,13.03931298828125,-0.012993812561035156,-0.05173604190349579,-0.18314054608345032
1779964893579643400,13.055643310546875,-0.008220672607421875,-0.06122331693768501,-0.1731233298778534
1779964893595957000,13.07195703125,0.0013370513916015625,-0.060387399047613144,-0.17741546034812927
1779964893612288300,13.088288330078125,-0.0082550048828125,-0.06018950790166855,-0.1671258807182312
1779964893628619800,13.104619873046875,0.0012979507446289062,-0.05044688656926155,-0.1760212779045105
1779964893644950000,13.120949951171875,-0.0035066604614257812,-0.0503222681581974,-0.17054522037506104
1779964893661279700,13.13727978515625,-0.0035266876220703125,-0.05552621930837631,-0.174593985080719
1779964893677610200,13.1536103515625,-0.0035457611083984375,-0.06011410057544708,-0.17868569493293762
1779964893693940200,13.169940185546874,-0.02270793914794922,-0.05519113689661026,-0.1779457926750183
1779964893710287600,13.18628759765625,-0.01794147491455078,-0.05034368857741356,-0.17248022556304932
1779964893726612700,13.20261279296875,0.0011882781982421875,-0.05012473464012146,-0.17199698090553284
1779964893742945300,13.2189453125,-0.0036163330078125,-0.04982839897274971,-0.16653496026992798
1779964893759273700,13.235273681640624,-0.008421897888183594,-0.05434019863605499,-0.16099554300308228
1779964893775604200,13.251604248046876,-0.027582168579101562,-0.05875260382890701,-0.17527052760124207
1779964893791917600,13.26791748046875,-0.022806167602539062,-0.053785599768161774,-0.16955968737602234
1779964893808265200,13.28426513671875,-0.027604103088378906,-0.05842785909771919,-0.1696937084197998
1779964893824594400,13.300594482421875,-0.0180511474609375,-0.05843307077884674,-0.16838139295578003
1779964893840925200,13.31692529296875,-0.003704071044921875,-0.05328812077641487,-0.17282798886299133
1779964893857224400,13.333224365234376,-0.008495330810546875,-0.05256819352507591,-0.16304099559783936
1779964893873569800,13.34956982421875,-0.008503913879394531,-0.05244729295372963,-0.16273868083953857
1779964893889885200,13.36588525390625,-0.0037355422973632812,-0.05238752067089081,-0.16209539771080017
1779964893906231600,13.3822314453125,0.015384674072265625,-0.04804006963968277,-0.161258727312088
1779964893922561500,13.3985615234375,0.0004062652587890625,-0.04727974906563759,-0.1555909812450409
1779964893938891800,13.414891845703124,-0.013381004333496094,-0.051948390901088715,-0.15451717376708984
1779964893955221800,13.4312216796875,-0.0086212158203125,-0.05177344009280205,-0.15828144550323486
1779964893971552000,13.447552001953126,-0.013431549072265625,-0.05155996233224869,-0.16213873028755188
1779964893987897000,13.46389697265625,0.000904083251953125,-0.05582890659570694,-0.16612786054611206
1779964894004209400,13.48020947265625,-0.013476371765136719,-0.04595412686467171,-0.16041216254234314
1779964894020539100,13.4965390625,-0.018280029296875,-0.05042942613363266,-0.15972018241882324
1779964894036869400,13.512869384765626,-0.008724212646484375,-0.05007263645529747,-0.1639050543308258
1779964894053197000,13.529197021484375,-0.008737564086914062,-0.04978610947728157,-0.16341263055801392
1779964894069543700,13.545543701171875,-0.0087432861328125,-0.05444493889808655,-0.1583895981311798
1779964894085872600,13.56187255859375,-0.00396728515625,-0.05485657602548599,-0.1579972207546234
1779964894102193400,13.578193359375,-0.008761405944824219,-0.0497087724506855,-0.14810937643051147
1779964894118516000,13.594515869140626,-0.013555526733398438,-0.04875176027417183,-0.1573391854763031
1779964894134852900,13.610852783203125,0.0007915496826171875,-0.04854945093393326,-0.15214139223098755
1779964894151183000,13.62718310546875,0.0055675506591796875,-0.05283196270465851,-0.15651613473892212
1779964894167514400,13.643514404296875,-0.004025459289550781,-0.04297148808836937,-0.15570807456970215
1779964894183844900,13.659844970703125,-0.018402099609375,-0.04765224829316139,-0.15970322489738464
1779964894200190200,13.676190185546876,-0.01842498779296875,-0.05202527344226837,-0.15400075912475586
1779964894216510200,13.69251025390625,-0.013660430908203125,-0.04697553440928459,-0.1531534492969513
1779964894232847600,13.70884765625,-0.0088958740234375,-0.041803114116191864,-0.15711742639541626
1779964894249170700,13.725170654296875,-0.013699531555175781,-0.04140913486480713,-0.15161964297294617
1779964894265513700,13.741513671875,-0.023284912109375,-0.04112665727734566,-0.15579324960708618
1779964894281844500,13.757844482421875,-0.004155158996582031,-0.045629989355802536,-0.15051215887069702
1779964894298168000,13.77416796875,-0.00894927978515625,-0.045293159782886505,-0.15014758706092834
1779964894314500000,13.7905,-0.0089569091796875,-0.049683306366205215,-0.1546103060245514
1779964894330825500,13.806825439453124,-0.013756752014160156,-0.04524862766265869,-0.14927643537521362
1779964894347158300,13.823158203125,-0.004193305969238281,-0.04446006566286087,-0.15853622555732727
1779964894363488300,13.83948828125,-0.0042018890380859375,-0.04495745152235031,-0.15339121222496033
1779964894379802000,13.855802001953125,-0.008996963500976562,-0.039440449327230453,-0.14820736646652222
1779964894396121900,13.872121826171876,-0.009009361267089844,-0.04866911098361015,-0.14289632439613342
1779964894412464000,13.888464111328124,-0.009027481079101562,-0.04847534000873566,-0.15649116039276123
1779964894428796200,13.904796142578125,-0.013833999633789062,-0.05274394154548645,-0.15087470412254333
1779964894445139200,13.92113916015625,0.0005102157592773438,-0.0427117645740509,-0.14555326104164124
1779964894461455600,13.93745556640625,-0.004299163818359375,-0.042414769530296326,-0.14457231760025024
1779964894477789000,13.953788818359374,-0.0043277740478515625,-0.046747252345085144,-0.15295322239398956
1779964894494129000,13.97012890625,0.00043392181396484375,-0.04181886464357376,-0.14717653393745422
1779964894510460200,13.986460205078124,0.0004177093505859375,-0.03671024367213249,-0.151250422000885
1779964894526789400,14.002789306640626,-0.009175300598144531,-0.036441631615161896,-0.15032336115837097
1779964894543120000,14.019119873046876,-0.01876354217529297,-0.04577822610735893,-0.14481836557388306
1779964894559450000,14.0354501953125,-0.023563385009765625,-0.05502404272556305,-0.139413982629776
1779964894575778000,14.051778076171875,-0.014000892639160156,-0.04987376555800438,-0.14380919933319092
1779964894592089300,14.06808935546875,-0.033156394958496094,-0.04947017878293991,-0.13906291127204895
1779964894608429600,14.0844296875,-0.018817901611328125,-0.04429800063371658,-0.14725883305072784
1779964894624756000,14.100755859375,0.0050983428955078125,-0.043858595192432404,-0.14668764173984528
1779964894641090300,14.11709033203125,0.009870529174804688,-0.03392066806554794,-0.14133206009864807
1779964894657418200,14.133418212890625,-0.004505157470703125,-0.038382235914468765,-0.14528940618038177
1779964894673746700,14.14974658203125,-0.018884658813476562,-0.0331694632768631,-0.1395414173603058
1779964894690088400,14.16608837890625,0.0002384185791015625,-0.04234818369150162,-0.13385328650474548
1779964894706421500,14.18242138671875,-0.00457000732421875,-0.04682871326804161,-0.1424684226512909
1779964894722750500,14.19875048828125,-0.01894664764404297,-0.05106489360332489,-0.14634251594543457
1779964894739078000,14.215077880859376,-0.01418304443359375,-0.041100285947322845,-0.130996435880661
1779964894755398000,14.23139794921875,-0.018983840942382812,-0.045392394065856934,-0.14463454484939575
1779964894771724800,14.247724853515624,-0.019003868103027344,-0.04012598842382431,-0.13894616067409515
1779964894788068900,14.26406884765625,-0.019018173217773438,-0.039595846086740494,-0.1430683434009552
1779964894804401400,14.2804013671875,-0.014245033264160156,-0.04394882172346115,-0.1377270519733429
1779964894820729000,14.29672900390625,-0.01903820037841797,-0.048213694244623184,-0.14208832383155823
1779964894837062700,14.313062744140625,-0.004680633544921875,-0.04793260246515274,-0.1373353898525238
1779964894853415000,14.329414794921876,0.00009822845458984375,-0.043062809854745865,-0.13225853443145752
1779964894869705200,14.345705322265625,-0.009481430053710938,-0.04267694056034088,-0.131830096244812
1779964894886038000,14.3620380859375,-0.0047054290771484375,-0.03767084330320358,-0.13139492273330688
1779964894902369000,14.378369140625,-0.02385425567626953,-0.03735344856977463,-0.1358850747346878
1779964894918698200,14.3946982421875,-0.009507179260253906,-0.04190443083643913,-0.13061818480491638
1779964894935028500,14.411028564453124,-0.009520530700683594,-0.03703881800174713,-0.13004085421562195
1779964894951345400,14.427345458984375,-0.0047454833984375,-0.041392721235752106,-0.134291410446167
1779964894967706000,14.4437060546875,-0.009543418884277344,-0.04181945323944092,-0.12897256016731262
1779964894984032000,14.460031982421874,-0.014338493347167969,-0.03208950161933899,-0.12849870324134827
1779964895000363300,14.47636328125,-0.009563446044921875,-0.0413670688867569,-0.14712604880332947
1779964895016676600,14.492676513671874,-0.019148826599121094,-0.03169585019350052,-0.13212715089321136
1779964895033019100,14.50901904296875,-0.009588241577148438,-0.03644388169050217,-0.1268651783466339
1779964895049353200,14.525353271484375,-0.0095977783203125,-0.031712718307971954,-0.13122476637363434
1779964895065683200,14.54168310546875,-0.014389991760253906,-0.041146524250507355,-0.12612047791481018
1779964895081998600,14.55799853515625,-0.014390945434570312,-0.04579729959368706,-0.13082414865493774
1779964895098330400,14.574330322265626,-0.009600639343261719,-0.045026831328868866,-0.12626707553863525
1779964895114654000,14.590654052734376,-0.01917266845703125,-0.04497591033577919,-0.12144792824983597
1779964895130990000,14.606989990234375,-0.000030517578125,-0.04498291015625,-0.1309857815504074
1779964895147316700,14.623316650390626,-0.0048198699951171875,-0.04488343372941017,-0.135623037815094
1779964895163653600,14.639653564453125,-0.009613990783691406,-0.03534215688705444,-0.12561962008476257
1779964895179983600,14.655983642578125,-0.004833221435546875,-0.03537431359291077,-0.12063271552324295
1779964895196307500,14.672307373046875,-0.0096282958984375,-0.03565026447176933,-0.125014066696167
1779964895212648700,14.688648681640625,-0.0000705718994140625,-0.040702443569898605,-0.12445669621229172
1779964895228989200,14.7049892578125,-0.009654045104980469,-0.04061596840620041,-0.12386085838079453
1779964895245312000,14.72131201171875,-0.014456748962402344,-0.03103962354362011,-0.1230720654129982
1779964895261647000,14.737647216796875,-0.009685516357421875,-0.030736485496163368,-0.12236667424440384
1779964895277962500,14.75396240234375,-0.00969696044921875,-0.03062981180846691,-0.12185884267091751
1779964895294305300,14.77030517578125,-0.004920005798339844,-0.035513363778591156,-0.13101303577423096
1779964895310629400,14.78662939453125,-0.01928424835205078,-0.0402819886803627,-0.12586981058120728
1779964895326970600,14.802970703125,-0.033649444580078125,-0.04034637287259102,-0.1308886706829071
1779964895343295700,14.819295654296875,-0.009718894958496094,-0.035515956580638885,-0.12081141024827957
1779964895359608600,14.835608642578125,-0.019289016723632812,-0.05448076128959656,-0.1160283163189888
1779964895375941600,14.851941650390625,-0.019300460815429688,-0.040107082575559616,-0.12508916854858398
1779964895392270600,14.8682705078125,-0.014521598815917969,-0.030383365228772163,-0.12477564811706543
1779964895408603400,14.884603271484375,-0.004952430725097656,-0.03985689580440521,-0.11988084763288498
1779964895424932400,14.900932373046874,-0.0049571990966796875,-0.020869886502623558,-0.11486577242612839
1779964895441262300,14.917262451171876,-0.014534950256347656,-0.03056268021464348,-0.11936584860086441
1779964895457593900,14.93359375,-0.000186920166015625,-0.03071124665439129,-0.11902367323637009
1779964895473936400,14.949936279296875,-0.0001964569091796875,-0.025926431640982628,-0.108982153236866
1779964895490265600,14.966265625,0.009362220764160156,-0.03592418134212494,-0.12265825271606445
1779964895506596000,14.98259619140625,-0.0002269744873046875,-0.03576740622520447,-0.11705585569143295
1779964895522926300,14.99892626953125,-0.009815216064453125,-0.03579689934849739,-0.11624287813901901
1779964895539256800,15.0152568359375,-0.014615058898925781,-0.035124339163303375,-0.12034790217876434
1779964895555586600,15.031586669921875,-0.0194091796875,-0.03500881791114807,-0.12467321008443832
1779964895571912700,15.04791259765625,-0.014629364013671875,-0.025389930233359337,-0.12441862374544144
1779964895588231400,15.0642314453125,-0.028989791870117188,-0.030166825279593468,-0.11944517493247986
1779964895604563500,15.0805634765625,-0.009848594665527344,-0.030667679384350777,-0.11461875587701797
1779964895620893700,15.096893798828125,-0.014635086059570312,-0.03961678221821785,-0.11456932872533798
1779964895637223700,15.1132236328125,-0.005061149597167969,-0.03964158147573471,-0.11467482894659042
1779964895653553700,15.1295537109375,-0.00027751922607421875,-0.044396087527275085,-0.11459330469369888
1779964895669883400,15.14588330078125,-0.00506591796875,-0.02998584508895874,-0.1144549772143364
1779964895686257400,15.16225732421875,-0.009853363037109375,-0.03466946259140968,-0.11915245652198792
1779964895702557400,15.178557373046875,-0.00507354736328125,-0.029782118275761604,-0.11404237896203995
1779964895718886000,15.194885986328124,-0.014653205871582031,-0.03440587967634201,-0.10885324329137802
1779964895735218000,15.211218017578124,-0.009877204895019531,-0.02954324707388878,-0.11793947219848633
1779964895751556400,15.227556396484376,-0.005099296569824219,-0.02477867528796196,-0.11278528720140457
1779964895767843600,15.243843505859376,-0.0003204345703125,-0.029623303562402725,-0.10768919438123703
1779964895784189700,15.260189697265625,-0.014682769775390625,-0.03444448858499527,-0.11698314547538757
1779964895800542500,15.27654248046875,-0.00033473968505859375,-0.02945834770798683,-0.1117258295416832
1779964895816868900,15.292868896484375,-0.019483566284179688,-0.034181687980890274,-0.10662577301263809
1779964895833198800,15.30919873046875,-0.009920120239257812,-0.03407081961631775,-0.1110490933060646
1779964895849510000,15.325510009765624,-0.019495010375976562,-0.03386296331882477,-0.11560259759426117
1779964895865844700,15.3418447265625,-0.014714241027832031,-0.029182424768805504,-0.10583516210317612
1779964895882153200,15.3581533203125,-0.024285316467285156,-0.029235176742076874,-0.10582525283098221
1779964895898505500,15.37450537109375,-0.009930610656738281,-0.034204211086034775,-0.10095033794641495
1779964895914826800,15.39082666015625,-0.005146980285644531,-0.03425639867782593,-0.11040589958429337
1779964895931169800,15.407169677734375,-0.009934425354003906,-0.02936648391187191,-0.1103481873869896
1779964895947510800,15.4235107421875,-0.009937286376953125,-0.025142205879092216,-0.10538490861654282
1779964895963835400,15.43983544921875,-0.005157470703125,-0.025063036009669304,-0.11469557881355286
1779964895980179500,15.456179443359375,-0.005164146423339844,-0.025026332587003708,-0.10956152528524399
1779964895996486000,15.47248583984375,-0.00038623809814453125,-0.034792959690093994,-0.10441958159208298
1779964896012831200,15.488831298828124,-0.014753341674804688,-0.029497213661670685,-0.09911840409040451
1779964896029167400,15.50516748046875,-0.01955413818359375,-0.02472078613936901,-0.11276403069496155
1779964896045488000,15.521488037109375,-0.014776229858398438,-0.019947804510593414,-0.1123567670583725
1779964896061822500,15.537822509765626,-0.010000228881835938,-0.029412472620606422,-0.1070849820971489
1779964896078130700,15.554130615234374,-0.014795303344726562,-0.02519509382545948,-0.10182394832372665
1779964896094463200,15.570463134765625,-0.024372100830078125,-0.02920946292579174,-0.09671074897050858
1779964896110800100,15.586800048828126,-0.014805793762207031,-0.038850247859954834,-0.1060754582285881
1779964896127127000,15.603126953125,-0.014803886413574219,-0.029821479693055153,-0.09657686203718185
1779964896143456800,15.619456787109375,-0.014809608459472656,-0.029324859380722046,-0.09632528573274612
1779964896159787300,15.635787353515624,-0.019605636596679688,-0.034099288284778595,-0.09578762203454971
1779964896176116700,15.65211669921875,-0.00525665283203125,-0.019710039719939232,-0.10974633693695068
1779964896192462000,15.668462158203125,-0.00047969818115234375,-0.029142219573259354,-0.09975499659776688
1779964896208791000,15.684791015625,-0.024413108825683594,-0.02452695183455944,-0.1042032316327095
1779964896225121300,15.701121337890624,0.004294395446777344,-0.029618937522172928,-0.099138043820858
1779964896241435100,15.71743505859375,-0.005288124084472656,-0.029611915349960327,-0.09383868426084518
1779964896257781000,15.733781005859376,0.0042724609375,-0.02956591546535492,-0.10282283276319504
1779964896274112000,15.750112060546876,-0.010094642639160156,-0.02947627380490303,-0.10708168148994446
1779964896290443300,15.766443359375,-0.010106086730957031,-0.034050747752189636,-0.1065080314874649
1779964896306769200,15.78276904296875,-0.005330085754394531,-0.0243495162576437,-0.10597681999206543
1779964896323116800,15.79911669921875,-0.010126113891601562,-0.03371676057577133,-0.10539807379245758
1779964896339413500,15.81541357421875,-0.01970672607421875,-0.028782229870557785,-0.10013405233621597
1779964896355750000,15.83175,-0.019713401794433594,-0.02416681870818138,-0.09980376809835434
1779964896372075500,15.848075439453124,-0.019715309143066406,-0.019356191158294678,-0.09966977685689926
1779964896388411600,15.86441162109375,-0.0053615570068359375,-0.028934668749570847,-0.10432200133800507
1779964896404738800,15.88073876953125,-0.005364418029785156,-0.02470310963690281,-0.09941162914037704
1779964896421052000,15.897052001953124,-0.005370140075683594,-0.0335836298763752,-0.09910041838884354
1779964896437414700,15.91341455078125,-0.0053691864013671875,-0.028608670458197594,-0.1038614809513092
1779964896453743900,15.929743896484375,-0.005373954772949219,-0.029117301106452942,-0.09884660691022873
1779964896470038300,15.946038330078125,-0.014949798583984375,-0.03324691951274872,-0.09379278868436813
1779964896486399200,15.962399169921875,-0.010167121887207031,-0.02851967327296734,-0.08885549753904343
1779964896502737000,15.97873681640625,-0.005387306213378906,-0.023789556697010994,-0.09816784411668777
1779964896519063800,15.995063720703126,-0.014965057373046875,-0.023726532235741615,-0.10257305204868317
1779964896535373300,16.011373291015627,-0.000614166259765625,-0.023711983114480972,-0.09752247482538223
1779964896551710200,16.027710205078126,-0.01018524169921875,-0.023394037038087845,-0.08785971254110336
1779964896568036600,16.04403662109375,0.0041637420654296875,-0.023233512416481972,-0.09698069840669632
1779964896584369700,16.06036962890625,-0.0006313323974609375,-0.032652296125888824,-0.09175527840852737
1779964896600700400,16.076700439453123,-0.010209083557128906,-0.027710119262337685,-0.09131709486246109
1779964896617030400,16.093030517578125,-0.015001296997070312,-0.027802636846899986,-0.09102676063776016
1779964896633344000,16.109343994140627,-0.0006456375122070312,-0.027563178911805153,-0.10047785937786102
1779964896649693700,16.125693603515625,-0.005434989929199219,-0.022695360705256462,-0.08593013137578964
1779964896666020400,16.142020263671874,-0.01979827880859375,-0.02734432741999626,-0.09511587768793106
1779964896682361900,16.15836181640625,-0.015016555786132812,-0.027844374999403954,-0.09014119952917099
1779964896698694400,16.1746943359375,-0.01980304718017578,-0.027275055646896362,-0.09486784785985947
1779964896715024400,16.1910244140625,-0.0054473876953125,-0.023123275488615036,-0.09480857104063034
1779964896731338000,16.207337890625,-0.0102386474609375,-0.022890809923410416,-0.09451425820589066
1779964896747699000,16.223698974609373,-0.015027046203613281,-0.0274934284389019,-0.08953366428613663
1779964896764013300,16.240013427734375,-0.010244369506835938,-0.0321672186255455,-0.08934763818979263
1779964896780346400,16.256346435546874,-0.015034675598144531,-0.022674988955259323,-0.08910494297742844
1779964896796658700,16.27265869140625,-0.010252952575683594,-0.026915764436125755,-0.0936882421374321
1779964896813003000,16.2890029296875,-0.005471229553222656,-0.026862019672989845,-0.09346381574869156
1779964896829315000,16.305315185546874,-0.005476951599121094,-0.021862395107746124,-0.08833958953619003
1779964896845655000,16.321655029296874,-0.010270118713378906,-0.021642126142978668,-0.08796221762895584
1779964896861978600,16.337978515625,-0.000705718994140625,-0.02690962515771389,-0.0875287726521492
1779964896878315300,16.354315185546874,-0.015071868896484375,-0.0212650578469038,-0.09173626452684402
1779964896894632000,16.3706318359375,-0.019867897033691406,-0.025831442326307297,-0.08637512475252151
1779964896910972700,16.38697265625,-0.015086174011230469,-0.03530551493167877,-0.09097755700349808
1779964896927312400,16.4033125,-0.010300636291503906,-0.03037348762154579,-0.0909242257475853
1779964896943649500,16.4196494140625,-0.019878387451171875,-0.020769530907273293,-0.09058632701635361
1779964896959976700,16.435976806640625,-0.01988697052001953,-0.025580011308193207,-0.09009496122598648
1779964896976275700,16.452275634765623,-0.015102386474609375,-0.030033962801098824,-0.09001296013593674
1779964896992619800,16.468619873046876,-0.0007476806640625,-0.020334772765636444,-0.08986527472734451
1779964897008966400,16.48496630859375,-0.005537986755371094,-0.020863555371761322,-0.08001769334077835
1779964897025290200,16.501290283203126,-0.005542755126953125,-0.020262395963072777,-0.08935336023569107
1779964897041633800,16.5176337890625,-0.010334014892578125,-0.029756736010313034,-0.09379848837852478
1779964897057943800,16.53394384765625,-0.00555419921875,-0.030413661152124405,-0.08868198841810226
1779964897074274000,16.550274169921874,-0.010348320007324219,-0.020655259490013123,-0.07859363406896591
1779964897090603500,16.566603515625,-0.005573272705078125,-0.025219779461622238,-0.08275947719812393
1779964897106933500,16.58293359375,-0.010373115539550781,-0.02495846152305603,-0.08198683708906174
1779964897123263700,16.599263671875,-0.015168190002441406,-0.019417893141508102,-0.0814126506447792
1779964897139594000,16.615593994140625,-0.0103912353515625,-0.028899990022182465,-0.09053163230419159
1779964897155924700,16.6319248046875,-0.01039886474609375,-0.024139687418937683,-0.08530410379171371
1779964897172263400,16.648263427734374,-0.01519012451171875,-0.02397129125893116,-0.09451567381620407
1779964897188583400,16.66458349609375,-0.0008344650268554688,-0.023794639855623245,-0.08479803055524826
1779964897204930000,16.680929931640627,-0.0056247711181640625,-0.02839616686105728,-0.08454612642526627
1779964897221258000,16.697258056640624,-0.010416030883789062,-0.01871909387409687,-0.08420636504888535
1779964897237587500,16.71358740234375,-0.015203475952148438,-0.023291805759072304,-0.0792858824133873
1779964897253916700,16.729916748046875,0.003936767578125,-0.018394220620393753,-0.0790625736117363
1779964897270248700,16.746248779296874,0.0039348602294921875,-0.022926008328795433,-0.08372262865304947
1779964897286559000,16.76255908203125,-0.005642890930175781,-0.01802528090775013,-0.0786084458231926
1779964897302911700,16.778911865234374,-0.010434150695800781,-0.01798342913389206,-0.08305800706148148
1779964897319220700,16.795220703125,-0.010439872741699219,-0.017840227112174034,-0.0874919593334198
1779964897335554000,16.811553955078125,-0.005660057067871094,-0.017879415303468704,-0.0824216827750206
1779964897351886300,16.82788623046875,-0.005663871765136719,-0.012787586078047752,-0.07732100039720535
1779964897368215000,16.844215087890625,-0.015241622924804688,-0.02204328216612339,-0.08650383353233337
1779964897384545800,16.8605458984375,-0.00567626953125,-0.022390346974134445,-0.08129950612783432
1779964897400875800,16.876875732421876,-0.024825096130371094,-0.02202477864921093,-0.07603947073221207
1779964897417209000,16.893208984375,-0.005688667297363281,-0.021727221086621284,-0.09002126008272171
1779964897433542400,16.90954248046875,0.0038785934448242188,-0.021518943831324577,-0.07534722238779068
1779964897449884200,16.92588427734375,-0.00569915771484375,-0.02062440663576126,-0.08454552292823792
1779964897466209300,16.942209228515626,-0.015278816223144531,-0.0209680013358593,-0.0744163766503334
1779964897482540000,16.9585400390625,-0.015285491943359375,-0.0159878171980381,-0.07400738447904587
1779964897498869800,16.974869873046874,-0.010504722595214844,-0.024707462638616562,-0.0784652903676033
1779964897515198700,16.99119873046875,-0.010509490966796875,-0.02438993752002716,-0.07814707607030869
1779964897531513300,17.007513427734374,-0.010518074035644531,-0.019402585923671722,-0.07284943014383316
1779964897547856400,17.0238564453125,-0.0057392120361328125,-0.023823346942663193,-0.07234741002321243
1779964897564156000,17.040156005859377,-0.010530471801757812,-0.02840205654501915,-0.07673078030347824
1779964897580507400,17.05650732421875,-0.0009679794311523438,-0.019279316067695618,-0.07617441564798355
1779964897596836900,17.0728369140625,-0.005761146545410156,-0.027785904705524445,-0.08043782413005829
1779964897613166800,17.089166748046875,-0.000988006591796875,-0.018365755677223206,-0.07480742782354355
1779964897629496800,17.105496826171876,-0.015356063842773438,-0.012893740087747574,-0.0741037055850029
1779964897645827000,17.1218271484375,-0.010582923889160156,-0.0227956622838974,-0.06852807849645615
1779964897662171000,17.1381708984375,-0.010595321655273438,-0.013191226869821548,-0.07256551831960678
1779964897678505000,17.1545048828125,-0.0058193206787109375,-0.012816641479730606,-0.07191786915063858
1779964897694810400,17.170810302734374,-0.024970054626464844,-0.01722312718629837,-0.07605981826782227
1779964897711165200,17.187165283203125,-0.03933238983154297,-0.016184639185667038,-0.07148225605487823
1779964897727490000,17.203489990234374,-0.015402793884277344,-0.030067376792430878,-0.07559765875339508
1779964897743821800,17.21982177734375,-0.010622024536132812,-0.02019432932138443,-0.07529859244823456
1779964897760151300,17.2361513671875,-0.024987220764160156,-0.02476683259010315,-0.06993057578802109
1779964897776477200,17.252477294921874,-0.010640144348144531,-0.019576862454414368,-0.08358389884233475
1779964897792799500,17.268799560546874,-0.0010766983032226562,-0.01439792662858963,-0.07344906032085419
1779964897809125000,17.285125,-0.005869865417480469,-0.009432420134544373,-0.07296213507652283
1779964897825458000,17.3014580078125,-0.005878448486328125,-0.018715128302574158,-0.06754488497972488
1779964897841786000,17.3177861328125,-0.0011091232299804688,-0.013585235923528671,-0.07602236419916153
1779964897858118700,17.33411865234375,-0.0011224746704101562,-0.018016673624515533,-0.06548456102609634
1779964897874451500,17.350451416015623,-0.005919456481933594,-0.01772601529955864,-0.06950162351131439
1779964897890772000,17.36677197265625,-0.020290374755859375,-0.012596342712640762,-0.05893059819936752
1779964897907125500,17.38312548828125,-0.02030181884765625,-0.021464936435222626,-0.06754425168037415
1779964897923449000,17.399448974609374,-0.015529632568359375,-0.021007966250181198,-0.06657436490058899
1779964897939789300,17.415789306640626,-0.025110244750976562,-0.020476356148719788,-0.07057925313711166
1779964897956081700,17.43208154296875,-0.02032947540283203,-0.019980136305093765,-0.07969777286052704
1779964897972439000,17.44843896484375,-0.025121688842773438,-0.01539187878370285,-0.07500708848237991
1779964897988774000,17.46477392578125,-0.02033710479736328,-0.01499507948756218,-0.06947397440671921
1779964898005103900,17.481103759765624,0.00359344482421875,-0.019344136118888855,-0.0694313570857048
1779964898021434000,17.49743408203125,0.0035924911499023438,-0.02377573773264885,-0.06930025666952133
1779964898037772300,17.513772216796873,-0.005982398986816406,-0.013018056750297546,-0.06415766477584839
1779964898054069800,17.53006982421875,-0.010767936706542969,-0.01737452670931816,-0.05922058969736099
1779964898070410200,17.54641015625,-0.010770797729492188,-0.02667851746082306,-0.06851743906736374
1779964898086737200,17.562737060546876,-0.010774612426757812,-0.0168084055185318,-0.06813717633485794
1779964898103073500,17.579073486328124,-0.015566825866699219,-0.012233924120664597,-0.06767012923955917
1779964898119400400,17.595400390625,-0.001216888427734375,-0.02136107161641121,-0.05740620940923691
1779964898135730700,17.611730712890626,-0.020368576049804688,-0.011463344097137451,-0.06631957739591599
1779964898152067300,17.6280673828125,-0.020376205444335938,-0.01109694316983223,-0.07047145813703537
1779964898168414500,17.64441455078125,-0.0060272216796875,-0.010060228407382965,-0.06502226740121841
1779964898184729900,17.660729736328125,-0.0060329437255859375,-0.014448903501033783,-0.06446007639169693
1779964898201065000,17.67706494140625,-0.00604248046875,-0.018911179155111313,-0.06853055208921432
1779964898217400800,17.69340087890625,-0.015619277954101562,-0.01841152459383011,-0.06317882984876633
1779964898233725700,17.7097255859375,-0.006053924560546875,-0.013187270611524582,-0.06739974766969681
1779964898250054400,17.726054443359374,-0.01562976837158203,-0.017638444900512695,-0.06215757876634598
1779964898266384600,17.742384521484375,-0.020418167114257812,-0.007739894092082977,-0.061850301921367645
1779964898282713300,17.75871337890625,-0.01563549041748047,-0.021944217383861542,-0.06640919297933578
1779964898299028700,17.77502880859375,-0.01563549041748047,-0.016919072717428207,-0.0615847185254097
1779964898315361500,17.791361572265625,-0.0060634613037109375,-0.01658930629491806,-0.06625054031610489
1779964898331674600,17.807674560546875,-0.01563549041748047,-0.016409363597631454,-0.06618025153875351
1779964898348021800,17.824021728515625,-0.006064414978027344,-0.016254223883152008,-0.06128426641225815
1779964898364351700,17.840351806640626,-0.00128173828125,-0.01594557985663414,-0.06097903102636337
1779964898380682200,17.85668212890625,-0.010853767395019531,-0.011028926819562912,-0.06087856739759445
1779964898397015800,17.873015869140627,-0.0060710906982421875,-0.020258046686649323,-0.07012854516506195
1779964898413354500,17.8893544921875,-0.006076812744140625,-0.010566722601652145,-0.0553884357213974
1779964898429669000,17.905669189453125,-0.001293182373046875,-0.010398797690868378,-0.05992148071527481
1779964898446016000,17.92201611328125,-0.010865211486816406,-0.005494199693202972,-0.06462522596120834
1779964898462326000,17.938325927734375,-0.010869026184082031,-0.005376581102609634,-0.06425944715738297
1779964898478680800,17.954680908203127,-0.020442962646484375,-0.010123584419488907,-0.05931208282709122
1779964898495006700,17.9710068359375,-0.015656471252441406,-0.01964835822582245,-0.059355832636356354
1779964898511336200,17.987336181640625,-0.006085395812988281,-0.019603751599788666,-0.05453364551067352
1779964898527664600,18.00366455078125,-0.0060901641845703125,-0.010639868676662445,-0.04936904460191727
1779964898543962000,18.019962158203125,-0.006099700927734375,-0.014789994806051254,-0.06312861293554306
1779964898560299300,18.03629931640625,-0.0013170242309570312,-0.009845040738582611,-0.057999156415462494
1779964898576643800,18.052643798828125,-0.010896682739257812,-0.005097519606351852,-0.057412706315517426
1779964898592973300,18.068973388671875,-0.0061206817626953125,-0.0004252903163433075,-0.05678846687078476
1779964898609303600,18.085303466796876,-0.010914802551269531,-0.00519956648349762,-0.056198202073574066
1779964898625633800,18.1016337890625,-0.015705108642578125,-0.009945210069417953,-0.05097964406013489
1779964898641968000,18.117968017578125,-0.025282859802246094,-0.01484205573797226,-0.06015098839998245
1779964898658303500,18.134303466796876,-0.01571369171142578,-0.014820396900177002,-0.06004456430673599
1779964898674644500,18.15064453125,-0.010929107666015625,-0.014778085052967072,-0.050345659255981445
1779964898690952000,18.166951904296877,-0.015714645385742188,-0.014790479093790054,-0.055092521011829376
1779964898707297800,18.1832978515625,-0.0252838134765625,-0.019570518285036087,-0.055298350751399994
1779964898723631600,18.199631591796877,-0.01571178436279297,-0.010067973285913467,-0.055388353765010834
1779964898739955000,18.215954833984377,-0.02049541473388672,-0.005456246435642242,-0.055591829121112823
1779964898756271900,18.23227197265625,-0.010921478271484375,-0.005688533186912537,-0.055892445147037506
1779964898772618200,18.2486181640625,0.0034379959106445312,-0.010737650096416473,-0.05130906403064728
1779964898788918300,18.264918212890624,0.008220672607421875,-0.011055350303649902,-0.05127397179603577
1779964898805265200,18.28126513671875,0.0034303665161132812,-0.016103409230709076,-0.046179287135601044
1779964898821592600,18.297592529296875,-0.02050304412841797,-0.011440187692642212,-0.050688907504081726
1779964898837924600,18.313924560546877,-0.020505905151367188,-0.0068834200501441956,-0.05052073299884796
1779964898854259200,18.33025927734375,-0.010938644409179688,-0.01670444756746292,-0.050392210483551025
1779964898870585900,18.3465859375,-0.0109405517578125,-0.012193571776151657,-0.059924401342868805
1779964898886901800,18.36290185546875,-0.010947227478027344,-0.012418385595083237,-0.05952657014131546
1779964898903259400,18.37925927734375,-0.010949134826660156,-0.012291304767131805,-0.04973059892654419
1779964898919592000,18.395592041015625,-0.006165504455566406,-0.007445026189088821,-0.04960453510284424
1779964898935904000,18.411904052734375,-0.015737533569335938,-0.007572770118713379,-0.04957713186740875
1779964898952245500,18.42824560546875,-0.02052593231201172,-0.007814072072505951,-0.054237596690654755
1779964898968567300,18.4445673828125,-0.02052593231201172,-0.0032695531845092773,-0.04474639147520065
1779964898984901000,18.460901123046874,-0.015737533569335938,-0.008043915033340454,-0.044972218573093414
1779964899001247700,18.477247802734375,-0.020519256591796875,-0.012760717421770096,-0.049965932965278625
1779964899017569500,18.493569580078123,-0.015730857849121094,-0.012690674513578415,-0.05490914732217789
1779964899033883100,18.509883056640625,-0.01572704315185547,-0.012719254940748215,-0.05526099354028702
1779964899050215400,18.52621533203125,-0.02529621124267578,-0.01741059124469757,-0.05055151879787445
1779964899066543600,18.542543701171876,-0.010937690734863281,-0.02215118706226349,-0.05544421821832657
1779964899082878200,18.558878173828123,-0.0013647079467773438,-0.008596658706665039,-0.055656589567661285
1779964899099209200,18.575209228515625,-0.0013637542724609375,-0.008912786841392517,-0.05585939437150955
1779964899115537200,18.591537109375,-0.0013637542724609375,-0.008887704461812973,-0.04632066935300827
1779964899131867100,18.6078671875,-0.010936737060546875,-0.004224002361297607,-0.04615800827741623
1779964899148212000,18.6242119140625,-0.01572704315185547,-0.017999637871980667,-0.05061802268028259
1779964899164540200,18.6405400390625,-0.015732765197753906,-0.008404746651649475,-0.05503871291875839
1779964899180872200,18.6568720703125,-0.00138092041015625,-0.013266120105981827,-0.049938932061195374
1779964899197201200,18.673201171875,-0.001384735107421875,-0.0036353841423988342,-0.05912252515554428
1779964899213535000,18.689534912109377,-0.006175041198730469,0.0011950768530368805,-0.05396781116724014
1779964899229858000,18.705858154296877,-0.020538330078125,-0.003536757081747055,-0.048724934458732605
1779964899246156300,18.72215625,-0.034900665283203125,-0.013223718851804733,-0.053702808916568756
1779964899262506000,18.738506103515626,-0.02532958984375,-0.01818219944834709,-0.05317135900259018
1779964899278835200,18.754835205078123,-0.020544052124023438,-0.013648707419633865,-0.04374105483293533
1779964899295168000,18.77116796875,-0.020544052124023438,-0.009147509932518005,-0.04378313571214676
1779964899311498800,18.787498779296875,-0.006191253662109375,-0.009276464581489563,-0.048358261585235596
1779964899327828500,18.803828369140625,-0.0014066696166992188,-0.013988375663757324,-0.05779983848333359
1779964899344155400,18.8201552734375,0.0033807754516601562,-0.018585123121738434,-0.048262760043144226
1779964899360482300,18.836482421875,-0.001407623291015625,0.0004492327570915222,-0.048102229833602905
1779964899376822500,18.852822509765623,-0.010983467102050781,-0.004590131342411041,-0.047933757305145264
1779964899393162800,18.869162841796875,-0.001415252685546875,-0.009561609476804733,-0.04777371883392334
1779964899409491200,18.8854912109375,-0.0014209747314453125,-0.010247152298688889,-0.042553819715976715
1779964899425824000,18.901823974609375,-0.006214141845703125,-0.009746141731739044,-0.05156021565198898
1779964899442140200,18.91814013671875,-0.015791893005371094,-0.009686898440122604,-0.04150117188692093
1779964899458503700,18.934503662109375,-0.025366783142089844,-0.004849821329116821,-0.0411694273352623
1779964899474815000,18.95081494140625,-0.020583152770996094,-0.014998454600572586,-0.04102609306573868
1779964899491139800,18.967139892578125,-0.020585060119628906,-0.010329056531190872,-0.05053438991308212
1779964899507472600,18.98347265625,-0.011014938354492188,-0.010462962090969086,-0.045703575015068054
1779964899523800300,18.99980029296875,-0.015799522399902344,-0.010577395558357239,-0.04585343599319458
1779964899540119800,19.016119873046875,-0.01579761505126953,-0.005394246429204941,-0.04127424210309982
1779964899556449800,19.03244970703125,-0.001438140869140625,-0.015375830233097076,-0.04160930961370468
1779964899572780500,19.048780517578123,-0.006220817565917969,-0.015735842287540436,-0.046777620911598206
1779964899589098000,19.065097900390626,-0.0014324188232421875,-0.0062883757054805756,-0.047012701630592346
1779964899605428700,19.0814287109375,-0.0062160491943359375,-0.0017309784889221191,-0.04243827611207962
1779964899621762000,19.097761962890626,-0.006214141845703125,-0.006547600030899048,-0.042599476873874664
1779964899638121500,19.11412158203125,-0.006215095520019531,-0.007186375558376312,-0.03299439698457718
1779964899654440700,19.130440673828126,-0.0110015869140625,-0.006572660058736801,-0.047300294041633606
1779964899670783500,19.146783447265626,-0.011003494262695312,-0.006760977208614349,-0.04236631840467453
1779964899687082000,19.16308203125,-0.011005401611328125,-0.01168537512421608,-0.0422847643494606
1779964899703435000,19.17943505859375,-0.0014400482177734375,-0.002253051847219467,-0.04190128296613693
1779964899719765200,19.19576513671875,-0.015802383422851562,-0.0024163462221622467,-0.03673412650823593
1779964899736068900,19.21206884765625,-0.01580810546875,-0.007200129330158234,-0.03626521676778793
1779964899752423400,19.22842333984375,-0.025384902954101562,-0.0023147836327552795,-0.054954446852207184
1779964899768725200,19.244725341796876,-0.02060222625732422,0.002317409962415695,-0.040464676916599274
1779964899785058600,19.26105859375,-0.0110321044921875,-0.0026042871177196503,-0.04521550238132477
1779964899801402000,19.277402099609375,-0.011028289794921875,-0.003168981522321701,-0.04068862646818161
1779964899817716200,19.29371630859375,-0.011029243469238281,-0.012785643339157104,-0.0454297810792923
1779964899834065000,19.31006494140625,0.008116722106933594,-0.017532996833324432,-0.04084388166666031
1779964899850379000,19.32637890625,-0.006243705749511719,-0.008185122162103653,-0.03595034033060074
1779964899866713000,19.342713134765624,-0.011029243469238281,-0.00826069712638855,-0.04074021428823471
1779964899883060000,19.35906005859375,-0.0062465667724609375,-0.0035282745957374573,-0.03578122705221176
1779964899899400400,19.375400390625,-0.006247520446777344,-0.008389711380004883,-0.040491409599781036
1779964899915726600,19.3917265625,-0.011034965515136719,-0.008473746478557587,-0.045193687081336975
1779964899932053500,19.408053466796876,-0.0158233642578125,-0.00396597757935524,-0.04029291123151779
1779964899948390000,19.424389892578127,-0.006252288818359375,-0.008883494883775711,-0.04510165750980377
1779964899964716500,19.440716552734376,-0.01103973388671875,0.0006373785436153412,-0.0401928648352623
1779964899981043700,19.457043701171877,-0.011042594909667969,-0.008926548063755035,-0.03992340713739395
1779964899997380400,19.47338037109375,-0.011048316955566406,-0.008322961628437042,-0.04433412849903107
1779964900013698800,19.48969873046875,-0.011054039001464844,-0.00840744748711586,-0.039127252995967865
1779964900030019600,19.50601953125,-0.0014858245849609375,0.0012100040912628174,-0.038910381495952606
1779964900046353400,19.522353515625,-0.00148773193359375,0.0012923777103424072,-0.029083050787448883
1779964900062683100,19.53868310546875,-0.0014934539794921875,0.0005775801837444305,-0.03350701183080673
1779964900079013600,19.555013671875,-0.020639419555664062,-0.013763058930635452,-0.03320477157831192
1779964900095343900,19.57134375,-0.02064037322998047,-0.009058181196451187,-0.04269269108772278
1779964900111673600,19.587673583984376,-0.015855789184570312,-0.009187262505292892,-0.03793018311262131
1779964900128019200,19.604019287109374,-0.0206451416015625,-0.0038856305181980133,-0.04243750870227814
1779964900144348200,19.62034814453125,-0.006289482116699219,-0.003926530480384827,-0.03763548284769058
1779964900160664000,19.6366640625,-0.011074066162109375,-0.004027172923088074,-0.03774852305650711
1779964900177003300,19.653003173828125,-0.011075019836425781,-0.0042145512998104095,-0.03771456331014633
1779964900193343500,19.669343505859374,-0.001506805419921875,-0.009832713752985,-0.03754354268312454
1779964900209667300,19.685667236328126,-0.0015115737915039062,-0.0052415914833545685,-0.042003095149993896
1779964900225998300,19.701998291015624,0.0032711029052734375,-0.01478409394621849,-0.03694089502096176
1779964900242312200,19.718312255859374,0.00804901123046875,-0.009793020784854889,-0.03633350878953934
1779964900258628000,19.734628173828124,-0.01110076904296875,-0.00902353972196579,-0.03568824380636215
1779964900274975000,19.75097509765625,-0.015891075134277344,0.00079398974776268,-0.03518263250589371
1779964900291305200,19.76730517578125,-0.011113166809082031,-0.0038837790489196777,-0.03941582143306732
1779964900307635200,19.78363525390625,-0.015903472900390625,-0.0086619071662426,-0.034225545823574066
1779964900323964700,19.799964599609375,-0.035050392150878906,-0.00849083811044693,-0.03382311016321182
1779964900340295400,19.81629541015625,-0.02548503875732422,0.001118633896112442,-0.038141824305057526
1779964900356608800,19.83260888671875,-0.011129379272460938,-0.003621235489845276,-0.04278623312711716
