time,seconds_elapsed,z,y,x
1779964880650295300,0.12629541015625,-0.22021691501140594,-2.0036380290985107,0.5850561857223511
1779964880666627800,0.1426279296875,-0.23609942197799683,-3.1696269512176514,0.5232060551643372
1779964880682952000,0.158951904296875,-0.48685958981513977,-3.9987239837646484,0.45295658707618713
1779964880699283000,0.175282958984375,-0.9783006906509399,-3.9350411891937256,0.265573650598526
1779964880715625500,0.19162548828125,-1.4311045408248901,-3.4219143390655518,-0.07681630551815033
1779964880731968300,0.20796826171875,-1.5117387771606445,-2.598620653152466,-0.22540926933288574
1779964880748272000,0.224272216796875,-1.2487612962722778,-1.0974193811416626,-0.2863430976867676
1779964880764606200,0.240606201171875,-0.6417139172554016,-0.3927863538265228,-0.22861631214618683
1779964880780931800,0.256931884765625,-0.3651446998119354,-1.4300355911254883,0.27290403842926025
1779964880797270300,0.273270263671875,-0.10231992602348328,-2.437047004699707,0.5962044596672058
1779964880813595400,0.289595458984375,0.39248090982437134,-2.7342329025268555,0.932485818862915
1779964880829926100,0.305926025390625,0.6258314251899719,-1.6001615524291992,1.0241155624389648
1779964880846272500,0.3222724609375,0.7237225770950317,-0.7915286421775818,0.9669997096061707
1779964880862583000,0.3385830078125,0.7898487448692322,-1.0170906782150269,0.8868235945701599
1779964880878929400,0.354929443359375,1.467145562171936,-1.521665334701538,0.6287330389022827
1779964880895259100,0.371259033203125,1.2263119220733643,-1.690264105796814,0.5377141237258911
1779964880911589400,0.38758935546875,0.5207626223564148,-1.140485405921936,0.8205447196960449
1779964880927917300,0.403917236328125,0.32650747895240784,-1.209971308708191,1.1572842597961426
1779964880944249900,0.420249755859375,0.2561052441596985,-1.6264287233352661,1.2811371088027954
1779964880960579300,0.436579345703125,0.30573806166648865,-0.8237518072128296,1.0560332536697388
1779964880976909600,0.45290966796875,0.4053090810775757,-0.21731531620025635,0.7098253965377808
1779964880993235500,0.4692353515625,0.42378777265548706,-0.5407684445381165,0.5164865851402283
1779964881009572900,0.48557275390625,0.6997461318969727,-1.3658946752548218,0.6397286057472229
1779964881025896700,0.501896728515625,2.629774808883667,-2.115579128265381,1.4095715284347534
1779964881042232000,0.518232177734375,2.3408355712890625,-1.547932505607605,2.166433572769165
1779964881058558000,0.534557861328125,0.736245334148407,-1.7124079465866089,1.6349807977676392
1779964881074889700,0.5508896484375,0.3778201639652252,-1.9372063875198364,0.6449210047721863
1779964881091215400,0.56721533203125,1.1383473873138428,-1.707215666770935,0.423329621553421
1779964881107552000,0.583552001953125,1.7119498252868652,-1.887115478515625,0.7446447610855103
1779964881123881000,0.599880859375,2.060601234436035,-2.5641069412231445,1.4378241300582886
1779964881140191000,0.61619091796875,2.160783052444458,-3.598301649093628,2.2632558345794678
1779964881156522800,0.632522705078125,2.174833059310913,-4.682740211486816,2.7091872692108154
1779964881172839000,0.6488388671875,2.420706272125244,-5.633552074432373,2.914438009262085
1779964881189187800,0.665187744140625,3.0335566997528076,-5.392718315124512,2.9975156784057617
1779964881205502500,0.68150244140625,3.8539488315582275,-3.584404468536377,2.4781274795532227
1779964881221846000,0.697845947265625,4.380514621734619,-1.7160731554031372,1.2406673431396484
1779964881238166500,0.71416650390625,4.416861057281494,-1.0528262853622437,0.3897320330142975
1779964881254506200,0.73050634765625,4.164421081542969,-1.2286027669906616,0.06322455406188965
1779964881270835500,0.74683544921875,3.8403570652008057,-1.6731599569320679,0.15882496535778046
1779964881287166200,0.763166259765625,3.752392530441284,-1.7548631429672241,0.3930917978286743
1779964881303495200,0.7794951171875,3.9457314014434814,-1.232573390007019,0.5902485251426697
1779964881319824600,0.79582470703125,3.9660425186157227,-0.3217732608318329,0.6753115057945251
1779964881336146000,0.81214599609375,3.6806159019470215,0.10644327104091644,0.6882924437522888
1779964881352499700,0.828499755859375,3.3599116802215576,0.044287730008363724,0.7499898076057434
1779964881368824800,0.844824951171875,3.3644931316375732,-0.09285151958465576,0.8323038816452026
1779964881385162500,0.86116259765625,3.677103281021118,-0.1820378452539444,0.8600982427597046
1779964881401485000,0.877485107421875,3.874260187149048,0.1108720451593399,0.8645270466804504
1779964881417824300,0.89382421875,2.911994695663452,-1.5209017992019653,0.18112154304981232
1779964881434145800,0.910145751953125,1.5256359577178955,-2.9385671615600586,-1.0532844066619873
1779964881450478600,0.926478515625,-0.1388191282749176,-3.0854804515838623,-2.300213098526001
1779964881466806500,0.942806640625,-0.06520986557006836,-2.629469394683838,-2.517833709716797
1779964881483110000,0.95910986328125,0.930347740650177,-2.0170769691467285,-1.7869335412979126
1779964881499469600,0.975469482421875,1.6476563215255737,-1.3964380025863647,-1.107956886291504
1779964881515784700,0.99178466796875,1.7008016109466553,-1.5012013912200928,-0.6684392690658569
1779964881532125200,1.008125244140625,1.4159855842590332,-1.4811954498291016,-0.4265366494655609
1779964881548447500,1.024447509765625,0.9686795473098755,-1.1058188676834106,-0.29367345571517944
1779964881564777200,1.040777099609375,0.5974262356758118,-0.6401867866516113,-0.2243402600288391
1779964881581120300,1.057120361328125,0.8022187948226929,-0.3695734739303589,-0.2742784917354584
1779964881597449000,1.073448974609375,1.2386820316314697,-0.4583016633987427,-0.5590944290161133
1779964881613777000,1.08977685546875,1.169806957244873,-0.6006332635879517,-0.9894489645957947
1779964881630112300,1.1061123046875,1.3779592514038086,0.7570147514343262,-1.218676209449768
1779964881646422500,1.122422607421875,2.375044107437134,1.3466523885726929,-1.2695306539535522
1779964881662755600,1.138755615234375,4.3006439208984375,1.0415252447128296,-1.0500773191452026
1779964881679083000,1.1550830078125,3.606548309326172,1.0221302509307861,-0.8260425329208374
1779964881695418600,1.171418701171875,1.554804801940918,-0.6525567770004272,-0.8330674767494202
1779964881711742000,1.187741943359375,0.6137668490409851,-1.5332717895507812,-1.3045027256011963
1779964881728080400,1.204080322265625,1.6294829845428467,0.6805039048194885,-1.1539244651794434
1779964881744403000,1.22040283203125,2.2773056030273438,-0.8886561989784241,-0.8281805515289307
1779964881760739000,1.236739013671875,2.3861923217773438,-1.179580807685852,-0.39553526043891907
1779964881777063000,1.25306298828125,2.300671339035034,-0.40362921357154846,-0.16493362188339233
1779964881793382700,1.269382568359375,2.0370829105377197,0.16539175808429718,-0.07223481684923172
1779964881809726500,1.2857265625,1.8839083909988403,0.9921978712081909,0.3718642294406891
1779964881826034700,1.30203466796875,1.8099937438964844,1.3364204168319702,0.540921151638031
1779964881842403800,1.31840380859375,2.001347303390503,0.644768238067627,-0.15317445993423462
1779964881858733600,1.334733642578125,1.0563386678695679,0.7826710939407349,-0.29016098380088806
1779964881875060200,1.351060302734375,-0.3810271918773651,0.2854267954826355,-0.3549126982688904
1779964881891386000,1.36738623046875,-1.337031364440918,0.5839871764183044,-0.22815817594528198
1779964881907705000,1.383705078125,-2.162921190261841,1.0992519855499268,-0.20372356474399567
1779964881924049200,1.400049072265625,-2.059837579727173,0.9239336848258972,0.00045814894838258624
1779964881940380200,1.416380126953125,-1.138958215713501,1.2264647483825684,0.5287038683891296
1779964881956710000,1.4327099609375,-0.323147714138031,0.6320928335189819,0.3124575614929199
1779964881973041000,1.449041015625,0.6018549799919128,-0.05696318298578262,0.5309945940971375
1779964881989364000,1.465364013671875,0.7637342810630798,-0.2583959996700287,0.4977024495601654
1779964882005705700,1.481705810546875,0.3761402666568756,0.23655757308006287,0.12568552792072296
1779964882022025500,1.498025390625,-0.22876903414726257,0.6911939978599548,-0.19883663952350616
1779964882038363000,1.51436279296875,-0.7669413089752197,0.7887797355651855,-0.2223549485206604
1779964882054682400,1.530682373046875,-0.9865473508834839,0.5403103232383728,0.04764748737215996
1779964882071028000,1.547028076171875,-0.7035640478134155,0.3787364661693573,0.3072652220726013
1779964882087346700,1.5633466796875,-0.47479501366615295,0.1950187236070633,0.4308127164840698
1779964882103677400,1.579677490234375,-0.4335615932941437,0.00015271631127689034,0.3914119005203247
1779964882120010000,1.596010009765625,-0.4492913782596588,-0.12751811742782593,0.2819143235683441
1779964882136312600,1.6123125,-0.2532036304473877,-0.5398521423339844,0.1966986060142517
1779964882152656100,1.62865625,-0.5216789245605469,-0.9095783233642578,0.23105977475643158
1779964882168982800,1.644982666015625,-0.07238753139972687,-1.5920675992965698,0.5687155723571777
1779964882185315800,1.66131591796875,0.5557346343994141,-2.8240299224853516,1.114981770515442
1779964882201646600,1.677646484375,0.821461021900177,-1.2945761680603027,0.8472700715065002
1779964882217976300,1.693976318359375,0.5396994352340698,-1.2701416015625,0.7202101349830627
1779964882234306600,1.710306640625,0.04856378585100174,-3.0894510746002197,0.7831292152404785
1779964882250636000,1.726635986328125,-0.25992316007614136,-2.954144239425659,0.6165157556533813
1779964882266966500,1.742966552734375,0.006108652334660292,-1.5048664808273315,-0.37522396445274353
1779964882283296000,1.7592958984375,0.23655757308006287,1.4981470108032227,-0.8823948502540588
1779964882299613400,1.775613525390625,0.631481945514679,3.718031406402588,-1.3854423761367798
1779964882315946000,1.791946044921875,2.6030495166778564,2.721251964569092,-1.1623238325119019
1779964882332299300,1.80829931640625,4.713588714599609,1.2959506511688232,-1.7440202236175537
1779964882348634400,1.82463427734375,5.084537029266357,1.7954856157302856,-1.4485142230987549
1779964882364960500,1.84096044921875,3.3313536643981934,1.7043139934539795,-0.8074111342430115
1779964882381266700,1.8572666015625,1.471421718597412,0.7874053120613098,0.19379699230194092
1779964882397631000,1.873630859375,0.19593502581119537,-0.00733038317412138,0.36621370911598206
1779964882413940000,1.88993994140625,-0.1287398487329483,0.02871066704392433,0.3335324227809906
1779964882430280400,1.906280517578125,0.0734565481543541,-0.10751228034496307,0.2545780837535858
1779964882446609200,1.922609130859375,0.15622878074645996,-0.21319197118282318,0.3058907687664032
1779964882462936600,1.9389365234375,-0.16279558837413788,-0.056352317333221436,0.28955012559890747
1779964882479285200,1.95528515625,-0.755182147026062,0.6113234162330627,0.058184914290905
1779964882495601200,1.97160107421875,-0.9166033267974854,1.5937473773956299,-0.12140946835279465
1779964882511926000,1.987926025390625,-0.875064492225647,2.3403775691986084,-0.22678372263908386
1779964882528263200,2.00426318359375,-0.6826419234275818,2.19163179397583,-0.3810271918773651
1779964882544590300,2.02059033203125,-0.13118331134319305,1.4477506875991821,-0.7434229850769043
1779964882560920600,2.036920654296875,0.03237585723400116,1.040150761604309,-0.6908885836601257
1779964882577250800,2.053250732421875,-0.2681698501110077,1.0503827333450317,-0.55695641040802
1779964882593580500,2.06958056640625,-0.3168863356113434,0.8058840036392212,-0.6582072973251343
1779964882609906700,2.08590673828125,-0.3052799105644226,0.6362161636352539,-0.9101892113685608
1779964882626228000,2.10222802734375,-0.24083362519741058,0.5887213945388794,-1.0719157457351685
1779964882642541300,2.118541259765625,-0.1547016203403473,0.5765040516853333,-1.0951286554336548
1779964882658883300,2.13488330078125,-0.07712173461914062,0.5984952449798584,-1.0477865934371948
1779964882675223000,2.15122314453125,-0.008857546374201775,0.6879869699478149,-0.9819658994674683
1779964882691546000,2.167546142578125,0.0959058403968811,0.7625125646591187,-0.897513747215271
1779964882707876900,2.183876953125,0.21594086289405823,0.8921687006950378,-0.7562511563301086
1779964882724195800,2.20019580078125,0.3055853247642517,1.0659598112106323,-0.6168211698532104
1779964882740537000,2.216537109375,0.2929098904132843,1.197601318359375,-0.5881105065345764
1779964882756878300,2.23287841796875,0.15683965384960175,1.2079859972000122,-0.6250678896903992
1779964882773197000,2.249197021484375,0.0328340083360672,1.1640037298202515,-0.6111706495285034
1779964882789526000,2.265526123046875,-0.012217304669320583,1.201724648475647,-0.560468852519989
1779964882805857000,2.28185693359375,0.03894266113638878,1.1899654865264893,-0.5389358401298523
1779964882822204700,2.29820458984375,0.1238529309630394,1.078940749168396,-0.5351179838180542
1779964882838531300,2.31453125,0.15577064454555511,1.0885618925094604,-0.5187773108482361
1779964882854855200,2.330855224609375,0.1258382350206375,1.2043207883834839,-0.47250425815582275
1779964882871195100,2.347195068359375,0.09086620807647705,1.23394775390625,-0.3914119005203247
1779964882887518700,2.363518798828125,0.13377949595451355,1.1385000944137573,-0.32940909266471863
1779964882903851800,2.379851806640625,0.09605856239795685,1.168585181236267,-0.28985556960105896
1779964882920175000,2.396175048828125,0.08109235763549805,1.3506230115890503,-0.244804248213768
1779964882936515600,2.412515625,0.13087788224220276,1.5399912595748901,-0.1690569519996643
1779964882952837400,2.42883740234375,0.1996002197265625,1.517236590385437,-0.09789115190505981
1779964882969175300,2.44517529296875,0.24388794600963593,1.5490015745162964,-0.04734205827116966
1779964882985505000,2.461505126953125,0.3949243724346161,1.6125315427780151,-0.05054909735918045
1779964883001809400,2.477809326171875,0.4966334402561188,1.6907222270965576,-0.04993823543190956
1779964883018162400,2.494162353515625,0.6279694437980652,1.6856826543807983,-0.027641652151942253
1779964883034479900,2.51047998046875,0.7507534027099609,1.819003939628601,-0.020005837082862854
1779964883050819600,2.526819580078125,0.9126327037811279,2.0050125122070312,-0.056352317333221436
1779964883067171600,2.543171630859375,1.0855075120925903,2.1908681392669678,-0.11010845750570297
1779964883083482000,2.559482177734375,1.1218540668487549,2.531730890274048,-0.06704246252775192
1779964883099811000,2.57581103515625,1.0155634880065918,3.363424062728882,0.005345070734620094
1779964883116119600,2.59211962890625,0.5904012322425842,4.752073287963867,0.16523905098438263
1779964883132457700,2.608457763671875,0.18936823308467865,5.451056003570557,0.3617849349975586
1779964883148788200,2.624788330078125,-0.04917465150356293,5.932417869567871,0.5372560024261475
1779964883165117400,2.641117431640625,0.06887505948543549,5.911801338195801,0.32070425152778625
1779964883181448400,2.657448486328125,0.4335615932941437,5.463426113128662,-0.4008803069591522
1779964883197774600,2.673774658203125,0.4579962193965912,5.130046367645264,-0.2880229651927948
1779964883214111700,2.69011181640625,0.2733621895313263,4.108832359313965,-0.12828169763088226
1779964883230438000,2.70643798828125,0.2935207486152649,2.69651198387146,-0.1846340149641037
1779964883246768400,2.722768310546875,0.34086281061172485,1.3646728992462158,-0.21563543379306793
1779964883263096600,2.7390966796875,0.3727805018424988,0.5542075037956238,-0.23060162365436554
1779964883279429600,2.7554296875,0.3501785099506378,0.470671683549881,-0.21410827338695526
1779964883295754500,2.77175439453125,0.33536502718925476,0.6180428862571716,-0.15302173793315887
1779964883312089900,2.78808984375,0.29336804151535034,0.8355109095573425,-0.060475658625364304
1779964883328437000,2.80443701171875,0.23426681756973267,0.927446186542511,0.02122756652534008
1779964883344744200,2.820744140625,0.17592918872833252,0.7851145267486572,0.032070424407720566
1779964883361096700,2.8370966796875,0.10354165732860565,0.6317873597145081,0.06154467165470123
1779964883377454000,2.8534541015625,0.02779436856508255,0.3923282027244568,0.21899518370628357
1779964883393751600,2.86975146484375,0.00733038317412138,0.2626720666885376,0.3631593883037567
1779964883410082600,2.88608251953125,0.038026362657547,0.3300199508666992,0.4086688458919525
1779964883426412000,2.902412109375,0.05390885844826698,0.4970915913581848,0.28298333287239075
1779964883442738400,2.918738525390625,0.08735372871160507,0.4216497242450714,0.14355333149433136
1779964883459061800,2.935061767578125,0.08597928285598755,0.2509129047393799,0.0354301854968071
1779964883475398000,2.95139794921875,0.08827003091573715,0.12996158003807068,-0.03833179548382759
1779964883491734300,2.967734375,0.08964447677135468,0.12308934330940247,-0.1088867336511612
1779964883508063000,2.98406298828125,0.08078692853450775,0.1417207419872284,-0.11239920556545258
1779964883524392200,3.00039208984375,0.0503963828086853,0.12965615093708038,-0.07101308554410934
1779964883540718600,3.016718505859375,0.03390302136540413,0.13041973114013672,-0.03222314268350601
1779964883557056000,3.033055908203125,0.01924225501716137,0.1459967941045761,-0.003054326167330146
1779964883573375200,3.049375244140625,0.0065668015740811825,0.13057245314121246,0.017867809161543846
1779964883589720300,3.06572021484375,-0.001679879380390048,0.10445795953273773,0.01237002108246088
1779964883606024700,3.082024658203125,-0.004428773187100887,0.10690141469240189,0.016493361443281174
1779964883622358500,3.098358642578125,-0.004886921960860491,0.15653422474861145,0.010537425056099892
1779964883638689000,3.11468896484375,-0.012522737495601177,0.17409659922122955,0.00931569468230009
1779964883654996700,3.130996826171875,-0.013133603148162365,0.22128593921661377,-0.014355333521962166
1779964883671349200,3.147349365234375,-0.014966198243200779,0.26679539680480957,-0.032070424407720566
1779964883687677200,3.16367724609375,-0.020463986322283745,0.2996293902397156,-0.038026362657547
1779964883704020000,3.18002001953125,-0.02672535367310047,0.32757648825645447,-0.043218716979026794
1779964883720342300,3.19634228515625,-0.03787364438176155,0.33597588539123535,-0.018936822190880775
1779964883736657200,3.2126572265625,-0.05100724846124649,0.27229318022727966,0.023976460099220276
1779964883752999200,3.228999267578125,-0.06704246252775192,0.1661553531885147,0.11591167747974396
1779964883769329700,3.24532958984375,-0.07284568250179291,0.19578230381011963,0.10491610318422318
1779964883785659400,3.261659423828125,-0.06062837690114975,0.23350323736667633,0.01863138936460018
1779964883801989600,3.27798974609375,-0.05268712714314461,0.2886338233947754,-0.04505131021142006
1779964883818332400,3.29433251953125,-0.05146539583802223,0.3404046595096588,-0.06352998316287994
1779964883834654200,3.310654296875,-0.052228979766368866,0.399200439453125,-0.0858265683054924
1779964883850970400,3.326970458984375,-0.04795292019844055,0.4677700698375702,-0.1059851199388504
1779964883867299800,3.3432998046875,-0.04337143152952194,0.5308418869972229,-0.12247848510742188
1779964883883626500,3.35962646484375,-0.02733621932566166,0.5867360830307007,-0.13316862285137177
1779964883899974400,3.375974365234375,-0.012980886735022068,0.6803511381149292,-0.126143679022789
1779964883916299800,3.3922998046875,0.010537425056099892,0.7260133624076843,-0.10002918541431427
1779964883932630300,3.40863037109375,0.05375614017248154,0.7582364678382874,-0.0731511116027832
1779964883948958500,3.42495849609375,0.08109235763549805,0.835358202457428,-0.06352998316287994
1779964883965276400,3.4412763671875,0.09056077152490616,0.8912523984909058,-0.05467243865132332
1779964883981636600,3.45763671875,0.10170906037092209,0.9476047158241272,-0.019089538604021072
1779964883997958700,3.473958740234375,0.12751811742782593,1.05404794216156,0.029168816283345222
1779964884014292200,3.490292236328125,0.1595885455608368,1.1775954961776733,0.017409659922122955
1779964884030625000,3.506625,0.166460782289505,1.211498498916626,-0.0024434609804302454
1779964884046954000,3.5229541015625,0.19257527589797974,1.2623530626296997,-0.078343465924263
1779964884063284200,3.5392841796875,0.2710714638233185,1.3220651149749756,-0.12079860270023346
1779964884079614200,3.5556142578125,0.2698497176170349,1.3005321025848389,-0.10018189996480942
1779964884095923700,3.571923828125,0.38637226819992065,1.3753631114959717,-0.12186761945486069
1779964884112260000,3.588260009765625,0.4392121136188507,1.2563971281051636,-0.15821409225463867
1779964884128589300,3.60458935546875,0.4534147381782532,1.0951286554336548,-0.18570303916931152
1779964884144920300,3.62092041015625,0.6664539575576782,1.0827586650848389,-0.15225815773010254
1779964884161250800,3.637250732421875,0.7483099102973938,0.6798930168151855,-0.12370020896196365
1779964884177580500,3.65358056640625,1.1197160482406616,0.6834055185317993,0.21533000469207764
1779964884193919700,3.669919677734375,1.472490668296814,1.392925500869751,0.5688682794570923
1779964884210244900,3.686244873046875,1.5876387357711792,2.162921190261841,0.7582364678382874
1779964884226567700,3.702567626953125,1.6354389190673828,2.398409605026245,0.774118959903717
1779964884242903800,3.71890380859375,1.8332066535949707,2.7233898639678955,0.584750771522522
1779964884259229400,3.7352294921875,1.7806721925735474,3.550806999206543,0.247094988822937
1779964884275547600,3.751547607421875,1.8680258989334106,4.082412242889404,0.11468994617462158
1779964884291891000,3.767890869140625,1.6525431871414185,3.947869300842285,-0.06062837690114975
1779964884308243000,3.784242919921875,1.4937182664871216,3.8116464614868164,-0.016493361443281174
1779964884324564200,3.800564208984375,1.1136072874069214,4.800637245178223,0.02886338345706463
1779964884340899000,3.816899169921875,1.069472312927246,5.041317939758301,0.2431243658065796
1779964884357226000,3.83322607421875,1.2997685670852661,4.420373439788818,0.5639813542366028
1779964884373550300,3.84955029296875,1.2664763927459717,4.175569534301758,0.49495357275009155
1779964884389887000,3.865886962890625,0.5010622143745422,2.0305161476135254,0.3124575614929199
1779964884406211000,3.882211181640625,-0.036193765699863434,-0.22449298202991486,-0.3663664162158966
1779964884422549500,3.898549560546875,0.1840231567621231,-0.48090365529060364,-0.4758640229701996
1779964884438875400,3.91487548828125,0.06154467165470123,-0.7040221691131592,-0.4103487432003021
1779964884455203800,3.931203857421875,0.018325956538319588,-1.8391625881195068,-0.6516404747962952
1779964884471531000,3.947531005859375,-0.010842857882380486,-5.628970623016357,-1.1911872625350952
1779964884487868700,3.96386865234375,-0.005803219974040985,-5.9307379722595215,-0.9329439401626587
1779964884504189000,3.98018896484375,-0.12247848510742188,-4.731609344482422,-1.030071496963501
1779964884520529200,3.996529052734375,-0.18784105777740479,-1.1357512474060059,-0.6627888083457947
1779964884536856000,4.01285595703125,-0.11835514008998871,-1.3329079151153564,-0.3982841372489929
1779964884553185800,4.029185791015625,-0.1615738570690155,-1.697136402130127,-0.29794952273368835
1779964884569514000,4.045513916015625,-0.2376265823841095,-1.695609211921692,-0.47418415546417236
1779964884585816300,4.06181640625,-0.2041817009449005,-1.7362316846847534,-0.48090365529060364
1779964884602162000,4.078161865234375,-0.197004035115242,-1.9390389919281006,-0.44104471802711487
1779964884618479000,4.09447900390625,-0.18799377977848053,-1.7705929279327393,-0.34406983852386475
1779964884634822000,4.11082177734375,-0.1485929638147354,-1.4566081762313843,-0.17012597620487213
1779964884651137500,4.127137451171875,-0.12461651116609573,-1.2021827697753906,-0.08704829961061478
1779964884667481300,4.1434814453125,-0.11591167747974396,-0.874453604221344,-0.003054326167330146
1779964884683829500,4.15982958984375,-0.10476338863372803,-0.5703954100608826,0.11010845750570297
1779964884700138800,4.176138671875,-0.09162978827953339,-0.42898011207580566,0.1388191282749176
1779964884716472600,4.19247265625,-0.08445212244987488,-0.2938261926174164,0.11514809727668762
1779964884732802300,4.20880224609375,-0.07773260027170181,-0.19074267148971558,0.10323622822761536
1779964884749132300,4.22513232421875,-0.07131851464509964,-0.11301007121801376,0.08521570265293121
1779964884765462000,4.2414619140625,-0.05849034711718559,-0.03680463135242462,0.06123924255371094
1779964884781793000,4.25779296875,-0.038179077208042145,0.02168571576476097,0.03787364438176155
1779964884798126000,4.2741259765625,-0.024129176512360573,0.07376197725534439,0.02535090781748295
1779964884814466800,4.290466796875,-0.010079276748001575,0.05650503560900688,-0.026419922709465027
1779964884830795800,4.306795654296875,-0.0006108652451075613,0.01542434748262167,-0.11545353382825851
1779964884847106000,4.32310595703125,0.004734205547720194,0.076052725315094,-0.16203200817108154
1779964884863459300,4.339459228515625,0.002138028386980295,0.16920967400074005,-0.13454307615756989
1779964884879786800,4.355786865234375,0,0.256868839263916,-0.06750060617923737
1779964884896102000,4.372101806640625,-0.001832595793530345,0.31062498688697815,0.01160643994808197
1779964884912447200,4.388447265625,0.00015271631127689034,0.33536502718925476,0.06887505948543549
1779964884928756700,4.4047568359375,0.0074830991216003895,0.3381139039993286,0.08903361111879349
1779964884945106400,4.4211064453125,0.01725694350898266,0.3344487249851227,0.09376781433820724
1779964884961419800,4.437419677734375,0.02367102913558483,0.3649919927120209,0.07895433157682419
1779964884977753600,4.453753662109375,0.02733621932566166,0.42149701714515686,0.06383541971445084
1779964884994097700,4.47009765625,0.03130684420466423,0.4671591818332672,0.050854530185461044
1779964885010427400,4.486427490234375,0.032070424407720566,0.4715879559516907,0.033597588539123535
1779964885026756000,4.502756103515625,0.02977968007326126,0.455705463886261,0.015118914656341076
1779964885043087400,4.51908740234375,0.02733621932566166,0.4358523488044739,0.005955935921519995
1779964885059400000,4.53539990234375,0.023060163483023643,0.4210388660430908,-0.005039638374000788
1779964885075730200,4.551730224609375,0.019547687843441963,0.4115704596042633,-0.030695978552103043
1779964885092058400,4.568058349609375,0.01771509274840355,0.4011857509613037,-0.04566217586398125
1779964885108397000,4.58439697265625,0.018325956538319588,0.3856086730957031,-0.04245513305068016
1779964885124720400,4.600720458984375,0.019547687843441963,0.35735616087913513,-0.02687807008624077
1779964885141057300,4.617057373046875,0.021991148591041565,0.3068070709705353,0.003512475173920393
1779964885157393400,4.633393310546875,0.023060163483023643,0.23915374279022217,0.035582900047302246
1779964885173731600,4.649731689453125,0.021380282938480377,0.16264286637306213,0.05406157299876213
1779964885190051000,4.666051025390625,0.01618792861700058,0.08781187981367111,0.04841107130050659
1779964885206382300,4.68238232421875,0.009468411095440388,0.03145955875515938,0.025045474991202354
1779964885222703900,4.698703857421875,0.004428773187100887,-0.013897184282541275,0.003817907767370343
1779964885239034000,4.7150341796875,0,-0.044745877385139465,-0.007635815534740686
1779964885255363600,4.731363525390625,-0.003512475173920393,-0.07009678333997726,-0.012064588256180286
1779964885271694300,4.7476943359375,-0.004734205547720194,-0.09712757170200348,-0.013286318629980087
1779964885288017400,4.764017333984375,-0.007024950347840786,-0.11881329119205475,-0.01725694350898266
1779964885304385300,4.78038525390625,-0.007635815534740686,-0.13759739696979523,-0.022449297830462456
1779964885320697900,4.79669775390625,-0.008704829961061478,-0.15164729952812195,-0.03039054572582245
1779964885337029000,4.813029052734375,-0.008246680721640587,-0.16081027686595917,-0.03726277872920036
1779964885353338000,4.829338134765625,-0.009926560334861279,-0.16294831037521362,-0.04184427112340927
1779964885369692700,4.845692626953125,-0.01038470957428217,-0.16768251359462738,-0.04260785132646561
1779964885386018000,4.86201806640625,-0.010995574295520782,-0.17379115521907806,-0.03848451003432274
1779964885402348300,4.878348388671875,-0.012522737495601177,-0.1774563491344452,-0.02687807008624077
1779964885418678500,4.894678466796875,-0.01237002108246088,-0.17409659922122955,-0.014966198243200779
1779964885435008500,4.911008544921875,-0.011453723534941673,-0.16569720208644867,-0.00366519158706069
1779964885451342300,4.92734228515625,-0.009621127508580685,-0.14844025671482086,0.008857546374201775
1779964885467665200,4.9436650390625,-0.009010262787342072,-0.12217304855585098,0.01817324012517929
1779964885483992800,4.959992919921875,-0.006108652334660292,-0.08964447677135468,0.025045474991202354
1779964885500333000,4.9763330078125,-0.004734205547720194,-0.056352317333221436,0.026572637259960175
1779964885516659200,4.9926591796875,-0.003359758760780096,-0.02687807008624077,0.025503624230623245
1779964885532989000,5.008989013671875,-0.0032070425804704428,-0.001832595793530345,0.019089538604021072
1779964885549319000,5.02531884765625,-0.0022907445672899485,0.01664607785642147,0.011453723534941673
1779964885565632300,5.04163232421875,-0.0010690141934901476,0.029016099870204926,0.006261368747800589
1779964885581965000,5.057965087890625,0.0006108652451075613,0.03833179548382759,0.00045814894838258624
1779964885598295600,5.074295654296875,0.001832595793530345,0.043218716979026794,-0.003512475173920393
1779964885614612200,5.0906123046875,0.001832595793530345,0.04886921867728233,-0.005955935921519995
1779964885630955800,5.106955810546875,0.003359758760780096,0.04917465150356293,-0.003512475173920393
1779964885647285500,5.123285400390625,0.00427605677396059,0.04764748737215996,-0.001679879380390048
1779964885663632600,5.139632568359375,0.0039706239476799965,0.044745877385139465,-0.00015271631127689034
1779964885679943000,5.15594287109375,0.00366519158706069,0.04214970022439957,-0.0010690141934901476
1779964885696273000,5.17227294921875,0.004734205547720194,0.03573561832308769,-0.001527163083665073
1779964885712605700,5.188605712890625,0.0027488935738801956,0.03222314268350601,-0.002138028386980295
1779964885728935000,5.204934814453125,0.0024434609804302454,0.02687807008624077,-0.0032070425804704428
1779964885745266000,5.221265869140625,0.0024434609804302454,0.020005837082862854,-0.0003054326225537807
1779964885761596700,5.2375966796875,0.0022907445672899485,0.01542434748262167,-0.0032070425804704428
1779964885777926000,5.25392578125,0.0010690141934901476,0.009621127508580685,-0.0019853119738399982
1779964885794273000,5.27027294921875,0.0019853119738399982,0.0027488935738801956,-0.00045814894838258624
1779964885810599700,5.286599609375,0.0007635815418325365,-0.004123340360820293,0.0012217304902151227
1779964885826915800,5.302915771484375,-0.00045814894838258624,-0.008399397134780884,0.001527163083665073
1779964885843260400,5.319260498046875,-0.0006108652451075613,-0.012064588256180286,0.001679879380390048
1779964885859588400,5.33558837890625,-0.0010690141934901476,-0.015577063895761967,0.0019853119738399982
1779964885875904000,5.351904052734375,-0.0013744467869400978,-0.016493361443281174,0.0003054326225537807
1779964885892230000,5.36822998046875,-0.001527163083665073,-0.017409659922122955,0
1779964885908584000,5.384583984375,-0.0012217304902151227,-0.015271631069481373,-0.0027488935738801956
1779964885924907800,5.40090771484375,-0.00045814894838258624,-0.013591751456260681,-0.003054326167330146
1779964885941243100,5.4172431640625,-0.0013744467869400978,-0.011759156361222267,-0.0027488935738801956
1779964885957554200,5.43355419921875,-0.0003054326225537807,-0.008246680721640587,-0.0029016099870204926
1779964885973900300,5.449900390625,-0.0003054326225537807,-0.0065668015740811825,-0.0012217304902151227
1779964885990231000,5.46623095703125,-0.0003054326225537807,-0.0039706239476799965,-0.0019853119738399982
1779964886006558700,5.482558837890625,-0.0003054326225537807,0.00015271631127689034,-0.00045814894838258624
1779964886022887200,5.49888720703125,0.00015271631127689034,-0.0006108652451075613,-0.0009162978967651725
1779964886039240000,5.515239990234375,0.00015271631127689034,-0.0006108652451075613,-0.001679879380390048
1779964886055534000,5.5315341796875,0.00015271631127689034,-0.002138028386980295,-0.001679879380390048
1779964886071867400,5.547867431640625,0.0007635815418325365,0.0012217304902151227,-0.0027488935738801956
1779964886088197600,5.56419775390625,0.0010690141934901476,0.004123340360820293,-0.0024434609804302454
1779964886104526600,5.580526611328125,0.0010690141934901476,0.00427605677396059,-0.005955935921519995
1779964886120857300,5.596857421875,0.0012217304902151227,0.006872233934700489,-0.003054326167330146
1779964886137187300,5.613187255859375,0.0003054326225537807,0.008246680721640587,-0.0009162978967651725
1779964886153533200,5.629533203125,0.0009162978967651725,0.00809396430850029,-0.0013744467869400978
1779964886169865000,5.645864990234375,0.0010690141934901476,0.008857546374201775,-0.002138028386980295
1779964886186175200,5.66217529296875,0.0010690141934901476,0.009773843921720982,-0.001832595793530345
1779964886202507800,5.6785078125,0.0010690141934901476,0.010842857882380486,-0.00366519158706069
1779964886218840000,5.694840087890625,0.0010690141934901476,0.011759156361222267,-0.0039706239476799965
1779964886235166500,5.71116650390625,0.0009162978967651725,0.009926560334861279,-0.003359758760780096
1779964886251497200,5.727497314453125,0.0003054326225537807,0.00809396430850029,-0.003512475173920393
1779964886267828000,5.743827880859375,0.0006108652451075613,0.003817907767370343,-0.003817907767370343
1779964886284176000,5.76017578125,0.00015271631127689034,0.001679879380390048,-0.003359758760780096
1779964886300502800,5.776502685546875,0.0003054326225537807,-0.0029016099870204926,-0.004886921960860491
1779964886316831200,5.792831298828125,0.0009162978967651725,-0.004123340360820293,-0.002138028386980295
1779964886333162000,5.809161865234375,0,-0.004886921960860491,-0.0029016099870204926
1779964886349508900,5.8255087890625,-0.0003054326225537807,-0.0065668015740811825,-0.0012217304902151227
1779964886365825300,5.8418251953125,-0.0003054326225537807,-0.009162978269159794,-0.0009162978967651725
1779964886382154000,5.858154052734375,-0.00045814894838258624,-0.01038470957428217,0.00015271631127689034
1779964886398482400,5.874482421875,-0.0003054326225537807,-0.00855211354792118,0
1779964886414813000,5.89081298828125,-0.0007635815418325365,-0.008399397134780884,-0.0019853119738399982
1779964886431145200,5.907145263671875,-0.0003054326225537807,-0.005192354787141085,-0.0012217304902151227
1779964886447468500,5.923468505859375,-0.0003054326225537807,-0.002138028386980295,-0.0003054326225537807
1779964886463803100,5.93980322265625,0.00045814894838258624,-0.0019853119738399982,-0.00015271631127689034
1779964886480132900,5.9561328125,-0.00015271631127689034,-0.00045814894838258624,0.00015271631127689034
1779964886496463600,5.972463623046875,0.0007635815418325365,0.0012217304902151227,-0.0007635815418325365
1779964886512794000,5.988794189453125,-0.00015271631127689034,0.003512475173920393,0
1779964886529122800,6.005122802734375,0.0009162978967651725,0.0027488935738801956,-0.0006108652451075613
1779964886545436200,6.021436279296875,0.0003054326225537807,0.004734205547720194,0.00015271631127689034
1779964886561769700,6.037769775390625,0.0010690141934901476,0.003512475173920393,-0.0003054326225537807
1779964886578100000,6.054099853515625,0.00015271631127689034,0.0032070425804704428,0.00015271631127689034
1779964886594429700,6.0704296875,0.0009162978967651725,0.003817907767370343,0
1779964886610757600,6.086757568359375,0.00015271631127689034,0.003054326167330146,-0.00015271631127689034
1779964886627089200,6.103089111328125,0.0009162978967651725,0.0027488935738801956,0.0007635815418325365
1779964886643440000,6.119440185546875,-0.00015271631127689034,0.00015271631127689034,-0.00045814894838258624
1779964886659764200,6.13576416015625,-0.0003054326225537807,0.00045814894838258624,0.0006108652451075613
1779964886676067300,6.1520673828125,-0.00015271631127689034,-0.0010690141934901476,-0.00015271631127689034
1779964886692410000,6.16841015625,0.00015271631127689034,-0.002138028386980295,0.00045814894838258624
1779964886708740600,6.18474072265625,0,-0.001832595793530345,0.00045814894838258624
1779964886725070300,6.2010703125,0.0007635815418325365,-0.003817907767370343,0.0003054326225537807
1779964886741401000,6.217401123046875,0.00045814894838258624,-0.003054326167330146,0.001679879380390048
1779964886757717000,6.233717041015625,-0.00015271631127689034,-0.003359758760780096,-0.0003054326225537807
1779964886774064600,6.250064697265625,0.0006108652451075613,-0.004428773187100887,0.0010690141934901476
1779964886790389000,6.266388916015625,-0.0003054326225537807,-0.0024434609804302454,0.0003054326225537807
1779964886806744000,6.282744140625,0.0007635815418325365,-0.0010690141934901476,0.0013744467869400978
1779964886823058400,6.299058349609375,0.00015271631127689034,-0.0029016099870204926,0.0013744467869400978
1779964886839383300,6.31538330078125,0.0007635815418325365,-0.0025961773935705423,0.0024434609804302454
1779964886855724500,6.331724609375,-0.0003054326225537807,-0.0010690141934901476,0.00045814894838258624
1779964886872050400,6.348050537109375,0.0006108652451075613,-0.0003054326225537807,-0.0009162978967651725
1779964886888386000,6.364385986328125,0.00045814894838258624,0.0022907445672899485,-0.00015271631127689034
1779964886904716000,6.380716064453125,0.0007635815418325365,0.0024434609804302454,0
1779964886921041000,6.397041015625,0,0.0013744467869400978,-0.0019853119738399982
1779964886937379600,6.413379638671875,-0.0003054326225537807,0.001527163083665073,-0.001527163083665073
1779964886953703400,6.429703369140625,0.00015271631127689034,0.0013744467869400978,-0.0007635815418325365
1779964886970046700,6.446046630859375,0,0.001832595793530345,0.0010690141934901476
1779964886986360800,6.46236083984375,0.0006108652451075613,0.0022907445672899485,0.0010690141934901476
1779964887002695700,6.47869580078125,0.0003054326225537807,0.002138028386980295,0
1779964887019023400,6.4950234375,0.001527163083665073,0.0012217304902151227,-0.0006108652451075613
1779964887035345000,6.511344970703125,-0.00015271631127689034,0.0006108652451075613,0.0006108652451075613
1779964887051655400,6.527655517578125,0.00015271631127689034,-0.00045814894838258624,0.0009162978967651725
1779964887067990300,6.543990234375,0.0007635815418325365,-0.0006108652451075613,0.0019853119738399982
1779964887084335000,6.560335205078125,-0.00015271631127689034,0.00015271631127689034,0.0012217304902151227
1779964887100662800,6.576662841796875,-0.00015271631127689034,-0.001679879380390048,0.0012217304902151227
1779964887116992500,6.592992431640625,-0.0003054326225537807,-0.002138028386980295,0
1779964887133340700,6.609340576171875,-0.00015271631127689034,-0.003054326167330146,0.0010690141934901476
1779964887149658600,6.62565869140625,-0.0003054326225537807,-0.002138028386980295,-0.00045814894838258624
1779964887165983500,6.6419833984375,0.00045814894838258624,-0.0007635815418325365,0.0006108652451075613
1779964887182312200,6.658312255859375,0.0009162978967651725,-0.002138028386980295,0.0007635815418325365
1779964887198643700,6.674643798828125,0.00015271631127689034,-0.0022907445672899485,-0.00045814894838258624
1779964887214972400,6.690972412109375,-0.0003054326225537807,-0.0019853119738399982,-0.0003054326225537807
1779964887231303200,6.70730322265625,0.00045814894838258624,-0.0006108652451075613,0.0009162978967651725
1779964887247633000,6.7236328125,0.0009162978967651725,-0.00015271631127689034,0.0012217304902151227
1779964887263963100,6.739963134765625,0.00045814894838258624,0.0007635815418325365,-0.0006108652451075613
1779964887280310800,6.756310791015625,-0.00015271631127689034,-0.0003054326225537807,0.0003054326225537807
1779964887296638000,6.772637939453125,0,0.0009162978967651725,0.0003054326225537807
1779964887312962600,6.788962646484375,0.00015271631127689034,0.0024434609804302454,-0.0007635815418325365
1779964887329291300,6.805291259765625,0.0010690141934901476,0.0027488935738801956,-0.0012217304902151227
1779964887345631500,6.821631591796875,0.0013744467869400978,0.002138028386980295,-0.0007635815418325365
1779964887361962000,6.8379619140625,0.00015271631127689034,0.0007635815418325365,-0.00045814894838258624
1779964887378287000,6.854287109375,0.0010690141934901476,0.001679879380390048,0.001527163083665073
1779964887394617000,6.8706171875,0.0009162978967651725,0.0022907445672899485,0.0013744467869400978
1779964887410947600,6.886947509765625,0.0009162978967651725,0.0007635815418325365,-0.00015271631127689034
1779964887427274000,6.90327392578125,0.0006108652451075613,0,-0.0006108652451075613
1779964887443611400,6.919611328125,0.0009162978967651725,-0.00015271631127689034,0.0003054326225537807
1779964887459933000,6.935932861328125,0.0007635815418325365,-0.001679879380390048,0.0006108652451075613
1779964887476254500,6.95225439453125,-0.00015271631127689034,0,-0.0003054326225537807
1779964887492582000,6.968581787109375,0.00015271631127689034,0.0006108652451075613,0.00045814894838258624
1779964887508927500,6.984927490234375,0.0006108652451075613,0.00045814894838258624,0.00015271631127689034
1779964887525241000,7.001240966796875,0.00015271631127689034,0.0006108652451075613,0.0006108652451075613
1779964887541575000,7.017574951171875,0.00015271631127689034,0.0003054326225537807,-0.0006108652451075613
1779964887557905200,7.0339052734375,-0.00015271631127689034,0.0006108652451075613,0.0010690141934901476
1779964887574234600,7.050234619140625,-0.00015271631127689034,0.002138028386980295,-0.0010690141934901476
1779964887590563800,7.066563720703125,-0.00015271631127689034,0.0007635815418325365,-0.0009162978967651725
1779964887606894600,7.08289453125,-0.00015271631127689034,-0.0006108652451075613,-0.001527163083665073
1779964887623246000,7.09924609375,0,-0.0010690141934901476,-0.001832595793530345
1779964887639569000,7.11556884765625,0.0007635815418325365,-0.0009162978967651725,0.0003054326225537807
1779964887655891000,7.131890869140625,0,-0.0012217304902151227,0.0006108652451075613
1779964887672211700,7.148211669921875,0.0003054326225537807,-0.00015271631127689034,-0.0010690141934901476
1779964887688545500,7.164545654296875,-0.00015271631127689034,0,-0.001527163083665073
1779964887704875000,7.180875,0.0007635815418325365,-0.00015271631127689034,0.0003054326225537807
1779964887721196000,7.197196044921875,0,-0.0007635815418325365,0.001527163083665073
1779964887737535500,7.213535400390625,-0.00015271631127689034,0.0007635815418325365,-0.001527163083665073
1779964887753866000,7.229865966796875,0.0010690141934901476,0.00015271631127689034,-0.00045814894838258624
1779964887770209300,7.246209228515625,0.0009162978967651725,0.00015271631127689034,0
1779964887786550500,7.262550537109375,-0.00015271631127689034,0,-0.0003054326225537807
1779964887802869800,7.278869873046875,0.0007635815418325365,0.00015271631127689034,-0.0012217304902151227
1779964887819195100,7.295195068359375,0,0.0003054326225537807,-0.0013744467869400978
1779964887835534600,7.31153466796875,0.0007635815418325365,-0.0009162978967651725,-0.0009162978967651725
1779964887851820500,7.327820556640625,-0.0003054326225537807,-0.00015271631127689034,0.0003054326225537807
1779964887868177200,7.34417724609375,-0.0003054326225537807,-0.0010690141934901476,-0.0006108652451075613
1779964887884522200,7.360522216796875,0.00015271631127689034,-0.0003054326225537807,-0.0007635815418325365
1779964887900832800,7.376832763671875,0.00015271631127689034,0.0013744467869400978,-0.0009162978967651725
1779964887917175000,7.393175048828125,-0.00015271631127689034,0.00015271631127689034,-0.0007635815418325365
1779964887933514500,7.409514404296875,0,-0.00015271631127689034,0.0012217304902151227
1779964887949824500,7.425824462890625,0.0006108652451075613,0,-0.00015271631127689034
1779964887966170400,7.44217041015625,0.0010690141934901476,0.0010690141934901476,-0.00045814894838258624
1779964887982501400,7.45850146484375,0.00015271631127689034,0.002138028386980295,-0.001527163083665073
1779964887998831000,7.4748310546875,0.0006108652451075613,0.0009162978967651725,-0.001527163083665073
1779964888015144200,7.491144287109375,0.0009162978967651725,0,-0.0003054326225537807
1779964888031475500,7.507475341796875,0.0003054326225537807,0.0003054326225537807,-0.00045814894838258624
1779964888047815200,7.523815185546875,0.0009162978967651725,0.0024434609804302454,0.001832595793530345
1779964888064137500,7.540137451171875,0.0006108652451075613,0.0012217304902151227,0.0003054326225537807
1779964888080466200,7.556466064453125,0.0007635815418325365,0.0003054326225537807,0.0003054326225537807
1779964888096799000,7.572799072265625,-0.00015271631127689034,0.00015271631127689034,0.00045814894838258624
1779964888113145600,7.5891455078125,0.00015271631127689034,0.001832595793530345,0.001679879380390048
1779964888129471500,7.605471435546875,0,0.0007635815418325365,0.0006108652451075613
1779964888145801700,7.6218017578125,0.0007635815418325365,-0.0006108652451075613,-0.0003054326225537807
1779964888162114300,7.6381142578125,0.0009162978967651725,0.0006108652451075613,0.0010690141934901476
1779964888178448600,7.65444873046875,0.0007635815418325365,0.001527163083665073,-0.00015271631127689034
1779964888194778400,7.6707783203125,0.0006108652451075613,0.0012217304902151227,-0.00045814894838258624
1779964888211108400,7.6871083984375,0.00015271631127689034,0.0024434609804302454,-0.0022907445672899485
1779964888227436500,7.7034365234375,0,0.0007635815418325365,-0.001832595793530345
1779964888243766000,7.71976611328125,0.00015271631127689034,0.0029016099870204926,-0.001832595793530345
1779964888260118800,7.736118896484375,0.0006108652451075613,0.0010690141934901476,-0.00015271631127689034
1779964888276462600,7.752462646484375,-0.0003054326225537807,0,0
1779964888292770000,7.76877001953125,0.00045814894838258624,-0.002138028386980295,-0.0006108652451075613
1779964888309103400,7.785103271484375,0.0009162978967651725,-0.0003054326225537807,-0.0010690141934901476
1779964888325432300,7.801432373046875,-0.00015271631127689034,-0.0006108652451075613,-0.0029016099870204926
1779964888341763000,7.81776318359375,0.0006108652451075613,0.0009162978967651725,-0.00045814894838258624
1779964888358091000,7.834091064453125,0.0006108652451075613,-0.001679879380390048,0.0006108652451075613
1779964888374423600,7.850423583984375,-0.00045814894838258624,-0.0003054326225537807,0
1779964888390752500,7.86675244140625,0.00045814894838258624,-0.0006108652451075613,0.0009162978967651725
1779964888407080000,7.883079833984375,0.00045814894838258624,0.0006108652451075613,-0.0006108652451075613
1779964888423414500,7.89941455078125,0.0006108652451075613,-0.00015271631127689034,0.00015271631127689034
1779964888439744500,7.91574462890625,-0.00045814894838258624,0.001527163083665073,-0.0009162978967651725
1779964888456052200,7.93205224609375,-0.00015271631127689034,0.0012217304902151227,-0.0022907445672899485
1779964888472387300,7.94838720703125,0.0003054326225537807,-0.00045814894838258624,-0.0007635815418325365
1779964888488731000,7.96473095703125,0.0003054326225537807,-0.0006108652451075613,0.00015271631127689034
1779964888505047300,7.98104736328125,0.00015271631127689034,-0.0019853119738399982,0.0009162978967651725
1779964888521369600,7.99736962890625,0.0003054326225537807,-0.001679879380390048,0.00015271631127689034
1779964888537710300,8.01371044921875,-0.00015271631127689034,-0.0009162978967651725,0.00015271631127689034
1779964888554040300,8.030040283203125,0.0006108652451075613,-0.0012217304902151227,-0.00045814894838258624
1779964888570370600,8.04637060546875,0.00045814894838258624,0,-0.0006108652451075613
1779964888586700000,8.062699951171876,-0.0003054326225537807,-0.0007635815418325365,-0.0006108652451075613
1779964888603047700,8.079047607421876,0.0003054326225537807,0,-0.0007635815418325365
1779964888619359000,8.09535888671875,0.0006108652451075613,0.00045814894838258624,-0.0003054326225537807
1779964888635702800,8.111702880859376,-0.00015271631127689034,0.0006108652451075613,0.0006108652451075613
1779964888652028000,8.12802783203125,-0.00045814894838258624,0,-0.00045814894838258624
1779964888668348700,8.1443486328125,-0.0006108652451075613,0.0024434609804302454,0.00045814894838258624
1779964888684684000,8.16068408203125,0,0.00045814894838258624,-0.00045814894838258624
1779964888701011200,8.17701123046875,-0.0007635815418325365,-0.00045814894838258624,-0.0007635815418325365
1779964888717341200,8.193341064453126,0.0006108652451075613,0.0012217304902151227,-0.0024434609804302454
1779964888733671400,8.20967138671875,0.0007635815418325365,0.005345070734620094,-0.0012217304902151227
1779964888750001700,8.226001708984375,0.0007635815418325365,0.0027488935738801956,-0.00045814894838258624
1779964888766348500,8.2423486328125,0.00045814894838258624,-0.0003054326225537807,0
1779964888782681600,8.258681640625,-0.00015271631127689034,-0.0007635815418325365,0.001832595793530345
1779964888799014100,8.27501416015625,0.00045814894838258624,0.0013744467869400978,0.001527163083665073
1779964888815333600,8.291333740234375,-0.00045814894838258624,0.0009162978967651725,0.00045814894838258624
1779964888831662300,8.307662353515624,-0.00015271631127689034,0.0010690141934901476,0.00045814894838258624
1779964888848016000,8.324015869140625,0.0006108652451075613,0.0007635815418325365,0.00015271631127689034
1779964888864325400,8.340325439453125,-0.00045814894838258624,0.00045814894838258624,-0.0012217304902151227
1779964888880641500,8.3566416015625,-0.0003054326225537807,0.0012217304902151227,-0.0013744467869400978
1779964888896984800,8.37298486328125,0.0006108652451075613,0.0009162978967651725,-0.0009162978967651725
1779964888913316000,8.389316162109376,0.0003054326225537807,0.0003054326225537807,-0.0009162978967651725
1779964888929644000,8.40564404296875,0.00045814894838258624,0.0013744467869400978,-0.00045814894838258624
1779964888945976300,8.421976318359375,0,0,-0.0006108652451075613
1779964888962290000,8.4382900390625,0.0006108652451075613,-0.0013744467869400978,-0.0003054326225537807
1779964888978633000,8.454633056640626,0,-0.0003054326225537807,-0.0003054326225537807
1779964888994953000,8.470952880859375,-0.00045814894838258624,0.0007635815418325365,0.00045814894838258624
1779964889011278300,8.4872783203125,-0.00015271631127689034,-0.0009162978967651725,0.0003054326225537807
1779964889027618300,8.503618408203126,-0.00045814894838258624,-0.001527163083665073,-0.0003054326225537807
1779964889043942100,8.519942138671874,-0.0006108652451075613,-0.0027488935738801956,-0.00015271631127689034
1779964889060273400,8.5362734375,0.00015271631127689034,0.0003054326225537807,0.00045814894838258624
1779964889076603400,8.552603271484376,-0.0003054326225537807,0.0010690141934901476,-0.0012217304902151227
1779964889092951000,8.568950927734376,-0.0003054326225537807,0.00015271631127689034,-0.0010690141934901476
1779964889109276700,8.585276611328124,-0.00015271631127689034,0.0003054326225537807,0.00045814894838258624
1779964889125607400,8.601607421875,0.00045814894838258624,0.001527163083665073,-0.0006108652451075613
1779964889141937700,8.617937744140624,0.0007635815418325365,0.003359758760780096,-0.001679879380390048
1779964889158250500,8.63425048828125,0.0006108652451075613,0.0019853119738399982,0.00015271631127689034
1779964889174585000,8.650585205078125,-0.0003054326225537807,0.0009162978967651725,-0.0009162978967651725
1779964889190916400,8.666916259765625,0.0003054326225537807,0.0003054326225537807,0.00015271631127689034
1779964889207243800,8.683243896484376,-0.00045814894838258624,-0.0009162978967651725,-0.00045814894838258624
1779964889223571500,8.699571533203125,0.0003054326225537807,-0.0009162978967651725,-0.00015271631127689034
1779964889239894800,8.715894775390625,0.00045814894838258624,-0.0013744467869400978,0.0003054326225537807
1779964889256235500,8.732235595703125,-0.00015271631127689034,-0.0010690141934901476,0.0006108652451075613
1779964889272578000,8.748578125,-0.0006108652451075613,-0.0025961773935705423,0.0012217304902151227
1779964889288908500,8.764908447265626,0.0006108652451075613,-0.00045814894838258624,-0.0010690141934901476
1779964889305238000,8.781238037109375,0,0.0003054326225537807,-0.001527163083665073
1779964889321566500,8.79756640625,0.0006108652451075613,-0.0010690141934901476,-0.0006108652451075613
1779964889337899800,8.813899658203125,-0.0003054326225537807,0.0010690141934901476,-0.0007635815418325365
1779964889354228700,8.830228759765625,0.0007635815418325365,0.0019853119738399982,-0.0003054326225537807
1779964889370564600,8.846564697265626,0.00045814894838258624,0.0029016099870204926,-0.0007635815418325365
1779964889386882000,8.862882080078125,0.00045814894838258624,0.0024434609804302454,-0.00045814894838258624
1779964889403186400,8.8791865234375,0.0003054326225537807,-0.0003054326225537807,-0.0006108652451075613
1779964889419549000,8.895548828125,-0.0003054326225537807,0.001679879380390048,-0.0007635815418325365
1779964889435891700,8.9118916015625,0.0006108652451075613,0.001527163083665073,-0.0007635815418325365
1779964889452194000,8.928194091796875,-0.0003054326225537807,0.0029016099870204926,-0.0006108652451075613
1779964889468543500,8.94454345703125,-0.0003054326225537807,0,-0.001527163083665073
1779964889484852500,8.9608525390625,-0.00015271631127689034,-0.0019853119738399982,0.00045814894838258624
1779964889501186000,8.97718603515625,0.0006108652451075613,-0.0003054326225537807,0.001679879380390048
1779964889517517800,8.993517822265625,0.0013744467869400978,0.00015271631127689034,-0.00045814894838258624
1779964889533845800,9.009845703125,0.0007635815418325365,0.0007635815418325365,-0.001832595793530345
1779964889550173200,9.026173095703125,0,0.0019853119738399982,-0.00015271631127689034
1779964889566509000,9.042509033203125,-0.00045814894838258624,0.001527163083665073,-0.001679879380390048
1779964889582854100,9.058854248046876,-0.00015271631127689034,0.0006108652451075613,-0.0019853119738399982
1779964889599179800,9.0751796875,0.00045814894838258624,0.001527163083665073,-0.00045814894838258624
1779964889615493400,9.091493408203124,0.00045814894838258624,0.0013744467869400978,-0.001679879380390048
1779964889631836000,9.1078359375,0.0006108652451075613,0.0012217304902151227,-0.0007635815418325365
1779964889648158000,9.124157958984375,0,0.003359758760780096,-0.0013744467869400978
1779964889664487000,9.14048681640625,0.0006108652451075613,0.001679879380390048,-0.0019853119738399982
1779964889680810000,9.15681005859375,0,0.0007635815418325365,-0.0007635815418325365
1779964889697146400,9.173146484375,-0.00015271631127689034,0.0019853119738399982,-0.0029016099870204926
1779964889713483300,9.189483154296875,0.0007635815418325365,0.0013744467869400978,-0.0009162978967651725
1779964889729807000,9.20580712890625,0.0007635815418325365,0.0006108652451075613,0
1779964889746149000,9.222149169921876,-0.0003054326225537807,-0.001832595793530345,-0.00045814894838258624
1779964889762486300,9.238486328125,0.0006108652451075613,-0.0012217304902151227,-0.00015271631127689034
1779964889778811600,9.254811767578126,0.0003054326225537807,-0.0003054326225537807,-0.0024434609804302454
1779964889795141400,9.271141357421875,-0.00015271631127689034,0.001527163083665073,-0.0006108652451075613
1779964889811452400,9.287452392578125,-0.0003054326225537807,0.0009162978967651725,-0.001679879380390048
1779964889827802000,9.303802001953125,0.001527163083665073,-0.0003054326225537807,-0.0012217304902151227
1779964889844111000,9.320111083984376,-0.0007635815418325365,-0.00045814894838258624,-0.002138028386980295
1779964889860448800,9.33644873046875,-0.0003054326225537807,0.00045814894838258624,-0.0006108652451075613
1779964889876771600,9.352771484375,-0.0006108652451075613,0.00015271631127689034,-0.0019853119738399982
1779964889893120500,9.36912060546875,-0.00015271631127689034,0.0006108652451075613,-0.0022907445672899485
1779964889909452000,9.3854521484375,-0.00045814894838258624,0.0007635815418325365,-0.003817907767370343
1779964889925786400,9.401786376953124,0.0003054326225537807,0.001527163083665073,-0.0029016099870204926
1779964889942112500,9.418112548828125,-0.00015271631127689034,0.0007635815418325365,-0.002138028386980295
1779964889958440400,9.4344404296875,-0.00015271631127689034,0.0003054326225537807,-0.003359758760780096
1779964889974756000,9.450756103515625,0.0012217304902151227,-0.00045814894838258624,-0.002138028386980295
1779964889991089000,9.4670888671875,-0.0003054326225537807,-0.00015271631127689034,-0.0003054326225537807
1779964890007421200,9.483421142578125,-0.00045814894838258624,-0.0003054326225537807,-0.0007635815418325365
1779964890023749400,9.499749267578125,-0.00015271631127689034,0.0009162978967651725,-0.0013744467869400978
1779964890040079600,9.51607958984375,-0.0003054326225537807,0.0010690141934901476,-0.001832595793530345
1779964890056409300,9.532409423828126,0.00045814894838258624,0.0010690141934901476,-0.001527163083665073
1779964890072752600,9.548752685546875,-0.0003054326225537807,0.001832595793530345,-0.0022907445672899485
1779964890089085400,9.56508544921875,-0.00015271631127689034,0.001832595793530345,-0.001679879380390048
1779964890105414400,9.581414306640625,0.0003054326225537807,0.001679879380390048,-0.0029016099870204926
1779964890121743000,9.5977431640625,-0.0006108652451075613,0.0007635815418325365,-0.002138028386980295
1779964890138057200,9.61405712890625,-0.0003054326225537807,-0.00015271631127689034,0
1779964890154390300,9.630390380859374,-0.00045814894838258624,-0.0006108652451075613,-0.0013744467869400978
1779964890170720300,9.64672021484375,-0.0003054326225537807,0.00015271631127689034,-0.0009162978967651725
1779964890187047000,9.663046875,0.0006108652451075613,0.002138028386980295,-0.001679879380390048
1779964890203383800,9.6793837890625,0,0.0010690141934901476,-0.003817907767370343
1779964890219710500,9.69571044921875,0.00045814894838258624,0.0010690141934901476,-0.001832595793530345
1779964890236036600,9.71203662109375,0.0007635815418325365,0.0029016099870204926,-0.0003054326225537807
1779964890252385300,9.72838525390625,-0.00015271631127689034,0.0024434609804302454,-0.001832595793530345
1779964890268698000,9.744697998046876,0.00015271631127689034,0.0024434609804302454,-0.0022907445672899485
1779964890285027600,9.761027587890625,0.00045814894838258624,0.0032070425804704428,-0.0006108652451075613
1779964890301362200,9.777362060546874,-0.0003054326225537807,0.004123340360820293,-0.0019853119738399982
1779964890317691000,9.79369091796875,0.00015271631127689034,0.004428773187100887,-0.0025961773935705423
1779964890334021000,9.810021240234375,0.0003054326225537807,0.003512475173920393,-0.003054326167330146
1779964890350351000,9.82635107421875,-0.00015271631127689034,0.0022907445672899485,-0.0027488935738801956
1779964890366659800,9.842659912109376,0.00015271631127689034,0.0006108652451075613,-0.0024434609804302454
1779964890383011000,9.859010986328125,0.00045814894838258624,-0.0010690141934901476,-0.0029016099870204926
1779964890399358700,9.875358642578124,-0.00045814894838258624,-0.002138028386980295,-0.0022907445672899485
1779964890415683600,9.89168359375,-0.0003054326225537807,-0.001527163083665073,-0.0010690141934901476
1779964890431987700,9.90798779296875,-0.0003054326225537807,-0.0019853119738399982,-0.00045814894838258624
1779964890448336000,9.9243359375,-0.0003054326225537807,-0.0010690141934901476,-0.002138028386980295
1779964890464662500,9.94066259765625,-0.0003054326225537807,-0.001832595793530345,-0.0012217304902151227
1779964890480992500,9.956992431640625,-0.00015271631127689034,-0.001527163083665073,-0.0007635815418325365
1779964890497322800,9.97332275390625,-0.00015271631127689034,-0.001527163083665073,-0.001527163083665073
1779964890513639000,9.989638916015625,-0.0003054326225537807,0.0003054326225537807,-0.001679879380390048
1779964890529970000,10.005969970703125,0.0006108652451075613,0.0009162978967651725,-0.0012217304902151227
1779964890546312400,10.0223125,-0.00015271631127689034,0.0009162978967651725,0
1779964890562660400,10.038660400390626,-0.00045814894838258624,0.0024434609804302454,-0.0012217304902151227
1779964890578985700,10.05498583984375,-0.00015271631127689034,0.0029016099870204926,-0.0010690141934901476
1779964890595320600,10.071320556640625,0.0003054326225537807,0.0010690141934901476,-0.0022907445672899485
1779964890611642400,10.087642333984375,-0.0003054326225537807,0.001832595793530345,-0.0022907445672899485
1779964890627961900,10.1039619140625,-0.00045814894838258624,0.0012217304902151227,-0.0012217304902151227
1779964890644296200,10.120296142578125,0.00045814894838258624,0.0010690141934901476,0
1779964890660618500,10.136618408203125,0.0003054326225537807,0.0006108652451075613,-0.001527163083665073
1779964890676957400,10.15295751953125,0.0006108652451075613,0.0012217304902151227,-0.002138028386980295
1779964890693283800,10.169283935546876,-0.00045814894838258624,0.0007635815418325365,-0.0007635815418325365
1779964890709613300,10.18561328125,0.00015271631127689034,0.0003054326225537807,-0.00015271631127689034
1779964890725940200,10.201940185546874,-0.00045814894838258624,-0.0003054326225537807,-0.0006108652451075613
1779964890742294800,10.218294677734375,0.00015271631127689034,-0.00045814894838258624,0.00015271631127689034
1779964890758618000,10.2346181640625,0.0006108652451075613,-0.0006108652451075613,-0.0013744467869400978
1779964890774947300,10.250947265625,0.0003054326225537807,-0.00015271631127689034,-0.0019853119738399982
1779964890791262500,10.267262451171876,-0.00015271631127689034,0.00045814894838258624,-0.0006108652451075613
1779964890807612700,10.28361279296875,-0.00045814894838258624,0.0009162978967651725,-0.001679879380390048
1779964890823934500,10.2999345703125,-0.00015271631127689034,-0.00015271631127689034,-0.0006108652451075613
1779964890840272000,10.31627197265625,-0.0006108652451075613,-0.00045814894838258624,0.00045814894838258624
1779964890856597800,10.33259765625,-0.0006108652451075613,-0.0027488935738801956,0.0007635815418325365
1779964890872928500,10.348928466796876,0.00045814894838258624,-0.002138028386980295,0.0003054326225537807
1779964890889255000,10.3652548828125,0.00045814894838258624,0.00045814894838258624,0.001679879380390048
1779964890905591800,10.381591796875,0.0006108652451075613,0.0007635815418325365,-0.00015271631127689034
1779964890921917200,10.397917236328125,0.0006108652451075613,0.00015271631127689034,-0.0007635815418325365
1779964890938248700,10.414248779296875,0.0003054326225537807,-0.0006108652451075613,0.0006108652451075613
1779964890954549000,10.430549072265626,0.0010690141934901476,0.0009162978967651725,0.0006108652451075613
1779964890970895000,10.44689501953125,-0.0006108652451075613,0.0007635815418325365,0.001832595793530345
1779964890987225600,10.4632255859375,-0.00015271631127689034,0.00045814894838258624,0.0003054326225537807
1779964891003542800,10.479542724609376,0.00015271631127689034,0.001527163083665073,-0.00045814894838258624
1779964891019885800,10.4958857421875,-0.00015271631127689034,0.0012217304902151227,-0.002138028386980295
1779964891036202500,10.512202392578125,-0.00045814894838258624,0.003054326167330146,-0.0006108652451075613
1779964891052561400,10.5285615234375,0.0006108652451075613,0.0013744467869400978,-0.0010690141934901476
1779964891068889000,10.54488916015625,-0.0006108652451075613,0.0007635815418325365,0.0009162978967651725
1779964891085220400,10.561220458984375,0.00045814894838258624,0.0009162978967651725,-0.0003054326225537807
1779964891101549800,10.5775498046875,0.0003054326225537807,-0.001679879380390048,0.0006108652451075613
1779964891117879300,10.59387939453125,-0.00015271631127689034,-0.0025961773935705423,-0.0003054326225537807
1779964891134192600,10.610192626953125,-0.00045814894838258624,-0.001832595793530345,0.00045814894838258624
1779964891150527000,10.62652685546875,-0.0003054326225537807,-0.00045814894838258624,0.001679879380390048
1779964891166856000,10.64285595703125,-0.0006108652451075613,-0.0019853119738399982,0.0010690141934901476
1779964891183187500,10.6591875,-0.00015271631127689034,-0.003512475173920393,0
1779964891199516700,10.6755166015625,-0.0006108652451075613,-0.00366519158706069,0.0039706239476799965
1779964891215850200,10.691850341796876,0,-0.0027488935738801956,0.0012217304902151227
1779964891232189700,10.708189697265626,-0.00045814894838258624,-0.001832595793530345,0.0022907445672899485
1779964891248525300,10.724525390625,-0.0006108652451075613,0.0007635815418325365,0.002138028386980295
1779964891264814000,10.74081396484375,-0.0003054326225537807,-0.0019853119738399982,0.001527163083665073
1779964891281170400,10.75717041015625,-0.0003054326225537807,-0.001527163083665073,0.003054326167330146
1779964891297509400,10.77350927734375,-0.0006108652451075613,-0.0027488935738801956,0.0007635815418325365
1779964891313842200,10.78984228515625,0,-0.004581489134579897,0.0012217304902151227
1779964891330164000,10.8061640625,-0.0009162978967651725,-0.004886921960860491,0.001679879380390048
1779964891346508300,10.82250830078125,-0.0007635815418325365,-0.004886921960860491,0.001832595793530345
1779964891362820400,10.8388203125,-0.0006108652451075613,-0.004581489134579897,0.0003054326225537807
1779964891379159000,10.855158935546875,-0.0006108652451075613,-0.0039706239476799965,0.0009162978967651725
1779964891395491300,10.8714912109375,0.00045814894838258624,-0.0032070425804704428,0.001832595793530345
1779964891411817700,10.887817626953124,-0.00015271631127689034,-0.00366519158706069,0.0019853119738399982
1779964891428153600,10.904153564453125,0.00045814894838258624,-0.001832595793530345,0.00366519158706069
1779964891444452600,10.92045263671875,0.00045814894838258624,-0.0009162978967651725,0.002138028386980295
1779964891460787000,10.936786865234374,0,0.0007635815418325365,0.001527163083665073
1779964891477131300,10.95313134765625,-0.00045814894838258624,0.001679879380390048,0.0009162978967651725
1779964891493458400,10.96945849609375,-0.00015271631127689034,0.0025961773935705423,0.001679879380390048
1779964891509789000,10.985788818359374,0.00045814894838258624,0.0013744467869400978,0.0007635815418325365
1779964891526120700,11.00212060546875,-0.0006108652451075613,0.0012217304902151227,0.0013744467869400978
1779964891542466600,11.018466552734376,0.00045814894838258624,0.0012217304902151227,0.0012217304902151227
1779964891558788000,11.0347880859375,-0.00015271631127689034,-0.00015271631127689034,0.001832595793530345
1779964891575126000,11.0511259765625,0.0006108652451075613,0.001527163083665073,0.0029016099870204926
1779964891599615500,11.075615478515624,-0.0003054326225537807,-0.0022907445672899485,0.0024434609804302454
1779964891615927800,11.091927734375,0.00015271631127689034,-0.003359758760780096,0.0029016099870204926
1779964891632266200,11.108266357421876,0.00015271631127689034,-0.001832595793530345,0.0019853119738399982
1779964891648595200,11.12459521484375,-0.00015271631127689034,-0.0027488935738801956,0.0019853119738399982
1779964891664924400,11.14092431640625,-0.0006108652451075613,-0.0029016099870204926,0.0024434609804302454
1779964891681255000,11.1572548828125,-0.00015271631127689034,-0.0024434609804302454,-0.00015271631127689034
1779964891697586400,11.17358642578125,-0.0003054326225537807,-0.0010690141934901476,0.0003054326225537807
1779964891713915100,11.1899150390625,0.0003054326225537807,0.0006108652451075613,0.0003054326225537807
1779964891730262300,11.20626220703125,-0.00045814894838258624,-0.0006108652451075613,0.0006108652451075613
1779964891746588400,11.22258837890625,-0.0006108652451075613,-0.0003054326225537807,0.0009162978967651725
1779964891762904600,11.238904541015625,0.00045814894838258624,-0.00015271631127689034,0.0009162978967651725
1779964891779272400,11.2552724609375,-0.00015271631127689034,-0.0007635815418325365,0.00045814894838258624
1779964891795579100,11.2715791015625,-0.0003054326225537807,-0.00045814894838258624,0.00045814894838258624
1779964891811911200,11.2879111328125,-0.0003054326225537807,-0.001832595793530345,0.0019853119738399982
1779964891828237800,11.30423779296875,0.0009162978967651725,-0.0025961773935705423,0.002138028386980295
1779964891844554500,11.320554443359375,0.00015271631127689034,-0.001527163083665073,0.001832595793530345
1779964891860871200,11.33687109375,0.0006108652451075613,-0.001679879380390048,0.002138028386980295
1779964891877234200,11.353234130859375,-0.0003054326225537807,-0.0013744467869400978,0.0012217304902151227
1779964891893561300,11.369561279296875,-0.0006108652451075613,-0.00045814894838258624,0.002138028386980295
1779964891909889800,11.385889892578126,-0.0003054326225537807,0.0003054326225537807,0.0029016099870204926
1779964891926200300,11.402200439453125,0.00045814894838258624,0.0003054326225537807,0.0029016099870204926
1779964891942536700,11.41853662109375,0.0006108652451075613,-0.00015271631127689034,0.0012217304902151227
1779964891958867000,11.434866943359374,0.0003054326225537807,-0.00015271631127689034,0.001679879380390048
1779964891975198000,11.451197998046876,-0.00015271631127689034,-0.00015271631127689034,0.0022907445672899485
1779964891991527000,11.46752685546875,-0.0006108652451075613,-0.00015271631127689034,0.0010690141934901476
1779964892007843800,11.48384375,-0.00015271631127689034,-0.0003054326225537807,0.0003054326225537807
1779964892024179000,11.500178955078125,-0.0003054326225537807,-0.0003054326225537807,0.0010690141934901476
1779964892040531000,11.516531005859376,-0.0003054326225537807,-0.001527163083665073,0.0009162978967651725
1779964892056862000,11.532862060546876,-0.0006108652451075613,-0.001832595793530345,0.0022907445672899485
1779964892073189000,11.549189208984375,-0.00015271631127689034,-0.0032070425804704428,0.001832595793530345
1779964892089506800,11.5655068359375,-0.0006108652451075613,-0.0024434609804302454,0.001527163083665073
1779964892105851600,11.5818515625,0.00015271631127689034,-0.0029016099870204926,0.001527163083665073
1779964892122161400,11.598161376953126,0.0003054326225537807,-0.0025961773935705423,0.002138028386980295
1779964892138501600,11.614501708984376,-0.0003054326225537807,-0.001527163083665073,0.0012217304902151227
1779964892154829300,11.630829345703125,-0.0003054326225537807,-0.001679879380390048,0.001679879380390048
1779964892171153000,11.64715283203125,-0.0003054326225537807,0.0007635815418325365,0.0009162978967651725
1779964892187489800,11.66348974609375,0.0003054326225537807,0.002138028386980295,0
1779964892203818800,11.67981884765625,0.0006108652451075613,0.0022907445672899485,0.0013744467869400978
1779964892220158200,11.696158203125,0.0006108652451075613,0.0022907445672899485,0.0009162978967651725
1779964892236501500,11.71250146484375,-0.00045814894838258624,0.0032070425804704428,0.0007635815418325365
1779964892252820000,11.728820068359376,0.0006108652451075613,0.0027488935738801956,0.0003054326225537807
1779964892269154600,11.745154541015625,0.0009162978967651725,0.0029016099870204926,0.001679879380390048
1779964892285477000,11.76147705078125,0.0007635815418325365,0.0019853119738399982,0
1779964892301819400,11.7778193359375,0.0006108652451075613,0.0013744467869400978,-0.00015271631127689034
1779964892318143700,11.794143798828125,0.0003054326225537807,-0.0009162978967651725,0.0013744467869400978
1779964892334471700,11.8104716796875,0.0003054326225537807,0.0012217304902151227,0.001527163083665073
1779964892350786300,11.826786376953125,0.00045814894838258624,0.0009162978967651725,0.0009162978967651725
1779964892367134000,11.843134033203125,0.00015271631127689034,-0.0003054326225537807,0.0009162978967651725
1779964892383463200,11.859463134765624,-0.00045814894838258624,0.00045814894838258624,0.001527163083665073
1779964892399800600,11.875800537109376,0.00045814894838258624,0.0010690141934901476,0.0007635815418325365
1779964892416111400,11.892111328125,-0.00015271631127689034,0.0019853119738399982,-0.0003054326225537807
1779964892432440000,11.908440185546874,-0.00045814894838258624,0,-0.0006108652451075613
1779964892448768800,11.924768798828126,0.0003054326225537807,0.0006108652451075613,-0.0003054326225537807
1779964892465100300,11.941100341796876,0,0.0010690141934901476,-0.00045814894838258624
1779964892481431000,11.95743115234375,0.0006108652451075613,-0.0006108652451075613,-0.0013744467869400978
1779964892497760500,11.973760498046875,-0.0003054326225537807,-0.0003054326225537807,-0.0009162978967651725
1779964892514090200,11.99009033203125,-0.0003054326225537807,-0.0013744467869400978,0.00045814894838258624
1779964892530434800,12.006434814453126,-0.0006108652451075613,-0.00015271631127689034,0.0010690141934901476
1779964892546768600,12.0227685546875,-0.0012217304902151227,-0.0003054326225537807,0.00015271631127689034
1779964892563094300,12.03909423828125,-0.0006108652451075613,-0.0029016099870204926,0.00045814894838258624
1779964892579422500,12.05542236328125,0.0006108652451075613,-0.0022907445672899485,0.0003054326225537807
1779964892595754800,12.071754638671875,0.00045814894838258624,-0.0019853119738399982,0.0012217304902151227
1779964892612065800,12.088065673828124,-0.00015271631127689034,-0.0019853119738399982,-0.0009162978967651725
1779964892628404500,12.104404541015626,-0.0006108652451075613,-0.0003054326225537807,-0.0010690141934901476
1779964892644731100,12.120731201171875,0.0003054326225537807,0.0013744467869400978,-0.0013744467869400978
1779964892661062000,12.137061767578125,-0.0003054326225537807,0.0007635815418325365,-0.0006108652451075613
1779964892677393700,12.1533935546875,-0.00015271631127689034,0.001527163083665073,0
1779964892693710300,12.16971044921875,-0.0003054326225537807,0.0010690141934901476,0.0007635815418325365
1779964892710061000,12.18606103515625,-0.0003054326225537807,0.0012217304902151227,0.0012217304902151227
1779964892726402300,12.20240234375,-0.0003054326225537807,-0.00015271631127689034,0.0013744467869400978
1779964892742726100,12.21872607421875,0.00045814894838258624,0.00045814894838258624,0.0010690141934901476
1779964892759023400,12.2350234375,0.00045814894838258624,-0.0012217304902151227,-0.0009162978967651725
1779964892775385300,12.25138525390625,0.0003054326225537807,-0.002138028386980295,-0.0003054326225537807
1779964892791731500,12.2677314453125,-0.00045814894838258624,-0.001832595793530345,0.0009162978967651725
1779964892808042500,12.28404248046875,0.0003054326225537807,-0.001527163083665073,0.0010690141934901476
1779964892824375800,12.300375732421875,0.00045814894838258624,-0.0010690141934901476,0.00045814894838258624
1779964892840704300,12.316704345703124,-0.0006108652451075613,-0.0007635815418325365,0.0003054326225537807
1779964892857018600,12.3330185546875,-0.00015271631127689034,-0.001527163083665073,0.00045814894838258624
1779964892873383700,12.3493837890625,-0.00015271631127689034,-0.0006108652451075613,0.001832595793530345
1779964892889699000,12.365698974609375,0.0006108652451075613,0.0003054326225537807,0.0006108652451075613
1779964892906019600,12.38201953125,-0.00045814894838258624,-0.00015271631127689034,0.0003054326225537807
1779964892922343200,12.39834326171875,0.0003054326225537807,0.0006108652451075613,0.0010690141934901476
1779964892938672000,12.414672119140626,0,0.0027488935738801956,-0.00015271631127689034
1779964892955003400,12.43100341796875,0.0006108652451075613,0.0025961773935705423,0.00045814894838258624
1779964892971332400,12.447332275390625,-0.00015271631127689034,0.0010690141934901476,-0.0009162978967651725
1779964892987675600,12.463675537109374,-0.0007635815418325365,-0.0003054326225537807,-0.00015271631127689034
1779964893004001300,12.480001220703125,0.00015271631127689034,0.0006108652451075613,0.0010690141934901476
1779964893020365000,12.496364990234374,0.0006108652451075613,0.001527163083665073,0.0003054326225537807
1779964893036666600,12.51266650390625,0,0.0013744467869400978,-0.0010690141934901476
1779964893053000700,12.529000732421874,-0.00015271631127689034,0,0.00045814894838258624
1779964893069326800,12.545326904296875,-0.00015271631127689034,-0.0012217304902151227,0.0010690141934901476
1779964893085657600,12.56165771484375,0.00045814894838258624,-0.0006108652451075613,0.001679879380390048
1779964893101985000,12.577985107421876,0.0012217304902151227,-0.0007635815418325365,0.0012217304902151227
1779964893118305000,12.594304931640625,-0.0007635815418325365,0.00045814894838258624,0
1779964893134622700,12.610622802734374,-0.0006108652451075613,-0.00045814894838258624,-0.0010690141934901476
1779964893150961700,12.626961669921876,0.0003054326225537807,0.001832595793530345,-0.0003054326225537807
1779964893167298300,12.64329833984375,-0.0003054326225537807,-0.00045814894838258624,-0.0003054326225537807
1779964893183625000,12.659625,-0.0003054326225537807,0.0009162978967651725,-0.0012217304902151227
1779964893199956000,12.6759560546875,0.0003054326225537807,0.0009162978967651725,-0.0003054326225537807
1779964893216286000,12.692285888671876,-0.00045814894838258624,-0.00015271631127689034,-0.0013744467869400978
1779964893232616700,12.70861669921875,0.00015271631127689034,-0.00045814894838258624,-0.00015271631127689034
1779964893248959700,12.724959716796874,-0.00045814894838258624,-0.0003054326225537807,0
1779964893265317400,12.7413173828125,-0.00015271631127689034,0,-0.0013744467869400978
1779964893281619500,12.757619384765626,0.0003054326225537807,-0.00045814894838258624,0.00045814894838258624
1779964893297945600,12.773945556640625,-0.0006108652451075613,-0.0012217304902151227,-0.00045814894838258624
1779964893314284000,12.790283935546874,-0.0006108652451075613,-0.0010690141934901476,0.0003054326225537807
1779964893330611000,12.80661083984375,0.00015271631127689034,-0.0024434609804302454,0.0003054326225537807
1779964893346939100,12.822939208984375,0.00015271631127689034,-0.001527163083665073,0.002138028386980295
1779964893363270400,12.8392705078125,0.00045814894838258624,-0.0006108652451075613,0.0010690141934901476
1779964893379601000,12.855600830078124,-0.00045814894838258624,-0.0003054326225537807,0.0009162978967651725
1779964893395911400,12.871911376953125,-0.00045814894838258624,-0.0012217304902151227,0.0006108652451075613
1779964893412245500,12.88824560546875,-0.0006108652451075613,-0.00015271631127689034,0.00015271631127689034
1779964893428576800,12.90457666015625,-0.00045814894838258624,-0.0010690141934901476,0.00045814894838258624
1779964893444892000,12.920891845703125,-0.00045814894838258624,0.0010690141934901476,-0.001527163083665073
1779964893461224700,12.937224609375,-0.00045814894838258624,0.0007635815418325365,0.00015271631127689034
1779964893477568800,12.95356884765625,-0.0003054326225537807,0,-0.0012217304902151227
1779964893493897500,12.9698974609375,-0.0003054326225537807,0,0
1779964893510244400,12.986244384765625,0.0003054326225537807,0,0.00045814894838258624
1779964893526572000,13.002572021484376,0.0003054326225537807,-0.0003054326225537807,0.0006108652451075613
1779964893542899000,13.01889892578125,-0.00015271631127689034,-0.0009162978967651725,0.0006108652451075613
1779964893559231200,13.035231201171875,-0.00015271631127689034,-0.0010690141934901476,-0.00015271631127689034
1779964893575561200,13.051561279296875,-0.00015271631127689034,-0.0010690141934901476,0.0010690141934901476
1779964893591886300,13.06788623046875,0.0003054326225537807,-0.002138028386980295,-0.0003054326225537807
1779964893608206300,13.084206298828125,0.00045814894838258624,0.0009162978967651725,-0.00015271631127689034
1779964893624525600,13.100525634765624,-0.00045814894838258624,0.0006108652451075613,0.0009162978967651725
1779964893640868400,13.116868408203125,0.0006108652451075613,0.00045814894838258624,-0.00015271631127689034
1779964893657199000,13.13319921875,0.0003054326225537807,0,0.00015271631127689034
1779964893673528300,13.1495283203125,0.0006108652451075613,0.00015271631127689034,-0.00015271631127689034
1779964893689859600,13.165859619140624,0.00015271631127689034,0.0009162978967651725,0.0006108652451075613
1779964893706206000,13.1822060546875,0.00015271631127689034,0.00015271631127689034,0.0003054326225537807
1779964893722533000,13.198533203125,0.0006108652451075613,-0.0006108652451075613,0.0003054326225537807
1779964893738862600,13.214862548828124,-0.00015271631127689034,0.0006108652451075613,-0.0012217304902151227
1779964893755187000,13.23118701171875,0.00045814894838258624,0.0006108652451075613,-0.0007635815418325365
1779964893771522800,13.247522705078126,0.0006108652451075613,0,-0.0012217304902151227
1779964893787850000,13.26385009765625,-0.00045814894838258624,-0.0013744467869400978,-0.0007635815418325365
1779964893804185600,13.280185546875,0.0003054326225537807,-0.0010690141934901476,0.0007635815418325365
1779964893820512500,13.296512451171875,-0.0003054326225537807,0.0009162978967651725,0.001832595793530345
1779964893836852000,13.31285205078125,0.0003054326225537807,-0.0013744467869400978,-0.0012217304902151227
1779964893853132500,13.329132568359375,0.00045814894838258624,-0.0032070425804704428,0.00015271631127689034
1779964893869493000,13.345492919921876,0.0003054326225537807,-0.001832595793530345,0.0007635815418325365
1779964893885815600,13.361815673828126,-0.00045814894838258624,0.0007635815418325365,0.0003054326225537807
1779964893902154500,13.378154541015626,0.00015271631127689034,0.0012217304902151227,0.0003054326225537807
1779964893918488000,13.394488037109374,0.0003054326225537807,0.001832595793530345,0.00045814894838258624
1779964893934810600,13.410810546875,-0.00015271631127689034,0.0032070425804704428,0.00015271631127689034
1779964893951140000,13.42714013671875,-0.00015271631127689034,0.0039706239476799965,0.00045814894838258624
1779964893967471900,13.443471923828126,0.00045814894838258624,0.0022907445672899485,-0.0010690141934901476
1779964893983804700,13.4598046875,0.0006108652451075613,0.0013744467869400978,-0.0022907445672899485
1779964894000135400,13.476135498046874,0.0006108652451075613,0.001679879380390048,-0.0006108652451075613
1779964894016458500,13.49245849609375,-0.0003054326225537807,0.0010690141934901476,-0.0003054326225537807
1779964894032804400,13.508804443359375,0.0006108652451075613,0.00015271631127689034,-0.0012217304902151227
1779964894049132800,13.5251328125,-0.00045814894838258624,-0.0009162978967651725,-0.0009162978967651725
1779964894065470500,13.541470458984374,0.00015271631127689034,-0.0025961773935705423,-0.00015271631127689034
1779964894081794600,13.557794677734375,-0.00015271631127689034,-0.001832595793530345,0.00015271631127689034
1779964894098108200,13.574108154296875,0.0006108652451075613,-0.001679879380390048,-0.0013744467869400978
1779964894114440700,13.590440673828125,0.00015271631127689034,-0.001527163083665073,-0.0012217304902151227
1779964894130773500,13.6067734375,0.00015271631127689034,-0.0013744467869400978,0.00015271631127689034
1779964894147101700,13.623101806640625,0.0003054326225537807,0.00015271631127689034,-0.002138028386980295
1779964894163432400,13.639432373046875,-0.00015271631127689034,0.001679879380390048,-0.0010690141934901476
1779964894179761000,13.655760986328126,-0.0006108652451075613,0.0013744467869400978,0.001527163083665073
1779964894196085200,13.672085205078124,-0.00045814894838258624,0.001527163083665073,-0.001527163083665073
1779964894212434200,13.68843408203125,-0.0006108652451075613,0.002138028386980295,-0.0007635815418325365
1779964894228767500,13.704767578125,0.0006108652451075613,0.0012217304902151227,-0.0013744467869400978
1779964894245097000,13.721096923828124,0.0007635815418325365,0.0010690141934901476,-0.0019853119738399982
1779964894261410000,13.73741015625,-0.00015271631127689034,0.0009162978967651725,-0.0010690141934901476
1779964894277758000,13.753758056640624,-0.00045814894838258624,-0.00045814894838258624,-0.0012217304902151227
1779964894294084600,13.770084716796875,-0.00045814894838258624,-0.0006108652451075613,-0.0010690141934901476
1779964894310415600,13.78641552734375,-0.00015271631127689034,-0.0007635815418325365,-0.0013744467869400978
1779964894326747100,13.8027470703125,-0.0003054326225537807,0,-0.00045814894838258624
1779964894343076600,13.81907666015625,-0.00045814894838258624,-0.0013744467869400978,-0.00045814894838258624
1779964894359406300,13.83540625,-0.0003054326225537807,-0.0007635815418325365,0.00045814894838258624
1779964894375733000,13.85173291015625,0.0006108652451075613,-0.0013744467869400978,-0.00045814894838258624
1779964894392050000,13.8680498046875,0,-0.0006108652451075613,-0.001527163083665073
1779964894408386800,13.88438671875,0.00045814894838258624,0.0012217304902151227,0.0007635815418325365
1779964894424706300,13.900706298828124,0.0003054326225537807,0.002138028386980295,-0.0013744467869400978
1779964894441047000,13.917047119140625,0.0006108652451075613,-0.00015271631127689034,-0.001832595793530345
1779964894457370600,13.93337060546875,-0.00045814894838258624,0.0029016099870204926,-0.0006108652451075613
1779964894473704000,13.949703857421875,0.0006108652451075613,0.004428773187100887,-0.00015271631127689034
1779964894490034400,13.966034423828125,-0.00015271631127689034,0.0027488935738801956,-0.0003054326225537807
1779964894506377500,13.98237744140625,0.00015271631127689034,0.00015271631127689034,-0.0012217304902151227
1779964894522691000,13.998691162109376,-0.0003054326225537807,0.0027488935738801956,-0.0010690141934901476
1779964894539038200,14.0150380859375,-0.00015271631127689034,0.001527163083665073,-0.00045814894838258624
1779964894555351600,14.0313515625,-0.00045814894838258624,0.00015271631127689034,-0.0013744467869400978
1779964894571697000,14.04769677734375,0.00045814894838258624,-0.0013744467869400978,-0.0006108652451075613
1779964894588012000,14.064011962890625,0.0006108652451075613,0.0007635815418325365,-0.0012217304902151227
1779964894604344800,14.0803447265625,0.0009162978967651725,0.0013744467869400978,-0.0013744467869400978
1779964894620674800,14.0966748046875,0.0003054326225537807,0.0009162978967651725,-0.001527163083665073
1779964894637006800,14.1130068359375,0.0006108652451075613,0.0009162978967651725,-0.0013744467869400978
1779964894653334500,14.12933447265625,0.0007635815418325365,0.0013744467869400978,-0.0013744467869400978
1779964894669665000,14.1456650390625,-0.00045814894838258624,0.0032070425804704428,-0.0019853119738399982
1779964894685997600,14.16199755859375,0.0006108652451075613,0.0022907445672899485,-0.001527163083665073
1779964894702342000,14.178341796875,-0.0006108652451075613,0.003054326167330146,-0.0012217304902151227
1779964894718637300,14.19463720703125,0.0009162978967651725,0.0032070425804704428,-0.0025961773935705423
1779964894734999300,14.210999267578124,-0.0012217304902151227,0.0024434609804302454,-0.0012217304902151227
1779964894751345000,14.227344970703125,-0.0006108652451075613,0.0019853119738399982,-0.0025961773935705423
1779964894767682600,14.2436826171875,-0.0003054326225537807,0.0022907445672899485,-0.0022907445672899485
1779964894783963400,14.25996337890625,-0.0006108652451075613,0.0019853119738399982,-0.0024434609804302454
1779964894800320000,14.276320068359375,0.0003054326225537807,0,-0.001679879380390048
1779964894816632800,14.2926328125,0.0006108652451075613,-0.0006108652451075613,-0.0032070425804704428
1779964894832976400,14.308976318359376,0.00045814894838258624,-0.003054326167330146,0
1779964894849316000,14.325316162109376,-0.0006108652451075613,-0.0007635815418325365,0.00015271631127689034
1779964894865631000,14.341630859375,0.0003054326225537807,0.00045814894838258624,-0.0013744467869400978
1779964894881956600,14.35795654296875,-0.0003054326225537807,-0.00015271631127689034,-0.0010690141934901476
1779964894898287600,14.37428759765625,-0.0003054326225537807,-0.001679879380390048,-0.0006108652451075613
1779964894914616800,14.390616943359374,-0.0006108652451075613,-0.0003054326225537807,-0.0003054326225537807
1779964894930947000,14.406947021484376,-0.0003054326225537807,0.00015271631127689034,-0.0006108652451075613
1779964894947274000,14.42327392578125,0.0003054326225537807,0.00045814894838258624,-0.002138028386980295
1779964894963615000,14.439614990234375,0.00045814894838258624,0.0007635815418325365,-0.00045814894838258624
1779964894979950800,14.455950927734374,-0.0012217304902151227,-0.0009162978967651725,-0.0007635815418325365
1779964894996264700,14.4722646484375,-0.00015271631127689034,-0.00015271631127689034,-0.0003054326225537807
1779964895012605400,14.48860546875,0.00015271631127689034,0.001527163083665073,0
1779964895028943000,14.504943115234376,-0.0003054326225537807,-0.0007635815418325365,0.00015271631127689034
1779964895045271600,14.521271484375,-0.0003054326225537807,-0.00015271631127689034,0.0003054326225537807
1779964895061601500,14.5376015625,0.00045814894838258624,-0.0003054326225537807,0.0003054326225537807
1779964895077926400,14.553926513671875,-0.00045814894838258624,-0.0029016099870204926,-0.0003054326225537807
1779964895094249500,14.57024951171875,-0.0006108652451075613,-0.004123340360820293,-0.00015271631127689034
1779964895110577000,14.586576904296875,-0.0007635815418325365,-0.0029016099870204926,0.0007635815418325365
1779964895126910000,14.602909912109375,-0.0006108652451075613,-0.0027488935738801956,0.0003054326225537807
1779964895143238700,14.61923876953125,-0.0006108652451075613,-0.0029016099870204926,0.0007635815418325365
1779964895159570000,14.63556982421875,0.00045814894838258624,-0.0003054326225537807,0.0009162978967651725
1779964895175886600,14.651886474609375,0.00045814894838258624,-0.001679879380390048,0.0010690141934901476
1779964895192241400,14.668241455078125,-0.00045814894838258624,-0.00045814894838258624,0.0022907445672899485
1779964895208574700,14.68457470703125,-0.0003054326225537807,0.0010690141934901476,0.003817907767370343
1779964895224904000,14.700904052734375,0.0006108652451075613,0.0012217304902151227,0.0007635815418325365
1779964895241233000,14.71723291015625,0.0006108652451075613,0.001832595793530345,0.0009162978967651725
1779964895257565200,14.733565185546874,0.0003054326225537807,0.001527163083665073,-0.0013744467869400978
1779964895273888500,14.749888427734374,0.0003054326225537807,0.0013744467869400978,0.0003054326225537807
1779964895290227000,14.76622705078125,0,-0.0003054326225537807,0.001679879380390048
1779964895306553000,14.782552978515625,0.0003054326225537807,-0.0009162978967651725,0.00015271631127689034
1779964895322883300,14.79888330078125,-0.0006108652451075613,-0.00045814894838258624,0.00045814894838258624
1779964895339213300,14.81521337890625,0.0003054326225537807,-0.00366519158706069,0.0007635815418325365
1779964895355541000,14.831541015625,0.00045814894838258624,-0.003054326167330146,-0.00015271631127689034
1779964895371860000,14.84785986328125,-0.0006108652451075613,-0.0003054326225537807,0.00045814894838258624
1779964895388190200,14.864190185546875,-0.00015271631127689034,-0.001527163083665073,-0.0006108652451075613
1779964895404509000,14.880509033203126,-0.0003054326225537807,-0.001679879380390048,0.00015271631127689034
1779964895420851500,14.8968515625,0.00015271631127689034,-0.0009162978967651725,0.001832595793530345
1779964895437180700,14.9131806640625,-0.0003054326225537807,-0.0010690141934901476,0.0025961773935705423
1779964895453510100,14.92951025390625,-0.0007635815418325365,-0.0007635815418325365,0.001679879380390048
1779964895469857800,14.94585791015625,-0.00045814894838258624,-0.0006108652451075613,0.0003054326225537807
1779964895486152200,14.962152099609375,0.00015271631127689034,0.001832595793530345,0.0006108652451075613
1779964895502503400,14.97850341796875,0.00045814894838258624,0.0012217304902151227,-0.0003054326225537807
1779964895518844400,14.994844482421875,0.00015271631127689034,0.003359758760780096,0.00045814894838258624
1779964895535173400,15.01117333984375,0.0003054326225537807,0.002138028386980295,0.0007635815418325365
1779964895551523800,15.02752392578125,0.0003054326225537807,0.00015271631127689034,-0.00015271631127689034
1779964895567835100,15.043835205078125,0.00015271631127689034,-0.0010690141934901476,0.0009162978967651725
1779964895584147700,15.060147705078125,0.0006108652451075613,-0.001527163083665073,0.00045814894838258624
1779964895600482000,15.07648193359375,0.00015271631127689034,-0.0032070425804704428,-0.0009162978967651725
1779964895616813000,15.09281298828125,0.0003054326225537807,-0.0027488935738801956,0.00015271631127689034
1779964895633141800,15.109141845703125,-0.0003054326225537807,-0.00366519158706069,0.0012217304902151227
1779964895649478400,15.125478515625,-0.0007635815418325365,-0.001832595793530345,0.0009162978967651725
1779964895665802200,15.14180224609375,-0.0006108652451075613,-0.0013744467869400978,0.00015271631127689034
1779964895682156800,15.15815673828125,-0.0006108652451075613,-0.0025961773935705423,0
1779964895698469000,15.17446923828125,-0.0006108652451075613,0,0
1779964895714786800,15.190786865234376,0.00045814894838258624,0.00045814894838258624,-0.00015271631127689034
1779964895731136300,15.20713623046875,0.00015271631127689034,0.00015271631127689034,0.0007635815418325365
1779964895747468000,15.223468017578124,0.00045814894838258624,0.0012217304902151227,0.0007635815418325365
1779964895763785500,15.239785400390625,0.0006108652451075613,-0.0010690141934901476,0.0006108652451075613
1779964895780130000,15.256130126953124,-0.00015271631127689034,-0.0006108652451075613,0.0006108652451075613
1779964895796467200,15.27246728515625,0.00045814894838258624,0.0006108652451075613,0.00015271631127689034
1779964895812807700,15.2888076171875,0.00045814894838258624,-0.0009162978967651725,0
1779964895829116400,15.305116455078124,-0.0003054326225537807,-0.0003054326225537807,0.0003054326225537807
1779964895845429800,15.3214296875,0.0003054326225537807,-0.0013744467869400978,0.0003054326225537807
1779964895861763600,15.337763671875,-0.0006108652451075613,-0.0003054326225537807,0.001679879380390048
1779964895878089200,15.354089111328125,-0.0003054326225537807,-0.0022907445672899485,0.0010690141934901476
1779964895894429200,15.37042919921875,-0.0003054326225537807,-0.0025961773935705423,0.0010690141934901476
1779964895910751200,15.386751220703125,-0.0003054326225537807,-0.0013744467869400978,0.0012217304902151227
1779964895927084800,15.403084716796876,0.0009162978967651725,-0.001679879380390048,0.00015271631127689034
1779964895943418000,15.419418212890625,0.00015271631127689034,-0.0007635815418325365,0.0003054326225537807
1779964895959758300,15.43575830078125,0.0006108652451075613,-0.0013744467869400978,0
1779964895976082400,15.45208251953125,0.00015271631127689034,-0.0003054326225537807,-0.00015271631127689034
1779964895992418300,15.468418212890626,0,-0.0003054326225537807,0.0022907445672899485
1779964896008749300,15.484749267578126,-0.0006108652451075613,0.0007635815418325365,0.001832595793530345
1779964896025077800,15.501077880859375,-0.00045814894838258624,0.002138028386980295,0.0007635815418325365
1779964896041416200,15.517416259765625,-0.0003054326225537807,-0.00015271631127689034,0.0007635815418325365
1779964896057738500,15.533738525390625,-0.0010690141934901476,0.0009162978967651725,-0.0003054326225537807
1779964896074052600,15.550052490234375,0.00015271631127689034,0.0012217304902151227,0.00015271631127689034
1779964896090385000,15.566385009765625,-0.00045814894838258624,-0.0003054326225537807,-0.0009162978967651725
1779964896106715100,15.582715087890625,-0.00045814894838258624,-0.0006108652451075613,0.0010690141934901476
1779964896123045000,15.599045166015625,0.00015271631127689034,-0.002138028386980295,0.0012217304902151227
1779964896139376400,15.61537646484375,0.00015271631127689034,-0.0007635815418325365,0.0012217304902151227
1779964896155705600,15.63170556640625,0.0006108652451075613,0.0010690141934901476,0
1779964896172046600,15.648046630859374,-0.00045814894838258624,0.00015271631127689034,-0.00015271631127689034
1779964896188383500,15.664383544921876,0.00045814894838258624,0.00045814894838258624,-0.00045814894838258624
1779964896204710100,15.680710205078125,0,-0.00015271631127689034,0.0022907445672899485
1779964896221039900,15.697039794921874,-0.0006108652451075613,-0.0003054326225537807,0.0022907445672899485
1779964896237355800,15.713355712890625,0.00045814894838258624,0.00015271631127689034,0.0010690141934901476
1779964896253704000,15.729703857421875,0.0006108652451075613,0.001527163083665073,0.0006108652451075613
1779964896270031400,15.74603125,-0.00045814894838258624,0.001679879380390048,0.00045814894838258624
1779964896286359300,15.762359375,0.00015271631127689034,0.0013744467869400978,-0.0006108652451075613
1779964896302690300,15.778690185546875,-0.00045814894838258624,0.0006108652451075613,-0.00015271631127689034
1779964896319024000,15.795024169921875,-0.0006108652451075613,0.0013744467869400978,0.00015271631127689034
1779964896335344000,15.81134423828125,-0.00045814894838258624,0.0009162978967651725,0.00015271631127689034
1779964896351666400,15.82766650390625,-0.00045814894838258624,-0.0009162978967651725,0.001679879380390048
1779964896367996700,15.84399658203125,-0.0003054326225537807,-0.0006108652451075613,0.0003054326225537807
1779964896384327000,15.860326904296874,-0.0006108652451075613,-0.0013744467869400978,0.0003054326225537807
1779964896400658200,15.876658203125,0.0003054326225537807,-0.0007635815418325365,0.0003054326225537807
1779964896416983300,15.8929833984375,-0.00015271631127689034,-0.0007635815418325365,-0.00015271631127689034
1779964896433324500,15.909324462890625,-0.0006108652451075613,-0.0025961773935705423,-0.0003054326225537807
1779964896449678600,15.9256787109375,-0.0006108652451075613,-0.0009162978967651725,0.00045814894838258624
1779964896465951000,15.941950927734375,-0.0006108652451075613,-0.0003054326225537807,0.0003054326225537807
1779964896482329600,15.95832958984375,-0.0006108652451075613,-0.0007635815418325365,0.0007635815418325365
1779964896498651100,15.974651123046876,0.00015271631127689034,-0.0006108652451075613,0.001527163083665073
1779964896514981600,15.990981689453125,-0.0010690141934901476,0.00015271631127689034,0.0009162978967651725
1779964896531296500,16.007296630859376,0,-0.00045814894838258624,0.00045814894838258624
1779964896547625200,16.023625244140625,0.00045814894838258624,-0.0024434609804302454,-0.001679879380390048
1779964896563958800,16.039958740234376,-0.00015271631127689034,0.0007635815418325365,-0.0007635815418325365
1779964896580288500,16.05628857421875,-0.0006108652451075613,0.0009162978967651725,0.0003054326225537807
1779964896596619800,16.072619873046875,-0.0006108652451075613,0.0009162978967651725,0.0003054326225537807
1779964896612952800,16.088952880859374,0.0003054326225537807,-0.00045814894838258624,0.001679879380390048
1779964896629262300,16.105262451171875,0.0003054326225537807,-0.0012217304902151227,0
1779964896645599000,16.121598876953126,-0.0006108652451075613,-0.0009162978967651725,-0.00045814894838258624
1779964896661939000,16.13793896484375,-0.00015271631127689034,0.0012217304902151227,-0.00015271631127689034
1779964896678269700,16.154269775390624,0.0006108652451075613,-0.0010690141934901476,0
1779964896694596900,16.170596923828125,0.0003054326225537807,-0.001527163083665073,0.0009162978967651725
1779964896710942700,16.186942626953126,0.00015271631127689034,-0.001679879380390048,0.0007635815418325365
1779964896727270000,16.203269775390623,-0.00045814894838258624,-0.00045814894838258624,-0.0003054326225537807
1779964896743609000,16.219609130859375,-0.0006108652451075613,-0.00045814894838258624,-0.00015271631127689034
1779964896759938600,16.2359384765625,-0.00045814894838258624,-0.0009162978967651725,0.00015271631127689034
1779964896776250000,16.25225,-0.0006108652451075613,-0.0010690141934901476,0.0009162978967651725
1779964896792574000,16.268573974609374,-0.0003054326225537807,-0.0007635815418325365,0.0007635815418325365
1779964896808925700,16.28492578125,-0.00015271631127689034,0.00045814894838258624,0
1779964896825250600,16.30125048828125,-0.00015271631127689034,0.00045814894838258624,-0.0010690141934901476
1779964896841570300,16.3175703125,-0.00015271631127689034,-0.00015271631127689034,-0.0007635815418325365
1779964896857901000,16.333901123046875,0.00015271631127689034,0,0.00045814894838258624
1779964896874230500,16.35023046875,-0.00045814894838258624,0.002138028386980295,-0.00045814894838258624
1779964896890558000,16.366557861328126,0.00045814894838258624,0.001679879380390048,-0.00045814894838258624
1779964896906893000,16.38289306640625,-0.0006108652451075613,-0.0007635815418325365,0.0003054326225537807
1779964896923224300,16.399224365234375,0,-0.002138028386980295,-0.0007635815418325365
1779964896939566000,16.415566162109375,0.00045814894838258624,-0.00015271631127689034,0.0003054326225537807
1779964896955891200,16.43189111328125,0.0006108652451075613,0.0009162978967651725,0.0007635815418325365
1779964896972216800,16.448216796875,-0.00015271631127689034,-0.001679879380390048,-0.0019853119738399982
1779964896988559400,16.464559326171877,-0.0003054326225537807,-0.001527163083665073,-0.0003054326225537807
1779964897004887600,16.480887451171874,-0.0006108652451075613,-0.00015271631127689034,0
1779964897021215000,16.497215087890623,0.00045814894838258624,-0.0003054326225537807,0.0007635815418325365
1779964897037534500,16.513534423828126,0.00015271631127689034,-0.00015271631127689034,0.0006108652451075613
1779964897053874000,16.5298740234375,-0.0003054326225537807,0,-0.0003054326225537807
1779964897070190800,16.54619091796875,-0.0006108652451075613,0.0003054326225537807,-0.00015271631127689034
1779964897086521600,16.562521484375,-0.0003054326225537807,0.0022907445672899485,-0.0012217304902151227
1779964897102851800,16.578851806640625,0,0.0029016099870204926,-0.0006108652451075613
1779964897119183400,16.595183349609375,-0.00045814894838258624,0.0024434609804302454,-0.001679879380390048
1779964897135512000,16.611511962890624,0.0003054326225537807,0.0009162978967651725,-0.00015271631127689034
1779964897151841500,16.627841552734374,0.0006108652451075613,0.00045814894838258624,0.0003054326225537807
1779964897168189700,16.644189697265624,-0.00015271631127689034,0.00015271631127689034,-0.0012217304902151227
1779964897184500200,16.660500244140625,0,-0.0012217304902151227,-0.0003054326225537807
1779964897200820200,16.6768203125,-0.00015271631127689034,-0.0003054326225537807,-0.0007635815418325365
1779964897217176800,16.6931767578125,-0.00045814894838258624,0.0010690141934901476,0.0003054326225537807
1779964897233506300,16.70950634765625,-0.00045814894838258624,-0.0010690141934901476,-0.0007635815418325365
1779964897249835500,16.72583544921875,-0.0012217304902151227,-0.0003054326225537807,0.00045814894838258624
1779964897266190600,16.742190673828127,-0.00015271631127689034,-0.0006108652451075613,-0.0012217304902151227
1779964897282492400,16.758492431640626,0,0.0007635815418325365,0.00015271631127689034
1779964897298830800,16.774830810546874,0.0006108652451075613,0.0003054326225537807,-0.0003054326225537807
1779964897315162600,16.79116259765625,0.0006108652451075613,0,0.00015271631127689034
1779964897331473700,16.8074736328125,0.0006108652451075613,-0.00045814894838258624,0.0009162978967651725
1779964897347803400,16.823803466796875,-0.0007635815418325365,0.0007635815418325365,-0.001679879380390048
1779964897364113000,16.84011279296875,0.0006108652451075613,0.0009162978967651725,-0.0012217304902151227
1779964897380463600,16.856463623046874,-0.0007635815418325365,0.00015271631127689034,-0.0013744467869400978
1779964897396793900,16.8727939453125,-0.0003054326225537807,0.0010690141934901476,-0.0022907445672899485
1779964897413123800,16.889123779296874,-0.00015271631127689034,-0.00015271631127689034,-0.0013744467869400978
1779964897429470700,16.905470703125,-0.0003054326225537807,0.0009162978967651725,-0.0007635815418325365
1779964897445799200,16.921799072265625,0.0006108652451075613,0.0003054326225537807,-0.0006108652451075613
1779964897462128000,16.938128173828126,0.00045814894838258624,0.0013744467869400978,-0.0007635815418325365
1779964897478458000,16.9544580078125,-0.00045814894838258624,0.0006108652451075613,-0.0006108652451075613
1779964897494807800,16.970807861328126,0,-0.00045814894838258624,-0.0009162978967651725
1779964897511117300,16.987117431640623,0.0006108652451075613,0.00045814894838258624,-0.001679879380390048
1779964897527457000,17.00345703125,0,0.001527163083665073,-0.0007635815418325365
1779964897543782700,17.01978271484375,0.0006108652451075613,0.002138028386980295,-0.0013744467869400978
1779964897560086500,17.03608642578125,0.0003054326225537807,0.0012217304902151227,0.0003054326225537807
1779964897576418000,17.05241796875,-0.0003054326225537807,0.001527163083665073,-0.00045814894838258624
1779964897592755200,17.068755126953125,-0.00045814894838258624,0.0007635815418325365,-0.0027488935738801956
1779964897609085200,17.085085205078126,-0.0003054326225537807,0.003054326167330146,-0.0024434609804302454
1779964897625415700,17.101415771484376,0.00045814894838258624,0.0027488935738801956,0.00015271631127689034
1779964897641745400,17.117745361328126,0.0003054326225537807,0.003054326167330146,-0.0006108652451075613
1779964897658093600,17.134093505859376,0.0007635815418325365,0.0022907445672899485,-0.0003054326225537807
1779964897674419000,17.1504189453125,0.0007635815418325365,0.0019853119738399982,-0.0024434609804302454
1779964897690745300,17.166745361328125,-0.00015271631127689034,0.001832595793530345,-0.003054326167330146
1779964897707083300,17.183083251953125,-0.0007635815418325365,0.0007635815418325365,-0.001832595793530345
1779964897723409700,17.19940966796875,-0.00045814894838258624,-0.002138028386980295,-0.002138028386980295
1779964897739740200,17.215740234375,0.0006108652451075613,0.00015271631127689034,-0.0012217304902151227
1779964897756051000,17.232051025390625,0.0007635815418325365,0.0012217304902151227,-0.0010690141934901476
1779964897772398800,17.24839892578125,0.00045814894838258624,0.003359758760780096,-0.002138028386980295
1779964897788726300,17.264726318359376,0.0003054326225537807,0.001832595793530345,-0.002138028386980295
1779964897805061400,17.281061279296875,0.0006108652451075613,0.001527163083665073,-0.0007635815418325365
1779964897821376500,17.29737646484375,0.00015271631127689034,0.0025961773935705423,-0.0013744467869400978
1779964897837708300,17.313708251953123,-0.0003054326225537807,0.004886921960860491,-0.002138028386980295
1779964897854037000,17.330037109375,-0.00045814894838258624,0.004581489134579897,-0.001832595793530345
1779964897870367200,17.3463671875,0,0.003512475173920393,-0.0009162978967651725
1779964897886695400,17.3626953125,0.0006108652451075613,0.004581489134579897,-0.001527163083665073
1779964897903033300,17.379033447265623,0.0003054326225537807,0.0039706239476799965,-0.004734205547720194
1779964897919371800,17.395371826171875,-0.00015271631127689034,0.00427605677396059,-0.0027488935738801956
1779964897935701000,17.411700927734376,0.0007635815418325365,0.003817907767370343,-0.00366519158706069
1779964897952010500,17.428010498046874,-0.00015271631127689034,0.0003054326225537807,-0.0025961773935705423
1779964897968369700,17.44436962890625,0.0003054326225537807,0.001832595793530345,-0.001832595793530345
1779964897984691700,17.460691650390626,-0.0010690141934901476,-0.0010690141934901476,-0.0025961773935705423
1779964898001022000,17.47702197265625,0.0003054326225537807,-0.00045814894838258624,-0.001832595793530345
1779964898017351700,17.4933515625,-0.0003054326225537807,-0.0010690141934901476,-0.001832595793530345
1779964898033683200,17.50968310546875,0.0003054326225537807,0.0006108652451075613,-0.003512475173920393
1779964898049995000,17.5259951171875,-0.00045814894838258624,0.00015271631127689034,-0.0022907445672899485
1779964898066328600,17.54232861328125,-0.00045814894838258624,-0.0003054326225537807,-0.0012217304902151227
1779964898082658600,17.558658447265625,0.0006108652451075613,0.0012217304902151227,-0.001679879380390048
1779964898098989800,17.57498974609375,-0.00015271631127689034,0.0013744467869400978,-0.0019853119738399982
1779964898115318800,17.59131884765625,0.0003054326225537807,0.003512475173920393,-0.0027488935738801956
1779964898131648800,17.607648681640626,-0.00045814894838258624,0.0027488935738801956,-0.0019853119738399982
1779964898147993600,17.62399365234375,-0.00045814894838258624,0.002138028386980295,-0.001679879380390048
1779964898164308700,17.640308837890625,-0.00045814894838258624,0.0025961773935705423,-0.0022907445672899485
1779964898180652800,17.65665283203125,-0.00015271631127689034,0.0019853119738399982,-0.0013744467869400978
1779964898196983600,17.672983642578124,0.0003054326225537807,0.0022907445672899485,-0.001527163083665073
1779964898213312300,17.689312255859374,0,0.001832595793530345,-0.0029016099870204926
1779964898229643800,17.705643798828124,0,0.001679879380390048,-0.0027488935738801956
1779964898245972700,17.72197265625,0.0007635815418325365,0.0012217304902151227,-0.001679879380390048
1779964898262295000,17.738294921875,-0.0007635815418325365,0,-0.0012217304902151227
1779964898278631400,17.75463134765625,0,0.00015271631127689034,-0.0006108652451075613
1779964898294961400,17.77096142578125,-0.00045814894838258624,-0.0019853119738399982,-0.0006108652451075613
1779964898311279900,17.78727978515625,0.0006108652451075613,-0.0007635815418325365,-0.0009162978967651725
1779964898327605800,17.803605712890626,-0.00045814894838258624,-0.0012217304902151227,-0.0013744467869400978
1779964898343945000,17.819945068359374,-0.00015271631127689034,0.0003054326225537807,-0.001527163083665073
1779964898360271400,17.836271240234375,0.0003054326225537807,-0.00015271631127689034,-0.0012217304902151227
1779964898376600800,17.852600830078124,0.0006108652451075613,-0.0009162978967651725,-0.00045814894838258624
1779964898392930600,17.8689306640625,-0.0003054326225537807,0.0010690141934901476,-0.001679879380390048
1779964898409275400,17.885275390625,0.00045814894838258624,0.0012217304902151227,-0.0006108652451075613
1779964898425590800,17.9015908203125,0,0.0003054326225537807,-0.001527163083665073
1779964898441927000,17.917927001953124,0.0006108652451075613,-0.0010690141934901476,-0.0007635815418325365
1779964898458251500,17.93425146484375,-0.00045814894838258624,0.0003054326225537807,-0.0006108652451075613
1779964898474597000,17.95059716796875,0.0003054326225537807,-0.00045814894838258624,0.0003054326225537807
1779964898490909200,17.9669091796875,0.0003054326225537807,-0.0012217304902151227,0.00045814894838258624
1779964898507254800,17.9832548828125,-0.0003054326225537807,-0.0007635815418325365,-0.00015271631127689034
1779964898523584800,17.999584716796875,0.0009162978967651725,0.0010690141934901476,0.0012217304902151227
1779964898539894000,18.01589404296875,-0.0003054326225537807,0.0024434609804302454,0.00045814894838258624
1779964898556220700,18.032220703125,0.00045814894838258624,0.001679879380390048,-0.0013744467869400978
1779964898572565200,18.048565185546874,0,0.001832595793530345,-0.00015271631127689034
1779964898588904200,18.064904296875,-0.00045814894838258624,0.003054326167330146,0.00045814894838258624
1779964898605222100,18.08122216796875,-0.0003054326225537807,0.003359758760780096,-0.0003054326225537807
1779964898621553400,18.097553466796874,-0.0003054326225537807,0.001527163083665073,-0.00015271631127689034
1779964898637883400,18.11388330078125,0.00045814894838258624,0,0.0010690141934901476
1779964898654228000,18.13022802734375,0.0007635815418325365,-0.00015271631127689034,-0.0003054326225537807
1779964898670556200,18.14655615234375,0.0003054326225537807,-0.0003054326225537807,0
1779964898686883300,18.16288330078125,-0.0006108652451075613,-0.001832595793530345,-0.00015271631127689034
1779964898703220500,18.179220458984375,0.0003054326225537807,-0.002138028386980295,0.00045814894838258624
1779964898719546600,18.195546630859376,0.0003054326225537807,-0.0019853119738399982,0.00015271631127689034
1779964898735889200,18.21188916015625,0.00045814894838258624,-0.0024434609804302454,0.00015271631127689034
1779964898752203800,18.228203857421875,-0.00045814894838258624,-0.0027488935738801956,0.0012217304902151227
1779964898768541000,18.244541015625,0.0003054326225537807,-0.0025961773935705423,0.0012217304902151227
1779964898784860400,18.2608603515625,0.0006108652451075613,-0.0006108652451075613,0.0019853119738399982
1779964898801187000,18.27718701171875,-0.0006108652451075613,0.0009162978967651725,0.001832595793530345
1779964898817516300,18.293516357421876,-0.0006108652451075613,0.0006108652451075613,0.0010690141934901476
1779964898833843700,18.30984375,-0.0006108652451075613,-0.0007635815418325365,0.0024434609804302454
1779964898850172700,18.326172607421874,0.0003054326225537807,-0.0006108652451075613,0.0025961773935705423
1779964898866503700,18.342503662109376,0.0003054326225537807,-0.0010690141934901476,0.0019853119738399982
1779964898882831600,18.35883154296875,0.0003054326225537807,0.0010690141934901476,0.0012217304902151227
1779964898899184600,18.3751845703125,0.0007635815418325365,0.0010690141934901476,0
1779964898915507500,18.391507568359376,0.0006108652451075613,0.00015271631127689034,-0.0003054326225537807
1779964898931834000,18.407834228515625,-0.0003054326225537807,-0.0009162978967651725,0.0009162978967651725
1779964898948173000,18.424173095703125,-0.00015271631127689034,-0.0009162978967651725,0.0012217304902151227
1779964898964493800,18.440493896484377,-0.00045814894838258624,-0.001679879380390048,0.00045814894838258624
1779964898980830500,18.45683056640625,-0.0006108652451075613,-0.002138028386980295,0.00045814894838258624
1779964898997159400,18.473159423828125,-0.00045814894838258624,-0.0025961773935705423,-0.00015271631127689034
1779964899013492700,18.48949267578125,-0.0003054326225537807,-0.0025961773935705423,-0.00045814894838258624
1779964899029815000,18.50581494140625,-0.0003054326225537807,-0.00366519158706069,0.0006108652451075613
1779964899046134800,18.522134765625,-0.0006108652451075613,-0.0012217304902151227,0
1779964899062465500,18.538465576171873,-0.0003054326225537807,-0.002138028386980295,0.00045814894838258624
1779964899078796500,18.554796630859375,-0.0003054326225537807,-0.001527163083665073,0.0010690141934901476
1779964899095104800,18.571104736328124,0.0006108652451075613,-0.0029016099870204926,0.003054326167330146
1779964899111454200,18.5874541015625,0.00045814894838258624,-0.0029016099870204926,0.0006108652451075613
1779964899127785700,18.60378564453125,0.00045814894838258624,-0.00015271631127689034,0.0007635815418325365
1779964899144132900,18.6201328125,0.00045814894838258624,0.0012217304902151227,0.0006108652451075613
1779964899160444000,18.63644384765625,0.0003054326225537807,0.0010690141934901476,0.0006108652451075613
1779964899176770300,18.652770263671876,-0.0003054326225537807,0.0010690141934901476,0.00015271631127689034
1779964899193119200,18.669119140625,-0.0003054326225537807,0.0006108652451075613,0.0010690141934901476
1779964899209451000,18.685450927734376,-0.00045814894838258624,0.0013744467869400978,-0.00045814894838258624
1779964899225779700,18.70177978515625,0.0003054326225537807,0.0022907445672899485,0
1779964899242099500,18.718099365234377,0.00015271631127689034,0.001527163083665073,0.001527163083665073
1779964899258445600,18.734445556640626,0.00015271631127689034,-0.001527163083665073,0.0013744467869400978
1779964899274772000,18.75077197265625,-0.00015271631127689034,-0.002138028386980295,0.001527163083665073
1779964899291086600,18.767086669921873,0.0006108652451075613,-0.002138028386980295,0.001832595793530345
1779964899307417600,18.78341748046875,0.00045814894838258624,-0.0003054326225537807,0.00045814894838258624
1779964899323733800,18.799733642578126,0.0003054326225537807,-0.0009162978967651725,-0.00045814894838258624
1779964899340078000,18.816078125,0.00045814894838258624,-0.0010690141934901476,-0.0009162978967651725
1779964899356405000,18.832405029296876,-0.0003054326225537807,0.00015271631127689034,0.0006108652451075613
1779964899372739800,18.84873974609375,-0.00015271631127689034,0.0003054326225537807,0.001527163083665073
1779964899389068000,18.865068115234376,0.0003054326225537807,-0.0006108652451075613,0.0022907445672899485
1779964899405411800,18.881411865234377,-0.00045814894838258624,0.001527163083665073,0.0010690141934901476
1779964899421741300,18.8977412109375,0.00015271631127689034,0.001679879380390048,0.0013744467869400978
1779964899438068500,18.914068359375,-0.00015271631127689034,0.0024434609804302454,0.00015271631127689034
1779964899454410200,18.93041015625,0.0007635815418325365,0.0012217304902151227,-0.00015271631127689034
1779964899470727200,18.94672705078125,-0.00015271631127689034,-0.00045814894838258624,-0.00015271631127689034
1779964899487054800,18.963054931640624,0.0003054326225537807,-0.0003054326225537807,0.0013744467869400978
1779964899503392000,18.97939208984375,-0.0003054326225537807,-0.0003054326225537807,0.0007635815418325365
1779964899519705600,18.99570556640625,0.0012217304902151227,-0.001832595793530345,0.001832595793530345
1779964899536039700,19.012039794921876,-0.00015271631127689034,-0.002138028386980295,0.001527163083665073
1779964899552368600,19.02836865234375,0.00015271631127689034,-0.003054326167330146,0.0029016099870204926
1779964899568698400,19.044698486328127,0.00045814894838258624,-0.00366519158706069,0.0024434609804302454
1779964899585025500,19.061025634765624,-0.00045814894838258624,-0.003359758760780096,0.00015271631127689034
1779964899601360400,19.0773603515625,0.00045814894838258624,-0.0025961773935705423,0.0013744467869400978
1779964899617688800,19.093688720703124,0.0006108652451075613,-0.001527163083665073,0.00045814894838258624
1779964899634037800,19.110037841796874,0.0006108652451075613,-0.001679879380390048,0.0003054326225537807
1779964899650363000,19.12636279296875,-0.00015271631127689034,-0.0009162978967651725,0.00015271631127689034
1779964899666693600,19.142693603515625,0.00015271631127689034,0.00015271631127689034,0.0013744467869400978
1779964899683019000,19.15901904296875,-0.00045814894838258624,-0.0006108652451075613,0.0007635815418325365
1779964899699358200,19.175358154296877,-0.0003054326225537807,0.0013744467869400978,0.0009162978967651725
1779964899715683000,19.19168310546875,0.00015271631127689034,0.0013744467869400978,0.0012217304902151227
1779964899731996700,19.20799658203125,0.00045814894838258624,0.0022907445672899485,0.00045814894838258624
1779964899748347600,19.22434765625,0.0006108652451075613,0.0024434609804302454,-0.00045814894838258624
1779964899764667100,19.240667236328125,-0.0003054326225537807,-0.00045814894838258624,0.0007635815418325365
1779964899780990000,19.256989990234374,0.0006108652451075613,-0.0009162978967651725,0.0007635815418325365
1779964899797324800,19.27332470703125,-0.0006108652451075613,-0.003054326167330146,-0.0003054326225537807
1779964899813639700,19.2896396484375,-0.00015271631127689034,-0.0013744467869400978,0
1779964899829972200,19.30597216796875,-0.00015271631127689034,-0.002138028386980295,-0.0003054326225537807
1779964899846307000,19.32230712890625,-0.00045814894838258624,0.0007635815418325365,0.0009162978967651725
1779964899862641400,19.338641357421874,0.0003054326225537807,-0.0006108652451075613,0.0003054326225537807
1779964899878989000,19.354989013671876,-0.0003054326225537807,0.0007635815418325365,-0.0003054326225537807
1779964899895314700,19.371314697265625,-0.00015271631127689034,-0.0006108652451075613,-0.00015271631127689034
1779964899911628000,19.3876279296875,0.0003054326225537807,0.00015271631127689034,0.0007635815418325365
1779964899927975200,19.40397509765625,0.0006108652451075613,-0.00015271631127689034,0.001832595793530345
1779964899944303000,19.42030322265625,-0.00045814894838258624,-0.0010690141934901476,0.0006108652451075613
1779964899960618200,19.4366181640625,0.0006108652451075613,0.00015271631127689034,-0.0006108652451075613
1779964899976965600,19.452965576171874,0,0.0012217304902151227,0.0006108652451075613
1779964899993296000,19.4692958984375,0.0006108652451075613,0.0013744467869400978,0.00015271631127689034
