time,seconds_elapsed,z,y,x
1780506647092791800,0.058791748046875,-0.25780396396815775,-0.3539388178601861,-0.09218134875958785
1780506647102784800,0.06878466796875,-0.41887656945586205,-0.7639647029928862,-0.053045069228112696
1780506647112776700,0.078776611328125,-0.29355390726327896,-0.6752949242845178,0.08375829699765891
1780506647122769000,0.088768798828125,-0.020382862815260885,-0.27461583642885085,0.004097827240265905
1780506647132760800,0.0987607421875,0.25401333951354027,0.21506460017710924,-0.17749339627157895
1780506647142753800,0.10875390625,0.39443654020428653,0.47215968522354956,-0.19741941869743168
1780506647152745700,0.118745849609375,0.35301790362298485,0.4571187679581344,-0.0928671938655898
1780506647162738000,0.128738037109375,0.14481646721363067,0.25117314765155313,0.14762739644851536
1780506647172731000,0.13873095703125,-0.1006517467945814,0.034667847146838904,0.3338634135589003
1780506647182722800,0.148722900390625,-0.22645020980536937,-0.08275222522765398,0.2405826339237392
1780506647192715000,0.158715087890625,-0.2763110960394144,0.0701721451178193,0.2349901842115447
1780506647202707700,0.168707763671875,-0.3121335200488567,0.3460039332076907,0.08102284415178
1780506647212700000,0.178699951171875,-0.06131167005300522,0.4939230426117778,-0.4095229040466249
1780506647222691800,0.18869189453125,-0.06718669956624508,0.7227700844258069,-0.5920333612952381
1780506647232684800,0.198684814453125,0.08460662092268466,0.6073761110514402,-0.22843941086120903
1780506647242676700,0.2086767578125,0.0420586880505085,0.33803967633023857,-0.16609255254156888
1780506647252669000,0.2186689453125,-0.02435936523079872,0.1792436374723911,0.04552914064005017
1780506647262660900,0.228660888671875,0.03379939374923706,0.1602330859236419,0.3137158938694745
1780506647272653800,0.23865380859375,0.3236491857975721,0.04873363576978445,-0.16389153536595402
1780506647282646000,0.24864599609375,0.26471593531370163,-0.14968348872810602,-0.1397529002137482
1780506647292638000,0.258637939453125,0.3730097212940454,-0.2631071849428117,0.05666669379137456
1780506647302631000,0.268630859375,0.47681963985860343,-0.03563946865797043,0.1678271212492138
1780506647312622800,0.278622802734375,0.5137310281485319,0.14098039618209005,0.11674546104855835
1780506647322614800,0.28861474609375,0.5539303520679474,0.20747750604897736,-0.04185107318181544
1780506647332607700,0.298607666015625,0.3546341066479683,-0.21049626934826374,0.14973927403595297
1780506647342600000,0.308599853515625,0.10132920766472815,-0.45152109408155083,0.5503370402837172
1780506647352592000,0.318591796875,0.1553197410494089,-0.15004282355979084,0.27927031117118895
1780506647362583800,0.328583740234375,-0.06281389130949974,-0.1856966130040586,0.13316080847233533
1780506647372577000,0.338576904296875,0.32740766154825685,-0.10749138355627655,0.13087850622143596
1780506647382569000,0.34856884765625,0.5714268457919359,-0.024539251842349768,-0.1352582191430032
1780506647392560600,0.358560546875,0.5578957485675812,0.08837854067683219,-0.17217647556513546
1780506647402553900,0.368553955078125,0.2910556607067585,0.04587590825110674,-0.2236036247352138
1780506647412545800,0.3785458984375,-0.03524316281676292,0.022809797701239583,-0.23569888047017157
1780506647422537700,0.388537841796875,-0.2766062795937061,0.0422490960560739,-0.26016747822910546
1780506647432531000,0.398531005859375,-0.3595873451411724,0.08592588682770728,-0.3641383229764178
1780506647442523000,0.40852294921875,-0.27676293146014214,0.3247095085054636,-0.5189997623316943
1780506647452514800,0.418514892578125,-0.21980594948530197,0.06636047787517309,-0.15969373661624267
1780506647462506800,0.4285068359375,0.009628244566917419,-0.17384587008208036,0.0032945115007460115
1780506647472500000,0.4385,0.16126958936452865,-0.16690072711929677,-0.1963419439253397
1780506647482491600,0.44849169921875,0.18372224419116973,0.08018661252334713,-0.5314115732025355
1780506647492483800,0.45848388671875,0.09649345807135104,0.5420455607458948,-1.0324114223327487
1780506647502477000,0.46847705078125,0.13230126903355122,0.5901883910156787,-0.9766383894454688
1780506647512468700,0.47846875,0.11626198838055134,0.1681390367425978,-0.8380681231450289
1780506647522461000,0.4884609375,-0.08286123856008053,-0.22106617867946624,-0.44168479625452306
1780506647532454000,0.498453857421875,0.07646481552124022,-0.3542323939792812,0.07672087264154107
1780506647542445800,0.50844580078125,0.8744120137453079,-0.6742894005037844,0.7728298542328178
1780506647552437800,0.518437744140625,0.47764673833251,-0.5098110782258213,0.8441416709050535
1780506647562430000,0.528429931640625,-0.06462707821130752,-0.3698724461816251,0.6047996846921742
1780506647572422700,0.538422607421875,-0.2763929291039705,-0.2122296690121293,0.08969208009396679
1780506647582414800,0.548414794921875,-0.19639701684713362,-0.1695101789653301,-0.2895951049012132
1780506647592406800,0.55840673828125,0.363234177210927,-0.045377895601093766,-0.1980938473602757
1780506647602399700,0.568399658203125,0.5912888996034861,-0.02539338445365429,-0.0011380595526425167
1780506647612392000,0.578391845703125,0.6615712270975113,-0.025791882251948117,-0.11436381747587583
1780506647622383900,0.5883837890625,0.5304734886348247,-0.09627382397130131,-0.19035095988223327
1780506647632376800,0.598376953125,0.4576385540485382,-0.28588234972208737,-0.07953634105422533
1780506647642368800,0.60836865234375,0.533740381476283,-0.0473338519744575,-0.33271796985082325
1780506647652361000,0.61836083984375,0.253223065918684,0.361597662050277,-0.32385665453579277
1780506647662353000,0.628352783203125,-0.07289864747226238,0.03335793359205127,-0.16725264582950622
1780506647672345900,0.638345947265625,-0.3614420330971479,-0.28634675236344337,-0.09000369419325142
1780506647682337300,0.648337158203125,-0.5681640446037054,-0.3323866190046072,0.0923211042901501
1780506647692329500,0.65832958984375,-0.5112964944779873,-0.20767536670863626,-0.0794032801259309
1780506647702322400,0.668322509765625,-0.5887380460768937,-0.300669730617851,-0.3306508081879467
1780506647712314400,0.678314453125,-0.7788175503402948,0.09110022072568535,-0.1220944939263165
1780506647722306600,0.688306640625,-0.497085598295927,0.3265277369085699,-0.182419929420948
1780506647732299300,0.69829931640625,-0.014638766205310821,0.60423401363343,-0.36694881381988526
1780506647742291500,0.70829150390625,0.2204401557356119,0.4630328143075108,-0.9109970926903188
1780506647752283400,0.718283447265625,0.3894675196200609,0.2510630383405834,-1.1938229043859987
1780506647762276400,0.7282763671875,0.3431821537852287,0.057682665900886054,-1.179573356693983
1780506647772268300,0.738268310546875,-0.0871580589711666,-0.5903333524443208,-1.2399312331534922
1780506647782260500,0.748260498046875,-0.09056289897859096,-1.6065101907476782,-1.9722899607881903
1780506647792252400,0.75825244140625,-1.3539660470038652,-1.8898133376315236,-1.3000833579078317
1780506647802245400,0.768245361328125,-0.5543231507778167,-1.4400083998180926,0.6491957296490669
1780506647812237300,0.7782373046875,0.8845540530532598,-0.9317473275132476,0.36258703841380774
1780506647822229500,0.7882294921875,0.7081646359682082,1.2131142456375061,0.6240101427271961
1780506647832222500,0.798222412109375,0.33593174426555633,2.1124948425531387,0.7394613992467522
1780506647842214400,0.80821435546875,-0.9591653496623038,1.8396055376559495,1.112930847007036
1780506647852206600,0.81820654296875,-0.682036507499218,0.635637525222078,-0.07661774106062948
1780506647862198300,0.8281982421875,0.200946935236454,0.6990829193681478,-1.3962367703698575
1780506647872191500,0.83819140625,1.014136126255989,1.8396994995497167,-1.1013543909817933
1780506647882183400,0.848183349609375,1.1731938847899437,2.2627071774609386,-1.8559145751610397
1780506647892175400,0.85817529296875,0.5710206030786037,2.134689430965483,-2.793054847759008
1780506647902168300,0.868168212890625,0.45649347566664217,2.2062636979661883,-2.9332246582105754
1780506647912160500,0.878160400390625,0.30310441041886804,1.8599466071560977,-2.534221248482168
1780506647922152200,0.888152099609375,1.006663013896346,0.31740634588524697,-2.3888781270459294
1780506647932145400,0.8981455078125,1.530000659301877,-0.7561261183217167,-2.012092102083564
1780506647942137600,0.9081376953125,1.1579863787859677,-1.2046943539470434,1.3544738503955305
1780506647952129300,0.91812939453125,1.1767372564852236,-2.9543396346926687,9.870512523579597
1780506647962121500,0.92812158203125,1.7040759542256592,-3.103623310448229,7.245177464237809
1780506647972114400,0.938114501953125,0.8805109151422977,-0.3400063002280891,-1.3004372859120368
1780506647982106400,0.9481064453125,-0.4919914900273084,2.2249679600447414,-3.2448297704711555
1780506647992098300,0.958098388671875,-1.4154478129267691,1.838166006372124,-2.9986788348957893
1780506648002091500,0.968091552734375,-2.4627789372980593,0.4477782542914152,-1.6395131734222173
1780506648012083200,0.978083251953125,-1.8199650176405906,-0.09865925780311226,-0.8245145948931575
1780506648022075400,0.988075439453125,-0.847376707303524,-1.0229730743147432,-0.0530633355371654
1780506648032068600,0.998068603515625,0.6450199052691459,-1.3415354583673178,-0.030242724180966615
1780506648042060300,1.008060302734375,1.1880512621819972,-0.31887524939402934,-0.558878914386034
1780506648052052200,1.01805224609375,0.925333807209134,0.5197025037735701,0.006155453889816999
1780506648062044400,1.02804443359375,1.2369476872980594,1.05617143343091,0.7012675699308514
1780506648072037400,1.038037353515625,1.033170497071743,1.4235494324482976,0.8250785123862325
1780506648082029300,1.048029296875,-0.8174871804744005,1.3274763917461037,-0.1601230496779084
1780506648092021500,1.058021484375,-1.5596797582507134,0.5957002863049506,-0.27699893217310306
1780506648102014200,1.06801416015625,-0.9259890562474727,0.30915698845610023,-0.7770191226162015
1780506648112006400,1.07800634765625,-0.13823065908253193,-0.3290409618385136,-0.6454336006365716
1780506648121998300,1.087998291015625,1.1602303583204745,-0.7948620916903019,-0.3905556071177125
1780506648131991300,1.0979912109375,0.28417408449947834,-1.6015771182596683,0.14573328979760408
1780506648141983200,1.107983154296875,0.8883966999560594,-0.9326774479702115,-0.07348053901344537
1780506648151975400,1.117975341796875,1.1499714146345854,0.2831146385744214,0.89281568544209
1780506648161968400,1.127968505859375,0.22141280016005038,0.29906872516199945,1.0327988872803746
1780506648171960300,1.137960205078125,0.02817044795155525,0.42043402803093194,0.7262183251835406
1780506648181952500,1.147952392578125,-0.11943185058832168,0.464542195957154,0.8373498188078403
1780506648191944400,1.1579443359375,-0.1677683037340641,-0.2642845581591129,-0.21565759763419626
1780506648201937400,1.1679375,-0.5489104780793189,-0.9780553435713052,-1.15017263629511
1780506648211929300,1.177929443359375,-0.4709124616414308,-0.7150004733376204,-0.6903922479122877
1780506648221921500,1.187921630859375,0.7936369338095187,-0.16959551916122437,0.40514322765767574
1780506648231914200,1.197914306640625,2.1571780338883397,0.11522066263407468,1.1888459196910262
1780506648241906400,1.207906494140625,1.2364321389913557,1.4147824808858334,1.7606076965257524
1780506648251898400,1.2178984375,-0.34926410404741765,1.730956946888566,1.7002701322019098
1780506648261890300,1.227890380859375,-0.5653986715435981,0.7669175614491105,-0.07860854955166578
1780506648271883500,1.237883544921875,-1.7508821290642023,-1.2428086882859468,-2.448812663526833
1780506648281875500,1.24787548828125,-1.8181062380313873,-1.564462316352129,-2.6719571097850796
1780506648291867400,1.257867431640625,-1.8354256216228007,-0.029206659131497142,-1.1223594773486256
1780506648301860400,1.2678603515625,-1.3963357006996868,0.5018533241543919,0.14309475798755883
1780506648311852500,1.2778525390625,-0.2614046188086271,0.5924938184138387,1.1514736358910798
1780506648321844200,1.28784423828125,1.1333125407785176,0.42658772835507985,1.6207339464113115
1780506648331837400,1.29783740234375,2.6091554934352637,0.45793863297365606,1.905754126346111
1780506648341829400,1.307829345703125,2.6803146037638186,0.6138747523557394,2.2981074305355547
1780506648351821300,1.3178212890625,1.7449860567629336,0.6609311756283044,2.1432620289996267
1780506648361813200,1.327813232421875,0.5448837067812681,0.5561861681707203,1.0146882071807979
1780506648371806500,1.337806396484375,0.48603871910274027,1.135780246066302,0.04225070349127054
1780506648381798100,1.347798095703125,1.7062036139041183,1.742705398479849,-0.45484395489394663
1780506648391790300,1.357790283203125,2.363608368971944,1.1292554474074392,0.17984657180160282
1780506648401783600,1.367783447265625,4.481484904563427,1.0339498839464039,0.44411710143536326
1780506648411775200,1.377775146484375,6.449201273825764,1.693592408003658,1.0282137514472007
1780506648421767400,1.387767333984375,4.813149639034271,1.5802765560775995,1.3704215072423218
1780506648431760400,1.397760498046875,4.856620531970262,1.6545277872025965,1.6611773082196712
1780506648441752300,1.40775244140625,5.265666027763485,2.132329862227291,1.591834891924262
1780506648451744300,1.417744140625,6.914838425412774,2.0524925015330315,1.9985271025896072
1780506648461736400,1.427736328125,8.254396592357754,1.5451814234293997,1.8043050916939973
1780506648471729200,1.437729248046875,7.319672440990805,1.2158391405567526,0.8293003678649663
1780506648481721300,1.447721435546875,6.408327411645651,1.454936065967381,0.7132412085801363
1780506648491713300,1.45771337890625,6.009183716663718,2.152926660054177,1.8750304867804048
1780506648501706200,1.467706298828125,6.548409836074709,2.57538649482429,3.602779577538371
1780506648511698400,1.477698486328125,6.79734952558577,3.157425920045376,5.20629555490613
1780506648521690400,1.4876904296875,6.342077116146683,4.070724129284918,6.297967340785265
1780506648531683300,1.497683349609375,5.076215469053388,5.1862014459043735,6.443551869761944
1780506648541675300,1.50767529296875,2.703695479351282,5.9415755768150085,6.021393209895491
1780506648551667500,1.51766748046875,0.8191349476814269,6.348769891783594,5.0436897485017775
1780506648561659400,1.527659423828125,-1.0236625178836285,6.166466282218694,3.471523433643579
1780506648571652400,1.53765234375,-3.367486720585823,5.1025703920155765,0.12281798589527607
1780506648581644300,1.547644287109375,-4.414462163387238,4.133851032066345,-2.152241162008047
1780506648591636500,1.557636474609375,-5.2244788618505,4.142464546632766,-2.9773902554124594
1780506648601629200,1.567629150390625,-3.879615281973779,5.61210104586482,-4.484117006632685
1780506648611621400,1.577621337890625,-3.5025776203379033,6.720617583560943,-6.621374534520506
1780506648621613300,1.58761328125,-0.6122036773383617,7.475071677017212,-8.823997976288199
1780506648631606300,1.597606201171875,2.3327929594695567,7.225616439199447,-11.99088905929327
1780506648641598500,1.607598388671875,1.8451728163942693,4.598641211435199,-15.512682544493675
1780506648651590400,1.61759033203125,1.8525638034284113,4.219944676676392,-15.776173321926592
1780506648661583400,1.627583251953125,1.8662264180779455,3.8939696782797575,-16.023489209628103
1780506648671575300,1.6375751953125,1.9174045243903994,3.6076901459336277,-16.24477633758187
1780506648681567500,1.6475673828125,2.0651701967984435,3.359858709925413,-16.411860750705003
1780506648691559400,1.657559326171875,2.3074831616461275,3.148497932702303,-16.525491806060074
1780506648701552400,1.667552490234375,1.1704587607376278,5.013376443302631,-12.110281162393093
1780506648711544300,1.67754443359375,1.1016996972881257,2.914746459972858,-7.7868463006258
1780506648721536500,1.68753662109375,0.42501039603576063,4.632690780553221,-4.936642747712135
1780506648731529500,1.697529541015625,2.1914180110119283,2.181816800582409,-5.658784471106529
1780506648741521400,1.707521484375,11.174411348122357,0.4434931243181228,-6.018731297209858
1780506648751513600,1.717513671875,17.464259679859875,-5.126575536981225,-6.614809184655547
1780506648761506300,1.72750634765625,9.615436523270606,-5.840082118499279,-3.0154876386165617
1780506648771498500,1.73749853515625,3.6094106861159205,1.305931207153201,1.4782769018054007
1780506648781490400,1.747490478515625,-2.03707164503932,3.8327667292982337,-0.4756365675538778
1780506648791482400,1.757482421875,-0.3863620278853923,0.014681436303257942,-4.311020201352238
1780506648801475300,1.767475341796875,-0.9993769485414028,1.7746879520654677,-4.309669371265173
1780506648811467500,1.777467529296875,-2.7169851690351963,1.661447941854596,-6.472045558318495
1780506648821459200,1.787459228515625,2.5970553057968613,0.6118892045617104,-2.1570570378571747
1780506648831452400,1.797452392578125,-0.5913537815332413,1.077678916361928,0.29842940434515475
1780506648841444600,1.807444580078125,-0.10027531469762324,0.49276305892169475,0.7443857039064169
1780506648851436300,1.817436279296875,5.62765517334938,-3.761234109482169,2.229909508100152
1780506648861429500,1.827429443359375,-5.570518158632517,-2.435248540815711,0.14698796603381634
1780506648871421400,1.83742138671875,-7.1462255070984355,2.6195319260209797,0.6290735635966063
1780506648881413400,1.847413330078125,1.2665342856578528,-2.332584869676828,3.731554426011443
1780506648891405300,1.8574052734375,10.341147337323427,-10.96291379277706,3.6732068664610384
1780506648901398500,1.8673984375,5.094641352581977,-8.139518167290092,4.083385750198364
1780506648911390200,1.87739013671875,4.698320898327231,-6.714093150228262,4.505066271159053
1780506648921382400,1.88738232421875,2.434668695101142,-5.947906533402204,1.610365404871106
1780506648931375400,1.897375244140625,0.19423428585529326,-4.4421249540776016,0.08903145162761211
1780506648941367300,1.9073671875,0.27248203927055,-5.092656316244602,0.02295417460799217
1780506648951359200,1.917359130859375,1.2240078339651226,-6.540737986272573,-0.07801496757268905
1780506648961352400,1.9273525390625,2.8472105085775254,-8.40567611810565,0.054283378851413724
1780506648971344400,1.937344482421875,2.4078197050116956,-8.391454116007685,0.8887328000426292
1780506648981336300,1.94733642578125,1.1576391727834938,-6.543167843768,1.7882120350271462
1780506648991328500,1.95732861328125,2.1031886695474387,-6.810073398080468,1.2364227866411208
1780506649001321200,1.9673212890625,3.4031308654189107,-6.604986878821253,1.5117220752894878
1780506649011313400,1.9773134765625,4.2500645051300525,-6.7737868636906144,3.2022049729704856
1780506649021305300,1.987305419921875,2.9342911183983085,-7.702223897612094,5.035057529234886
1780506649031298300,1.99729833984375,1.6422380683414637,-3.825621533718705,5.149049819117784
1780506649041290200,2.007290283203125,-0.7222136195868253,1.9375866039365528,3.5595413243144747
1780506649051282400,2.017282470703125,-3.1093682838410137,3.229496299999952,2.1921645915955303
1780506649061274400,2.0272744140625,0.13523441814230755,2.2844132517039775,-0.22169687779843805
1780506649071267300,2.037267333984375,2.136509339869022,1.0648282026171683,1.5613216802388428
1780506649081259500,2.047259521484375,1.5118904175937176,3.5291461860507725,0.05858662900328636
1780506649091251500,2.05725146484375,1.1479974842131138,3.8398359370321034,-1.131903843024373
1780506649101244400,2.067244384765625,0.3903250132322311,1.853571519166231,0.28100539133548735
1780506649111236400,2.077236328125,-2.964382889801264,6.3867737514853475,-1.3176684066981077
1780506649121228500,2.087228515625,-3.99833080098629,6.381319577732682,-5.697734087225794
1780506649131221200,2.09722119140625,-2.4953531731665133,6.363395798507333,-6.928743032124638
1780506649141213400,2.10721337890625,0.36605566437244413,6.198416248708963,-2.6177771913081407
1780506649151205400,2.117205322265625,0.28946554197110236,5.794176691892742,1.436889829406142
1780506649161197300,2.127197265625,0.231959182485193,6.053204644697904,4.170975770846009
1780506649171190300,2.137190185546875,-0.7391067405901849,6.553256107062101,6.676878395077586
1780506649181182500,2.147182373046875,-2.079795519000292,7.536500251448154,5.847537695202231
1780506649191174100,2.157174072265625,-2.452204936313629,5.299927778327465,3.4836382343292236
1780506649201167400,2.16716748046875,-1.714472698947042,0.4234399318486452,0.45306583930552
1780506649211159600,2.17715966796875,-0.7908909230370074,-1.839060178732872,-0.8287766362518072
1780506649221151200,2.187151123046875,0.004822232524678111,-3.6781343859910964,-1.1966039864718914
1780506649231144400,2.19714453125,0.9120609955947846,-5.793142672669887,-6.878516819709539
1780506649241136400,2.207136474609375,0.5829892732918263,-6.785864254975318,-9.283631503546237
1780506649251128300,2.21712841796875,1.139257785983756,-5.938928861698508,-8.77369460698366
1780506649261120300,2.227120361328125,0.5634709183514118,-3.492195634794235,-6.461660942426324
1780506649271113500,2.237113525390625,-0.16625789917111397,-0.05640227070152759,-3.779389651636779
1780506649281105200,2.247105224609375,0.7591478042304516,-2.8487001626133917,-3.790750711345672
1780506649291097300,2.257097412109375,1.5216519331514835,-3.3101427851200103,-1.7444821988940238
1780506649301090600,2.267090576171875,2.1152397573471067,-2.9949808571606873,-2.193982454672456
1780506649311082200,2.277082275390625,1.765427956289053,-2.486764793041348,-2.593762401731312
1780506649321074400,2.287074462890625,1.4751193145573138,-1.111737253308296,-2.7727815827980637
1780506649331067400,2.2970673828125,-0.22929756206050514,1.264410863763094,-1.6432991217017172
1780506649341059300,2.307059326171875,0.533222933473438,-5.353402763405442,-0.009042261372506619
1780506649351051300,2.31705126953125,4.884304657709598,-10.773425824666022,-0.14199293422549963
1780506649361043500,2.32704345703125,3.551463524059951,-14.011543822538853,-0.7351809454485774
1780506649371036400,2.337036376953125,-2.664847862301767,-6.053441376063227,-3.482074638274312
1780506649381028400,2.3470283203125,2.0197911321535704,-0.25138182196617126,-0.6321311976015568
1780506649391020300,2.357020263671875,-0.35559243028610943,-1.1591823105722665,-0.22815321433097122
1780506649401013200,2.36701318359375,-2.4274796603798863,-2.1128584151685237,-0.7239172086343169
1780506649411005200,2.377005126953125,-1.838177550679445,-1.9768010084718464,-0.2680298821672797
1780506649420997400,2.386997314453125,-3.897137494660914,0.12515431988835335,1.6088205135166644
1780506649430990300,2.396990234375,-3.849685715395212,7.704632127797603,4.309351975879073
1780506649440982300,2.406982177734375,-4.931713474616408,4.379012956604361,1.8978361928284166
1780506649450974500,2.416974365234375,-4.562383903139829,2.61555834621489,0.08744768956750631
1780506649460966400,2.42696630859375,3.4036347232878206,5.207514283046126,0.2254372333705425
1780506649470959400,2.43695947265625,2.448219666069746,5.414605127865076,1.298446988877654
1780506649480951300,2.446951416015625,0.985429963992536,6.864189019149541,2.41293470993787
1780506649490943500,2.456943603515625,0.5054106513097882,8.75092397224903,2.0884677780166268
1780506649500936200,2.466936279296875,0.549352376627922,9.620746904638409,0.7330370652876794
1780506649510928400,2.476928466796875,1.6045347990214824,7.312362410238385,-0.7050896124370396
1780506649520920300,2.48692041015625,2.561699622516334,4.479815510046482,-0.38084889048710463
1780506649530913300,2.496913330078125,0.046807636143267155,1.6189374183833598,-0.9755331316173076
1780506649540905500,2.506905517578125,-2.0113614497214556,0.1412771871715784,-2.478188395614922
1780506649550897400,2.5168974609375,-2.4693358115956188,-1.9684698179781435,-1.8683717595435678
1780506649560889600,2.5268896484375,-1.6699717323109506,-3.383072412252426,-0.4835771512947976
1780506649570882300,2.53688232421875,1.100967145229876,-3.1153520344257353,0.6234910872891545
1780506649580874500,2.54687451171875,-0.9555088729813694,-2.7820465470105407,0.9495113861322403
1780506649590866400,2.556866455078125,-1.1214371018067002,-2.904153754287958,0.8031468126937746
1780506649600859400,2.566859375,1.6558055520534514,-1.9670435845673082,0.938250864188373
1780506649610851300,2.576851318359375,1.6132111496910453,-1.0032067359626293,0.3336398339360952
1780506649620843500,2.586843505859375,2.0356410277143118,0.6504933682441711,-0.5541831577852369
1780506649630836500,2.59683642578125,1.4841383411847053,1.1111346112400293,-1.9931775582551956
1780506649640828400,2.606828369140625,-0.10641337906122207,-0.679660426017642,-1.4661299524158238
1780506649650820600,2.616820556640625,-0.10545943933725356,-0.8735013286411761,-0.8641516087546944
1780506649660812300,2.626812255859375,0.21044643885716793,-0.7558493472069502,-0.28533348366767164
1780506649670805500,2.636805419921875,-0.030555297261476516,-2.4385107574820517,0.5324336827918886
1780506649680797400,2.64679736328125,-2.0023682881876823,-3.716787064990401,1.0529331821620465
1780506649690789000,2.6567890625,-2.8724130466341973,-4.482074687150121,1.2472498856037855
1780506649700782300,2.6667822265625,-0.5904267298161983,-4.905286655461788,2.4173902280420063
1780506649710774500,2.6767744140625,2.0450632283151147,-7.7130562572717665,4.194853490039706
1780506649720766200,2.68676611328125,0.5840390746057034,-9.899836817741393,4.755135549221933
1780506649730759400,2.696759521484375,-0.5982996551483869,-8.528495857566595,3.8703734063759443
1780506649740751400,2.70675146484375,-1.1536556561052798,-4.762471591198444,2.9906755611822007
1780506649750743300,2.716743408203125,0.058843818634748454,1.5824492239415644,-10.76349012158513
1780506649760735200,2.7267353515625,-1.9379729729056356,4.888695001623034,-4.493044701714814
1780506649770728400,2.736728515625,-0.5022337748393416,5.507214437979459,-5.890180320620536
1780506649780720000,2.74672021484375,2.4890032196179033,3.0101135443627833,-4.133014288981259
1780506649790712300,2.75671240234375,1.7396759676560758,2.5403566824972628,-3.9753187587112184
1780506649800705500,2.76670556640625,0.7840157035052776,4.074539595919847,-4.011808998979628
1780506649810697200,2.776697265625,1.1498831518292427,4.664080190551281,-3.4255782595485447
1780506649820689400,2.786689453125,0.33085137226134537,6.327372883489728,-1.1382196020424364
1780506649830682400,2.796682373046875,-0.7161833995118737,5.116372122874855,-0.024409634113311766
1780506649840674300,2.80667431640625,-0.46617140459418294,4.711466795626283,-1.5333020389348269
1780506649850666200,2.816666259765625,-0.4150796613909304,4.911305477359891,-1.9564725061923265
1780506649860658400,2.826658447265625,1.305312929124385,3.5344688423782586,-1.4388444706052541
1780506649870651100,2.836651123046875,1.0315022715985775,2.256857136258483,-1.1942799274384974
1780506649880643300,2.846643310546875,0.8565957865476608,1.2313269248068333,-1.0231436085760592
1780506649890635300,2.85663525390625,1.118802077127993,0.9088163876503705,-1.2376491135656833
1780506649900628200,2.866628173828125,0.7953779322579503,0.5537380443662405,-1.3836828476145864
1780506649910620400,2.876620361328125,1.233755320997536,0.1886521018087864,-1.2139812377303838
1780506649920612400,2.8866123046875,1.2619491498246789,0.04097673803269863,-0.4326026047304272
1780506649930605300,2.896605224609375,1.2834943344175815,-0.15230185453295708,0.6109773504137993
1780506649940597200,2.90659716796875,1.2803962222717702,-0.6044675301283597,1.5529367137312888
1780506649950589400,2.91658935546875,1.0256231504321098,-1.0916209324747324,1.7012541748031973
1780506649960582100,2.92658203125,0.5010080324366688,-1.1323527558356523,1.4024427854031323
1780506649970574300,2.93657421875,0.5428805502653121,0.12899345965981482,0.7012360057488083
1780506649980566300,2.946566162109375,0.018498948764801026,-0.32626609029769893,-0.180629538872838
1780506649990558500,2.956558349609375,-0.45467415128499267,-0.9519014961391686,-0.6156386202231049
1780506650000551200,2.96655126953125,-0.1351946523874998,-0.5426338820278644,-0.5366550998792052
1780506650010543400,2.97654345703125,-0.28677696047425266,-0.3211971164703369,-0.08195435284823178
1780506650020535300,2.986535400390625,-0.2005696263566613,0.03291968830525875,0.11892799271941185
1780506650030528300,2.9965283203125,0.02510667646676302,0.2995551935046911,0.35281302870064973
1780506650040520400,3.0065205078125,0.05248538951873779,-0.05603635999858379,0.5863236784115433
1780506650050512400,3.016512451171875,-0.035518764887750146,-0.3305529738366604,0.8700520649701357
1780506650060505300,3.02650537109375,-0.01329553490281105,-0.5649965204834938,0.9909218394070863
1780506650070497300,3.036497314453125,-0.01626607514619827,-0.5823936454862356,1.016480351294577
1780506650080489500,3.046489501953125,-0.12594839287549256,-0.5310018964231014,1.0252706837326289
1780506650090481400,3.0564814453125,-0.5034039876624942,-0.9477987369954586,1.2374869087412952
1780506650100474400,3.066474365234375,-0.6456546960413455,-1.1754138989269733,1.2695292296901344
1780506650110466300,3.07646630859375,-0.6732417911469936,-1.2106366034775973,1.2849921717599033
1780506650120458200,3.086458251953125,-0.679811524926126,-1.3689987809628248,1.248647769702971
1780506650130451500,3.096451416015625,-0.5736690717607736,-1.4441495912760496,1.2064771457105874
1780506650140443400,3.106443359375,-0.4731275073423981,-1.4807055902570485,1.166302079449594
1780506650150435300,3.116435302734375,-0.3920318171501159,-1.4657926832854746,1.187699087743461
1780506650160428300,3.12642822265625,-0.30201427709460255,-1.4390098903000355,1.1867960014238952
1780506650170420500,3.13642041015625,-0.11640753433108329,-1.4902578469783068,1.0728098490208386
1780506650180412400,3.146412353515625,-0.1544905967488885,-1.569385744228959,0.9182280668571591
1780506650190404400,3.156404296875,-0.2773398545652628,-1.5124638335675,0.8467123981758952
1780506650200397300,3.166397216796875,-0.18527853372246025,-1.3861217651993036,0.6826321353048086
1780506650210389200,3.17638916015625,0.06732610803693533,-1.3201117081969975,0.4316191466510296
1780506650220381200,3.186381103515625,0.17767215037196873,-1.3354530697137117,0.4060910299018025
1780506650230374400,3.19637451171875,0.2099789674758911,-1.4274819495916367,0.3546370292574167
1780506650240366300,3.206366455078125,0.15374796168804167,-1.6132757393598556,0.19187223289906977
1780506650250358300,3.216358154296875,0.18427520189881325,-1.8106997611671685,0.05265256277918815
1780506650260351500,3.2263515625,0.38533085820674895,-1.8607102850049733,-0.21830635857731104
1780506650270343400,3.236343505859375,0.4569809669226408,-1.4958961451262234,-0.5758794412866235
1780506650280335400,3.24633544921875,-0.13313041333407163,-1.702086826235056,-1.5597463937461375
1780506650290328300,3.256328369140625,-0.1779702565357089,-1.6527040789067744,-2.4326515100598334
1780506650300320500,3.266320556640625,0.12012743163704871,-1.1464929248690605,-2.4836183117091655
1780506650310312200,3.276312255859375,0.4572437095120549,-1.1545546507716178,-2.5312246970146894
1780506650320304400,3.286304443359375,0.9409732748895883,-1.0760808335155247,-2.340094514654577
1780506650330297300,3.29629736328125,1.247351300151646,-0.8504518769651651,-1.8145578979000447
1780506650340289300,3.306289306640625,1.5298261795178054,-0.5831582001179456,-1.37184247995615
1780506650350281200,3.31628125,1.5545502864077687,-0.9527952301084994,-1.3409905378356575
1780506650360274400,3.3262744140625,1.490024330483377,-0.9863970554590225,-0.9858879368931055
1780506650370266400,3.336266357421875,1.1001441384091972,-1.0510603740274906,-0.5490145229756832
1780506650380258300,3.34625830078125,0.6572551174640655,-1.0316606770306824,-0.13319587978571654
1780506650390251500,3.35625146484375,0.18254180223494768,-1.5173013367265462,-0.03949818991273641
1780506650400243200,3.3662431640625,0.32275749765485523,-1.7103543038427829,0.16980945417284965
1780506650410235400,3.3762353515625,0.8996712504252791,-1.687487222996354,0.4622217901855707
1780506650420227300,3.386227294921875,1.1180255397975445,-1.6087649839371443,0.6630977060124278
1780506650430220300,3.39622021484375,1.2492299535050988,-1.8900877706587313,0.5461287384063005
1780506650440212200,3.406212158203125,0.8413149230465292,-2.1050141314089297,0.3275216433167457
1780506650450204400,3.416204345703125,0.5481947310253977,-1.6831126611739395,0.36869799557477234
1780506650460197400,3.426197265625,-0.5776473277419805,-1.85146607131958,0.1365913674429059
1780506650470189300,3.436189208984375,-0.5351449875771999,-1.934665748053789,0.45595279291868207
1780506650480181200,3.44618115234375,-0.3721846686467528,-2.05674782088995,0.927575740917027
1780506650490174200,3.45617431640625,-0.18353607396930455,-2.4401556020796296,1.283351418815553
1780506650500166400,3.46616650390625,-0.09677724344879388,-2.689763400110602,1.4560142165929078
1780506650510158300,3.476158447265625,0.231609492264688,-2.6803818237811323,1.5641870065420864
1780506650520151300,3.4861513671875,1.4244684469893574,-2.8812562783032654,1.190578734833002
1780506650530143200,3.496143310546875,2.2435154241263864,-1.3896470167160033,0.8850830453634262
1780506650540135400,3.506135498046875,2.6595477100670335,-0.08663023570477962,-0.23514146578311917
1780506650550128000,3.516128173828125,2.4569468701437116,1.1933382626742124,-1.414183492079377
1780506650560120300,3.526120361328125,0.8860697183132171,2.4423101497650146,-2.1716244923919437
1780506650570112300,3.5361123046875,-0.2250165237404406,3.8252398409247395,-1.7582570417463779
1780506650580104400,3.5461044921875,-1.2604159489080309,5.317202738255262,-0.4319035165503621
1780506650590097400,3.556097412109375,-1.788954670087993,6.287787892076373,1.0029390249371528
1780506650600089300,3.56608935546875,-1.7785209543570875,6.0376744826108215,2.2332965201899406
1780506650610081500,3.57608154296875,-0.4513001448072493,4.9820419783622025,3.4027246227055787
1780506650620074200,3.58607421875,1.0986262811921537,2.799694431903958,3.229492500607669
1780506650630066400,3.59606640625,1.0641710538826883,1.4555050980269908,1.5530343288868664
1780506650640058400,3.606058349609375,0.4962003398939967,1.7431880674302578,0.4069429705560207
1780506650650051300,3.61605126953125,0.12169628838896751,2.797119028457999,-0.34110856238156556
1780506650660043300,3.626043212890625,0.44241906534582376,4.858914195865393,-0.9845654561176895
1780506650670035500,3.636035400390625,0.5751452817931771,5.686986483240127,-1.5974658835485576
1780506650680028000,3.64602783203125,-0.27758038532286883,4.6618443943232295,-2.0409289049893617
1780506650690019800,3.656019775390625,-1.4908008678138256,2.647267489686608,-1.942965374365449
1780506650700012000,3.666011962890625,-2.677060862664878,1.0913368548363447,-1.3841969346165657
1780506650710004000,3.67600390625,-3.366890215997398,-0.11276830104589462,-0.7205009704500437
1780506650719997000,3.685996826171875,-3.3464486087322234,-0.7761772649645805,-0.2577510647371411
1780506650729989000,3.695989013671875,-3.1376983062684536,-1.1679343568265437,-0.09089315384626388
1780506650739981000,3.70598095703125,-2.1768049637697637,-1.22420861723423,0.029313188245892522
1780506650749974000,3.71597412109375,-1.2131202369868754,-0.8319336389780044,-0.19936755709052084
1780506650759966000,3.725966064453125,-1.065862952492386,-0.37842122494876385,-0.980073697656393
1780506650769958100,3.735958251953125,-0.46144525285512206,0.7291127314507961,-1.378601014305651
1780506650779950800,3.745950927734375,0.05030863000154495,1.5610773500889539,-1.4853043162241577
1780506650789943000,3.755943115234375,0.1524547070071101,1.8875141207784414,-1.2672688835427164
1780506650799935000,3.76593505859375,-0.18365312447771429,1.631345064535737,-0.7722033928975462
1780506650809928000,3.775927978515625,-0.5091197349607944,0.9326292249143123,-0.17516572050899265
1780506650819920100,3.785920166015625,-0.8777567941285669,0.31866262955665586,0.3326034766256809
1780506650829912000,3.795912109375,-1.2890531375885008,-0.23301263706088066,0.8720563905298709
1780506650839905000,3.805905029296875,-1.569677566782385,-0.8259212468206882,1.2446040472701192
1780506650849897000,3.81589697265625,-1.3635880079604685,-1.1476701519548893,1.494145794327557
1780506650859889200,3.82588916015625,-0.587092616957426,-1.1690484555482863,1.5302464507564901
1780506650869880800,3.835880859375,0.22621720476709306,-0.975731869059801,1.16783878749758
1780506650879874000,3.8458740234375,0.4568531027592718,-0.7492787366449832,0.5603551244184375
1780506650889866000,3.855865966796875,0.2756828811384737,-0.6351479150742292,-0.013331482999026775
1780506650899858000,3.86585791015625,0.22817045772671699,-0.8444862465590238,-0.42971448207348584
1780506650909851100,3.87585107421875,0.37618418661169706,-0.99136256891191,-0.7344727971792221
1780506650919843000,3.885843017578125,0.27897125515937804,-1.232349253591895,-0.9158011319711804
1780506650929834800,3.895834716796875,0.5793302393276244,-1.4045382963776587,-0.936712402574718
1780506650939828000,3.905827880859375,0.8958371521551162,-1.427173322033882,-0.8581260648548602
1780506650949820200,3.915820068359375,1.1468752752501516,-1.2948708839565515,-0.6843672885343433
1780506650959811800,3.925811767578125,0.9105821552138775,-1.724319116309285,-0.8463575933888554
1780506650969805000,3.93580517578125,0.7034311777055263,-1.5601514674156904,-0.7822837651461363
1780506650979797000,3.945796875,0.37472653514929116,-1.442030114904046,-0.7394689980313182
1780506650989789000,3.955788818359375,0.32684133290238676,-1.143403726682067,-0.550144988310337
1780506650999782000,3.965781982421875,0.07246895081810653,-1.4668535905152558,-0.6766276341930031
1780506651009774000,3.975774169921875,0.2554149499397725,-1.3177397183686494,-0.57810530064255
1780506651019765800,3.985765869140625,0.5550783530592918,-0.9836492180556058,-0.3756795250251889
1780506651029759000,3.995759033203125,0.6618927872020751,-1.2722908033579587,-0.5234200629919767
1780506651039751200,4.005751220703125,0.637294863975048,-1.2067349198639392,-0.4567825217410922
1780506651049742800,4.015742919921875,0.7214508185207843,-1.358442315635085,-0.4266714611157775
1780506651059736000,4.025736083984375,1.1148537778936325,-1.4918816487878561,-0.3898138488397002
1780506651069728000,4.03572802734375,1.4149790263712405,-1.4349100537657737,-0.46743455639779563
1780506651079720000,4.045719970703125,0.8771803094148636,-1.3623147731542586,-0.4586059377759695
1780506651089711900,4.0557119140625,-0.2653625626541674,-1.3740811987936496,-0.11739683762937783
1780506651099705000,4.065705078125,-1.1157039649821818,-1.614793158185482,0.3398009869143367
1780506651109696800,4.07569677734375,-1.3484521058879793,-1.7915671906739472,0.6990609997972845
1780506651119689000,4.08568896484375,-1.2100653794609009,-1.915944680970907,0.7352180625885725
1780506651129682200,4.09568212890625,-1.0944763219058513,-1.9867811352163551,0.45354806986451146
1780506651139673900,4.105673828125,-0.7261759473465382,-2.052057032725215,0.09105360510498285
1780506651149666000,4.115666015625,-0.16290741969943046,-1.933914052903652,-0.2733347105771303
1780506651159659000,4.125658935546875,-0.4365091106496751,-1.3842916271626948,-0.8170742157593369
1780506651169651000,4.13565087890625,-0.9673521632492542,-0.930408626255393,-1.3303154145643115
1780506651179643000,4.145642822265625,-1.018155298769474,-0.6379828462392091,-1.5762962542697787
1780506651189636000,4.155635986328125,-0.8265092758417129,-0.4774976852506399,-1.7198256042823195
1780506651199627800,4.165627685546875,-0.701830610641092,-0.5730822117835283,-1.872855480828881
1780506651209620000,4.175619873046875,-0.11867416408881544,-0.7653975122749805,-1.956684103116393
1780506651219613200,4.18561328125,0.8586065418481826,-0.9824427648752927,-2.1033342154979704
1780506651229604900,4.19560498046875,1.178849718594551,-1.207102584132552,-2.335858192259073
1780506651239596800,4.2055966796875,0.6233678993009031,-1.5205594617396592,-2.5097730359241366
1780506651249590000,4.215590087890625,0.0007609013698995113,-1.832644466471672,-2.3867253329262135
1780506651259582000,4.22558203125,-0.11641557150706648,-1.884015757268667,-1.8729387751981614
1780506651269574000,4.235573974609375,0.021911387556791305,-1.4815174911618232,-1.67416918400079
1780506651279567000,4.245567138671875,-0.04991363933458924,-0.8614683610200882,-1.9344827927023172
1780506651289558800,4.255558837890625,-0.02193959073796868,-0.07308569447696209,-2.0311483924701808
1780506651299551000,4.265551025390625,-0.16213234367370605,0.6567074204534292,-2.0996470514178274
1780506651309544000,4.2755439453125,-0.1802256342470646,1.358129011902213,-2.014555277326703
1780506651319535900,4.285535888671875,-0.047612815046310424,2.1878362070024013,-1.9925868988856672
1780506651329527800,4.29552783203125,0.45686450093612074,3.33994638723135,-1.9566160063162445
1780506651339520000,4.30552001953125,1.0409294406354426,4.478315626877546,-1.631607807125151
1780506651349513000,4.315512939453125,1.0178146686382592,4.984260823455452,-1.337595634700358
1780506651359505000,4.3255048828125,1.4340117897517979,5.078483998507261,-0.9369093864515423
1780506651369497000,4.3354970703125,1.6928443661153316,5.327638792073726,-0.48169776728898284
1780506651379489800,4.34548974609375,1.6250623310044408,5.869227548962831,0.07092851644307374
1780506651389482000,4.35548193359375,1.4865806197702884,6.440315372058749,0.8667547769904136
1780506651399474000,4.365473876953125,1.3615946421861649,6.63071227170825,1.4415256725132464
1780506651409467000,4.375466796875,1.034739061562717,6.5505439254939555,1.6439567088276146
1780506651419458800,4.385458740234375,0.25829057844132186,5.937502628287673,1.2839178205266595
1780506651429451000,4.395450927734375,-0.25228081663250923,4.801203180652856,0.6419549647405743
1780506651439444000,4.40544384765625,-0.22577421023994682,3.512967789188027,0.629637042698264
1780506651449436000,4.415435791015625,-0.17816490232497453,2.083028509572148,0.5354281884327531
1780506651459428000,4.425427978515625,0.23480448891371486,1.1358224777728319,0.11752601696699858
1780506651469420800,4.4354208984375,0.22523820366710423,0.5493085374861956,0.0619333090826869
1780506651479413000,4.4454130859375,0.14703005160987376,0.4126636862903833,0.13161240998655557
1780506651489405000,4.455405029296875,0.16541998704224825,0.6370259839057922,0.1014469888255
1780506651499398000,4.46539794921875,0.28097382715344427,0.9988052861332892,0.33729572609513997
1780506651509389800,4.475389892578125,-0.06471417197287083,1.293430037498474,0.32673604589700694
1780506651519382000,4.485382080078125,-0.03202040137797594,1.2292168007850646,0.8154188497677445
1780506651529375000,4.495375,-0.45062779850363727,0.9336059609919786,1.7248790882796048
1780506651539367000,4.505366943359375,-1.0565621863141654,0.18241408420205116,2.446488312232494
1780506651549358800,4.51535888671875,-1.3619927015930413,-0.9883055194288491,2.704721315267682
1780506651559351800,4.525351806640625,-1.7404753013402223,-1.995401664045453,2.7566166299387813
1780506651569344000,4.535343994140625,-1.7056144158393143,-2.5111188975751397,2.738874929282069
1780506651579336000,4.5453359375,-1.604009313842654,-2.7958114529907703,2.7433462294772264
1780506651589329000,4.555328857421875,-1.5086024819642305,-2.96770881935358,2.7609222181782123
1780506651599320800,4.56532080078125,-1.4886922050967812,-2.8618098195552824,2.7804095934584736
1780506651609313000,4.57531298828125,-1.6216875938743351,-2.6744986109614373,2.804720735633373
1780506651619305700,4.5853056640625,-1.6606173362493515,-2.4589848057121038,2.78053789601326
1780506651629298000,4.5952978515625,-1.763325723312795,-2.2798674249678847,2.9210774165600535
1780506651639289900,4.605289794921875,-1.879379329639673,-2.314873271897435,3.236669260369241
1780506651649282800,4.61528271484375,-1.863187488773465,-2.474246087729931,3.510619472496211
1780506651659275000,4.62527490234375,-1.7738371804550288,-2.566709267371893,3.610769699509442
1780506651669267000,4.635266845703125,-1.6769938860327005,-2.666298353371024,3.540997367364168
1780506651679263200,4.64526318359375,-1.5573054303348064,-2.7297037808328866,3.2389997491434213
1780506651689255000,4.6552548828125,-1.4103236017808318,-2.7201667216807603,2.734518487638235
1780506651699247000,4.6652470703125,-1.3585440224438905,-2.6950539077341555,2.1025635233864186
1780506651709240300,4.675240234375,-1.330030752404034,-2.6620401114046572,1.2151891522154212
1780506651719232000,4.68523193359375,-0.44045653310120103,-2.540786890608072,-1.3349334297537803
1780506651729224000,4.695223876953125,-1.202799918502569,-2.2587562478780745,-2.0369076866492626
1780506651739217200,4.705217041015625,-1.2018149991184472,-1.0175801292300224,-1.0159826309055089
1780506651749209000,4.715208984375,0.08539017251580953,-0.12001578795611857,-1.3791311756595968
1780506651759201000,4.725200927734375,0.8281935756668448,0.005538929426670074,-0.9671274145826697
1780506651769193200,4.735193115234375,1.498368088197708,-0.0063087447553873055,-2.0038895064055917
1780506651779186000,4.74518603515625,1.3212754912793636,-0.3847404910981655,-1.8372879083633422
1780506651789178000,4.75517822265625,1.2037991586729884,-0.7637491605460643,-2.150416869190335
1780506651799170000,4.765170166015625,1.1841291203022002,-0.8582295252293348,-1.8660145288929342
1780506651809163000,4.7751630859375,0.8481517833292483,-0.9021130906194448,-1.3840958123296498
1780506651819155000,4.785155029296875,0.5847308562621474,-1.1861129875957965,-1.2003618777006864
1780506651829147100,4.795147216796875,0.8524404204338788,-1.211739011761546,-0.503066718532145
1780506651839140000,4.80514013671875,0.7420186825141311,-1.34377432333529,0.15222703573107718
1780506651849132000,4.815132080078125,0.7560682506546378,-1.7364426848232746,0.5181932682543993
1780506651859124200,4.825124267578125,1.209983984787762,-2.2028508207827806,0.4900961777999997
1780506651869117000,4.835116943359375,1.741904165099561,-2.553314948269725,0.4158846941635012
1780506651879109000,4.845109130859375,2.5176824938744304,-3.278876709240675,0.059975745274126524
1780506651889101000,4.85510107421875,3.0682354784637687,-3.377759108275175,0.2620186590537429
1780506651899094000,4.865093994140625,3.273704567299783,-3.4140713616281744,0.4350432758808136
1780506651909086000,4.8750859375,3.3522537878796457,-2.8307535870343443,0.7357116913244128
1780506651919078100,4.885078125,3.1767385232806205,-2.277017296233773,0.5777835213422775
1780506651929071000,4.895071044921875,2.996631839238107,-1.5553502046138048,0.016675532729923725
1780506651939063000,4.90506298828125,2.4213170460969207,-0.24165245511233804,-0.7713637272030115
1780506651949055200,4.91505517578125,2.858445603819191,1.3438988264977931,-1.0539023194551467
1780506651959048000,4.9250478515625,1.9727999561369418,4.238720104295015,-0.9255889510139822
1780506651969040100,4.9350400390625,-0.5241054149076342,7.0161845842123025,-1.130428802035749
1780506651979032000,4.945031982421875,-3.952292687910795,9.128151603499054,-0.4098506746962666
1780506651989025000,4.95502490234375,-6.085842008930444,10.527302361619473,1.7254337995529174
1780506651999017000,4.965016845703125,-4.49264079708904,9.016770372897385,3.5022155090272427
1780506652009009200,4.975009033203125,-0.8045566794916987,4.778198737162351,3.4700632979631423
1780506652019002000,4.985002197265625,1.1032751299113035,1.5444143845796585,2.608440330903232
1780506652028994000,4.994994140625,-0.347290173625946,-0.24019641108512876,0.6732917677685618
1780506652038986000,5.004986083984375,-2.2528365024402737,-1.4083756825834512,-1.0247875763908028
1780506652048979000,5.01497900390625,-2.993288081768155,-2.2458161022841927,-1.4077631036430596
1780506652058971100,5.02497119140625,-3.1751676207020876,-2.5999013428777453,-1.1155606109887362
1780506652068963000,5.034963134765625,-1.613317824935913,-1.8186726397424935,-1.0330363492980599
1780506652078956000,5.0449560546875,-0.6427808941707015,0.6201905844390392,-1.5532657995551824
1780506652088948000,5.054947998046875,-0.4880512279689312,2.6112241164028642,-2.6527593651011583
1780506652098940200,5.064940185546875,0.29108240258321166,4.294720223936438,-4.1701577324613925
1780506652108932900,5.074932861328125,1.1751230992868542,5.944536764708161,-5.1138428966581815
1780506652118925000,5.084925048828125,1.485546308286488,6.629618046730756,-4.567670903632044
1780506652128917000,5.0949169921875,0.4675336328580975,5.337155977481603,-2.9798277116924523
1780506652138910000,5.104909912109375,-0.5276563853874803,3.0340169825196264,-1.4753177597388625
1780506652148902100,5.114902099609375,-1.5396128295168279,1.165153201675415,-0.3288876709729433
1780506652158894000,5.12489404296875,-2.3551745948866007,0.22874270465672014,0.5850584807813167
1780506652168887000,5.134886962890625,-2.394068389165401,-0.09248831408321857,0.9858920285463333
1780506652178879000,5.14487890625,-1.9228955230221152,-0.4084603893816471,1.06548725104779
1780506652188871200,5.15487109375,-0.8698433906555175,-0.7441384511470794,0.9389826855942607
1780506652198864000,5.16486376953125,-0.12221505156606435,-0.9898884047061204,0.6426841557979583
1780506652208856000,5.17485595703125,0.279625919675827,-0.9977741895198822,0.42216187473684547
1780506652218848000,5.184847900390625,0.3368497358933091,-0.8736959744304418,0.23950492168962953
1780506652228841000,5.194841064453125,-0.13087912727594375,-0.8381126198738813,0.11039923382699489
1780506652238833200,5.204833251953125,-0.32714638026356696,-0.8647744168281555,0.08213292428553104
1780506652248825000,5.2148251953125,-0.5675739697560668,-0.6709545569926499,-0.18700258103609085
1780506652258818000,5.224818115234375,-0.7091909102760255,-0.49207507665753364,-0.7951277568891644
1780506652268810000,5.23481005859375,-2.5772178019046783,-0.40161271544396876,-1.9689991025492548
1780506652278802200,5.24480224609375,-1.5090893886983394,-0.4137853837966919,-0.3361360346660018
1780506652288795000,5.254794921875,0.9723052556119859,-0.8944394872516394,0.36931934234350916
1780506652298787000,5.264787109375,-0.9095183984398841,-1.2260785027593373,0.10641571714878081
1780506652308779000,5.274779052734375,0.050245355506986375,-1.9644921465188263,1.3829174162000417
1780506652318772000,5.28477197265625,0.18251213774904607,-2.8921722245931623,2.0379083881244062
1780506652328764200,5.29476416015625,0.6279670636594296,-2.6662375630944966,1.8887617827519774
1780506652338756000,5.304756103515625,1.7800408574007451,-2.2634780157029626,1.2564064210057257
1780506652348749000,5.3147490234375,1.7112309405468402,-1.534625981014967,0.5632733499526977
1780506652358741000,5.324740966796875,1.6313514942765235,-0.9810966109633446,-0.1058127828195691
1780506652368733200,5.334733154296875,1.3573999669753014,-0.6627016924321651,-0.8861211562395095
1780506652378726000,5.344725830078125,0.4082942390345037,-0.39278234325647354,-1.6943296362370253
1780506652388718000,5.354718017578125,-0.30701939190551636,-0.3863128549814224,-1.107737077756226
1780506652398710000,5.3647099609375,-0.5242950922608375,-0.5429454321950674,-0.20921032119095323
1780506652408703000,5.374702880859375,-0.6696003659047186,-0.7994190243422985,0.19134762450307607
1780506652418695000,5.38469482421875,-0.2112156696639955,-1.0130927546828985,0.42353637796044347
1780506652428687000,5.39468701171875,-0.0002500292383134365,-1.3780682226032017,0.649506987555325
1780506652438680000,5.40468017578125,-0.5236439348757267,-2.247943761962652,0.7942784465834498
1780506652448672000,5.414672119140625,-1.0611199957489967,-3.1088334463119507,0.7401081727176905
1780506652458664200,5.424664306640625,-1.263091159466654,-3.7094513152748343,0.2749406844690442
1780506652468657000,5.434656982421875,-1.4831122130073606,-3.8076667748332023,-0.29484423933476206
1780506652478649000,5.444649169921875,-1.8377403283059597,-3.5085084716916084,-0.9372034009620547
1780506652488641000,5.45464111328125,-1.664911234050989,-2.994015226998925,-1.2671762368232011
1780506652498634000,5.464634033203125,-0.8806675670087337,-2.210522670584917,-1.28861679199785
1780506652508626000,5.4746259765625,-0.8126258580483495,-1.6055512825876472,-1.4721841378882528
1780506652518618000,5.4846181640625,-1.0774844167031348,-1.274630644482374,-1.5540671790659426
1780506652528611000,5.494611083984375,-1.443623375444859,-1.1885258939564227,-1.4126985142186284
1780506652538603000,5.50460302734375,-1.1846119353830813,-1.3859119218409062,-1.410504219044745
1780506652548595200,5.51459521484375,-1.30431515025869,-1.5989304031431675,-1.530031931222975
1780506652558588000,5.524587890625,-1.0199264000952244,-1.4614678058236836,-1.82548641141057
1780506652568580000,5.534580078125,-0.5473448361977935,-1.084224977004528,-2.2892530929505823
1780506652578572000,5.544572021484375,0.009089315384626389,-0.2932347583115101,-2.4084473353907465
1780506652588565000,5.55456494140625,0.5126511239573359,0.6559761835694312,-2.130382673682272
1780506652598557000,5.564556884765625,0.3988121249400079,1.329367027798295,-1.5472954929739235
1780506652608549000,5.574549072265625,0.1403624104142189,1.8788328016728162,-0.8750736925244331
1780506652618542000,5.5845419921875,0.3991314200222492,2.3759388582348824,-0.20539427003413438
1780506652628534000,5.594533935546875,0.8117123964652418,3.0359114179641007,0.13119301553070545
1780506652638526200,5.604526123046875,1.3273887134626507,3.8820910244375466,-0.2873588520154357
1780506652648519000,5.614518798828125,1.6440703983351588,4.592295057278871,-1.6218766867056489
1780506652658511000,5.624510986328125,2.3125568116486073,5.27393876606822,-2.731969387677312
1780506652668503000,5.6345029296875,2.7007936204299328,5.908355444258451,-2.707119900842011
1780506652678492700,5.64449267578125,2.5527459162101147,5.987070669054985,-2.1550211481153965
1780506652688484600,5.654484619140625,2.330115556953847,5.538472330552339,-0.8844654979869723
1780506652698476800,5.664476806640625,2.074011382640898,4.895859486424922,-0.050527533449232574
1780506652708469500,5.674469482421875,1.9573487045049667,4.241647974440455,0.3517407232940197
1780506652718461700,5.684461669921875,1.6744284194588661,3.8503433025211096,-0.08928162699639797
1780506652728453600,5.69445361328125,1.3440154386147856,3.6572424046099186,-0.20710750369280576
1780506652738446600,5.704446533203125,1.18688981718719,3.335031727182865,0.5004655961230396
1780506652748438500,5.7144384765625,0.7772092383608221,2.656640882709622,1.0274608872532844
1780506652758430700,5.7244306640625,0.40687370471209283,2.3507313517421484,1.4689406259223818
1780506652768423700,5.734423583984375,0.23991700962185858,2.021860047382116,1.9528876334428786
1780506652778415600,5.74441552734375,0.36037761873602864,1.6270213561177254,1.8859733210772274
1780506652788407800,5.75440771484375,0.5614329827830196,1.5270903248131273,1.4671204247578977
1780506652798400800,5.76440087890625,0.3751514094978571,1.519595585143566,0.888188610163331
1780506652808392700,5.774392822265625,0.14108254138231277,1.4498270523905754,0.6934475438296794
1780506652818384600,5.784384521484375,-0.3308361746922135,1.1948562660217283,0.9580556348547339
1780506652828377600,5.794377685546875,-0.5896145366504788,0.8385317220687866,1.5546660217419266
1780506652838369500,5.80436962890625,-0.6775000331133604,0.23031623758375644,2.1443787580698728
1780506652848361700,5.81436181640625,-0.8184159857571125,-0.2855687537282705,2.5669655802205202
1780506652858354700,5.824354736328125,-0.9795739314407109,-0.7018506305158138,2.865868739557266
1780506652868346600,5.8343466796875,-1.1803627535060048,-1.0758277355372905,3.1311022690042853
1780506652878338800,5.8443388671875,-1.2624693743064999,-1.4050743029505013,3.540300032749772
1780506652888331800,5.854331787109375,-1.4317173952043056,-1.9971026227444408,3.544675179094076
1780506652898323700,5.86432373046875,-1.4021306507140396,-2.47518015370965,3.7079371113196014
1780506652908315600,5.874315673828125,-1.5391209543466566,-2.753243061852455,3.686113694307208
1780506652918308600,5.88430859375,-1.6402999398857354,-2.8990175604432817,3.5011952260687944
1780506652928300500,5.894300537109375,-1.7375784108549355,-2.917662055158615,3.1612171290218827
1780506652938292700,5.904292724609375,-1.7105951268613337,-2.852574958220124,2.7671605280458924
1780506652948285700,5.91428564453125,-1.6891332366377114,-2.7249183001220225,2.3348633360028264
1780506652958277600,5.924277587890625,-1.6773095278531311,-2.7806834419637916,1.9386986568316815
1780506652968269800,5.934269775390625,-1.5440686398819088,-2.964895515498519,1.5864771642833948
1780506652978262800,5.9442626953125,-1.428577928134799,-3.1487036844074723,1.2088827455475926
1780506652988254700,5.954254638671875,-1.3415963947743177,-3.2268150980919597,0.8997808482795954
1780506652998247700,5.96424755859375,-1.166288927707076,-3.2050194458693264,0.7328256144940852
1780506653008239900,5.974239990234375,-0.8723699865236878,-3.3211493323028085,0.5655959476813673
1780506653018231600,5.9842314453125,-0.5770350410625338,-3.1868694566726683,0.5254536146461963
1780506653028224800,5.994224853515625,-0.3355465443402529,-2.6127444578379393,0.7688742484748363
1780506653038216700,6.004216796875,-0.22065730561763047,-1.9001871398687362,0.718793874271214
1780506653048208600,6.014208740234375,0.32606150763630865,-1.316729664543271,0.5439183688804506
1780506653058200600,6.02420068359375,1.111690783818066,-1.1160913568645716,-0.0782698191165924
1780506653068193800,6.03419384765625,1.2932988123342395,-0.967035352385044,-0.9816612591087818
1780506653078185700,6.044185791015625,1.2424079985305667,-0.7057289332538843,-1.5751996912047266
1780506653088178700,6.0541787109375,1.2699912942439318,-0.52369361923635,-2.0200638116151093
1780506653098171000,6.0641708984375,1.2442521650925278,-0.3805915547251701,-2.209337552453577
1780506653108162600,6.07416259765625,0.8544549751266837,-0.9100269324839114,-2.1144740336716175
1780506653118155800,6.08415576171875,1.1013728034213184,-1.3157757248193025,-1.1790072472438216
1780506653128147700,6.094147705078125,1.0220768561273812,-1.8427771534293889,-0.7927712568908929
1780506653138139600,6.1041396484375,0.9648416417330503,-1.9722575198233125,-0.7163722000822424
1780506653148132900,6.1141328125,0.8571665721729397,-2.231507590946555,-1.0254261665552853
1780506653158124800,6.124124755859375,1.1992626842871308,-2.0504782391011713,-1.0472592281788586
1780506653168116700,6.13411669921875,1.7627210354179144,-1.9726585018396376,-0.7614569579556584
1780506653178109700,6.144109619140625,2.431535073250532,-1.7595722159981726,-0.32606413798481226
1780506653188102000,6.154101806640625,2.815532052505016,-1.5597452247023582,0.12038403674662113
1780506653198093600,6.164093505859375,3.0545760786846277,-1.389237266871333,0.5744207669109106
1780506653208086800,6.174086669921875,3.211301594878733,-1.3249345983088017,0.6718567665293812
1780506653218078700,6.18407861328125,3.274970349451899,-1.415306358629465,0.5309253240555525
1780506653228070700,6.194070556640625,3.760081432315707,-1.6112521245777607,0.45956163106560705
1780506653238063900,6.20406396484375,4.537486485509574,-1.4668395619899033,0.577997164092958
1780506653248055800,6.214055908203125,3.75785674200356,-0.38607203196287154,0.5004644270792603
1780506653258047700,6.2240478515625,3.6393384991288182,0.4333522540539503,0.30194325768500563
1780506653268040700,6.234040771484375,2.8805484222948547,2.321774137327075,0.32162615553736684
1780506653278033000,6.244032958984375,-1.247413259471953,3.5731261975526807,-0.2735357861071825
1780506653288024600,6.254024658203125,-4.424808493095636,5.2865276140064,-0.851237182123959
1780506653298017800,6.264017822265625,-2.4433263410702346,7.19183575015068,-0.14266162726730108
1780506653308009700,6.274009765625,-3.325896819090843,8.379830313709379,2.5041651329144834
1780506653318001700,6.284001708984375,-6.372997739589214,7.9967066101580855,3.190052178362012
1780506653327995000,6.293994873046875,-3.2552912509918213,6.8171724164307115,3.081177962145209
1780506653337986800,6.30398681640625,-0.8217232106089591,4.5183471930146215,1.0803095571264625
1780506653347978500,6.313978515625,-1.0443196675956248,1.668887151944637,-0.7350503048062325
1780506653357971700,6.3239716796875,-1.4227978834286332,-0.17956395546793938,-1.5280547859311102
1780506653367964000,6.3339638671875,-0.7795999328896402,-0.7266559859484434,-1.5349267175272105
1780506653377955600,6.34395556640625,-0.7646060696363448,-0.3896282631397247,-1.2153157012045384
1780506653387948800,6.35394873046875,-2.323903842832148,-0.049799511435627934,-1.0961810799971223
1780506653397940700,6.363940673828125,-2.5639137914344667,-0.023553894066810608,-1.0692539101049303
1780506653407932700,6.3739326171875,-1.5359221583053468,0.5483779786378145,-1.178023496903479
1780506653417925600,6.383925537109375,-0.8357084813416004,2.065255536994338,-1.4609183552473783
1780506653427917800,6.393917724609375,-0.8250316045045852,3.9783746391505,-1.5718167707681654
1780506653437909500,6.403909423828125,-0.7794646160721779,5.278574024653435,-1.5933929350212215
1780506653447902700,6.41390283203125,-0.7387925600744784,5.494713852846622,-1.339393331772089
1780506653457895000,6.42389501953125,-0.9025169952452182,4.540433352616429,-0.612624533098936
1780506653467886600,6.433886474609375,-1.1067170870587228,3.507905829623341,-0.561060934600234
1780506653477879800,6.4438798828125,-1.8328296137802302,3.10717457318902,-0.3219850519776344
1780506653487871700,6.453871826171875,-1.2001052725911139,1.7320710456103086,0.15549334405064583
1780506653497863700,6.46386376953125,-0.6933169031873345,0.3000596358954906,0.08625117325931787
1780506653507856600,6.473856689453125,-0.9005848581388592,-0.6933750631153583,0.3372144775524735
1780506653517848800,6.483848876953125,-0.8769453316152095,-1.1699264074265956,0.3589525543689728
1780506653527840500,6.493840576171875,-0.6468145336009562,-1.7286375640302896,0.458783924691379
1780506653537833700,6.503833740234375,-0.2304056694328785,-2.075131034320593,0.6336784270435571
1780506653547826000,6.513825927734375,-0.2578197460591793,-2.1608283730894327,0.4783259527683258
1780506653557817600,6.523817626953125,-0.18216288591995836,-1.9465619375526904,0.3669520286902785
1780506653567810800,6.533810791015625,0.07357946934327483,-1.5248825856357813,-0.01941664813160896
1780506653577802800,6.543802734375,-0.17490999218225478,-1.2932131798774003,-0.10474603037089109
1780506653587794700,6.553794677734375,-0.11607187263593077,-1.1297919654369353,0.03280336844921112
1780506653597787600,6.56378759765625,0.003654430854320526,-1.1436854662328957,0.2925964604079723
1780506653607779800,6.57377978515625,0.02954977348074317,-1.2950140918195248,0.5785030677884817
1780506653617771500,6.583771484375,0.2449262891512364,-1.5417062946647404,0.8111503786683082
1780506653627764700,6.5937646484375,0.2018928377844393,-1.548387379863858,0.9768909759670495
1780506653637757000,6.6037568359375,0.5455975541390479,-1.6007278079539538,0.8771873236775398
1780506653647748600,6.61374853515625,1.4142111107386648,-1.4344120411157608,0.4503659326970577
1780506653657741800,6.623741943359375,2.06967642217651,-1.0562333927512169,-0.2426283144071698
1780506653667733800,6.633733642578125,2.1624235333263875,-0.6313935309767723,-1.0397036982327699
1780506653677725700,6.6437255859375,1.8454478339433669,-0.5491448713570833,-1.649178242868185
1780506653687720000,6.653719970703125,1.444621446571499,-0.8051765649557113,-1.9040885312214493
1780506653697711600,6.663711669921875,1.3087128006957471,-1.133479714038968,-1.9478034620463847
1780506653707703800,6.673703857421875,1.0011889663994311,-1.462638603168726,-1.9101698969617484
1780506653717696800,6.68369677734375,0.273404268682003,-1.8033453067511318,-1.8303025795206427
1780506653727688700,6.693688720703125,-0.014078794234991072,-2.2893998079448936,-1.513858795057237
1780506653737680600,6.7036806640625,0.4013502651154995,-2.711128844222426,-0.9347940017327666
1780506653747673900,6.713673828125,0.29824162668809295,-2.7498440670639277,-0.2958098694965243
1780506653757665500,6.72366552734375,0.1612226814828813,-2.6895108866542574,0.12241729613989591
1780506653767657700,6.73365771484375,-0.05067570974826813,-2.3858061722546813,0.1449307412430644
1780506653777651000,6.74365087890625,-0.4188905979812145,-2.0950053630918264,-0.17439678196310995
1780506653787642600,6.753642578125,-0.6092796065852045,-2.0105168155908584,-0.1042398344144225
1780506653797634800,6.763634765625,-0.7179658990144729,-1.9690549243897197,0.11405571050792931
1780506653807627800,6.773627685546875,-0.7600736869037151,-1.868448770302534,0.23033318871855735
1780506653817619700,6.78361962890625,-0.9114638334192335,-1.6116589518129825,0.12365794385075568
1780506653827611600,6.793611572265625,-0.883931683371216,-1.2909978419154882,0.38980888040363787
1780506653837604900,6.80360498046875,-1.0322050130404532,-1.1109136619657278,0.6982207495808601
1780506653847596500,6.813596435546875,-1.5466928509056568,-1.0446481688976288,0.9638084992930293
1780506653857588700,6.823588623046875,-1.5783245452269912,-1.0750631809055804,0.9763850722715258
1780506653867582000,6.83358203125,-0.6927100233353674,-0.836764712396264,0.877914176647365
1780506653877573600,6.84357373046875,-0.2229553534269333,-0.37379181158244607,0.20871406210660934
1780506653887565800,6.85356591796875,-0.21830723536014557,-0.0522147558838129,-0.5077750423535704
1780506653897558800,6.863558837890625,-0.2646212427675724,-0.18250643866062163,-1.0826821314767003
1780506653907550700,6.87355078125,-0.34306305745020504,-0.8609288473159075,-1.9148396423384546
1780506653917542700,6.883542724609375,-0.4405725606963038,-1.6313900727212427,-2.6947777211412784
1780506653927535900,6.893535888671875,-0.673524407480657,-1.7715420552551746,-2.8268735307306048
1780506653937527600,6.903527587890625,-0.5162506097540259,-1.5101134710490702,-2.4005361238747835
1780506653947520800,6.913520751953125,0.07538812620043754,-1.312102589264512,-2.0202128646969792
1780506653957513000,6.923512939453125,-0.4913572837769985,-1.2357090854138135,-2.0612302270010114
1780506653967504600,6.933504638671875,-1.2488828936330973,-1.0416495716035366,-1.8352903048053382
1780506653977497900,6.943497802734375,-0.9365786931924521,-0.6780161659419536,-1.4577116681605577
1780506653987489800,6.95348974609375,-0.25952304284572597,0.129047235673666,-1.8125328218132257
1780506653997481700,6.963481689453125,0.3839186533212662,1.0533616367071867,-3.304237068207562
1780506654007474700,6.973474609375,0.5623837076365947,2.1125176389068363,-4.16135103341043
1780506654017467000,6.983466796875,0.7304477794468403,3.0140561445087193,-3.7609348342746496
1780506654027458600,6.99345849609375,1.25530781211406,3.4095863251686094,-2.5757214258670804
1780506654037451800,7.00345166015625,1.472703777848184,3.4256811354011294,-1.150182719297707
1780506654047444000,7.01344384765625,1.0322487060517072,3.207593680271506,-0.2092187967583537
1780506654057435600,7.023435546875,1.1813374437570572,3.1619992193102835,-0.18989421082437039
1780506654067428900,7.033428955078125,1.9181240708366036,3.1974995717585086,-0.41399961106926203
1780506654077420800,7.0434208984375,2.2699840365961195,3.999324488198757,0.6086234807640314
1780506654087412700,7.053412841796875,1.5025430357947944,5.543099990352988,2.357259292206168
1780506654097405700,7.06340576171875,1.7699349123194812,5.2140281949847935,0.9623314124777913
1780506654107398000,7.07339794921875,1.5222387931287287,5.063971489030123,0.811124659705162
1780506654117389600,7.0833896484375,1.729524575997889,5.314052165269851,0.7346759185358882
1780506654127382800,7.0933828125,1.6703128008335828,4.569899685597419,-0.40613983747959137
1780506654137374700,7.103374755859375,1.1750856898859143,4.446064631614089,-0.2806353889793157
1780506654147366700,7.11336669921875,0.9354267466783523,4.211943741050362,-0.41893414486199615
1780506654157359900,7.12335986328125,0.8077548910111189,3.4655899519413706,-0.7581576241493224
1780506654167351800,7.133351806640625,0.5353364184960723,2.6689848159760237,-0.7467930573090911
1780506654177343700,7.14334375,0.5399982728272676,1.7918202886521815,-0.3314534298077225
1780506654187336700,7.153336669921875,0.6407631246075034,1.76285956710577,0.5794225207209587
1780506654197329000,7.163328857421875,0.7315127783298492,1.6627701303690672,1.1937304768621921
1780506654207320600,7.173320556640625,0.4976046537339687,2.025994955229759,1.4360504559725522
1780506654217313800,7.183313720703125,0.6791290956199169,2.5574779131680727,1.5873264745891094
1780506654227305700,7.1933056640625,0.5441413639813661,2.5877023710399865,1.7477210346847771
1780506654237297700,7.203297607421875,0.16777473347485064,2.0929683043062686,2.0923013648301363
1780506654247291000,7.213290771484375,-0.34539544592052696,1.425047415921092,2.8699244446888565
1780506654257282800,7.22328271484375,-0.9375345326125621,0.4978799635440111,3.0906086383134124
1780506654267274800,7.233274658203125,-1.2360422628909349,-0.43330958395600316,2.9399723789051175
1780506654277267700,7.243267822265625,-1.3579609618589281,-0.9936112246215343,2.8866347564712167
1780506654287260000,7.253260009765625,-1.5157090990990398,-1.3209960898160933,2.75817584207952
1780506654297251600,7.26325146484375,-1.5855083192512391,-1.50330671364367,2.669194367073476
1780506654307244800,7.273244873046875,-1.5155442639261483,-1.53931969178915,2.71248318144083
1780506654317236700,7.28323681640625,-1.399150173598528,-1.5221365017980337,2.6269538927152754
1780506654327228700,7.293228759765625,-1.3082991053283213,-1.7050047595083713,2.4366490552634
1780506654337222000,7.303221923828125,-1.4553876091271638,-2.001401196721196,2.308608658544719
1780506654347213800,7.3132138671875,-1.667080394783616,-2.047390794479847,2.386707797269523
1780506654357205800,7.323205810546875,-1.8961074693396687,-2.1139871269375083,2.474792323435843
1780506654367198700,7.33319873046875,-2.0797253763735295,-2.283465157198906,2.532449270373583
1780506654377191000,7.34319091796875,-1.8093261347264051,-2.3751982690006495,2.8156936728075146
1780506654387182600,7.3531826171875,-1.936445032685995,-2.6063871977657076,2.526185826064646
1780506654397175800,7.36317578125,-1.9905609460160134,-2.6402321842223406,2.05525553650558
1780506654407167700,7.373167724609375,-1.7818951069653033,-2.5371219383597374,1.8331372184246777
1780506654417159700,7.38315966796875,-1.6217583210229873,-2.692891761264205,1.674063093277812
1780506654427152600,7.393152587890625,-1.5990362016052007,-2.925776972553134,1.5407649221614002
1780506654437144800,7.403144775390625,-1.4897896449446677,-2.940547256183624,1.4833993593856691
1780506654447136800,7.41313671875,-1.3373171100199222,-2.916930233752727,1.2076663554951548
1780506654457129700,7.423129638671875,-1.0925959149867295,-2.9807395658403633,0.7368713827535509
1780506654467122000,7.433121826171875,-0.8188222284704446,-3.0614363198429344,0.1845969811990857
1780506654477113600,7.443113525390625,-0.7731932807177305,-3.054182987713814,-0.4313096423104405
1780506654487106800,7.45310693359375,-0.8146566332235932,-2.7418653432697058,-0.844793705072999
1780506654497098800,7.4630986328125,-0.5869190139561892,-2.0895196251571178,-1.0939572664678097
1780506654507090700,7.473090576171875,0.280575183224678,-1.5136989283204079,-1.2563432926416396
1780506654517083600,7.483083740234375,1.2565882073134182,-1.2636118223398922,-1.457893746729195
1780506654527075800,7.493075927734375,1.7013371769115329,-1.069855090868473,-1.7817814174577593
1780506654537067800,7.50306787109375,1.7764222285121678,-0.918858473715186,-2.36010942094028
1780506654547060700,7.513060791015625,1.2772551477670668,-0.8282745319485664,-2.7376877653241154
1780506654557053000,7.523052978515625,1.0890808926030993,-0.725960989421606,-2.0070234205171467
1780506654567044600,7.533044677734375,1.1199746280387044,-1.151447332406044,-1.440814017112553
1780506654577037800,7.543037841796875,1.2331193611815572,-1.347076872012019,-0.7453525031119584
1780506654587029800,7.55302978515625,1.3004197502553463,-1.2314280470937489,-0.09297434403449296
1780506654597021700,7.563021728515625,1.6787725861430167,-1.0187363135278225,-0.25358342366367576
1780506654607014700,7.5730146484375,2.236402084989846,-0.8567512693703174,-0.1940913702532649
1780506654617006800,7.5830068359375,2.505450496549904,-0.7696545851975679,0.08950549888014793
1780506654626998800,7.592998779296875,3.03502674408406,-0.7554799293726682,0.22721242634952066
1780506654636991700,7.60299169921875,3.452165237700939,-0.8723965822696685,0.3336512321129441
1780506654646984000,7.61298388671875,3.144267455525696,-1.1843658516675233,0.25993717660456894
1780506654656976000,7.622975830078125,2.5967268044948577,-1.4015975667506455,0.3044754065111279
1780506654666968800,7.63296875,2.2265926386371255,-1.476158009955287,0.7230345805808901
1780506654676960800,7.642960693359375,1.96795426967144,-1.6098896040529012,1.5192065858259796
1780506654686952700,7.65295263671875,2.1640692547067997,-1.7244623241722583,2.217851990559697
1780506654696945700,7.662945556640625,2.429598844490945,-1.5008850394546984,2.6437872463554144
1780506654706937600,7.6729375,1.9073811430260539,-1.1758669033914804,2.2132187778010963
1780506654716929800,7.6829296875,1.7507304456338286,0.27651217156946656,1.770082504096627
1780506654726922500,7.692922607421875,-0.989249522280693,1.433725227895379,0.15005612143278121
1780506654736914700,7.702914794921875,-2.775236866995692,1.6181214258253573,-3.5378611151650547
1780506654746906600,7.71290673828125,-1.2051511578038334,2.797818701159954,-4.7823090950906275
1780506654756899600,7.722899658203125,-0.9976856344535946,6.649699880772829,-0.5740177390679717
1780506654766891500,7.7328916015625,-2.149654068124294,10.604223104214668,0.12419570398926734
1780506654776883700,7.7428837890625,-3.944452203543484,12.07540858645439,0.325602073431015
1780506654786876700,7.752876708984375,-3.0536604251444337,7.4788441812932485,-0.13942659086883066
1780506654796868600,7.76286865234375,-3.979523224663734,0.9139040661782025,-1.054500285348296
1780506654806860800,7.77286083984375,-4.6005715949758885,-0.9682201782554387,-0.3144675159543753
1780506654816853500,7.782853515625,-3.270252381019294,-1.9053221646696328,0.13028496077507734
1780506654826845700,7.792845703125,-1.5978502066910265,-2.6880168487042186,0.09018529783785342
1780506654836837600,7.802837646484375,1.3997133604392409,-1.3113491405487059,-0.5591062934011221
1780506654846830600,7.81283056640625,3.211978763487935,2.821727984535694,-2.1258315862491726
1780506654856822500,7.822822509765625,2.4403683680474755,5.579250915664434,-4.477094852910936
1780506654866814700,7.832814697265625,1.2125754625856875,6.029586453223228,-5.691521204060316
1780506654876807700,7.8428076171875,0.45257732513621446,5.79854657754004,-4.508870631878078
1780506654886799600,7.852799560546875,-2.2725230535544454,3.4849078158736226,-1.5086395991042256
1780506654896791800,7.862791748046875,-3.6937256306156514,1.734054912903905,1.5287576735034585
1780506654906784500,7.872784423828125,-3.788058403521776,1.670625520044565,2.737300227311253
1780506654916776700,7.882776611328125,-3.22822291906327,0.9050906451255083,2.3501298787176608
1780506654926768600,7.8927685546875,-2.055507465440035,0.23815876777768133,2.100970116715133
1780506654936761600,7.90276171875,-1.0844390581466257,0.10512392377257347,2.2265870856791734
1780506654946753500,7.91275341796875,-0.697839495178312,-0.09845335996747016,2.579683315235376
1780506654956745700,7.922745849609375,-0.8869767501555382,-0.5520481915831565,2.9213164860129353
1780506654966738700,7.93273876953125,-1.2610697366416455,-1.3265233288049698,2.3540762782558797
1780506654976730600,7.942730712890625,-1.5077531716585157,-1.709607869389653,2.10312963283658
1780506654986722600,7.95272265625,-1.1746681951262057,-1.6563737073302267,1.9186235447913407
1780506654996715500,7.962715576171875,-0.30694311179891226,-1.5984896736383438,1.515453663033247
1780506655006707700,7.972707763671875,-0.10168700812645257,-1.0217606297850608,0.9239297856301069
1780506655016699600,7.98269970703125,0.5498375297963619,-0.47124797720611095,0.461042517273128
1780506655026692600,7.992692626953125,1.2202221048813313,-0.20503274324536322,-0.010659341180324553
1780506655036684500,8.0026845703125,1.0597978072345255,0.28979718507826324,-0.27199644771069287
1780506655046676700,8.0126767578125,1.8126409583628176,0.3810474817991257,-0.5575479580432177
1780506655056669400,8.02266943359375,2.0626585062384604,0.0620791472941637,-1.4419453592300415
1780506655066661600,8.03266162109375,1.2103215461790562,-0.10754910509288311,-2.087588657094538
1780506655076653600,8.042653564453126,1.0272925449490546,-0.777933168721199,-2.5959514362081886
1780506655086646500,8.052646484375,0.6372901147346943,-1.2285545374840496,-2.838498502072692
1780506655096638700,8.062638671875,0.6409153925597667,-1.3018360467940568,-2.487753804078698
1780506655106630700,8.072630615234376,0.797366110400483,-1.515955182814598,-1.9477458866402506
1780506655116623600,8.08262353515625,1.0474573080342262,-1.669301577964425,-1.4442881229639053
1780506655126615600,8.092615478515626,1.7110881710752843,-1.8464368449807167,-1.050475852137804
1780506655136607700,8.102607666015626,1.8525274169407784,-2.0100614730387925,-0.8412412732884287
1780506655146600400,8.112600341796876,1.3893806208647788,-2.126697555428743,-1.001045466275513
1780506655156592600,8.122592529296876,1.3758243891991675,-2.1488117720812556,-1.1146899656340479
1780506655166584600,8.13258447265625,0.8266893085837363,-2.152765478143096,-1.2163833304360507
1780506655176577500,8.14257763671875,0.29480697606429457,-2.147804640865326,-1.0356503311887384
1780506655186569700,8.15256982421875,-0.07685761423110961,-2.0579659645080564,-0.753109985370934
1780506655196561700,8.162561767578126,-0.16340543234944344,-1.821058658096194,-0.04589665877819061
1780506655206554600,8.1725546875,-0.30835867768526076,-1.5552163491010664,0.5870768348664045
1780506655216546600,8.182546630859376,-0.6286288885690271,-1.5524574057817457,1.1231368914619086
1780506655226538800,8.192538818359376,-0.9523639990843832,-1.6560370227217673,1.7507897746056318
1780506655236531500,8.202531494140626,-1.7229884522274135,-1.8814526287823914,2.2656845858365298
1780506655246523600,8.212523681640626,-2.3592906519033012,-2.440526188957691,2.5211656598150727
1780506655256515600,8.222515625,-2.750840676885843,-3.3368747247010466,2.492290862986445
1780506655266508500,8.232508544921876,-2.438332770566642,-3.7839568134218453,2.3425264179766176
1780506655276500700,8.242500732421876,-1.7477052525937555,-3.6645571115374564,2.001891610586643
1780506655286492700,8.25249267578125,-0.7988201816663145,-3.3088866475790737,1.0518380804017184
1780506655296485600,8.262485595703126,-0.2424211013972759,-2.254154307040572,-0.06597001725286245
1780506655306477600,8.2724775390625,-0.2626480429984629,-0.9576742343217134,-0.36116263163387774
1780506655316469800,8.2824697265625,-0.4371278270699084,-0.47480362386107444,-0.49699645870774983
1780506655326462500,8.29246240234375,-0.7998072930075227,-0.17414309946298598,-1.1630015765994786
1780506655336454700,8.30245458984375,-1.0674442303344607,0.08390519465506076,-1.688033458702266
1780506655346446600,8.312446533203126,-0.9083703974485396,0.1493424202054739,-1.9137866261541843
1780506655356439600,8.322439453125,-0.5830737367048859,0.1064297456741333,-2.0977014703080057
1780506655366431500,8.332431396484376,-0.4890682960569858,0.2060714386433363,-2.305759114332497
1780506655376423700,8.342423583984376,-0.5535398914456368,0.14794073671400546,-2.335086331103742
1780506655386415400,8.352415283203126,-0.8801591790951788,-0.17212357633411884,-2.4379086999356745
1780506655396408600,8.36240869140625,-1.2285365634359418,-0.6890016703367233,-2.451369654533267
1780506655406400800,8.37240087890625,-0.7783961100578307,-0.3999398137956857,-2.445285366183519
1780506655416392400,8.382392333984376,-0.385248732881248,0.5647147809326648,-2.819169824485481
1780506655426385700,8.3923857421875,0.753768157018721,1.7279904982984065,-3.418675348292291
1780506655436377600,8.402377685546876,1.3862617581918835,2.8653713114291426,-3.8875805617645383
1780506655446369500,8.41236962890625,1.1515525463461875,3.504616724950075,-3.763824418236315
1780506655456362500,8.422362548828126,1.4674363588392734,3.773744631487131,-2.7730557235643265
1780506655466354700,8.432354736328126,1.8447192274078725,4.136678364446759,-1.3782234131649136
1780506655476346400,8.442346435546876,2.2735443594262,4.361904000893235,-0.6353785089597106
1780506655486339600,8.452339599609376,2.888506103301048,4.243919426503777,-1.8012427815139294
1780506655496331800,8.462331787109376,2.664958044677973,4.690972873651981,-1.4999538960844276
1780506655506323500,8.472323486328126,2.5604066600963473,5.051493700250983,-0.9732716164261103
1780506655516316700,8.482316650390626,1.5426517588213084,5.34993713312149,-1.0659873095244168
1780506655526308600,8.49230859375,1.4842963082253933,5.076390825620293,-0.5637731161683798
1780506655536300500,8.502300537109376,1.2902411783292889,4.576440485543013,0.1514899536281824
1780506655546293500,8.51229345703125,1.0312918437182903,3.0877853975862264,-0.2538470430359244
1780506655556285700,8.52228564453125,0.6579056903272866,3.2978666563928125,0.22200404405146837
1780506655566277400,8.53227734375,-0.30808278335332867,2.420650691142678,-1.1041054432556032
1780506655576270600,8.5422705078125,-0.018797639450430868,1.9942811355829237,-0.8460811145350337
1780506655586262800,8.5522626953125,0.5045686475276947,2.2351246123999355,-0.25981179665923115
1780506655596254500,8.56225439453125,0.7097200487166643,2.389032148563862,-0.19581658661067486
1780506655606247700,8.57224755859375,0.4153995409950614,2.7395746019840237,0.6801350577920675
1780506655616239600,8.582239501953126,0.18074936586022375,3.215249163460731,2.185525299711525
1780506655626231600,8.5922314453125,-0.16091916849166155,3.330457843396067,3.466544476187229
1780506655636224500,8.602224609375,-0.4640343925654888,2.8265555508226154,3.8401860656440254
1780506655646216700,8.612216796875,-0.7066837497606873,1.7130454426228998,3.627714404569566
1780506655656208600,8.622208740234376,-0.7212441900327802,1.1252186661720276,4.057799765782058
1780506655666201600,8.63220166015625,-0.7176537643253803,0.6477420237094164,4.497997647947073
1780506655676193500,8.642193603515626,-0.8308651329636574,-0.35563422360122204,4.032486753088236
1780506655686188300,8.652188232421874,-0.76151920953691,-0.9264975902915,3.486099071484804
1780506655696181000,8.662180908203124,-0.7337637721270323,-1.2626830170571803,2.7360785765618085
1780506655706173200,8.672173095703124,-0.7047779161393642,-1.4772592491954564,2.174805752776563
1780506655716165000,8.6821650390625,-0.7931789609089493,-1.6909750651121138,1.7188655270785091
1780506655726158000,8.692157958984374,-0.8688388897880911,-1.8647779728353022,1.427227390308678
1780506655736150000,8.70214990234375,-0.8973299479961395,-1.9585037197589874,1.329098732250929
1780506655746142200,8.71214208984375,-1.0066147908404468,-2.0237322709947825,1.3471753639504314
1780506655756135200,8.72213525390625,-1.126918455827236,-2.0917367166846987,1.4345368365392088
1780506655766127000,8.732127197265624,-1.3397785316973925,-2.1311276468306777,1.5356854269400237
1780506655776119300,8.742119384765624,-1.652212495997548,-2.103357596373558,1.6156795856311916
1780506655786112000,8.752112060546875,-1.9518086060345172,-2.2450632380902764,1.5801380243897438
1780506655796104200,8.762104248046874,-2.097760799279809,-2.4735166044116017,1.6197943274736404
1780506655806096100,8.77209619140625,-1.9216928692340849,-2.6751976991415023,1.910094493637979
1780506655816089000,8.782089111328125,-1.594580098979175,-2.803012178149819,2.198084921555221
1780506655826081000,8.7920810546875,-1.3780635464280844,-2.852330043548345,2.2220459351181985
1780506655836073200,8.8020732421875,-1.294897479702532,-2.8495938965827223,1.8716075265944003
1780506655846066200,8.812066162109375,-1.1759560429796576,-2.8069804972589014,1.4133414882972837
1780506655856058000,8.82205810546875,-0.9472221061512828,-2.7469267183125017,1.0322516286611556
1780506655866050300,8.83205029296875,-0.8725546954408288,-2.488305592742562,0.6106941495582461
1780506655876042200,8.842042236328124,-0.8279144664645195,-1.8097019823014735,0.17299305264502762
1780506655886035200,8.85203515625,-0.4905918523624539,-1.2352099037200213,-0.09416033894866704
1780506655896027100,8.862027099609374,-0.10829174015372992,-0.9047837711334228,-0.7808601620838046
1780506655906019300,8.872019287109374,0.36233781289309264,-0.6263596284627914,-1.4887600096359848
1780506655916012000,8.882011962890624,0.8306815930902958,-0.5366004470825195,-2.071308553422987
1780506655926004200,8.892004150390624,1.221780513304472,-0.4831242929607629,-2.5503683734238147
1780506655935996200,8.90199609375,1.6667133150368927,-0.4798801964730024,-2.7622280400797723
1780506655945989000,8.911989013671874,2.0280162319242954,-0.4009732484966516,-2.729468510772288
1780506655955981000,8.92198095703125,2.319064001585543,-0.2855132241487503,-2.3740906000196933
1780506655965973200,8.93197314453125,2.330773144079745,-0.32283377776145933,-1.6822142510294913
1780506655975966200,8.94196630859375,2.1097183635771275,-0.6439817943930626,-1.1443117814376949
1780506655985958100,8.951958251953124,1.863478288413584,-1.0536702642649411,-1.0448232332035898
1780506655995950300,8.961950439453124,1.779827360780537,-1.2993985905140637,-0.8298223459124565
1780506656005943000,8.971943115234374,1.6772729952350258,-1.3274053723365067,0.01686345651745796
1780506656015935200,8.981935302734374,1.8539654869198798,-1.4230074345260857,1.0482666516557335
1780506656025927200,8.99192724609375,2.077972687487304,-1.5535621521532534,1.9347060800641773
1780506656035920100,9.001920166015625,1.830160248440504,-2.0888065084517002,1.8798109990552068
1780506656045912000,9.011912109375,1.62870039524585,-2.6117864264607427,1.2567974661499262
1780506656055904300,9.021904296875,1.2458476175904274,-3.2616216230571267,0.4286807551115751
1780506656065897200,9.031897216796875,0.9815011001110077,-3.3681104054421183,0.2964756399288773
1780506656075889200,9.04188916015625,0.639920828564465,-3.56348509350419,-0.07172726560533046
1780506656085881300,9.05188134765625,0.8730345879122614,-3.3641064304977655,-0.04128682689517736
1780506656095874000,9.0618740234375,1.125562657304108,-3.025662411150336,-0.01675064379274845
1780506656105866200,9.0718662109375,1.0107093666777014,-3.330065044686198,-0.26912030775249
1780506656115858200,9.081858154296874,1.104673014010489,-3.1443337987601754,0.027998598515987395
1780506656125851100,9.09185107421875,0.9922057417377829,-2.4739924052298066,0.4921297294542193
1780506656135843000,9.101843017578124,1.5359899628445506,-1.0890782622545956,0.9089771311700343
1780506656145835300,9.111835205078124,2.3383342269837857,0.7023404598593711,0.4585083226203918
1780506656155828200,9.121828125,2.2887062727227807,2.843264693561196,-2.6065233913660046
1780506656165820200,9.131820068359374,0.40376287921518084,5.111383228546381,-3.317483503271639
1780506656175812400,9.141812255859374,-3.6757077433660625,8.518382459831237,0.08914572565704583
1780506656185805000,9.15180517578125,-7.294248661398887,11.133128905141353,4.545539151322841
1780506656195797200,9.16179736328125,-7.439233470916748,10.79096148135662,6.852991917830705
1780506656205789200,9.1717890625,-3.473700485421717,7.035646825051307,6.514459635677933
1780506656215781000,9.181781005859374,-1.3820017626598478,3.6608600105851887,5.2223535402596
1780506656225774000,9.191774169921874,-2.5937764302566646,2.3773604154706,2.683299464793503
1780506656235766300,9.201766357421874,-3.319302243131399,2.2460808907002208,-0.2662862533703446
1780506656245758000,9.211758056640624,-0.5698211641609668,2.177013784214854,-2.0032225669294594
1780506656255751200,9.221751220703124,3.581142038486898,2.411260931506753,-2.9341920419380068
1780506656265743000,9.2317431640625,1.166136075232923,2.308424241888523,-3.3459579026058313
1780506656275735000,9.241735107421874,-2.417247312439978,2.0350755027860403,-2.3866654194325205
1780506656285728300,9.251728271484374,-3.4607211768612265,2.736698754286766,-0.9904919235572218
1780506656295720200,9.26172021484375,-3.0689336898609993,3.1310441090762615,-0.9349451006412506
1780506656305712000,9.271712158203124,-1.6553861575976012,3.280267286816239,-1.788337414972484
1780506656315705000,9.281705078125,-0.6103975046992302,3.985436248099804,-2.359008473961055
1780506656325697300,9.291697265625,-0.7542080097407102,4.167890079790354,-2.724868908022344
1780506656335689000,9.30168896484375,-0.7398001296818256,3.295404650193453,-2.628410521264374
1780506656345682200,9.31168212890625,-0.247573954115808,2.0892852318793533,-2.795474476121366
1780506656355674000,9.321674072265624,-0.6243471195966005,1.5271557912647724,-2.9000819748044013
1780506656365666000,9.331666015625,-0.13324687932059168,1.0821423255115747,-2.9629467195183037
1780506656375659300,9.3416591796875,0.19646131425499916,0.32795185142755506,-2.5866686440780757
1780506656385651200,9.351651123046874,0.10006079516410828,-0.6416413687467575,-1.9040680729553103
1780506656395643100,9.36164306640625,-0.023137422220408915,-1.1646452521532773,-1.2280439576134086
1780506656405636000,9.371635986328124,0.18478724307417868,-1.8738070824652908,-0.5434630263283848
1780506656415628300,9.381628173828124,0.35025808352082966,-2.4835797332644463,0.1468582021743059
1780506656425620000,9.391619873046874,0.48562882312759753,-2.7673884915828704,0.6933592810243367
1780506656435613200,9.40161328125,0.5138318581745028,-3.067009151539206,1.1246689233347773
1780506656445605000,9.411605224609374,0.2478197455704212,-3.2593700447380543,1.3160761690706013
1780506656455597000,9.42159716796875,0.04016352195367217,-3.0996465157717465,1.4041121799200773
1780506656465589000,9.431589111328124,-0.04629997888207436,-2.540053900158405,1.3159697860866784
1780506656475582200,9.441582275390624,-0.01483399651646614,-1.8442478105038402,0.9137935915410518
1780506656485574000,9.451573974609374,0.22160393881797788,-1.4291770630717278,0.20465952601879833
1780506656495566000,9.461566162109374,0.6535188535451889,-1.206457271966338,-0.46812809161990876
1780506656505559300,9.471559326171874,1.4326773262776433,-1.05093061016798,-0.9602475919410586
1780506656515551000,9.481551025390624,2.0642216639019546,-1.0267191289752722,-1.4169658162742853
1780506656525543200,9.491543212890624,2.1170529442489148,-1.257882923299074,-1.6279408090502023
1780506656535536000,9.5015361328125,1.74456403195858,-1.6634201187103985,-1.546393867959082
1780506656545528000,9.511528076171874,1.497078779039532,-2.088425984701514,-1.2805550660952925
1780506656555520000,9.52152001953125,1.0737386543035508,-2.4490584549814463,-1.0145774402827024
1780506656565513200,9.53151318359375,0.5454967241130769,-2.6529905435085297,-0.7047244323864579
1780506656575505000,9.5415048828125,0.36514512539878485,-2.461054597723484,-0.3984367157563567
1780506656585497000,9.5514970703125,0.09172551301717757,-1.969329065155983,-0.22959756792038677
1780506656595490300,9.561490234375,-0.1887291125677526,-1.8688953450262547,-0.3162725195497274
1780506656605482000,9.57148193359375,-0.5844562771044671,-2.119274711951613,-0.38346009589880703
1780506656615474200,9.58147412109375,-0.6151813779748976,-2.48786194062829,-0.26640549583584067
1780506656625466000,9.591466064453124,-0.19802739452794194,-2.9993536654174324,-0.054012160694599146
1780506656635459000,9.601458984375,-0.0566480621561408,-3.16204305845201,0.10423545050024986
1780506656645451000,9.611450927734374,-0.32754736227989195,-2.94557180634737,-0.02515402273982763
1780506656655443200,9.621443115234374,-1.119436575639248,-2.3967168578475713,-0.27541677754819394
1780506656665436000,9.631435791015624,-1.8330192911334335,-1.7582354144364594,-0.5663379982203245
1780506656675428000,9.641427978515624,-1.6064891479596495,-1.1540367643773555,-0.9083595837935805
1780506656685417000,9.6514169921875,-1.2882279388107358,-0.591473608520627,-1.1734849766910076
1780506656695409700,9.66140966796875,-1.3874587128914893,-0.35161622013151644,-1.1357874064594506
1780506656705401900,9.67140185546875,-1.4394517888486384,-0.3811579564362764,-0.5641577315717935
1780506656715393800,9.681393798828125,-1.1227554909288882,-0.5603817201644182,0.1836208296433091
1780506656725386800,9.69138671875,-1.4909284397162497,-0.7886100455582141,0.6451563911303877
1780506656735379000,9.70137890625,-1.331076754325628,-0.9729963066160678,0.7743605709314346
1780506656745371000,9.711370849609375,-1.0961550687730313,-1.3042442769795655,0.4092576772391796
1780506656755363800,9.72136376953125,-0.797086782002449,-1.427777717667818,-0.466773754401505
1780506656765355800,9.731355712890625,-0.42523003013581034,-1.1754337726712225,-1.4458146018788218
1780506656775348000,9.741347900390625,0.15526801086217165,-0.7897866881221532,-2.1976760484933853
1780506656785340700,9.751340576171875,0.34125323154926296,-0.41003859848380086,-2.74782454393506
1780506656795332900,9.761332763671875,0.1286065061688423,-0.1923416039764881,-2.9460584208205343
1780506656805324800,9.77132470703125,-0.12304536491036415,-0.6014262627363205,-2.724802857048809
1780506656815317000,9.78131689453125,-0.1690671113729477,-1.3771037614852188,-2.353934239436686
1780506656825310000,9.79131005859375,-0.5469438541814684,-2.0021856250971553,-2.1866087110340593
1780506656835302000,9.801302001953125,-0.8884513527527451,-2.3011142111361025,-2.3637167977824807
1780506656845293800,9.8112939453125,-0.5094181333854794,-2.1395821714431045,-2.401691139128804
1780506656855286800,9.821286865234375,0.15408990699350833,-1.362052907347679,-2.267541319619119
1780506656865279000,9.831279052734375,0.521263469479978,-0.08836334310770035,-2.2767381870314476
1780506656875271000,9.84127099609375,1.3361699858114122,1.338451667007804,-2.2572198320910335
1780506656885264000,9.851263916015625,1.7004387667670846,2.9254958175241947,-1.97127376948297
1780506656895255800,9.861255859375,2.186831121613085,4.5223190192550415,-1.2232047008886933
1780506656905248000,9.871248046875,2.5592986988544464,5.872392734995484,-0.4077805904239416
1780506656915240700,9.88124072265625,2.41213333042711,6.4717036130130285,0.05919394724667072
1780506656925233000,9.89123291015625,1.831581221154332,6.917766880080103,0.5225473718106747
1780506656935224800,9.901224853515625,0.7598641358062624,6.582739391177892,1.0945540633171795
1780506656945216800,9.911216796875,0.2970642534717917,5.124481779572367,1.526350904622674
1780506656955210000,9.9212099609375,0.19468319866657255,4.64034100304544,1.997637752534449
1780506656965202000,9.931201904296875,0.4487368701905012,3.8863691401481626,1.8889102513119578
1780506656975193900,9.94119384765625,0.7994652015715837,4.383424343305826,1.7039096577480435
1780506656985186800,9.951186767578125,1.3259919984072446,4.41928008506298,0.029566578485071656
1780506656995179000,9.961178955078125,1.7497475720763205,4.576069898664951,-1.6622846849396824
1780506657005171000,9.9711708984375,1.9463824893325565,4.757733456760644,-2.3969129649415613
1780506657015164000,9.981163818359375,1.3857383188396692,4.4684085653692485,-2.866137619626522
1780506657025155800,9.99115576171875,1.0773717501088975,4.602589072278142,-1.8790993436545131
1780506657035148000,10.00114794921875,1.178262274095416,3.941706996488571,-1.0896733055382966
1780506657045141000,10.01114111328125,0.7549322323620319,3.7478725236058232,-0.5279679355546831
1780506657055133000,10.0211328125,0.4694838901430368,3.1895319538801905,0.38227877715975045
1780506657065124900,10.031124755859375,-0.23081308118999003,2.4872306569874287,1.6134832446306944
1780506657075117800,10.041117919921875,-0.7871586777061224,1.835716129001975,2.8899869895085692
1780506657085110000,10.051110107421875,-1.1043506501883267,1.1126765799850225,3.7934038562029597
1780506657095102000,10.06110205078125,-1.293956107199192,0.48420975010991096,4.335946552816033
1780506657105094000,10.071093994140625,-1.5468687919944524,-0.34729426527917384,4.362273418727517
1780506657115086800,10.0810869140625,-1.6136521714568137,-1.175408638229966,4.3678658319070935
1780506657125079000,10.0910791015625,-1.4968851561635732,-1.950052117756009,4.322891256409883
1780506657135070700,10.10107080078125,-1.3972405405849218,-2.6362317164093256,4.154769901454449
1780506657145064000,10.11106396484375,-1.3279726508304477,-3.0915450423806905,3.9802725817263123
1780506657155055900,10.121055908203125,-1.4595944131672383,-3.3380823469251393,3.800634099717438
1780506657165047800,10.1310478515625,-1.7921061198562382,-3.376324691557884,3.4222964613988993
1780506657175041000,10.141041015625,-2.074424055095017,-3.354787398010492,3.1190742698192593
1780506657185033000,10.151032958984375,-2.436488896265626,-3.463634726220369,3.0293504520133134
1780506657195025000,10.16102490234375,-2.5230033966362475,-3.6228017903476952,2.878183446729183
1780506657205017900,10.171017822265625,-1.5363129111886022,-3.30454774159193,0.7910860802829265
1780506657215010000,10.181010009765625,-3.876254573369026,-3.480199492052197,5.013813081154227
1780506657225001700,10.191001708984375,-2.8740277883544563,-3.927321912783384,5.220416434717178
1780506657234994000,10.200993896484375,-2.0216995961233972,-3.5250656387388704,3.6145500948309897
1780506657244987000,10.21098681640625,-2.195051837469637,-2.8940105459362266,3.2944019028916953
1780506657254978800,10.220978759765625,-1.860541358178854,-2.236332234624028,3.022076369357109
1780506657264970800,10.230970703125,-1.244009296247363,-1.3372253400832415,1.8739158035367727
1780506657274964000,10.2409638671875,-1.2183715816438196,-0.024443536382913588,1.295953710757196
1780506657284956000,10.250955810546875,-0.36450375875532626,1.0726052663594483,-0.8188847723126411
1780506657294947800,10.26094775390625,0.5526338825166225,1.4624211610257625,-1.0278300128266216
1780506657304941000,10.270941162109375,1.493041924738884,1.6435492970705032,-2.4568814036920665
1780506657314932700,10.2809326171875,2.137375016787648,1.5837527077555655,-3.591547697167098
1780506657324925000,10.290925048828125,2.630088975870609,1.1243418833374976,-3.9613349492833017
1780506657334918000,10.30091796875,2.6150208783373237,0.3573568096101284,-3.793981656090915
1780506657344909800,10.310909912109375,2.189164240735769,-0.4256710519015789,-3.4118668373212215
1780506657354901800,10.32090185546875,1.875190645778179,-1.1534721162319184,-2.8208295743912455
1780506657364894000,10.33089404296875,1.8848764657512307,-1.8472306257069109,-1.7994444999203085
1780506657374887000,10.340886962890625,1.6941501880168914,-2.425546061968803,-0.9275722337856889
1780506657384878800,10.35087890625,1.3276675304040313,-2.728549934622645,-0.38581045841723677
1780506657394870800,10.360870849609375,0.9742276019766927,-2.967138325989246,-0.1398129598379135
1780506657404863700,10.37086376953125,0.7594669531822205,-3.2346243105381727,-0.21824644508361815
1780506657414856000,10.38085595703125,1.0366802587583661,-3.4929315478533502,-0.2635965758949518
1780506657424848000,10.390847900390625,1.4390169045627117,-3.6666888628691434,-0.47049686657786366
1780506657434840800,10.4008408203125,1.7588433172017335,-3.761575470265746,-0.8442489306718111
1780506657444832800,10.410832763671875,2.0683660702303053,-3.622546938803792,-1.2306164384499192
1780506657454825000,10.420824951171875,2.6094468775972723,-3.2277368891119953,-1.4597127788498996
1780506657464817000,10.43081689453125,2.863306487853825,-2.7977351145297287,-1.5172130739212035
1780506657474809900,10.440809814453125,2.5925962805613874,-2.5373522399842736,-1.6329507461667059
1780506657484801800,10.4508017578125,2.201980467689037,-2.343443532821536,-1.6759917232528327
1780506657494794000,10.4607939453125,1.8732281135335564,-2.277215449154377,-1.4180185401976109
1780506657504787000,10.470786865234375,1.910687491095066,-2.2959487911969423,-0.8220061192035675
1780506657514779000,10.48077880859375,1.976397103846073,-2.3683552712380886,-0.17913637770563362
1780506657524771000,10.49077099609375,2.1574600657001137,-2.2387702754259107,0.5841863741219043
1780506657534763800,10.500763671875,1.7827546464040875,-1.1580682118505239,0.7471919934988022
1780506657544756000,10.510755859375,2.127026056730747,-0.08636661633253097,0.2946531006768346
1780506657554748000,10.520747802734375,3.071437781636417,2.0121037925213576,0.02878478045761585
1780506657564740900,10.530740966796875,2.0249962995812294,4.899392336726188,-0.9173767107248306
1780506657574732800,10.54073291015625,-1.373230134922266,8.737169587662816,-1.1433791767627
1780506657584725000,10.55072509765625,-4.050427191187441,12.093525257903337,0.7721402645334601
1780506657594716700,10.560716552734375,-4.174373304329812,11.084084011465311,4.03092228025049
1780506657604710000,10.5707099609375,-7.380179808923602,3.4848131233274935,3.915639366035163
1780506657614702000,10.5807021484375,-6.324474239438771,0.8562485805451869,3.9446079786270856
1780506657624693800,10.59069384765625,-1.8368983245238661,2.275958142569661,3.901166019524634
1780506657634687000,10.60068701171875,1.378634916575253,4.037023227474093,1.4851055787816643
1780506657644679000,10.610678955078125,2.5905542533397674,6.14571750870049,-2.2787527417242526
1780506657654670800,10.6206708984375,3.713946873128414,6.41886458775103,-5.783927100557088
1780506657664663800,10.630663818359375,1.9128835398346185,5.527274060189724,-6.817421422755718
1780506657674656000,10.640656005859375,-3.5695772728994486,3.1858132256180047,-4.256539546363055
1780506657684651300,10.6506513671875,-5.122862069416046,0.908097425726056,-0.9747960495144128
1780506657694643200,10.660643310546876,-5.114194778835773,-0.038384967973828316,0.08581073601543902
1780506657704636200,10.67063623046875,-4.792795710052549,-1.08000648252666,-0.16625176169127226
1780506657714628000,10.680628173828126,-3.6195153160229325,-1.3729063097953795,-0.2232093281880021
1780506657724620000,10.6906201171875,-2.5089821778073906,-0.8510837451279163,0.12292612244486809
1780506657734613200,10.70061328125,-1.7495272073239088,0.15117314276397228,0.3541825634881854
1780506657744605200,10.710605224609376,-0.6724351509392261,1.5285323403149842,0.0608875994220376
1780506657754597000,10.72059716796875,-0.011017214707285165,2.4524539426386354,-1.1828496018856762
1780506657764589300,10.73058935546875,-0.0014252104975283144,3.2509172736912966,-1.887447485283017
1780506657774582300,10.740582275390626,0.6791581755839288,3.7758120854109523,-1.7759487657815216
1780506657784574200,10.75057421875,0.8103671193361281,2.6778853307902812,-1.5391440429612993
1780506657794566100,10.760566162109376,-0.023068740898370743,0.9445259989351034,-0.8111901261568069
1780506657804559000,10.77055908203125,-0.655489861357212,-0.3024263650268316,0.055822717247903345
1780506657814551000,10.780551025390626,-0.7276620942510664,-1.1251228045821189,0.9839633985713123
1780506657824543200,10.790543212890626,-0.9008385406389832,-1.604852778929472,1.8217802503690121
1780506657834536200,10.8005361328125,-0.8869768962860107,-1.8595482554882763,2.6963892479911444
1780506657844528000,10.810528076171876,-0.48197117740288375,-2.051187848675251,3.4200638800412415
1780506657854520300,10.820520263671876,-0.07320552146434783,-1.9998276637941599,3.769216340407729
1780506657864512300,10.83051220703125,-0.022021423802524805,-2.0571990717887876,3.5546424463570117
1780506657874505200,10.840505126953126,0.02484218031167984,-1.8235130655109881,2.7786399534374473
1780506657884497200,10.8504970703125,0.7742693855166435,-1.4003560422569512,1.750768731817603
1780506657894489300,10.8604892578125,1.4919091213166713,-0.9895213249593973,0.7544353887557983
1780506657904482000,10.87048193359375,0.9626420858621597,-0.6517214487344026,-0.13457067527025937
1780506657914474200,10.88047412109375,0.28272052469030023,-0.7881956195384263,-0.6211977156549692
1780506657924466200,10.890466064453125,-0.3607902911901474,-1.284461133623123,-0.6252957986235618
1780506657934459100,10.900459228515626,-0.16513327905535696,-1.7629887464433907,-0.2136743148624897
1780506657944451000,10.910451171875,0.44792833028659224,-1.8963707964509724,0.06964841350466013
1780506657954443300,10.920443359375,0.7153972175702452,-1.763954376605153,0.06744651954621077
1780506657964435200,10.930435302734375,1.1098116920731962,-1.8079133453190326,0.051811728040874
1780506657974428200,10.94042822265625,0.9748035021685063,-1.887949589586258,0.06712357120215892
1780506657984420400,10.95042041015625,0.3402196507178247,-1.9005220709115265,0.21982202383726834
1780506657994412300,10.960412353515625,0.013558715883642434,-1.8962953931272029,0.33402620290517804
1780506658004405200,10.9704052734375,-0.20863661295622585,-2.094188786011934,0.2399804302468896
1780506658014397200,10.980397216796876,-0.4629474741116166,-2.3697341583758593,0.17304975126832722
1780506658024389400,10.990389404296875,-0.7835765814356506,-2.7376433416604993,0.23717121804505586
1780506658034381000,11.000381103515625,-0.7034172953106462,-3.3077234490185976,0.2262593634083867
1780506658044374300,11.010374267578126,-0.32695670291036366,-3.7135529053747653,0.1967281484976411
1780506658054366200,11.0203662109375,-0.40236265702843665,-3.6082056942403313,-0.09057049776315688
1780506658064358100,11.030358154296875,-0.7122435758449137,-3.1125001521259543,-0.6424196596428752
1780506658074351400,11.040351318359376,-0.9031704907178878,-2.2383044114798305,-1.49518448972553
1780506658084343300,11.05034326171875,-0.3495765309974551,-0.8895826948702334,-2.015377991886437
1780506658094335200,11.060335205078125,0.06332827057242393,-0.0026180735439062116,-2.223822589401901
1780506658104328200,11.070328125,-0.6439575367346405,0.345538946044445,-2.107131854215264
1780506658114320400,11.0803203125,-1.2984569257497787,0.2798445308625698,-1.6744275426760316
1780506658124312000,11.09031201171875,-1.2267641469359398,-0.4138029194533825,-1.3782330577760935
1780506658134304300,11.10030419921875,-0.6620303690418601,-1.2064391517877577,-1.6806848495051263
1780506658144297200,11.110297119140625,-0.32876375233232974,-1.5204361276209353,-2.3531644241079688
1780506658154289200,11.1202890625,-0.34006635985225436,-1.5390496426761149,-2.7793349499642845
1780506658164281000,11.130281005859375,-0.16531652666777372,-1.3996096078038214,-2.7683088212981817
1780506658174274300,11.1402744140625,-0.018057926999032498,-1.3220067281633614,-2.7340999699652193
1780506658184266000,11.150265869140625,-0.0936368995964527,-1.3451444426447152,-2.9142107456609607
1780506658194258200,11.160258056640625,-0.09234598300307989,-1.3764268851369619,-3.0255443377286193
1780506658204250000,11.17025,-0.4683949258625507,-1.270219842302799,-2.8889456637620925
1780506658214243000,11.1802431640625,-0.9295204452440142,-1.0570055461674928,-2.671208337244391
1780506658224235300,11.1902353515625,-0.937697029697895,-0.4990601132392883,-2.337199962256849
1780506658234227200,11.200227294921875,-0.943251156693697,0.4813409166753292,-2.171509926101565
1780506658244220200,11.21022021484375,-0.8483344464197754,1.3963865541040896,-2.2749948504954576
1780506658254212000,11.220212158203125,0.01970861681550741,2.3163608801066875,-2.275641331705451
1780506658264204300,11.230204345703125,1.565713485457003,3.43966757517755,-1.92170222158432
1780506658274196200,11.2401962890625,2.522897598174214,4.2557261841535565,-1.579040876802802
1780506658284189200,11.250189208984375,2.535424779053032,4.84877274107933,-1.304605219246447
1780506658294181000,11.26018115234375,2.4405711971431967,5.3563627822548145,-1.2529600799441336
1780506658304173300,11.27017333984375,2.1988839629784227,5.6217649462670085,-0.9118038790285586
1780506658314166300,11.280166259765625,2.135715266881883,5.380427548453212,0.29968583414703603
1780506658324158200,11.290158203125,2.349331421816349,5.373296381399035,1.8989055756255984
1780506658334150400,11.300150390625,1.8801397926181553,5.5445291463732715,2.576034145078063
1780506658344143000,11.31014306640625,1.2442504115268587,5.229873998892307,2.0144985787034035
1780506658354135300,11.32013525390625,0.9421087086603045,5.256818119919299,2.469217738173902
1780506658364127200,11.330127197265625,0.433598922291398,4.271693568614125,1.4501122990727424
1780506658374119200,11.340119140625,0.5454033467411995,2.879080687829852,0.36714579769670963
1780506658384112000,11.350112060546875,0.7113479421794414,2.362521742779016,-0.04027911115735769
1780506658394104300,11.360104248046875,0.27667028474062677,1.5536539220899344,-0.9991352487400174
1780506658404096000,11.370095947265625,-0.17506956665813922,1.029942182675004,-1.0298466133460402
1780506658414089200,11.380089111328125,0.31669132948368783,0.8420061201810837,-0.5966559795945883
1780506658424081400,11.390081298828125,0.6814163297742605,1.5493822361201046,0.4698410330176353
1780506658434073000,11.400072998046875,0.5744266121298074,2.116592925521731,0.9015490269958972
1780506658444065000,11.41006494140625,0.0531342088162899,2.476367902189493,0.8204930842921138
1780506658454058200,11.420058349609375,-0.05953618481308221,2.35397369466424,1.4817878325358032
1780506658464050200,11.43005029296875,-0.10750205108076333,1.7542776167213916,2.115498408283293
1780506658474042000,11.4400419921875,-0.6661866119384765,1.1011252584010363,2.6838880783364174
1780506658484035300,11.450035400390625,-0.9411959777295589,0.19232640640735624,2.78588013382405
1780506658494027300,11.46002734375,-0.9789040693551302,-0.6881050137579441,2.757541343568265
1780506658504019200,11.470019287109375,-1.1637877585411072,-1.3241706281989811,2.6351415830850597
1780506658514011100,11.48001123046875,-1.1904989475950598,-1.636024162262678,2.532789754374325
1780506658524004000,11.490004150390625,-1.114560786296427,-1.9340099144935607,2.327685991719365
1780506658533996000,11.49999609375,-1.089334867364168,-2.1465514259338376,2.0601962077781555
1780506658543988200,11.50998828125,-1.1560820064693689,-2.1938146968901155,1.846632075291872
1780506658553981200,11.519981201171875,-1.3590098863899707,-2.15495801975131,1.6710682953760028
1780506658563973000,11.52997314453125,-1.5413549970090388,-2.1215362271428106,1.5301564343854783
1780506658573965300,11.53996533203125,-1.731827884504199,-2.2717454933106898,1.2558961333960295
1780506658583957200,11.549957275390625,-1.9140859013617038,-2.484178868201375,1.1627151608735322
1780506658593950200,11.5599501953125,-1.9629098457634448,-2.631509948584437,1.3133385608002544
1780506658603942100,11.569942138671875,-1.8818045109599828,-2.693205064997077,1.5750892165675758
1780506658613934300,11.579934326171875,-1.7095938408643006,-2.682788300400972,1.85428229778409
1780506658623927000,11.589927001953125,-1.6066192040801048,-2.688993584781885,2.118761209471524
1780506658633919200,11.599919189453125,-1.5867562734857201,-2.7410376602739093,2.1491364739909766
1780506658643911200,11.6099111328125,-1.487241421766579,-2.520233347401023,2.036433347135782
1780506658653903400,11.6199033203125,-1.4366747253507375,-2.1414304296582936,1.8294298883393405
1780506658663896300,11.629896240234375,-1.3456433320775627,-1.5697165836185216,1.1530799020439386
1780506658673888300,11.63988818359375,-1.0254507164746522,-0.7604752534419298,0.5500657855942845
1780506658683880200,11.649880126953125,-0.6458212847799062,-0.44901276452243327,-0.43633448473513126
1780506658693869600,11.65986962890625,-0.05105974062979221,-0.23183248736560344,-1.2169810040682554
1780506658703861500,11.669861572265624,0.781795689368248,-0.02581248664855957,-1.8398776325955986
1780506658713853700,11.679853759765624,1.4961013123095035,0.09896364757716655,-2.4095514972403644
1780506658723845400,11.689845458984376,1.9829361502259968,0.019061843344569205,-2.7536063422068953
1780506658733838600,11.699838623046874,2.022090349006653,-0.17280746694505214,-2.9065459101215003
1780506658743830500,11.70983056640625,1.9249051092788576,-0.25414368789494035,-2.4763915753260255
1780506658753822500,11.719822509765624,2.286827619369328,-0.03536357432603836,-1.662749964363873
1780506658763814400,11.729814453125,2.240955802771449,0.029902970832586286,-0.9237813170701265
1780506658773807600,11.7398076171875,1.9764085020229218,-0.1538251185774803,-0.3513464632794261
1780506658783799300,11.74979931640625,1.8465397208333014,-0.37941198955178257,0.2774865695595741
1780506658793791500,11.75979150390625,1.8121338856235145,-0.35018647958934307,0.9140367526471614
1780506658803784700,11.76978466796875,1.884144644345343,-0.5126560923933983,1.5385954691678285
1780506658813776400,11.7797763671875,1.6626839133903384,-1.1368114888101815,1.7201687186315655
1780506658823768600,11.7897685546875,1.4244050263643264,-2.061336902245879,1.4144351287528871
1780506658833760500,11.799760498046876,1.3050292898774147,-3.038217941340804,0.7850339406371116
1780506658843753500,11.80975341796875,1.4640493467494844,-3.8465065008372066,0.2629857505202293
1780506658853745400,11.819745361328126,1.2689020377025007,-4.239016456893086,-0.34521921257078647
1780506658863737600,11.829737548828126,0.9871423208683728,-4.3139802202016115,-0.8272691542983055
1780506658873730300,11.839730224609376,1.0871262514039874,-4.154275395935773,-0.8539107852473855
1780506658883722500,11.849722412109376,1.2369991252243517,-3.6799405586302276,-0.4286532825827598
1780506658893714400,11.85971435546875,1.1315440698012709,-3.0777415579557417,0.05685819777548313
1780506658903706600,11.86970654296875,1.1572282538950442,-2.579126265874505,0.2905015339553356
1780506658913699300,11.87969921875,1.3391644914522767,-1.8435954840749502,0.35175153694897887
1780506658923691500,11.88969140625,1.3131237490057945,-0.8812339687198399,-0.3821703483492136
1780506658933683500,11.899683349609376,1.6285446201622484,0.03615852409601211,-1.525797070132196
1780506658943676400,11.909676513671876,0.8702142697945237,1.4108335971295833,-2.3450258335769174
1780506658953668600,11.919668701171876,-0.545342556464672,3.4398873554080724,-1.8236521817207336
1780506658963660500,11.92966064453125,-3.027230683380365,5.400829700490832,-0.35564065334200856
1780506658973652500,11.939652587890626,-5.422123832932114,7.545629314321279,1.487122471562028
1780506658983645400,11.9496455078125,-5.578280609327554,8.619782979166507,2.895224305640161
1780506658993637600,11.9596376953125,-4.134878329287469,7.0672080844849345,3.777295309706032
1780506659003629600,11.969629638671876,0.5422691403687,3.6350223894953726,4.291052933600545
1780506659013621500,11.97962158203125,3.019711393791437,0.7690472669541836,4.614899980057776
1780506659023614500,11.989614501953126,0.031336218506097795,-0.22279870156049728,3.896665200974047
1780506659033606700,11.999606689453126,-1.3219912383332848,-1.0479863734096289,2.403393559132516
1780506659043598300,12.009598388671876,0.09827435013875364,-0.0727887573570013,1.1997630350247024
1780506659053591600,12.019591552734376,1.0832593468427658,3.616781799405813,-0.33129064046144485
1780506659063583500,12.02958349609375,0.8707681042850017,7.295681324550509,-1.5742062962532042
1780506659073575400,12.039575439453126,1.0532277811944484,8.333418106624483,-3.5609731106832623
1780506659083567600,12.049567626953126,0.4131023699685931,7.800631664872169,-5.153797305905819
1780506659093560600,12.059560546875,-1.5472574990510939,5.123167774364352,-4.510423706538975
1780506659103552500,12.069552490234376,-3.8345582888901233,2.3449077601552006,-2.525347037152946
1780506659113544400,12.07954443359375,-4.886345808148384,0.6328238560408354,-0.7609189055562019
1780506659123536600,12.08953662109375,-4.568333166933059,-1.0119126049876213,-0.09620295069217681
1780506659133529300,12.099529296875,-3.1765926850691435,-2.1155203278541563,0.019273732529580593
1780506659143521500,12.109521484375,-1.5474480531871317,-2.465496964085102,0.04297755646109581
1780506659153513500,12.119513427734375,-0.8105120807647704,-1.6092086360514164,-0.20191811835616827
1780506659163506400,12.12950634765625,-0.4997817055121064,-0.2518190443396568,-0.6965259283617139
1780506659173498400,12.139498291015625,0.536979071136564,0.9344494260787963,-0.8364537467509507
1780506659183490600,12.149490478515625,0.47232861204966897,2.3422002547621728,-1.0447463685750962
1780506659193482500,12.159482421875,0.4836553310975432,2.7132804692983625,-1.2035425535634159
1780506659203475500,12.169475341796876,0.7167549157895148,2.165523837429285,-0.9762371882334351
1780506659213467600,12.179467529296875,0.6138800861179828,1.2082125912010668,-0.6027697862997651
1780506659223459600,12.18945947265625,-0.11077508140206337,0.07842179480791091,-0.29723581064641474
1780506659233452500,12.19945263671875,-0.6062415540635585,-0.5088181216657162,0.07731412582695484
1780506659243444500,12.209444580078125,-0.9135175510786473,-0.8832248502761125,0.5704761209383606
1780506659253436700,12.219436767578125,-1.0940449447512626,-1.3455465937048197,0.8206061892777681
1780506659263428400,12.229428466796875,-0.5237573321223259,-1.8176228384286164,1.0480565160363913
1780506659273421600,12.239421630859376,0.039428339546918864,-2.0795289770185947,0.9420368124678731
1780506659283413500,12.24941357421875,0.3907132818974554,-2.2125468698889015,0.6666866704151034
1780506659293405400,12.259405517578125,1.1635014889456332,-2.0944284399867055,0.37272710496038197
1780506659303397400,12.2693974609375,1.4521931970000266,-1.8786095143109558,0.06941694283634424
1780506659313390600,12.279390625,1.421459036040306,-1.5664152039855719,-0.4560808032125234
1780506659323382500,12.289382568359375,1.5900727045573293,-1.3480536080896854,-0.882809839734435
1780506659333374500,12.29937451171875,1.6523510276854037,-1.2421610380321741,-1.1350468172252177
1780506659343367700,12.30936767578125,1.6424480578303335,-1.2745289376735687,-1.1383695319071412
1780506659353359400,12.319359375,1.329216659542173,-1.4378911154031753,-0.9380696624025702
1780506659363351600,12.3293515625,0.8737045961283146,-1.5773293967097997,-0.4687006308108568
1780506659373343500,12.339343505859375,0.3259538825433701,-1.7140104882627725,0.06020663142055273
1780506659383336400,12.34933642578125,0.1522386531036347,-1.9482348392009734,0.18370412401258945
1780506659393328400,12.359328369140625,0.40126843205094337,-2.2569132503598928,0.25020313357561824
1780506659403320600,12.369320556640625,0.4610566919289529,-2.4369459923833605,0.35521249105781316
1780506659413312500,12.3793125,0.6349437708042561,-2.6993752780646085,0.46005730562806124
1780506659423305500,12.389305419921875,0.742484108068794,-3.2016625366568565,0.6265645033851266
1780506659433297400,12.39929736328125,0.18569208295941353,-3.7406940102785824,1.0863310093730687
1780506659443289600,12.40928955078125,-0.7075051491461694,-3.985381303042173,1.7160235816508531
1780506659453282600,12.419282470703125,-1.3659540064394473,-3.8748528898775576,2.0115327146351336
1780506659463274500,12.4292744140625,-1.287933047517389,-3.188696087577939,1.8267419644296168
1780506659473266700,12.4392666015625,-1.140035419292748,-2.3182886332988737,0.9570549333795905
1780506659483258400,12.44925830078125,-1.0129074612438678,-1.2088088035285471,-0.23745588020533323
1780506659493251600,12.45925146484375,-0.9335197440132498,-0.18561258798241614,-1.3986886935666203
1780506659503243500,12.469243408203125,-0.5540460874021053,0.5502502022504806,-2.480640757203102
1780506659513235500,12.4792353515625,-0.39100978062599895,0.9765379247456788,-3.1910873666286466
1780506659523227400,12.489227294921875,-0.5503929717220366,1.0360837541699408,-3.2616222075790167
1780506659533220600,12.499220703125,-0.6968507764019072,0.41419162651002406,-2.444642392104864
1780506659543212300,12.50921240234375,-0.3307397285804152,-0.482450923743844,-1.3731333965495227
1780506659553204500,12.51920458984375,0.35425650550723076,-1.1468512367874384,-0.6236445242851972
1780506659563196400,12.529196533203125,0.09922332142665982,-1.666496457415819,-0.6552338407695293
1780506659573189400,12.539189453125,-0.06470306605696678,-2.16103880096972,-1.012843456096947
1780506659583181600,12.549181640625,-0.21406492161527274,-2.568860892447829,-1.4879063154160976
1780506659593173500,12.559173583984375,-0.6709563105583191,-2.757552741745114,-2.029581581544876
1780506659603166500,12.56916650390625,-0.9840998844325541,-2.5246856506347655,-2.2734634031444787
1780506659613158400,12.579158447265625,-0.5143219797790051,-2.13625215023756,-2.323142503070831
1780506659623150600,12.589150634765625,-0.26065949952974915,-1.663355821302533,-2.4250495106235146
1780506659633142500,12.599142578125,-0.3483953583888709,-1.1646177796244621,-2.6181545001879334
