time,seconds_elapsed,z,y,x
1780506647092791800,0.058791748046875,0.27421823143959045,-0.333016961812973,0.006286824122071266
1780506647102784800,0.06878466796875,0.3655775785446167,-0.31592994928359985,0.032613709568977356
1780506647112776700,0.078776611328125,0.4448705315589905,-0.3292982280254364,0.06771310418844223
1780506647122769000,0.088768798828125,0.4826999604701996,-0.3544772267341614,0.09385646134614944
1780506647132760800,0.0987607421875,0.4544600546360016,-0.289613276720047,0.09352915734052658
1780506647142753800,0.10875390625,0.38556498289108276,-0.21235288679599762,0.0978604406118393
1780506647152745700,0.118745849609375,0.30023491382598877,-0.2041492760181427,0.11117944121360779
1780506647162738000,0.128738037109375,0.2325322926044464,-0.24708862602710724,0.12789806723594666
1780506647172731000,0.13873095703125,0.19122746586799622,-0.2878251373767853,0.16289973258972168
1780506647182722800,0.148722900390625,0.1538367122411728,-0.3022688031196594,0.186849907040596
1780506647192715000,0.158715087890625,0.1539517492055893,-0.21351735293865204,0.205417200922966
1780506647202707700,0.168707763671875,0.1477295309305191,-0.08991752564907074,0.22473424673080444
1780506647212700000,0.178699951171875,0.0864611268043518,-0.0023418646305799484,0.24647177755832672
1780506647222691800,0.18869189453125,-0.0037060659378767014,0.047104381024837494,0.27979278564453125
1780506647232684800,0.198684814453125,-0.0779198482632637,0.021244822070002556,0.3366323411464691
1780506647242676700,0.2086767578125,-0.13500069081783295,-0.032041035592556,0.4207819104194641
1780506647252669000,0.2186689453125,-0.14074833691120148,-0.0620197057723999,0.5362560153007507
1780506647262660900,0.228660888671875,-0.1512555629014969,-0.1128566563129425,0.6259597539901733
1780506647272653800,0.23865380859375,-0.15594619512557983,-0.1737612783908844,0.6506054401397705
1780506647282646000,0.24864599609375,-0.21235236525535583,-0.1323356181383133,0.6107752323150635
1780506647292638000,0.258637939453125,-0.22451502084732056,-0.05617666617035866,0.5294526815414429
1780506647302631000,0.268630859375,-0.18386787176132202,0.06304194033145905,0.4307878911495209
1780506647312622800,0.278622802734375,-0.1342254877090454,0.2463528960943222,0.3106396496295929
1780506647322614800,0.28861474609375,-0.09814361482858658,0.37683025002479553,0.1737661063671112
1780506647332607700,0.298607666015625,-0.04435202479362488,0.34196412563323975,0.06388965994119644
1780506647342600000,0.308599853515625,0.07720555365085602,0.2325206995010376,-0.001929850084707141
1780506647352592000,0.318591796875,0.15965116024017334,0.1579119861125946,-0.03653762862086296
1780506647362583800,0.328583740234375,0.20971499383449554,0.20899628102779388,-0.04728053882718086
1780506647372577000,0.338576904296875,0.253182590007782,0.25447478890419006,-0.061973996460437775
1780506647382569000,0.34856884765625,0.2914455533027649,0.28544881939888,-0.09036123752593994
1780506647392560600,0.358560546875,0.308434396982193,0.27213355898857117,-0.11385457962751389
1780506647402553900,0.368553955078125,0.32248976826667786,0.25229156017303467,-0.11791548877954483
1780506647412545800,0.3785458984375,0.3370252847671509,0.27417901158332825,-0.1042872965335846
1780506647422537700,0.388537841796875,0.3307739198207855,0.31523555517196655,-0.09212782233953476
1780506647432531000,0.398531005859375,0.2974410057067871,0.37234705686569214,-0.08869527280330658
1780506647442523000,0.40852294921875,0.2605372965335846,0.42563489079475403,-0.09536807239055634
1780506647452514800,0.418514892578125,0.2579044997692108,0.4400298297405243,-0.09279731661081314
1780506647462506800,0.4285068359375,0.2226381003856659,0.3938464820384979,-0.0980367660522461
1780506647472500000,0.4385,0.16518519818782806,0.3623596429824829,-0.10290449112653732
1780506647482491600,0.44849169921875,0.10626290738582611,0.3793928921222687,-0.0895598903298378
1780506647492483800,0.45848388671875,0.059971313923597336,0.4875739812850952,-0.05086975544691086
1780506647502477000,0.46847705078125,0.024646751582622528,0.5581169128417969,-0.013695117086172104
1780506647512468700,0.47846875,0.01883440464735031,0.5822757482528687,0.019266027957201004
1780506647522461000,0.4884609375,0.0326378308236599,0.5581148266792297,0.050934188067913055
1780506647532454000,0.498453857421875,0.035085275769233704,0.6993030905723572,0.11356454342603683
1780506647542445800,0.50844580078125,0.03415277600288391,0.35899001359939575,0.062267377972602844
1780506647552437800,0.518437744140625,0.02227720618247986,-0.027424512431025505,-0.05192763730883598
1780506647562430000,0.528429931640625,0.008614761754870415,-0.24767744541168213,-0.23497982323169708
1780506647572422700,0.538422607421875,-0.0015665022656321526,-0.27405205368995667,-0.39379212260246277
1780506647582414800,0.548414794921875,-0.008597215637564659,-0.16684985160827637,-0.509713351726532
1780506647592406800,0.55840673828125,0.0208128709346056,-0.07326743751764297,-0.5861450433731079
1780506647602399700,0.568399658203125,0.08160562068223953,-0.09856507182121277,-0.6192490458488464
1780506647612392000,0.578391845703125,0.14250466227531433,-0.25791317224502563,-0.6437525153160095
1780506647622383900,0.5883837890625,0.1796787977218628,-0.42187902331352234,-0.636145830154419
1780506647632376800,0.598376953125,0.18803179264068604,-0.5804548263549805,-0.6200224757194519
1780506647642368800,0.60836865234375,0.2501557469367981,-0.8094780445098877,-0.624061107635498
1780506647652361000,0.61836083984375,0.31271713972091675,-0.9802212715148926,-0.629730224609375
1780506647662353000,0.628352783203125,0.35894349217414856,-1.0687085390090942,-0.6435540914535522
1780506647672345900,0.638345947265625,0.42508044838905334,-1.0907247066497803,-0.6404613256454468
1780506647682337300,0.648337158203125,0.5373652577400208,-1.0645955801010132,-0.6332799196243286
1780506647692329500,0.65832958984375,0.6267223358154297,-1.0052340030670166,-0.6232861280441284
1780506647702322400,0.668322509765625,0.6734070181846619,-0.9273610711097717,-0.5928632020950317
1780506647712314400,0.678314453125,0.789872407913208,-0.8160819411277771,-0.546743631362915
1780506647722306600,0.688306640625,0.9266328811645508,-0.6406041383743286,-0.55696702003479
1780506647732299300,0.69829931640625,1.0676089525222778,-0.4045732617378235,-0.6338863372802734
1780506647742291500,0.70829150390625,1.175106167793274,-0.10556957870721817,-0.7620147466659546
1780506647752283400,0.718283447265625,1.2857328653335571,0.009565262123942375,-0.8861183524131775
1780506647762276400,0.7282763671875,1.367267370223999,-0.19219475984573364,-0.9063334465026855
1780506647772268300,0.738268310546875,1.2356369495391846,-0.3770900368690491,-0.8857368230819702
1780506647782260500,0.748260498046875,0.3570946156978607,-0.1594398021697998,-0.642401397228241
1780506647792252400,0.75825244140625,-0.8887068629264832,0.5739161968231201,0.02434629015624523
1780506647802245400,0.768245361328125,-1.3466520309448242,0.5788928270339966,0.500616192817688
1780506647812237300,0.7782373046875,-1.1547755002975464,0.27938976883888245,0.6542973518371582
1780506647822229500,0.7882294921875,-0.9135648012161255,0.1703353077173233,0.6987801790237427
1780506647832222500,0.798222412109375,-0.7871482968330383,0.3870849311351776,0.8573589324951172
1780506647842214400,0.80821435546875,-0.6232064962387085,0.6550095677375793,1.1631804704666138
1780506647852206600,0.81820654296875,-0.6374687552452087,0.3485924005508423,1.4889212846755981
1780506647862198300,0.8281982421875,-0.7002703547477722,-0.5121369957923889,1.6815937757492065
1780506647872191500,0.83819140625,-0.7384920716285706,-1.5634210109710693,1.6728404760360718
1780506647882183400,0.848183349609375,-0.8006380200386047,-2.3603157997131348,1.5079494714736938
1780506647892175400,0.85817529296875,-0.9626516699790955,-2.8011488914489746,1.2390210628509521
1780506647902168300,0.868168212890625,-1.1667330265045166,-3.0015084743499756,0.9527851343154907
1780506647912160500,0.878160400390625,-1.4284902811050415,-2.917262554168701,0.6410181522369385
1780506647922152200,0.888152099609375,-1.8025214672088623,-2.774998664855957,0.2150220274925232
1780506647932145400,0.8981455078125,-2.0831332206726074,-2.3724992275238037,-0.2100837379693985
1780506647942137600,0.9081376953125,-1.6224528551101685,-1.507925271987915,-0.614008903503418
1780506647952129300,0.91812939453125,-0.339881956577301,-1.1062750816345215,-0.7801510095596313
1780506647962121500,0.92812158203125,0.23200498521327972,-0.6376522779464722,-0.793447732925415
1780506647972114400,0.938114501953125,0.07222597301006317,-0.04087354242801666,-1.0493274927139282
1780506647982106400,0.9481064453125,0.057957034558057785,0.3436982333660126,-1.0454121828079224
1780506647992098300,0.958098388671875,0.06738968193531036,0.6750521659851074,-1.0490033626556396
1780506648002091500,0.968091552734375,0.15689104795455933,0.9388920068740845,-0.7310232520103455
1780506648012083200,0.978083251953125,0.10100620985031128,1.11141836643219,-0.4542257785797119
1780506648022075400,0.988075439453125,-0.0676332488656044,1.116876244544983,-0.32826676964759827
1780506648032068600,0.998068603515625,-0.25756964087486267,0.8993673920631409,-0.34089574217796326
1780506648042060300,1.008060302734375,-0.4322398602962494,0.7606320977210999,-0.359626442193985
1780506648052052200,1.01805224609375,-0.42275768518447876,0.5125346779823303,-0.29743391275405884
1780506648062044400,1.02804443359375,-0.19997557997703552,0.13258738815784454,-0.1230592131614685
1780506648072037400,1.038037353515625,0.10451215505599976,-0.1681908220052719,0.07196246832609177
1780506648082029300,1.048029296875,0.19222508370876312,-0.054281093180179596,0.16585689783096313
1780506648092021500,1.058021484375,0.16509440541267395,0.01645752415060997,0.25754526257514954
1780506648102014200,1.06801416015625,0.08110243082046509,0.00024040378048084676,0.29769474267959595
1780506648112006400,1.07800634765625,0.015664834529161453,-0.329965204000473,0.18691951036453247
1780506648121998300,1.087998291015625,-0.024018924683332443,-0.49615272879600525,0.06962472200393677
1780506648131991300,1.0979912109375,-0.30630040168762207,-0.3225364685058594,0.06723853200674057
1780506648141983200,1.107983154296875,-0.4155793786048889,-0.5239688754081726,-0.08392085880041122
1780506648151975400,1.117975341796875,-0.2698621153831482,-0.5909668207168579,-0.17756904661655426
1780506648161968400,1.127968505859375,-0.1821650266647339,-0.5742294788360596,-0.2477397322654724
1780506648171960300,1.137960205078125,-0.033987272530794144,-0.37040576338768005,-0.3585751950740814
1780506648181952500,1.147952392578125,0.06838342547416687,-0.15875230729579926,-0.5284755229949951
1780506648191944400,1.1579443359375,-0.04972909763455391,-0.15513013303279877,-0.564118504524231
1780506648201937400,1.1679375,-0.26553964614868164,-0.3044799566268921,-0.43279656767845154
1780506648211929300,1.177929443359375,-0.378669410943985,-0.5449162125587463,-0.295917272567749
1780506648221921500,1.187921630859375,-0.38631388545036316,-0.9781002402305603,-0.24826385080814362
1780506648231914200,1.197914306640625,-0.2587684392929077,-1.337319016456604,-0.25636225938796997
1780506648241906400,1.207906494140625,0.05917142331600189,-1.2828031778335571,-0.28673189878463745
1780506648251898400,1.2178984375,0.3575674295425415,-1.0574113130569458,-0.36417287588119507
1780506648261890300,1.227890380859375,0.3231221139431,-0.703090250492096,-0.4033217132091522
1780506648271883500,1.237883544921875,-0.1515410840511322,-0.300100713968277,-0.4209741950035095
1780506648281875500,1.24787548828125,-0.34385737776756287,-0.05355212092399597,-0.45988231897354126
1780506648291867400,1.257867431640625,-0.3827645480632782,0.27796030044555664,-0.5362524390220642
1780506648301860400,1.2678603515625,-0.25207260251045227,0.32497334480285645,-0.619632363319397
1780506648311852500,1.2778525390625,-0.1291394978761673,0.014438647776842117,-0.6590543389320374
1780506648321844200,1.28784423828125,0.057021982967853546,-0.7425019145011902,-0.7434109449386597
1780506648331837400,1.29783740234375,0.27256760001182556,-1.6470943689346313,-0.8968351483345032
1780506648341829400,1.307829345703125,0.5622243881225586,-2.153507947921753,-1.0103274583816528
1780506648351821300,1.3178212890625,0.7611390948295593,-2.232164144515991,-1.0503010749816895
1780506648361813200,1.327813232421875,0.8468685746192932,-2.0421204566955566,-0.973831832408905
1780506648371806500,1.337806396484375,0.8445329666137695,-1.916653037071228,-0.8855528235435486
1780506648381798100,1.347798095703125,0.8775219917297363,-1.9929132461547852,-0.7793476581573486
1780506648391790300,1.357790283203125,0.9834337830543518,-2.1971566677093506,-0.6373383402824402
1780506648401783600,1.367783447265625,1.0801897048950195,-2.7629294395446777,-0.5543742179870605
1780506648411775200,1.377775146484375,1.2896380424499512,-3.397249937057495,-0.47723254561424255
1780506648421767400,1.387767333984375,1.4412027597427368,-3.867070198059082,-0.3949689567089081
1780506648431760400,1.397760498046875,1.5389256477355957,-4.5272345542907715,-0.2906132638454437
1780506648441752300,1.40775244140625,1.5597277879714966,-5.4874348640441895,-0.1526343673467636
1780506648451744300,1.417744140625,1.5202248096466064,-6.968989372253418,0.0002097801916534081
1780506648461736400,1.427736328125,1.3494871854782104,-8.339154243469238,0.1027928963303566
1780506648471729200,1.437729248046875,1.0873469114303589,-8.98149299621582,0.09714273363351822
1780506648481721300,1.447721435546875,0.8635121583938599,-8.907408714294434,-0.0498913936316967
1780506648491713300,1.45771337890625,0.7664838433265686,-8.621996879577637,-0.22390075027942657
1780506648501706200,1.467706298828125,0.8620179295539856,-8.6594820022583,-0.36494937539100647
1780506648511698400,1.477698486328125,1.0527287721633911,-9.015885353088379,-0.44012880325317383
1780506648521690400,1.4876904296875,1.2603508234024048,-9.559686660766602,-0.39409443736076355
1780506648531683300,1.497683349609375,1.464697241783142,-9.86850643157959,-0.2001364380121231
1780506648541675300,1.50767529296875,1.714620590209961,-9.881254196166992,0.12836411595344543
1780506648551667500,1.51766748046875,2.0918238162994385,-9.654411315917969,0.6088162064552307
1780506648561659400,1.527659423828125,2.5481204986572266,-9.129612922668457,1.3859548568725586
1780506648571652400,1.53765234375,2.967711925506592,-7.853566646575928,2.3458425998687744
1780506648581644300,1.547644287109375,3.4006638526916504,-6.198847770690918,3.311439275741577
1780506648591636500,1.557636474609375,3.8159475326538086,-4.47490119934082,3.9082589149475098
1780506648601629200,1.567629150390625,4.224254131317139,-2.7266838550567627,3.891070604324341
1780506648611621400,1.577621337890625,4.623976230621338,-0.9628667831420898,3.3255605697631836
1780506648621613300,1.58761328125,4.946560382843018,-0.4633752107620239,2.6310486793518066
1780506648631606300,1.597606201171875,5.028719425201416,-0.7260092496871948,2.0343539714813232
1780506648641598500,1.607598388671875,4.692870140075684,-0.9719120264053345,1.568073034286499
1780506648651590400,1.61759033203125,4.087987422943115,-0.9026560187339783,1.4108192920684814
1780506648661583400,1.627583251953125,3.4902098178863525,-1.2018202543258667,1.8161152601242065
1780506648671575300,1.6375751953125,2.7897753715515137,-0.8793367147445679,2.512639045715332
1780506648681567500,1.6475673828125,2.102972984313965,-0.06550125777721405,3.1946983337402344
1780506648691559400,1.657559326171875,1.5282056331634521,0.2554943561553955,3.85166335105896
1780506648701552400,1.667552490234375,1.0319212675094604,-0.44629260897636414,4.388719081878662
1780506648711544300,1.67754443359375,1.2722086906433105,-0.30244356393814087,4.425286769866943
1780506648721536500,1.68753662109375,1.6594823598861694,0.6418258547782898,4.044326305389404
1780506648731529500,1.697529541015625,1.6404389142990112,1.308944582939148,3.246070623397827
1780506648741521400,1.707521484375,1.148742437362671,-0.2762349843978882,1.8062496185302734
1780506648751513600,1.717513671875,0.030407816171646118,-1.090814232826233,0.3551999628543854
1780506648761506300,1.72750634765625,0.1486392468214035,-0.09734255075454712,-0.2979641556739807
1780506648771498500,1.73749853515625,1.382149338722229,1.3033076524734497,-0.25422173738479614
1780506648781490400,1.747490478515625,2.26613712310791,3.3647475242614746,-0.5737462639808655
1780506648791482400,1.757482421875,2.3415584564208984,2.5001282691955566,-0.050117939710617065
1780506648801475300,1.767475341796875,1.7394112348556519,2.7883875370025635,0.6504620313644409
1780506648811467500,1.777467529296875,0.6748301982879639,2.532137870788574,1.1048802137374878
1780506648821459200,1.787459228515625,0.3259162902832031,1.3862671852111816,1.6022199392318726
1780506648831452400,1.797452392578125,0.6796286106109619,2.3349642753601074,1.443929672241211
1780506648841444600,1.807444580078125,0.8531417846679688,2.5160486698150635,1.0317413806915283
1780506648851436300,1.817436279296875,0.6065996885299683,2.0542945861816406,0.5703619718551636
1780506648861429500,1.827429443359375,0.2385953813791275,2.239938259124756,2.035012722015381
1780506648871421400,1.83742138671875,0.4025619626045227,2.026822805404663,2.936061382293701
1780506648881413400,1.847413330078125,0.3643932640552521,0.8037359714508057,1.4858189821243286
1780506648891405300,1.8574052734375,0.09536045789718628,1.1207644939422607,0.5953337550163269
1780506648901398500,1.8673984375,0.4069436192512512,1.2812721729278564,0.21598504483699799
1780506648911390200,1.87739013671875,0.6314451694488525,1.2719221115112305,-0.09646527469158173
1780506648921382400,1.88738232421875,0.5126482248306274,1.3298810720443726,-0.09037867188453674
1780506648931375400,1.897375244140625,0.4163036048412323,0.7567038536071777,0.18449071049690247
1780506648941367300,1.9073671875,0.27474310994148254,0.22511619329452515,0.34253600239753723
1780506648951359200,1.917359130859375,0.08665257692337036,0.025256341323256493,0.10812775790691376
1780506648961352400,1.9273525390625,-0.10135328024625778,-0.05744919180870056,-0.29987335205078125
1780506648971344400,1.937344482421875,-0.09480137377977371,-0.014341401867568493,-0.3820880651473999
1780506648981336300,1.94733642578125,-0.10538782179355621,-0.133236825466156,-0.3448561131954193
1780506648991328500,1.95732861328125,-0.2915787100791931,-0.4934152662754059,-0.4223666191101074
1780506649001321200,1.9673212890625,-0.45537590980529785,-1.3098222017288208,-0.7497524619102478
1780506649011313400,1.9773134765625,-0.3591335415840149,-2.0482730865478516,-1.1696431636810303
1780506649021305300,1.987305419921875,-0.019974511116743088,-2.23805832862854,-1.5426379442214966
1780506649031298300,1.99729833984375,0.08393458276987076,-1.957112193107605,-2.2413382530212402
1780506649041290200,2.007290283203125,0.2026464343070984,-1.896924614906311,-2.337667465209961
1780506649051282400,2.017282470703125,0.050245970487594604,-2.271472692489624,-1.9395066499710083
1780506649061274400,2.0272744140625,-0.01670870929956436,-2.320345640182495,-1.9758979082107544
1780506649071267300,2.037267333984375,0.23633766174316406,-1.8629411458969116,-2.0309486389160156
1780506649081259500,2.047259521484375,0.4124469459056854,-1.384238839149475,-2.010434150695801
1780506649091251500,2.05725146484375,0.7332433462142944,-1.137528896331787,-1.9803519248962402
1780506649101244400,2.067244384765625,0.8370785117149353,-0.5090972781181335,-1.915649175643921
1780506649111236400,2.077236328125,0.4937123954296112,0.15118424594402313,-1.6768200397491455
1780506649121228500,2.087228515625,0.08464297652244568,0.4551974833011627,-1.0683647394180298
1780506649131221200,2.09722119140625,-0.2682751417160034,0.5184118747711182,-0.5769526362419128
1780506649141213400,2.10721337890625,-0.3017531931400299,0.6360951066017151,-0.38694697618484497
1780506649151205400,2.117205322265625,-0.04012291878461838,0.7891823649406433,-0.419668972492218
1780506649161197300,2.127197265625,0.5485683083534241,0.5770161747932434,-0.36881187558174133
1780506649171190300,2.137190185546875,1.3698341846466064,0.43835896253585815,-0.26921337842941284
1780506649181182500,2.147182373046875,1.9960365295410156,0.32998788356781006,-0.010221115313470364
1780506649191174100,2.157174072265625,2.424717903137207,0.3931055963039398,0.16698536276817322
1780506649201167400,2.16716748046875,2.342197895050049,0.6938523650169373,0.33630117774009705
1780506649211159600,2.17715966796875,1.921201467514038,0.6545430421829224,0.5596522092819214
1780506649221151200,2.187151123046875,1.15533447265625,0.3066004812717438,0.5933603048324585
1780506649231144400,2.19714453125,0.06590429693460464,-0.150437131524086,0.7557830214500427
1780506649241136400,2.207136474609375,-0.6008533239364624,-0.26673609018325806,0.44828537106513977
1780506649251128300,2.21712841796875,-0.8710102438926697,-0.30362755060195923,0.1967620849609375
1780506649261120300,2.227120361328125,-0.2535085678100586,-0.0491403304040432,-0.04786336049437523
1780506649271113500,2.237113525390625,0.25603270530700684,-0.1580851823091507,-0.2932201027870178
1780506649281105200,2.247105224609375,0.510280966758728,-0.6497243046760559,-0.4093051552772522
1780506649291097300,2.257097412109375,0.8292152881622314,-1.244078516960144,-0.533657431602478
1780506649301090600,2.267090576171875,1.1693826913833618,-1.5986993312835693,-0.7238876223564148
1780506649311082200,2.277082275390625,1.541157603263855,-1.6580933332443237,-0.9131547212600708
1780506649321074400,2.287074462890625,1.7268922328948975,-2.0734353065490723,-1.209653377532959
1780506649331067400,2.2970673828125,1.8934460878372192,-1.8076592683792114,-1.117256760597229
1780506649341059300,2.307059326171875,1.6441704034805298,-1.816587209701538,-1.1691352128982544
1780506649351051300,2.31705126953125,1.459060549736023,-2.502652168273926,-1.656463384628296
1780506649361043500,2.32704345703125,0.5135196447372437,-2.129163980484009,-1.3831478357315063
1780506649371036400,2.337036376953125,0.13833029568195343,-2.570246696472168,-0.9148120880126953
1780506649381028400,2.3470283203125,-0.10477732121944427,-2.809999465942383,-0.986423671245575
1780506649391020300,2.357020263671875,-0.24509687721729279,-2.2637784481048584,-1.0350512266159058
1780506649401013200,2.36701318359375,-0.48036956787109375,-1.8004542589187622,-1.067644715309143
1780506649411005200,2.377005126953125,-0.6941851377487183,-1.384677767753601,-0.7100647687911987
1780506649420997400,2.386997314453125,-0.42691469192504883,-1.2307463884353638,-0.1797892451286316
1780506649430990300,2.396990234375,0.18783099949359894,-0.9496828317642212,0.22748452425003052
1780506649440982300,2.406982177734375,0.7200675010681152,0.3312215209007263,0.6506376266479492
1780506649450974500,2.416974365234375,0.6873476505279541,0.45482441782951355,0.927558958530426
1780506649460966400,2.42696630859375,0.45332005620002747,0.04818869009613991,0.7554389834403992
1780506649470959400,2.43695947265625,0.4017743170261383,-0.22929592430591583,0.49880778789520264
1780506649480951300,2.446951416015625,0.6897878646850586,-0.3423915207386017,0.42716631293296814
1780506649490943500,2.456943603515625,0.8667557239532471,-0.15890903770923615,0.346446692943573
1780506649500936200,2.466936279296875,0.8645356297492981,-0.0987875759601593,0.19149142503738403
1780506649510928400,2.476928466796875,0.5646258592605591,-0.3340693414211273,-0.03425808623433113
1780506649520920300,2.48692041015625,0.3723791241645813,-0.5328518152236938,-0.15197454392910004
1780506649530913300,2.496913330078125,0.22465865314006805,-0.06392719596624374,-0.18434739112854004
1780506649540905500,2.506905517578125,-0.09557687491178513,0.992312490940094,-0.2951306998729706
1780506649550897400,2.5168974609375,-0.42865416407585144,1.794107437133789,-0.2709060609340668
1780506649560889600,2.5268896484375,-0.6279218792915344,2.0650196075439453,-0.27246570587158203
1780506649570882300,2.53688232421875,-0.5816811323165894,1.72084641456604,-0.13985493779182434
1780506649580874500,2.54687451171875,-0.7674039602279663,2.5486249923706055,-0.18324147164821625
1780506649590866400,2.556866455078125,-0.8848631978034973,2.457881212234497,-0.037764690816402435
1780506649600859400,2.566859375,-0.7596995830535889,1.5640360116958618,0.19885361194610596
1780506649610851300,2.576851318359375,-0.3438608646392822,0.7519237399101257,0.3350026607513428
1780506649620843500,2.586843505859375,-0.012175713665783405,-0.020970143377780914,0.2906668782234192
1780506649630836500,2.59683642578125,0.09115494042634964,-0.2500368654727936,0.17282946407794952
1780506649640828400,2.606828369140625,-0.0475371778011322,-0.23382048308849335,0.14192543923854828
1780506649650820600,2.616820556640625,-0.12355577945709229,-0.27979332208633423,0.0935930609703064
1780506649660812300,2.626812255859375,-0.29971668124198914,-0.3423632085323334,-0.10245231539011002
1780506649670805500,2.636805419921875,-0.7314035892486572,-0.16431573033332825,-0.3841812014579773
1780506649680797400,2.64679736328125,-1.3348292112350464,0.8249441981315613,-0.4381425380706787
1780506649690789000,2.6567890625,-1.4499871730804443,1.5331766605377197,-0.47759541869163513
1780506649700782300,2.6667822265625,-1.0182853937149048,1.5963467359542847,-0.6735808253288269
1780506649710774500,2.6767744140625,-0.4535152018070221,1.2573251724243164,-0.64031982421875
1780506649720766200,2.68676611328125,0.09320782870054245,0.9542359709739685,-0.40738847851753235
1780506649730759400,2.696759521484375,0.504090428352356,0.869168221950531,-0.08391212671995163
1780506649740751400,2.70675146484375,1.0087919235229492,0.9357476234436035,0.35398784279823303
1780506649750743300,2.716743408203125,0.474530965089798,1.1033945083618164,0.3866608440876007
1780506649760735200,2.7267353515625,0.4484691023826599,1.0878994464874268,0.5201460719108582
1780506649770728400,2.736728515625,0.21641403436660767,0.6346266269683838,0.38804399967193604
1780506649780720000,2.74672021484375,0.31443196535110474,0.03256711736321449,0.08203572034835815
1780506649790712300,2.75671240234375,0.26364389061927795,-0.4474034905433655,-0.10278259962797165
1780506649800705500,2.76670556640625,0.24422316253185272,-0.9374925494194031,-0.1498543620109558
1780506649810697200,2.776697265625,0.4219108819961548,-1.0233304500579834,-0.40199100971221924
1780506649820689400,2.786689453125,0.7182374596595764,-1.1103914976119995,-0.25607046484947205
1780506649830682400,2.796682373046875,0.8407242298126221,-1.3647902011871338,0.0934518426656723
1780506649840674300,2.80667431640625,0.6672488451004028,-1.0487782955169678,0.3049653470516205
1780506649850666200,2.816666259765625,0.2647685110569,-0.6781224608421326,0.25997552275657654
1780506649860658400,2.826658447265625,-0.1577991098165512,-0.3902182877063751,0.1382194310426712
1780506649870651100,2.836651123046875,-0.6140244603157043,0.10348542779684067,-0.011657153256237507
1780506649880643300,2.846643310546875,-0.9066486954689026,0.06929197162389755,-0.028993813320994377
1780506649890635300,2.85663525390625,-1.0888125896453857,0.10576555877923965,-0.011264351196587086
1780506649900628200,2.866628173828125,-1.245003342628479,0.16481797397136688,-0.0287568848580122
1780506649910620400,2.876620361328125,-1.3451147079467773,0.13250397145748138,-0.08014310896396637
1780506649920612400,2.8866123046875,-1.3397746086120605,0.0586649626493454,-0.09475194662809372
1780506649930605300,2.896605224609375,-1.2350407838821411,-0.36379706859588623,0.001860346645116806
1780506649940597200,2.90659716796875,-1.1514619588851929,-0.32492029666900635,-0.025199584662914276
1780506649950589400,2.91658935546875,-1.0637677907943726,-0.2640867829322815,-0.0642164945602417
1780506649960582100,2.92658203125,-1.0377159118652344,-0.4825403094291687,-0.09329506754875183
1780506649970574300,2.93657421875,-1.0067425966262817,-0.8677068948745728,-0.2315562665462494
1780506649980566300,2.946566162109375,-0.8779946565628052,-0.9124288558959961,-0.2976027727127075
1780506649990558500,2.956558349609375,-0.7494713068008423,-0.7640982270240784,-0.30550622940063477
1780506650000551200,2.96655126953125,-0.6766104102134705,-0.698600709438324,-0.2654672861099243
1780506650010543400,2.97654345703125,-0.6102374792098999,-0.6508126258850098,-0.23443134129047394
1780506650020535300,2.986535400390625,-0.6083847880363464,-0.7254052758216858,-0.1856171190738678
1780506650030528300,2.9965283203125,-0.5604878067970276,-0.7490872144699097,-0.12957969307899475
1780506650040520400,3.0065205078125,-0.5355144143104553,-0.783646821975708,-0.09555293619632721
1780506650050512400,3.016512451171875,-0.4435405433177948,-0.7212737202644348,-0.09455451369285583
1780506650060505300,3.02650537109375,-0.3671027719974518,-0.6543585658073425,-0.08820722252130508
1780506650070497300,3.036497314453125,-0.31002748012542725,-0.593059241771698,-0.07036617398262024
1780506650080489500,3.046489501953125,-0.2763109505176544,-0.5666345357894897,-0.02792862243950367
1780506650090481400,3.0564814453125,-0.19954639673233032,-0.5165332555770874,-0.010409284383058548
1780506650100474400,3.066474365234375,-0.14199936389923096,-0.4608605206012726,0.01509729865938425
1780506650110466300,3.07646630859375,-0.0848521739244461,-0.39020630717277527,0.04124847799539566
1780506650120458200,3.086458251953125,-0.02719128504395485,-0.3112833797931671,0.07358496636152267
1780506650130451500,3.096451416015625,0.030134588479995728,-0.2455240786075592,0.11257604509592056
1780506650140443400,3.106443359375,0.08447890728712082,-0.18645218014717102,0.140084370970726
1780506650150435300,3.116435302734375,0.14750421047210693,-0.13427525758743286,0.16494977474212646
1780506650160428300,3.12642822265625,0.20879647135734558,-0.08592497557401657,0.1844540536403656
1780506650170420500,3.13642041015625,0.25393760204315186,-0.04673629254102707,0.1911841332912445
1780506650180412400,3.146412353515625,0.2915172278881073,0.014428926631808281,0.20336753129959106
1780506650190404400,3.156404296875,0.33970603346824646,0.04987453669309616,0.21608999371528625
1780506650200397300,3.166397216796875,0.3807389736175537,0.036871250718832016,0.21833032369613647
1780506650210389200,3.17638916015625,0.42634132504463196,0.006612948141992092,0.22138391435146332
1780506650220381200,3.186381103515625,0.49091020226478577,-0.04416155442595482,0.22053338587284088
1780506650230374400,3.19637451171875,0.5561240911483765,-0.08985873311758041,0.2262517362833023
1780506650240366300,3.206366455078125,0.6208686232566833,-0.13235366344451904,0.22935302555561066
1780506650250358300,3.216358154296875,0.6762418746948242,-0.17830437421798706,0.21506384015083313
1780506650260351500,3.2263515625,0.7297221422195435,-0.23735371232032776,0.18493901193141937
1780506650270343400,3.236343505859375,0.7761735320091248,-0.2708410918712616,0.20506878197193146
1780506650280335400,3.24633544921875,0.6870551109313965,-0.2580485939979553,0.2577921748161316
1780506650290328300,3.256328369140625,0.577713668346405,-0.29304254055023193,0.3176533579826355
1780506650300320500,3.266320556640625,0.5099179744720459,-0.3823400139808655,0.39671942591667175
1780506650310312200,3.276312255859375,0.3816617429256439,-0.45772290229797363,0.4296632409095764
1780506650320304400,3.286304443359375,0.28925442695617676,-0.5669985413551331,0.45677706599235535
1780506650330297300,3.29629736328125,0.2506932020187378,-0.7000884413719177,0.45638346672058105
1780506650340289300,3.306289306640625,0.22274093329906464,-0.7580296397209167,0.4134124517440796
1780506650350281200,3.31628125,0.18455439805984497,-0.8401130437850952,0.34196892380714417
1780506650360274400,3.3262744140625,0.16675329208374023,-0.961656391620636,0.2744562029838562
1780506650370266400,3.336266357421875,0.17991861701011658,-1.1440099477767944,0.24746429920196533
1780506650380258300,3.34625830078125,0.1557425856590271,-1.1544784307479858,0.2032824009656906
1780506650390251500,3.35625146484375,0.15259739756584167,-1.1952441930770874,0.19854463636875153
1780506650400243200,3.3662431640625,0.17257162928581238,-1.2296425104141235,0.21354584395885468
1780506650410235400,3.3762353515625,0.23828300833702087,-1.3283562660217285,0.25985100865364075
1780506650420227300,3.386227294921875,0.25247952342033386,-1.2812706232070923,0.20961858332157135
1780506650430220300,3.39622021484375,0.24845655262470245,-1.2106633186340332,0.17252926528453827
1780506650440212200,3.406212158203125,0.18881812691688538,-1.0413568019866943,0.1612694412469864
1780506650450204400,3.416204345703125,0.1334874927997589,-0.8632482290267944,0.25521376729011536
1780506650460197400,3.426197265625,-0.011010833084583282,-0.554638147354126,0.36115458607673645
1780506650470189300,3.436189208984375,-0.08511834591627121,-0.3680779039859772,0.47845539450645447
1780506650480181200,3.44618115234375,-0.11553924530744553,-0.2609374225139618,0.5660724639892578
1780506650490174200,3.45617431640625,-0.09301715344190598,-0.23525546491146088,0.6210899353027344
1780506650500166400,3.46616650390625,-0.0011138617992401123,-0.29244059324264526,0.6613605618476868
1780506650510158300,3.476158447265625,0.030034467577934265,-0.381631463766098,0.6720512509346008
1780506650520151300,3.4861513671875,0.09136827290058136,-0.44773077964782715,0.6724414825439453
1780506650530143200,3.496143310546875,0.06946909427642822,-0.3684364855289459,0.6995886564254761
1780506650540135400,3.506135498046875,-0.044250547885894775,-0.13506315648555756,0.679719090461731
1780506650550128000,3.516128173828125,-0.20271849632263184,0.3119731843471527,0.6390990018844604
1780506650560120300,3.526120361328125,-0.43054714798927307,0.8298464417457581,0.5963947772979736
1780506650570112300,3.5361123046875,-0.521894633769989,1.192621111869812,0.5254321694374084
1780506650580104400,3.5461044921875,-0.50762939453125,1.2883869409561157,0.46575576066970825
1780506650590097400,3.556097412109375,-0.4023285508155823,1.1929421424865723,0.4337373673915863
1780506650600089300,3.56608935546875,-0.26110920310020447,1.100192904472351,0.3579424023628235
1780506650610081500,3.57608154296875,-0.06244299188256264,0.7967893481254578,0.22990426421165466
1780506650620074200,3.58607421875,0.03269283473491669,0.3397477865219116,0.1421205699443817
1780506650630066400,3.59606640625,0.001149292103946209,0.2316971868276596,-0.002271234057843685
1780506650640058400,3.606058349609375,-0.0480952188372612,0.2702993154525757,-0.0452963225543499
1780506650650051300,3.61605126953125,-0.08064144104719162,0.22755397856235504,0.04723281413316727
1780506650660043300,3.626043212890625,-0.04867496341466904,0.0929492935538292,0.0998072475194931
1780506650670035500,3.636035400390625,0.011974801309406757,-0.026684697717428207,0.031873203814029694
1780506650680028000,3.64602783203125,0.057422418147325516,0.0003948655794374645,-0.1014767736196518
1780506650690019800,3.656019775390625,0.04829390347003937,0.05349377170205116,-0.15172502398490906
1780506650700012000,3.666011962890625,-0.0038246898911893368,0.07175386697053909,-0.033408623188734055
1780506650710004000,3.67600390625,-0.032533567398786545,0.1283433735370636,0.13178591430187225
1780506650719997000,3.685996826171875,-0.03395302966237068,0.24780479073524475,0.3151179552078247
1780506650729989000,3.695989013671875,-0.03429338335990906,0.42156511545181274,0.48565053939819336
1780506650739981000,3.70598095703125,-0.03556624799966812,0.5196567177772522,0.6159577965736389
1780506650749974000,3.71597412109375,-0.10903513431549072,0.6577874422073364,0.6822409629821777
1780506650759966000,3.725966064453125,-0.16317638754844666,0.7496485114097595,0.7401599287986755
1780506650769958100,3.735958251953125,-0.139332577586174,0.7429234981536865,0.7593315243721008
1780506650779950800,3.745950927734375,-0.057400044053792953,0.6041246652603149,0.7256192564964294
1780506650789943000,3.755943115234375,0.04154544323682785,0.43589332699775696,0.6596348881721497
1780506650799935000,3.76593505859375,0.1188916489481926,0.3347484767436981,0.5774603486061096
1780506650809928000,3.775927978515625,0.16871565580368042,0.2945736050605774,0.48807641863822937
1780506650819920100,3.785920166015625,0.20118984580039978,0.28255313634872437,0.4161726236343384
1780506650829912000,3.795912109375,0.23706261813640594,0.2799421548843384,0.3738829493522644
1780506650839905000,3.805905029296875,0.2689245343208313,0.2673065960407257,0.3769069314002991
1780506650849897000,3.81589697265625,0.2995980381965637,0.23757612705230713,0.387408047914505
1780506650859889200,3.82588916015625,0.3163185715675354,0.17255976796150208,0.37198498845100403
1780506650869880800,3.835880859375,0.3044304847717285,0.11176939308643341,0.3339387774467468
1780506650879874000,3.8458740234375,0.3090454936027527,-0.0029598574619740248,0.35367605090141296
1780506650889866000,3.855865966796875,0.26339492201805115,0.11847815662622452,0.29043740034103394
1780506650899858000,3.86585791015625,0.23854893445968628,0.13528111577033997,0.26503241062164307
1780506650909851100,3.87585107421875,0.20614519715309143,0.14874045550823212,0.2511512041091919
1780506650919843000,3.885843017578125,0.1655018925666809,0.1730167716741562,0.22956550121307373
1780506650929834800,3.895834716796875,0.1255614012479782,0.18449606001377106,0.18980130553245544
1780506650939828000,3.905827880859375,0.1156599149107933,0.12263155728578568,0.16175787150859833
1780506650949820200,3.915820068359375,0.10039173811674118,0.1351204514503479,0.11425719410181046
1780506650959811800,3.925811767578125,0.06917083263397217,0.08786006271839142,0.0665096789598465
1780506650969805000,3.93580517578125,0.07610117644071579,-0.008684051223099232,0.03001691773533821
1780506650979797000,3.945796875,0.10423441976308823,-0.11822366714477539,0.0096424650400877
1780506650989789000,3.955788818359375,0.16590498387813568,-0.22126854956150055,-0.014256742782890797
1780506650999782000,3.965781982421875,0.1570460945367813,-0.3037092983722687,-0.04464211314916611
1780506651009774000,3.975774169921875,0.16586515307426453,-0.3859809935092926,-0.0912674069404602
1780506651019765800,3.985765869140625,0.18096686899662018,-0.46744686365127563,-0.15550574660301208
1780506651029759000,3.995759033203125,0.1486145257949829,-0.5536453723907471,-0.1988508254289627
1780506651039751200,4.005751220703125,0.13350309431552887,-0.6089112162590027,-0.26777970790863037
1780506651049742800,4.015742919921875,0.11219008266925812,-0.6589922308921814,-0.3645605742931366
1780506651059736000,4.025736083984375,0.08161978423595428,-0.6955441832542419,-0.46870356798171997
1780506651069728000,4.03572802734375,0.0442844033241272,-0.7083638310432434,-0.5270445942878723
1780506651079720000,4.045719970703125,0.013714645989239216,-0.6713816523551941,-0.5361764430999756
1780506651089711900,4.0557119140625,0.01458336878567934,-0.6639934778213501,-0.4958537220954895
1780506651099705000,4.065705078125,0.0401407890021801,-0.647452175617218,-0.42274102568626404
1780506651109696800,4.07569677734375,0.08077769726514816,-0.6366730332374573,-0.34584224224090576
1780506651119689000,4.08568896484375,0.10987632721662521,-0.612472414970398,-0.28267765045166016
1780506651129682200,4.09568212890625,0.11149793118238449,-0.5077404379844666,-0.2474091500043869
1780506651139673900,4.105673828125,0.11058992147445679,-0.34671762585639954,-0.23372364044189453
1780506651149666000,4.115666015625,0.10225076973438263,-0.22126969695091248,-0.20429305732250214
1780506651159659000,4.125658935546875,0.11114691197872162,-0.12406224012374878,-0.15063214302062988
1780506651169651000,4.13565087890625,0.13775189220905304,-0.06904426217079163,-0.0888446718454361
1780506651179643000,4.145642822265625,0.1681125909090042,-0.06969041377305984,-0.03721160441637039
1780506651189636000,4.155635986328125,0.19519586861133575,-0.09028037637472153,0.020404020324349403
1780506651199627800,4.165627685546875,0.19687725603580475,-0.11318017542362213,0.02806534245610237
1780506651209620000,4.175619873046875,0.16941528022289276,-0.17975333333015442,-0.031061094254255295
1780506651219613200,4.18561328125,0.11626724153757095,-0.2396208643913269,-0.11604034900665283
1780506651229604900,4.19560498046875,0.05615836754441261,-0.24551178514957428,-0.2069111466407776
1780506651239596800,4.2055966796875,0.0028795693069696426,-0.22133766114711761,-0.27416864037513733
1780506651249590000,4.215590087890625,-0.02553529292345047,-0.23140840232372284,-0.33949652314186096
1780506651259582000,4.22558203125,-0.03107454814016819,-0.33230286836624146,-0.3654741942882538
1780506651269574000,4.235573974609375,-0.0695955753326416,-0.40025341510772705,-0.3248644471168518
1780506651279567000,4.245567138671875,-0.11033180356025696,-0.46409231424331665,-0.2621040344238281
1780506651289558800,4.255558837890625,-0.15960374474525452,-0.537356972694397,-0.21708010137081146
1780506651299551000,4.265551025390625,-0.2319922000169754,-0.6405984163284302,-0.1945415735244751
1780506651309544000,4.2755439453125,-0.35129302740097046,-0.7670460939407349,-0.14922015368938446
1780506651319535900,4.285535888671875,-0.5107121467590332,-0.8719878792762756,-0.1508471965789795
1780506651329527800,4.29552783203125,-0.6626385450363159,-0.8851590752601624,-0.3156587779521942
1780506651339520000,4.30552001953125,-0.8015011548995972,-0.8067343831062317,-0.574504017829895
1780506651349513000,4.315512939453125,-0.9307110905647278,-0.7450920343399048,-0.8620902895927429
1780506651359505000,4.3255048828125,-1.0663214921951294,-0.6558853983879089,-1.226669192314148
1780506651369497000,4.3354970703125,-1.178260326385498,-0.5103068947792053,-1.6070085763931274
1780506651379489800,4.34548974609375,-1.245144009590149,-0.3841944932937622,-1.852620005607605
1780506651389482000,4.35548193359375,-1.256479263305664,-0.3269570469856262,-1.9249993562698364
1780506651399474000,4.365473876953125,-1.2565966844558716,-0.31685805320739746,-1.8399696350097656
1780506651409467000,4.375466796875,-1.205681324005127,-0.251321941614151,-1.7017161846160889
1780506651419458800,4.385458740234375,-1.1363921165466309,-0.1911771595478058,-1.513466715812683
1780506651429451000,4.395450927734375,-1.0662531852722168,-0.11952774226665497,-1.3204269409179688
1780506651439444000,4.40544384765625,-0.9599571824073792,-0.06753099709749222,-1.1708165407180786
1780506651449436000,4.415435791015625,-0.8666083216667175,0.036773841828107834,-1.0853325128555298
1780506651459428000,4.425427978515625,-0.7765519022941589,0.0769665315747261,-1.0487068891525269
1780506651469420800,4.4354208984375,-0.652207612991333,0.034912291914224625,-1.0156450271606445
1780506651479413000,4.4454130859375,-0.6065434217453003,0.07536196708679199,-0.9750161170959473
1780506651489405000,4.455405029296875,-0.5846633911132812,0.03108132816851139,-0.9454011917114258
1780506651499398000,4.46539794921875,-0.6364309191703796,0.0997476801276207,-0.9125754833221436
1780506651509389800,4.475389892578125,-0.6825305223464966,0.11082083731889725,-0.8383292555809021
1780506651519382000,4.485382080078125,-0.6937098503112793,-0.010944616980850697,-0.7082919478416443
1780506651529375000,4.495375,-0.655550479888916,-0.10088861733675003,-0.5623781681060791
1780506651539367000,4.505366943359375,-0.578656792640686,-0.20514792203903198,-0.39502376317977905
1780506651549358800,4.51535888671875,-0.476413756608963,-0.46402475237846375,-0.2610321342945099
1780506651559351800,4.525351806640625,-0.3414566218852997,-0.6341001391410828,-0.1857885867357254
1780506651569344000,4.535343994140625,-0.1790650635957718,-0.6658594012260437,-0.1377696543931961
1780506651579336000,4.5453359375,0.004928484559059143,-0.6746369004249573,-0.1389600783586502
1780506651589329000,4.555328857421875,0.16429364681243896,-0.6694421172142029,-0.15605783462524414
1780506651599320800,4.56532080078125,0.29841455817222595,-0.6808122992515564,-0.14034979045391083
1780506651609313000,4.57531298828125,0.4062957763671875,-0.6709676384925842,-0.09843137115240097
1780506651619305700,4.5853056640625,0.4893534779548645,-0.6474529504776001,-0.0337686687707901
1780506651629298000,4.5952978515625,0.5627382397651672,-0.4865484833717346,0.06435123831033707
1780506651639289900,4.605289794921875,0.6367284059524536,-0.3422393202781677,0.16901624202728271
1780506651649282800,4.61528271484375,0.7049487233161926,-0.1975492388010025,0.2569897770881653
1780506651659275000,4.62527490234375,0.7745609879493713,-0.08497896045446396,0.31840768456459045
1780506651669267000,4.635266845703125,0.8497177958488464,0.00661167548969388,0.37072041630744934
1780506651679263200,4.64526318359375,0.9370890259742737,0.05870303139090538,0.4245264530181885
1780506651689255000,4.6552548828125,1.0196363925933838,0.0917011946439743,0.48197534680366516
1780506651699247000,4.6652470703125,1.083471417427063,0.14861196279525757,0.5661715865135193
1780506651709240300,4.675240234375,1.1088167428970337,0.2202957272529602,0.652848482131958
1780506651719232000,4.68523193359375,0.804886519908905,0.21301963925361633,0.5940755009651184
1780506651729224000,4.695223876953125,0.796221137046814,0.6679730415344238,0.7217610478401184
1780506651739217200,4.705217041015625,0.8240334987640381,0.7947625517845154,0.7687135338783264
1780506651749209000,4.715208984375,0.8963608741760254,0.8052772879600525,0.8053224086761475
1780506651759201000,4.725200927734375,0.7996547222137451,0.6922205686569214,0.7763679623603821
1780506651769193200,4.735193115234375,0.6450662016868591,0.6790773272514343,0.7611794471740723
1780506651779186000,4.74518603515625,0.46263784170150757,0.6521891355514526,0.7461498379707336
1780506651789178000,4.75517822265625,0.2710854411125183,0.6499987244606018,0.7131708264350891
1780506651799170000,4.765170166015625,0.18023213744163513,0.6519286036491394,0.6408005356788635
1780506651809163000,4.7751630859375,0.11214336007833481,0.6400610208511353,0.5924524664878845
1780506651819155000,4.785155029296875,0.06498409062623978,0.5534401535987854,0.5744740962982178
1780506651829147100,4.795147216796875,0.08489228039979935,0.3635066747665405,0.5861850380897522
1780506651839140000,4.80514013671875,0.15585246682167053,0.1579025387763977,0.5968047976493835
1780506651849132000,4.815132080078125,0.24593070149421692,-0.08017048239707947,0.5774182677268982
1780506651859124200,4.825124267578125,0.344923734664917,-0.2978822588920593,0.537240743637085
1780506651869117000,4.835116943359375,0.39328619837760925,-0.3834165930747986,0.45146965980529785
1780506651879109000,4.845109130859375,0.4446639120578766,-0.42843106389045715,0.3191990256309509
1780506651889101000,4.85510107421875,0.46866485476493835,-0.525166392326355,0.23476456105709076
1780506651899094000,4.865093994140625,0.500081479549408,-0.6888347864151001,0.1899552196264267
1780506651909086000,4.8750859375,0.506641149520874,-0.7124754190444946,0.166005939245224
1780506651919078100,4.885078125,0.4543611705303192,-0.6137109398841858,0.1904735416173935
1780506651929071000,4.895071044921875,0.2704368531703949,-0.3586616516113281,0.2926041781902313
1780506651939063000,4.90506298828125,-0.11792300641536713,-0.08032409101724625,0.3579455018043518
1780506651949055200,4.91505517578125,-0.4303551912307739,0.23688209056854248,0.3649671971797943
1780506651959048000,4.9250478515625,-0.6981688141822815,0.623136043548584,0.2589781582355499
1780506651969040100,4.9350400390625,-0.8218084573745728,1.066429853439331,0.18233957886695862
1780506651979032000,4.945031982421875,-0.5950490832328796,1.558030605316162,0.1943545639514923
1780506651989025000,4.95502490234375,-0.06633038073778152,1.7315315008163452,0.24230265617370605
1780506651999017000,4.965016845703125,0.3513273298740387,1.447609782218933,0.16073589026927948
1780506652009009200,4.975009033203125,0.44881579279899597,0.8530377745628357,-0.06431373208761215
1780506652019002000,4.985002197265625,0.37542399764060974,0.4231832027435303,-0.2661173343658447
1780506652028994000,4.994994140625,0.26875001192092896,0.39225563406944275,-0.2568947970867157
1780506652038986000,5.004986083984375,0.10963105410337448,0.48384156823158264,-0.08920566737651825
1780506652048979000,5.01497900390625,-0.0501498207449913,0.5039851665496826,0.23843690752983093
1780506652058971100,5.02497119140625,-0.1503460556268692,0.3602452576160431,0.6140166521072388
1780506652068963000,5.034963134765625,-0.15504440665245056,-0.01195735577493906,0.8888290524482727
1780506652078956000,5.0449560546875,-0.10861778259277344,-0.37906238436698914,0.9841206669807434
1780506652088948000,5.054947998046875,-0.08908029645681381,-0.5594622492790222,0.8762855529785156
1780506652098940200,5.064940185546875,-0.11639686673879623,-0.5523702502250671,0.6632577180862427
1780506652108932900,5.074932861328125,-0.18550322949886322,-0.48400214314460754,0.39449310302734375
1780506652118925000,5.084925048828125,-0.24276240170001984,-0.3961121439933777,0.15269893407821655
1780506652128917000,5.0949169921875,-0.23969390988349915,-0.24659056961536407,0.02211216278374195
1780506652138910000,5.104909912109375,-0.1957356482744217,-0.042333368211984634,0.0020059859380126
1780506652148902100,5.114902099609375,-0.1786341518163681,0.13615141808986664,0.12987074255943298
1780506652158894000,5.12489404296875,-0.1584421992301941,0.30042538046836853,0.30810126662254333
1780506652168887000,5.134886962890625,-0.12026631832122803,0.4110000729560852,0.4698326289653778
1780506652178879000,5.14487890625,-0.08339925110340118,0.43466779589653015,0.5625736713409424
1780506652188871200,5.15487109375,-0.04029012843966484,0.36577102541923523,0.5726100206375122
1780506652198864000,5.16486376953125,0.0021679913625121117,0.33632051944732666,0.5165000557899475
1780506652208856000,5.17485595703125,0.03432619571685791,0.34977030754089355,0.41132065653800964
1780506652218848000,5.184847900390625,0.044357649981975555,0.3779129087924957,0.3207608163356781
1780506652228841000,5.194841064453125,0.05950278043746948,0.34893107414245605,0.29645973443984985
1780506652238833200,5.204833251953125,0.065178781747818,0.3235045373439789,0.28747695684432983
1780506652248825000,5.2148251953125,0.04428575187921524,0.2917468547821045,0.29487335681915283
1780506652258818000,5.224818115234375,-0.038687705993652344,0.28813669085502625,0.3028411567211151
1780506652268810000,5.23481005859375,-0.2304299771785736,-0.5640413165092468,0.9535297155380249
1780506652278802200,5.24480224609375,-0.01035565510392189,-0.270580917596817,0.5752653479576111
1780506652288795000,5.254794921875,0.13694511353969574,-0.2419804483652115,0.5158579349517822
1780506652298787000,5.264787109375,0.2105809897184372,-0.4981018602848053,0.6040489673614502
1780506652308779000,5.274779052734375,0.36015984416007996,-1.0272088050842285,0.6520172357559204
1780506652318772000,5.28477197265625,0.44941380620002747,-0.8984664082527161,0.5067391991615295
1780506652328764200,5.29476416015625,0.45264872908592224,-0.6184861660003662,0.3147207796573639
1780506652338756000,5.304756103515625,0.4401722252368927,-0.4671606421470642,0.20133237540721893
1780506652348749000,5.3147490234375,0.4143558144569397,-0.3492981791496277,0.10513819009065628
1780506652358741000,5.324740966796875,0.3972720503807068,-0.2944484353065491,-0.04132490232586861
1780506652368733200,5.334733154296875,0.3091227412223816,-0.20480990409851074,-0.16961069405078888
1780506652378726000,5.344725830078125,0.21030974388122559,-0.11817160993814468,-0.2629730999469757
1780506652388718000,5.354718017578125,0.15675650537014008,-0.06861630827188492,-0.35661277174949646
1780506652398710000,5.3647099609375,0.15090219676494598,-0.0786462351679802,-0.38582953810691833
1780506652408703000,5.374702880859375,0.1438528150320053,-0.06940240412950516,-0.4540509283542633
1780506652418695000,5.38469482421875,0.12991861999034882,-0.07265878468751907,-0.5449223518371582
1780506652428687000,5.39468701171875,0.1336371898651123,-0.016223203390836716,-0.6307171583175659
1780506652438680000,5.40468017578125,0.13855352997779846,0.06262346357107162,-0.720199704170227
1780506652448672000,5.414672119140625,0.14232084155082703,0.07320952415466309,-0.6856870055198669
1780506652458664200,5.424664306640625,0.14179618656635284,-0.07201303541660309,-0.5458489060401917
1780506652468657000,5.434656982421875,0.15037450194358826,-0.1087670549750328,-0.3964439332485199
1780506652478649000,5.444649169921875,0.15042270720005035,-0.10719873011112213,-0.2784043550491333
1780506652488641000,5.45464111328125,0.1459139883518219,-0.1812489777803421,-0.22678856551647186
1780506652498634000,5.464634033203125,0.15426284074783325,-0.26043230295181274,-0.23931221663951874
1780506652508626000,5.4746259765625,0.1520838439464569,-0.25478798151016235,-0.25106924772262573
1780506652518618000,5.4846181640625,0.15106387436389923,-0.2606376111507416,-0.21881058812141418
1780506652528611000,5.494611083984375,0.14942975342273712,-0.35471537709236145,-0.20603753626346588
1780506652538603000,5.50460302734375,0.1506062000989914,-0.4359903335571289,-0.17634768784046173
1780506652548595200,5.51459521484375,0.15823428332805634,-0.4201658070087433,-0.11095669865608215
1780506652558588000,5.524587890625,0.1425703763961792,-0.29377618432044983,-0.11403502523899078
1780506652568580000,5.534580078125,0.09391336143016815,-0.17919927835464478,-0.17661957442760468
1780506652578572000,5.544572021484375,-0.011569391936063766,-0.11869359016418457,-0.22097449004650116
1780506652588565000,5.55456494140625,-0.1088661178946495,0.01826133020222187,-0.2657829821109772
1780506652598557000,5.564556884765625,-0.19874966144561768,0.1497540920972824,-0.32937631011009216
1780506652608549000,5.574549072265625,-0.29074910283088684,0.19844919443130493,-0.403171181678772
1780506652618542000,5.5845419921875,-0.35186585783958435,0.210077702999115,-0.5056901574134827
1780506652628534000,5.594533935546875,-0.4305116534233093,0.20502249896526337,-0.6530377864837646
1780506652638526200,5.604526123046875,-0.5409029126167297,0.19291989505290985,-0.8082255721092224
1780506652648519000,5.614518798828125,-0.7141761779785156,0.07042007148265839,-0.9710190296173096
1780506652658511000,5.624510986328125,-0.9048327803611755,-0.09650919586420059,-1.176058292388916
1780506652668503000,5.6345029296875,-1.076940655708313,-0.16424190998077393,-1.3376014232635498
1780506652678492700,5.64449267578125,-1.1592164039611816,-0.132838636636734,-1.4772889614105225
1780506652688484600,5.654484619140625,-1.158584475517273,0.06018834188580513,-1.5591377019882202
1780506652698476800,5.664476806640625,-1.113685965538025,0.22045284509658813,-1.5735013484954834
1780506652708469500,5.674469482421875,-1.1107021570205688,0.25075480341911316,-1.497812271118164
1780506652718461700,5.684461669921875,-1.11380934715271,0.17548063397407532,-1.3876389265060425
1780506652728453600,5.69445361328125,-1.090471863746643,0.12404835224151611,-1.2496418952941895
1780506652738446600,5.704446533203125,-1.0104635953903198,-0.030846159905195236,-1.0560383796691895
1780506652748438500,5.7144384765625,-0.9299612641334534,-0.1745322197675705,-0.8313016891479492
1780506652758430700,5.7244306640625,-0.8201362490653992,-0.3214472532272339,-0.6616594791412354
1780506652768423700,5.734423583984375,-0.683639645576477,-0.4614056944847107,-0.5614290237426758
1780506652778415600,5.74441552734375,-0.5577577948570251,-0.5272305607795715,-0.5268958806991577
1780506652788407800,5.75440771484375,-0.4614855647087097,-0.5347316265106201,-0.534785270690918
1780506652798400800,5.76440087890625,-0.40081942081451416,-0.4517256021499634,-0.5569165945053101
1780506652808392700,5.774392822265625,-0.36370640993118286,-0.38495776057243347,-0.5291725993156433
1780506652818384600,5.784384521484375,-0.3123028576374054,-0.33295273780822754,-0.4756436347961426
1780506652828377600,5.794377685546875,-0.24517707526683807,-0.31708189845085144,-0.4065234363079071
1780506652838369500,5.80436962890625,-0.16450023651123047,-0.32984888553619385,-0.35287636518478394
1780506652848361700,5.81436181640625,-0.10684944689273834,-0.36587268114089966,-0.2935355603694916
1780506652858354700,5.824354736328125,-0.055229514837265015,-0.3515619933605194,-0.24932274222373962
1780506652868346600,5.8343466796875,0.003910766914486885,-0.27604779601097107,-0.21652884781360626
1780506652878338800,5.8443388671875,0.08036213368177414,-0.22469526529312134,-0.18923157453536987
1780506652888331800,5.854331787109375,0.12597329914569855,-0.1709878295660019,-0.1628391146659851
1780506652898323700,5.86432373046875,0.1860046684741974,-0.13557642698287964,-0.16172561049461365
1780506652908315600,5.874315673828125,0.2594604790210724,-0.07695919275283813,-0.16786126792430878
1780506652918308600,5.88430859375,0.3425183594226837,-0.02660055086016655,-0.1480833888053894
1780506652928300500,5.894300537109375,0.4229421019554138,0.03858324512839317,-0.09915979206562042
1780506652938292700,5.904292724609375,0.5043131709098816,0.11844238638877869,-0.04676606506109238
1780506652948285700,5.91428564453125,0.5536103844642639,0.204450786113739,0.004068086855113506
1780506652958277600,5.924277587890625,0.5878612995147705,0.3097613453865051,0.07285182178020477
1780506652968269800,5.934269775390625,0.5955098867416382,0.4153793752193451,0.15202520787715912
1780506652978262800,5.9442626953125,0.5773776173591614,0.515630304813385,0.21776339411735535
1780506652988254700,5.954254638671875,0.5595658421516418,0.642649233341217,0.26883694529533386
1780506652998247700,5.96424755859375,0.5438432693481445,0.8059478402137756,0.31502142548561096
1780506653008239900,5.974239990234375,0.5293287634849548,0.952674388885498,0.3640204071998596
1780506653018231600,5.9842314453125,0.5508612394332886,1.0994566679000854,0.4590272903442383
1780506653028224800,5.994224853515625,0.6188322901725769,1.1623663902282715,0.5843213200569153
1780506653038216700,6.004216796875,0.7079060673713684,1.1256530284881592,0.7102615833282471
1780506653048208600,6.014208740234375,0.786011815071106,0.9663310647010803,0.7906946539878845
1780506653058200600,6.02420068359375,0.791631281375885,0.8135453462600708,0.8644060492515564
1780506653068193800,6.03419384765625,0.7495408654212952,0.7376412749290466,0.9376813769340515
1780506653078185700,6.044185791015625,0.6731806993484497,0.6939545273780823,0.9615116119384766
1780506653088178700,6.0541787109375,0.5883103013038635,0.6665972471237183,0.9027867913246155
1780506653098171000,6.0641708984375,0.5447662472724915,0.6393610835075378,0.7926035523414612
1780506653108162600,6.07416259765625,0.5289732217788696,0.5095261335372925,0.6874315738677979
1780506653118155800,6.08415576171875,0.5563411712646484,0.2891828417778015,0.6605850458145142
1780506653128147700,6.094147705078125,0.5595766305923462,0.05563826113939285,0.7073584198951721
1780506653138139600,6.1041396484375,0.5471540689468384,-0.14746850728988647,0.7653284072875977
1780506653148132900,6.1141328125,0.46601420640945435,-0.28849300742149353,0.7882406711578369
1780506653158124800,6.124124755859375,0.46612071990966797,-0.3540053069591522,0.703752338886261
1780506653168116700,6.13411669921875,0.4368414282798767,-0.32048168778419495,0.6163889169692993
1780506653178109700,6.144109619140625,0.44748353958129883,-0.204940527677536,0.5275369882583618
1780506653188102000,6.154101806640625,0.3556652069091797,-0.08372674882411957,0.4715019762516022
1780506653198093600,6.164093505859375,0.3128064274787903,-0.02724723145365715,0.3982784152030945
1780506653208086800,6.174086669921875,0.2139136642217636,0.05254347249865532,0.2977941632270813
1780506653218078700,6.18407861328125,0.14666032791137695,0.1716284453868866,0.16497178375720978
1780506653228070700,6.194070556640625,0.09901583939790726,0.22271347045898438,-0.0272517167031765
1780506653238063900,6.20406396484375,0.08303408324718475,0.26148223876953125,-0.11475560069084167
1780506653248055800,6.214055908203125,0.058186255395412445,0.2890952229499817,-0.08744487911462784
1780506653258047700,6.2240478515625,-0.00024110917001962662,0.22046808898448944,-0.07423451542854309
1780506653268040700,6.234040771484375,-0.08233384788036346,0.23559431731700897,0.017443470656871796
1780506653278033000,6.244032958984375,-0.1998940259218216,0.40515005588531494,0.36763349175453186
1780506653288024600,6.254024658203125,-0.3527882397174835,0.5593366622924805,0.4688818156719208
1780506653298017800,6.264017822265625,-0.3057083487510681,0.2547336518764496,0.10433080047369003
1780506653308009700,6.274009765625,-0.11145950108766556,-0.15493376553058624,-0.00862983986735344
1780506653318001700,6.284001708984375,0.12279027700424194,0.054430391639471054,0.1013849526643753
1780506653327995000,6.293994873046875,0.20516450703144073,0.05886349081993103,0.21462655067443848
1780506653337986800,6.30398681640625,0.107673779129982,0.14317922294139862,0.10195931047201157
1780506653347978500,6.313978515625,-0.07838504016399384,0.3596055507659912,-0.0778362825512886
1780506653357971700,6.3239716796875,-0.28609827160835266,0.45861387252807617,-0.13607878983020782
1780506653367964000,6.3339638671875,-0.4687384068965912,0.41106608510017395,-0.1302131861448288
1780506653377955600,6.34395556640625,-0.5900046825408936,0.342734694480896,-0.030197732150554657
1780506653387948800,6.35394873046875,-0.6181771755218506,0.2712991237640381,0.19404709339141846
1780506653397940700,6.363940673828125,-0.5723966360092163,0.036213625222444534,0.37780264019966125
1780506653407932700,6.3739326171875,-0.5225244164466858,-0.18778832256793976,0.5043898820877075
1780506653417925600,6.383925537109375,-0.46875903010368347,-0.23826192319393158,0.5760776996612549
1780506653427917800,6.393917724609375,-0.37652552127838135,-0.19744499027729034,0.5738264918327332
1780506653437909500,6.403909423828125,-0.24883706867694855,-0.10342554748058319,0.4948047399520874
1780506653447902700,6.41390283203125,-0.12401657551527023,0.14122627675533295,0.33502626419067383
1780506653457895000,6.42389501953125,-0.0401935838162899,0.42667797207832336,0.2810860574245453
1780506653467886600,6.433886474609375,0.021229298785328865,0.557054877281189,0.39370954036712646
1780506653477879800,6.4438798828125,0.12379907071590424,0.7807174324989319,0.5270391702651978
1780506653487871700,6.453871826171875,0.18946436047554016,0.7516967058181763,0.6497536301612854
1780506653497863700,6.46386376953125,0.19452466070652008,0.6618617177009583,0.7714509963989258
1780506653507856600,6.473856689453125,0.2120698243379593,0.5686029195785522,0.8485156893730164
1780506653517848800,6.483848876953125,0.21152359247207642,0.497455894947052,0.902188241481781
1780506653527840500,6.493840576171875,0.24481897056102753,0.42762914299964905,0.923407793045044
1780506653537833700,6.503833740234375,0.2619299292564392,0.36258628964424133,0.8898215293884277
1780506653547826000,6.513825927734375,0.2725442349910736,0.37991148233413696,0.8494698405265808
1780506653557817600,6.523817626953125,0.2952441871166229,0.32212409377098083,0.7679109573364258
1780506653567810800,6.533810791015625,0.28826484084129333,0.20183895528316498,0.6913200616836548
1780506653577802800,6.543802734375,0.28340819478034973,0.17381975054740906,0.621035635471344
1780506653587794700,6.553794677734375,0.29730188846588135,0.08225388824939728,0.5561197400093079
1780506653597787600,6.56378759765625,0.3005004823207855,0.03797518089413643,0.4627620577812195
1780506653607779800,6.57377978515625,0.3039785921573639,-0.012087187729775906,0.37191736698150635
1780506653617771500,6.583771484375,0.31254786252975464,-0.07261978089809418,0.320199191570282
1780506653627764700,6.5937646484375,0.3247475326061249,-0.0834340825676918,0.25157487392425537
1780506653637757000,6.6037568359375,0.3193525969982147,-0.18833379447460175,0.17803029716014862
1780506653647748600,6.61374853515625,0.3192678987979889,-0.2313092201948166,0.10997214168310165
1780506653657741800,6.623741943359375,0.3010830581188202,-0.23582500219345093,-0.002865332644432783
1780506653667733800,6.633733642578125,0.2590447664260864,-0.2690724730491638,-0.11945425719022751
1780506653677725700,6.6437255859375,0.19364768266677856,-0.2925753891468048,-0.19784118235111237
1780506653687720000,6.653719970703125,0.1421450823545456,-0.32323822379112244,-0.28322720527648926
1780506653697711600,6.663711669921875,0.09417581558227539,-0.3781309425830841,-0.3722025752067566
1780506653707703800,6.673703857421875,0.04270675778388977,-0.4301624596118927,-0.42073869705200195
1780506653717696800,6.68369677734375,-0.017250319942831993,-0.48272672295570374,-0.4425099492073059
1780506653727688700,6.693688720703125,-0.058730918914079666,-0.5752891898155212,-0.4993804097175598
1780506653737680600,6.7036806640625,-0.06410064548254013,-0.6897826194763184,-0.5742946863174438
1780506653747673900,6.713673828125,-0.05542858690023422,-0.7551714777946472,-0.5944100618362427
1780506653757665500,6.72366552734375,-0.03610549122095108,-0.7900190353393555,-0.5913200974464417
1780506653767657700,6.73365771484375,-0.045937612652778625,-0.6865195631980896,-0.5810298919677734
1780506653777651000,6.74365087890625,-0.08597319573163986,-0.5441561341285706,-0.5780999064445496
1780506653787642600,6.753642578125,-0.10325445234775543,-0.39665377140045166,-0.5756517052650452
1780506653797634800,6.763634765625,-0.0964488610625267,-0.28232765197753906,-0.5520186424255371
1780506653807627800,6.773627685546875,-0.08465877920389175,-0.1718115359544754,-0.49964436888694763
1780506653817619700,6.78361962890625,-0.0534161813557148,-0.10017476230859756,-0.4067747890949249
1780506653827611600,6.793611572265625,0.01571575179696083,-0.050482574850320816,-0.33865591883659363
1780506653837604900,6.80360498046875,0.09738758206367493,-0.01629737950861454,-0.2937226891517639
1780506653847596500,6.813596435546875,0.1723071038722992,-0.019681723788380623,-0.227391317486763
1780506653857588700,6.823588623046875,0.23020288348197937,-0.14714980125427246,-0.1945837438106537
1780506653867582000,6.83358203125,0.2856174111366272,-0.18751347064971924,-0.23624996840953827
1780506653877573600,6.84357373046875,0.32073742151260376,-0.17988650500774384,-0.24895919859409332
1780506653887565800,6.85356591796875,0.35651862621307373,-0.18243169784545898,-0.18952596187591553
1780506653897558800,6.863558837890625,0.3377843499183655,-0.1628156453371048,-0.12442044913768768
1780506653907550700,6.87355078125,0.2674896717071533,-0.136239156126976,-0.12780533730983734
1780506653917542700,6.883542724609375,0.15913909673690796,-0.11952509731054306,-0.18128596246242523
1780506653927535900,6.893535888671875,0.0960240513086319,-0.14570903778076172,-0.1767394095659256
1780506653937527600,6.903527587890625,0.08514836430549622,-0.3195008635520935,-0.1693735271692276
1780506653947520800,6.913520751953125,0.0867031142115593,-0.46466684341430664,-0.17847487330436707
1780506653957513000,6.923512939453125,0.07934626936912537,-0.46227166056632996,-0.1302783489227295
1780506653967504600,6.933504638671875,0.08438363671302795,-0.4110252559185028,-0.1191767007112503
1780506653977497900,6.943497802734375,0.0773363709449768,-0.36773210763931274,-0.14984998106956482
1780506653987489800,6.95348974609375,-0.039635252207517624,-0.3245220482349396,-0.1682705283164978
1780506653997481700,6.963481689453125,-0.23993933200836182,-0.2227908819913864,-0.22885668277740479
1780506654007474700,6.973474609375,-0.4509966969490051,-0.08870259672403336,-0.34271401166915894
1780506654017467000,6.983466796875,-0.6408655643463135,-0.08513922244310379,-0.4966028034687042
1780506654027458600,6.99345849609375,-0.7864371538162231,-0.2550384998321533,-0.6443182229995728
1780506654037451800,7.00345166015625,-0.8886725902557373,-0.36171215772628784,-0.7503752708435059
1780506654047444000,7.01344384765625,-0.9699429273605347,-0.4281500577926636,-0.8600500822067261
1780506654057435600,7.023435546875,-1.0866062641143799,-0.481525182723999,-1.0198311805725098
1780506654067428900,7.033428955078125,-1.1821330785751343,-0.4478990435600281,-1.252929925918579
1780506654077420800,7.0434208984375,-1.1699422597885132,-0.33910804986953735,-1.4194133281707764
1780506654087412700,7.053412841796875,-1.0709606409072876,-0.2077747881412506,-1.4873396158218384
1780506654097405700,7.06340576171875,-1.1539217233657837,-0.03612720966339111,-1.5542359352111816
1780506654107398000,7.07339794921875,-1.0651105642318726,0.22384445369243622,-1.523809790611267
1780506654117389600,7.0833896484375,-1.114686369895935,0.2957821488380432,-1.4080809354782104
1780506654127382800,7.0933828125,-1.1037348508834839,0.42781370878219604,-1.3040260076522827
1780506654137374700,7.103374755859375,-1.0649762153625488,0.3450079560279846,-1.1525038480758667
1780506654147366700,7.11336669921875,-0.95406574010849,0.16348236799240112,-0.9836317896842957
1780506654157359900,7.12335986328125,-0.8593988418579102,0.011396163143217564,-0.8286882042884827
1780506654167351800,7.133351806640625,-0.795457661151886,-0.14001785218715668,-0.7474607229232788
1780506654177343700,7.14334375,-0.6822049021720886,-0.21241921186447144,-0.7368327975273132
1780506654187336700,7.153336669921875,-0.5873715877532959,-0.23224832117557526,-0.718469500541687
1780506654197329000,7.163328857421875,-0.5279955863952637,-0.2947540283203125,-0.6647458076477051
1780506654207320600,7.173320556640625,-0.5121654868125916,-0.2843432128429413,-0.6273645758628845
1780506654217313800,7.183313720703125,-0.5434222221374512,-0.30662575364112854,-0.6496182084083557
1780506654227305700,7.1933056640625,-0.5472062826156616,-0.1688590794801712,-0.6703852415084839
1780506654237297700,7.203297607421875,-0.4987601041793823,-0.1591496765613556,-0.6255403757095337
1780506654247291000,7.213290771484375,-0.3930688202381134,-0.23123212158679962,-0.5444276928901672
1780506654257282800,7.22328271484375,-0.3060811758041382,-0.3288480043411255,-0.461986243724823
1780506654267274800,7.233274658203125,-0.25192901492118835,-0.3565126657485962,-0.41419556736946106
1780506654277267700,7.243267822265625,-0.18673747777938843,-0.3419739305973053,-0.3943890631198883
1780506654287260000,7.253260009765625,-0.10332381725311279,-0.2631683349609375,-0.3983079195022583
1780506654297251600,7.26325146484375,0.00506257638335228,-0.1774892657995224,-0.40089768171310425
1780506654307244800,7.273244873046875,0.114183209836483,-0.10429307818412781,-0.3906554579734802
1780506654317236700,7.28323681640625,0.21067114174365997,-0.07969119399785995,-0.3692762553691864
1780506654327228700,7.293228759765625,0.27294620871543884,-0.06729977577924728,-0.3445969820022583
1780506654337222000,7.303221923828125,0.3376063108444214,-0.022106127813458443,-0.30268412828445435
1780506654347213800,7.3132138671875,0.40094026923179626,-0.0036980921868234873,-0.25787991285324097
1780506654357205800,7.323205810546875,0.45072489976882935,-0.025804869830608368,-0.20302599668502808
1780506654367198700,7.33319873046875,0.520844578742981,0.14670298993587494,-0.18203656375408173
1780506654377191000,7.34319091796875,0.5986484289169312,0.2662334740161896,-0.12799441814422607
1780506654387182600,7.3531826171875,0.6462149024009705,0.28964558243751526,-0.011043563485145569
1780506654397175800,7.36317578125,0.6662466526031494,0.3988528847694397,0.08661661297082901
1780506654407167700,7.373167724609375,0.6995992660522461,0.49844950437545776,0.18432772159576416
1780506654417159700,7.38315966796875,0.7371934056282043,0.542611837387085,0.27043336629867554
1780506654427152600,7.393152587890625,0.7889689803123474,0.5886208415031433,0.33861881494522095
1780506654437144800,7.403144775390625,0.8392329216003418,0.6067067980766296,0.41359126567840576
1780506654447136800,7.41313671875,0.8912511467933655,0.5862764120101929,0.4961599111557007
1780506654457129700,7.423129638671875,0.926040530204773,0.5207282304763794,0.5942087769508362
1780506654467122000,7.433121826171875,0.9309359788894653,0.5163651704788208,0.6997802257537842
1780506654477113600,7.443113525390625,0.9120148420333862,0.5989183783531189,0.8250634670257568
1780506654487106800,7.45310693359375,0.9012519717216492,0.7058703899383545,0.9800868630409241
1780506654497098800,7.4630986328125,0.9056531190872192,0.715155303478241,1.1192432641983032
1780506654507090700,7.473090576171875,0.8840959072113037,0.6144809126853943,1.2268027067184448
1780506654517083600,7.483083740234375,0.8147876262664795,0.49559861421585083,1.281516671180725
1780506654527075800,7.493075927734375,0.6766332387924194,0.4700000286102295,1.2697745561599731
1780506654537067800,7.50306787109375,0.4937085509300232,0.5529751181602478,1.2040070295333862
1780506654547060700,7.513060791015625,0.3781089782714844,0.6295420527458191,1.0901832580566406
1780506654557053000,7.523052978515625,0.3463040590286255,0.5501449108123779,0.9309303760528564
1780506654567044600,7.533044677734375,0.29800257086753845,0.3386755883693695,0.7629634737968445
1780506654577037800,7.543037841796875,0.2729426324367523,0.03034815564751625,0.6902649402618408
1780506654587029800,7.55302978515625,0.26230621337890625,-0.23524382710456848,0.6975156664848328
1780506654597021700,7.563021728515625,0.2627130150794983,-0.4348500669002533,0.6791707277297974
1780506654607014700,7.5730146484375,0.30888131260871887,-0.5251621603965759,0.6013132333755493
1780506654617006800,7.5830068359375,0.36003080010414124,-0.5516088008880615,0.5062025785446167
1780506654626998800,7.592998779296875,0.41754335165023804,-0.546715497970581,0.4032104015350342
1780506654636991700,7.60299169921875,0.4439132809638977,-0.433085560798645,0.27389881014823914
1780506654646984000,7.61298388671875,0.416574090719223,-0.25289368629455566,0.14257566630840302
1780506654656976000,7.622975830078125,0.3809691071510315,-0.17175999283790588,0.07208545506000519
1780506654666968800,7.63296875,0.3830096125602722,-0.11672098189592361,0.04735880717635155
1780506654676960800,7.642960693359375,0.4874032437801361,-0.11662451177835464,0.07732909172773361
1780506654686952700,7.65295263671875,0.6515474319458008,-0.15019765496253967,0.15931449830532074
1780506654696945700,7.662945556640625,0.7820776104927063,-0.0107813635841012,0.3575865924358368
1780506654706937600,7.6729375,0.8105944991111755,0.1084880381822586,0.5875851511955261
1780506654716929800,7.6829296875,0.8646674752235413,0.10721656680107117,0.9235760569572449
1780506654726922500,7.692922607421875,0.6512057781219482,0.34069350361824036,1.1750855445861816
1780506654736914700,7.702914794921875,0.1199987530708313,0.29168567061424255,1.1301127672195435
1780506654746906600,7.71290673828125,-0.2257559895515442,-0.049458060413599014,0.8347863554954529
1780506654756899600,7.722899658203125,-0.2161162942647934,-0.32048162817955017,0.6395309567451477
1780506654766891500,7.7328916015625,-0.08036351203918457,-0.16511547565460205,0.6467885971069336
1780506654776883700,7.7428837890625,0.14219126105308533,0.18642191588878632,0.6627570986747742
1780506654786876700,7.752876708984375,0.11965027451515198,0.21211476624011993,0.49859774112701416
1780506654796868600,7.76286865234375,-0.027285907417535782,0.3798006772994995,0.38804465532302856
1780506654806860800,7.77286083984375,-0.2244650274515152,0.4832538366317749,0.4407467544078827
1780506654816853500,7.782853515625,-0.4108693599700928,0.47442662715911865,0.6433307528495789
1780506654826845700,7.792845703125,-0.5978032946586609,0.4248257577419281,0.8586958050727844
1780506654836837600,7.802837646484375,-0.6505352854728699,0.13748787343502045,0.8965210914611816
1780506654846830600,7.81283056640625,-0.6108192801475525,-0.3664397597312927,0.794204592704773
1780506654856822500,7.822822509765625,-0.620467483997345,-0.6290768980979919,0.5639247894287109
1780506654866814700,7.832814697265625,-0.5957219004631042,-0.5159644484519958,0.23799119889736176
1780506654876807700,7.8428076171875,-0.5399765372276306,-0.3618476390838623,0.055899180471897125
1780506654886799600,7.852799560546875,-0.5842411518096924,-0.22140797972679138,0.09472700953483582
1780506654896791800,7.862791748046875,-0.5391634702682495,-0.020936397835612297,0.22976592183113098
1780506654906784500,7.872784423828125,-0.4543553292751312,0.05777066573500633,0.4983918070793152
1780506654916776700,7.882776611328125,-0.45053809881210327,0.15366555750370026,0.7115371823310852
1780506654926768600,7.8927685546875,-0.44488662481307983,0.342843234539032,0.7452397346496582
1780506654936761600,7.90276171875,-0.34746336936950684,0.5095731019973755,0.7176260352134705
1780506654946753500,7.91275341796875,-0.1678917557001114,0.5499937534332275,0.6936338543891907
1780506654956745700,7.922745849609375,-0.060658104717731476,0.5134047269821167,0.6823082566261292
1780506654966738700,7.93273876953125,0.005977115593850613,0.49861782789230347,0.6675897836685181
1780506654976730600,7.942730712890625,0.047364622354507446,0.6119616031646729,0.6291007399559021
1780506654986722600,7.95272265625,0.10573258996009827,0.6860390305519104,0.5677244663238525
1780506654996715500,7.962715576171875,0.09841288626194,0.7188148498535156,0.4597843587398529
1780506655006707700,7.972707763671875,0.08934694528579712,0.8272401094436646,0.32350456714630127
1780506655016699600,7.98269970703125,0.10482565313577652,0.7579023838043213,0.22594457864761353
1780506655026692600,7.992692626953125,0.1312849521636963,0.7035278677940369,0.15881773829460144
1780506655036684500,8.0026845703125,0.21103663742542267,0.638174831867218,0.06796873360872269
1780506655046676700,8.0126767578125,0.30379587411880493,0.5192074775695801,0.008709137327969074
1780506655056669400,8.02266943359375,0.33798474073410034,0.37627974152565,-0.024227919057011604
1780506655066661600,8.03266162109375,0.3453148305416107,0.29050037264823914,-0.10970420390367508
1780506655076653600,8.042653564453126,0.29239580035209656,0.13528834283351898,-0.12347270548343658
1780506655086646500,8.052646484375,0.23602868616580963,0.011504623107612133,-0.08953950554132462
1780506655096638700,8.062638671875,0.19118143618106842,-0.14326703548431396,-0.08518821001052856
1780506655106630700,8.072630615234376,0.17266447842121124,-0.2869917154312134,-0.08881623297929764
1780506655116623600,8.08262353515625,0.16388125717639923,-0.44802048802375793,-0.09750572592020035
1780506655126615600,8.092615478515626,0.14369502663612366,-0.6139112114906311,-0.1860174834728241
1780506655136607700,8.102607666015626,0.10489051043987274,-0.694036602973938,-0.23636604845523834
1780506655146600400,8.112600341796876,0.0451909564435482,-0.753217339515686,-0.31168240308761597
1780506655156592600,8.122592529296876,-0.015374796465039253,-0.7705774903297424,-0.4450153112411499
1780506655166584600,8.13258447265625,-0.06985028833150864,-0.7463757395744324,-0.5184475183486938
1780506655176577500,8.14257763671875,-0.1287129521369934,-0.7338284254074097,-0.552902340888977
1780506655186569700,8.15256982421875,-0.16706539690494537,-0.7350249886512756,-0.5865476727485657
1780506655196561700,8.162561767578126,-0.14607208967208862,-0.7805415987968445,-0.6420072913169861
1780506655206554600,8.1725546875,-0.08423054963350296,-0.7607191205024719,-0.6681156158447266
1780506655216546600,8.182546630859376,-0.003767001908272505,-0.6149697303771973,-0.6462521553039551
1780506655226538800,8.192538818359376,0.09430603682994843,-0.4068559408187866,-0.5928499698638916
1780506655236531500,8.202531494140626,0.17755430936813354,-0.2462601363658905,-0.5243987441062927
1780506655246523600,8.212523681640626,0.23600883781909943,-0.14085380733013153,-0.4482123553752899
1780506655256515600,8.222515625,0.24922344088554382,-0.10139375180006027,-0.3359207212924957
1780506655266508500,8.232508544921876,0.24428194761276245,-0.11853625625371933,-0.23407825827598572
1780506655276500700,8.242500732421876,0.21474161744117737,-0.11569759249687195,-0.23147131502628326
1780506655286492700,8.25249267578125,0.17188256978988647,-0.06468047946691513,-0.2903572618961334
1780506655296485600,8.262485595703126,0.13333812355995178,0.01671690307557583,-0.352729469537735
1780506655306477600,8.2724775390625,0.1495029777288437,0.09164494276046753,-0.3882909119129181
1780506655316469800,8.2824697265625,0.17930932343006134,0.12382125854492188,-0.3947041928768158
1780506655326462500,8.29246240234375,0.16678154468536377,0.16875970363616943,-0.3700299859046936
1780506655336454700,8.30245458984375,0.18843865394592285,0.17930248379707336,-0.35048407316207886
1780506655346446600,8.312446533203126,0.2061782330274582,0.10406631976366043,-0.33152690529823303
1780506655356439600,8.322439453125,0.23492027819156647,0.13825005292892456,-0.35343456268310547
1780506655366431500,8.332431396484376,0.26854267716407776,0.15755903720855713,-0.34995037317276
1780506655376423700,8.342423583984376,0.3012194037437439,0.09488101303577423,-0.31862902641296387
1780506655386415400,8.352415283203126,0.25794702768325806,0.09177657216787338,-0.29665130376815796
1780506655396408600,8.36240869140625,0.21851746737957,0.08038802444934845,-0.3153429329395294
1780506655406400800,8.37240087890625,0.14368024468421936,0.07206031680107117,-0.3319208323955536
1780506655416392400,8.382392333984376,-0.03637010231614113,-0.013524681329727173,-0.3482891321182251
1780506655426385700,8.3923857421875,-0.30076900124549866,-0.1020689308643341,-0.4217793345451355
1780506655436377600,8.402377685546876,-0.5764293670654297,-0.11008943617343903,-0.5594403147697449
1780506655446369500,8.41236962890625,-0.8287012577056885,-0.11149612069129944,-0.6640633940696716
1780506655456362500,8.422362548828126,-0.9971432685852051,-0.1794271171092987,-0.7881945371627808
1780506655466354700,8.432354736328126,-1.0323196649551392,-0.28684306144714355,-0.8651036620140076
1780506655476346400,8.442346435546876,-1.1635921001434326,-0.5406624674797058,-1.0700339078903198
1780506655486339600,8.452339599609376,-1.260556697845459,-0.5571340918540955,-1.2823714017868042
1780506655496331800,8.462331787109376,-1.3176326751708984,-0.49392879009246826,-1.4290881156921387
1780506655506323500,8.472323486328126,-1.3775393962860107,-0.29782241582870483,-1.4356826543807983
1780506655516316700,8.482316650390626,-1.3840067386627197,-0.10981946438550949,-1.400915503501892
1780506655526308600,8.49230859375,-1.3163858652114868,0.011401775293052197,-1.4003037214279175
1780506655536300500,8.502300537109376,-1.2292735576629639,-0.03767549246549606,-1.2814621925354004
1780506655546293500,8.51229345703125,-1.1535618305206299,-0.1499495804309845,-1.0700372457504272
1780506655556285700,8.52228564453125,-1.107672929763794,-0.11083659529685974,-0.9570300579071045
1780506655566277400,8.53227734375,-1.1609572172164917,-0.2562744617462158,-0.8104198575019836
1780506655576270600,8.5422705078125,-1.1117384433746338,-0.4720052480697632,-0.7368932962417603
1780506655586262800,8.5522626953125,-1.019390344619751,-0.6946718692779541,-0.7076922655105591
1780506655596254500,8.56225439453125,-0.9414193034172058,-0.8097596168518066,-0.6938620209693909
1780506655606247700,8.57224755859375,-0.8352845907211304,-0.7298845052719116,-0.7017534971237183
1780506655616239600,8.582239501953126,-0.6953168511390686,-0.5520027875900269,-0.7115626335144043
1780506655626231600,8.5922314453125,-0.5487226247787476,-0.31402990221977234,-0.715766966342926
1780506655636224500,8.602224609375,-0.46072763204574585,-0.21334025263786316,-0.6405426859855652
1780506655646216700,8.612216796875,-0.4339333176612854,-0.11163227260112762,-0.5601293444633484
1780506655656208600,8.622208740234376,-0.31181514263153076,0.0741751417517662,-0.545353889465332
1780506655666201600,8.63220166015625,-0.2180473506450653,0.21355220675468445,-0.5019795298576355
1780506655676193500,8.642193603515626,-0.13115932047367096,0.30775687098503113,-0.46421918272972107
1780506655686188300,8.652188232421874,-0.058904293924570084,0.3549312949180603,-0.43907278776168823
1780506655696181000,8.662180908203124,0.02846642956137657,0.39566120505332947,-0.42740994691848755
1780506655706173200,8.672173095703124,0.1127522736787796,0.39363640546798706,-0.4256373643875122
1780506655716165000,8.6821650390625,0.18853969871997833,0.3426482081413269,-0.4144733250141144
1780506655726158000,8.692157958984374,0.26857462525367737,0.2139967530965805,-0.3963784873485565
1780506655736150000,8.70214990234375,0.35366424918174744,0.04569948837161064,-0.377276211977005
1780506655746142200,8.71214208984375,0.44598352909088135,-0.13863572478294373,-0.3247959613800049
1780506655756135200,8.72213525390625,0.5231805443763733,-0.2884029746055603,-0.25918659567832947
1780506655766127000,8.732127197265624,0.5912647843360901,-0.4288192093372345,-0.17299500107765198
1780506655776119300,8.742119384765624,0.6608880758285522,-0.4830455780029297,-0.08349130302667618
1780506655786112000,8.752112060546875,0.7196832299232483,-0.4364093542098999,0.025264738127589226
1780506655796104200,8.762104248046874,0.7692916989326477,-0.3255394995212555,0.15427212417125702
1780506655806096100,8.77209619140625,0.8148080110549927,-0.17279070615768433,0.270817369222641
1780506655816089000,8.782089111328125,0.8434802889823914,-0.04840170219540596,0.34198513627052307
1780506655826081000,8.7920810546875,0.8648334741592407,0.06600795686244965,0.39230531454086304
1780506655836073200,8.8020732421875,0.8769997358322144,0.1862819641828537,0.46054914593696594
1780506655846066200,8.812066162109375,0.8756535053253174,0.3233402371406555,0.5455508828163147
1780506655856058000,8.82205810546875,0.8782094717025757,0.4442807137966156,0.6360800266265869
1780506655866050300,8.83205029296875,0.8716629147529602,0.6048716902732849,0.7708777785301208
1780506655876042200,8.842042236328124,0.9072206020355225,0.6763880848884583,0.9315345883369446
1780506655886035200,8.85203515625,0.941405177116394,0.7080740928649902,1.058547019958496
1780506655896027100,8.862027099609374,0.9360970258712769,0.7037705779075623,1.1538876295089722
1780506655906019300,8.872019287109374,0.8951120376586914,0.6406142711639404,1.2112270593643188
1780506655916012000,8.882011962890624,0.8031749129295349,0.5557695627212524,1.2391046285629272
1780506655926004200,8.892004150390624,0.6757231950759888,0.43391528725624084,1.2309961318969727
1780506655935996200,8.90199609375,0.5483373403549194,0.3918878138065338,1.1723545789718628
1780506655945989000,8.911989013671874,0.4711117744445801,0.4059258699417114,1.0897467136383057
1780506655955981000,8.92198095703125,0.4551309049129486,0.35993972420692444,0.9853081107139587
1780506655965973200,8.93197314453125,0.46525439620018005,0.21618841588497162,0.8641401529312134
1780506655975966200,8.94196630859375,0.44121697545051575,0.046459030359983444,0.7423351407051086
1780506655985958100,8.951958251953124,0.34116998314857483,-0.03917491436004639,0.626928448677063
1780506655995950300,8.961950439453124,0.2510407567024231,-0.07825048267841339,0.5167468190193176
1780506656005943000,8.971943115234374,0.2176593691110611,-0.10682966560125351,0.39137423038482666
1780506656015935200,8.981935302734374,0.26937010884284973,-0.20627495646476746,0.27852606773376465
1780506656025927200,8.99192724609375,0.3549255132675171,-0.3132304251194,0.20634402334690094
1780506656035920100,9.001920166015625,0.4147956073284149,-0.4405481219291687,0.16849496960639954
1780506656045912000,9.011912109375,0.4002944231033325,-0.4859318435192108,0.09180818498134613
1780506656055904300,9.021904296875,0.303088515996933,-0.4268171191215515,-0.0021087457425892353
1780506656065897200,9.031897216796875,0.27680498361587524,-0.3600247800350189,-0.026647377759218216
1780506656075889200,9.04188916015625,0.22121110558509827,-0.28238213062286377,-0.0003187259426340461
1780506656085881300,9.05188134765625,0.22593794763088226,-0.24209406971931458,0.035664573311805725
1780506656095874000,9.0618740234375,0.17773951590061188,-0.18467751145362854,0.06024429202079773
1780506656105866200,9.0718662109375,0.0938936248421669,-0.09441234171390533,0.0880943015217781
1780506656115858200,9.081858154296874,0.03402961790561676,0.044188883155584335,0.2276768535375595
1780506656125851100,9.09185107421875,-0.045598097145557404,0.1785014122724533,0.45913004875183105
1780506656135843000,9.101843017578124,-0.1421774923801422,0.3109703063964844,0.6006977558135986
1780506656145835300,9.111835205078124,-0.37111958861351013,0.46345147490501404,0.6074448823928833
1780506656155828200,9.121828125,-0.9759771227836609,0.524154007434845,0.3576364517211914
1780506656165820200,9.131820068359374,-1.3601109981536865,0.5089513659477234,0.07859230041503906
1780506656175812400,9.141812255859374,-1.117613673210144,0.6320575475692749,-0.33933261036872864
1780506656185805000,9.15180517578125,-0.4189346730709076,1.1549078226089478,-0.5555975437164307
1780506656195797200,9.16179736328125,0.12810952961444855,1.2391748428344727,-0.4881308972835541
1780506656205789200,9.1717890625,0.27683162689208984,0.781367838382721,-0.5027838945388794
1780506656215781000,9.181781005859374,0.2127278745174408,0.4263042211532593,-0.5181844830513
1780506656225774000,9.191774169921874,0.1673334836959839,0.5118023753166199,-0.36126601696014404
1780506656235766300,9.201766357421874,0.00779415387660265,0.7115888595581055,-0.21272574365139008
1780506656245758000,9.211758056640624,-0.15833863615989685,0.5897350907325745,-0.3135785758495331
1780506656255751200,9.221751220703124,-0.25518062710762024,0.3674520254135132,-0.4738220274448395
1780506656265743000,9.2317431640625,-0.34443992376327515,0.6751384735107422,-0.4382435083389282
1780506656275735000,9.241735107421874,-0.3125291168689728,0.4331873655319214,-0.09894048422574997
1780506656285728300,9.251728271484374,-0.17308840155601501,0.6345303058624268,0.1258755922317505
1780506656295720200,9.26172021484375,-0.05120377615094185,0.6391862034797668,0.4307954013347626
1780506656305712000,9.271712158203124,0.08520067483186722,0.6931133270263672,0.6004153490066528
1780506656315705000,9.281705078125,0.19901086390018463,0.7410232424736023,0.6445028185844421
1780506656325697300,9.291697265625,0.2648833394050598,0.8183987140655518,0.6618655323982239
1780506656335689000,9.30168896484375,0.22291605174541473,0.7654858827590942,0.6943957209587097
1780506656345682200,9.31168212890625,0.18947048485279083,0.7185642123222351,0.730697512626648
1780506656355674000,9.321674072265624,0.1326850950717926,0.8520589470863342,0.7460512518882751
1780506656365666000,9.331666015625,0.12731589376926422,0.8116419911384583,0.7743801474571228
1780506656375659300,9.3416591796875,0.1356704831123352,0.66440349817276,0.8320249319076538
1780506656385651200,9.351651123046874,0.18044008314609528,0.458621084690094,0.8655219078063965
1780506656395643100,9.36164306640625,0.178838849067688,0.35491955280303955,0.8258741497993469
1780506656405636000,9.371635986328124,0.19240473210811615,0.16183236241340637,0.8142347931861877
1780506656415628300,9.381628173828124,0.18896061182022095,0.08897712081670761,0.785925030708313
1780506656425620000,9.391619873046874,0.2039550095796585,0.025884974747896194,0.7260305285453796
1780506656435613200,9.40161328125,0.22541144490242004,0.0015544011257588863,0.6519715785980225
1780506656445605000,9.411605224609374,0.24392466247081757,-0.010298263281583786,0.5971986055374146
1780506656455597000,9.42159716796875,0.26670119166374207,-0.020352957770228386,0.5513828992843628
1780506656465589000,9.431589111328124,0.31139037013053894,-0.041647326201200485,0.5423014760017395
1780506656475582200,9.441582275390624,0.3539483845233917,-0.1352325975894928,0.5523145198822021
1780506656485574000,9.451573974609374,0.37044665217399597,-0.2658343017101288,0.5452243685722351
1780506656495566000,9.461566162109374,0.3761584460735321,-0.3354509770870209,0.5085944533348083
1780506656505559300,9.471559326171874,0.3666917085647583,-0.3452306389808655,0.42653363943099976
1780506656515551000,9.481551025390624,0.3210410177707672,-0.36628007888793945,0.29042336344718933
1780506656525543200,9.491543212890624,0.25777363777160645,-0.42855435609817505,0.13377730548381805
1780506656535536000,9.5015361328125,0.1970188021659851,-0.46916961669921875,-0.001155624631792307
1780506656545528000,9.511528076171874,0.13870249688625336,-0.526465654373169,-0.12855619192123413
1780506656555520000,9.52152001953125,0.08117716014385223,-0.5974906086921692,-0.21393239498138428
1780506656565513200,9.53151318359375,0.05309119075536728,-0.6780978441238403,-0.2614647448062897
1780506656575505000,9.5415048828125,0.07385013997554779,-0.6942257285118103,-0.26810431480407715
1780506656585497000,9.5514970703125,0.11514564603567123,-0.6739529371261597,-0.27108410000801086
1780506656595490300,9.561490234375,0.11854716390371323,-0.6280748248100281,-0.3042505979537964
1780506656605482000,9.57148193359375,0.09520934522151947,-0.6175244450569153,-0.32855671644210815
1780506656615474200,9.58147412109375,0.05997851863503456,-0.7266298532485962,-0.3213419020175934
1780506656625466000,9.591466064453124,0.04042532294988632,-0.8513854146003723,-0.3412508964538574
1780506656635459000,9.601458984375,0.025936134159564972,-0.939450740814209,-0.35258129239082336
1780506656645451000,9.611450927734374,-0.009286301210522652,-1.0670393705368042,-0.33240649104118347
1780506656655443200,9.621443115234374,-0.056477636098861694,-1.1412084102630615,-0.2850540280342102
1780506656665436000,9.631435791015624,-0.09897555410861969,-1.098970651626587,-0.26488935947418213
1780506656675428000,9.641427978515624,-0.12516310811042786,-0.9801204204559326,-0.27480292320251465
1780506656685417000,9.6514169921875,-0.1506623476743698,-0.8215467929840088,-0.2964991629123688
1780506656695409700,9.66140966796875,-0.17342984676361084,-0.6739926934242249,-0.29514172673225403
1780506656705401900,9.67140185546875,-0.1691988855600357,-0.610321044921875,-0.3194395899772644
1780506656715393800,9.681393798828125,-0.13130103051662445,-0.5471521615982056,-0.2902936339378357
1780506656725386800,9.69138671875,-0.042433202266693115,-0.42677462100982666,-0.17415638267993927
1780506656735379000,9.70137890625,0.06224513426423073,-0.31063172221183777,-0.04289015755057335
1780506656745371000,9.711370849609375,0.1495446115732193,-0.17336466908454895,0.08460335433483124
1780506656755363800,9.72136376953125,0.198282852768898,-0.0337710902094841,0.14307136833667755
1780506656765355800,9.731355712890625,0.22315090894699097,0.006296698469668627,0.11216937750577927
1780506656775348000,9.741347900390625,0.229322150349617,-0.009134658612310886,0.015397761017084122
1780506656785340700,9.751340576171875,0.2112954705953598,-0.05491998791694641,-0.07928400486707687
1780506656795332900,9.761332763671875,0.18927791714668274,-0.13761746883392334,-0.15827812254428864
1780506656805324800,9.77132470703125,0.1756955236196518,-0.25460055470466614,-0.22083711624145508
1780506656815317000,9.78131689453125,0.15284734964370728,-0.3546210825443268,-0.2349829077720642
1780506656825310000,9.79131005859375,0.09303435683250427,-0.3945096433162689,-0.24288824200630188
1780506656835302000,9.801302001953125,-0.011133866384625435,-0.39785709977149963,-0.3165743350982666
1780506656845293800,9.8112939453125,-0.1499149203300476,-0.4114738404750824,-0.46344128251075745
1780506656855286800,9.821286865234375,-0.3129405975341797,-0.4329385459423065,-0.6462375521659851
1780506656865279000,9.831279052734375,-0.49645423889160156,-0.4549279808998108,-0.8714309930801392
1780506656875271000,9.84127099609375,-0.7053061127662659,-0.47748395800590515,-1.081003189086914
1780506656885264000,9.851263916015625,-0.9350631237030029,-0.5083763599395752,-1.2789347171783447
1780506656895255800,9.861255859375,-1.1399513483047485,-0.5324417352676392,-1.486166000366211
1780506656905248000,9.871248046875,-1.2770154476165771,-0.4791087508201599,-1.674479365348816
1780506656915240700,9.88124072265625,-1.3646655082702637,-0.5305119752883911,-1.773059606552124
1780506656925233000,9.89123291015625,-1.3427077531814575,-0.5180004239082336,-1.8131800889968872
1780506656935224800,9.901224853515625,-1.3093761205673218,-0.40645632147789,-1.726847529411316
1780506656945216800,9.911216796875,-1.2152906656265259,-0.12212898582220078,-1.6220028400421143
1780506656955210000,9.9212099609375,-1.1418110132217407,0.0924314484000206,-1.3873813152313232
1780506656965202000,9.931201904296875,-0.9637272953987122,0.32286331057548523,-1.1216676235198975
1780506656975193900,9.94119384765625,-0.9230405688285828,0.3187444806098938,-0.84040367603302
1780506656985186800,9.951186767578125,-0.9734854102134705,0.16694696247577667,-0.6402186751365662
1780506656995179000,9.961178955078125,-0.9841201901435852,-0.01850944757461548,-0.4917280972003937
1780506657005171000,9.9711708984375,-0.9291837215423584,-0.10557537525892258,-0.38099971413612366
1780506657015164000,9.981163818359375,-0.8793437480926514,-0.14214269816875458,-0.2789042592048645
1780506657025155800,9.99115576171875,-0.8451184034347534,-0.24718843400478363,-0.2095579355955124
1780506657035148000,10.00114794921875,-0.8300460577011108,-0.26823773980140686,-0.19116654992103577
1780506657045141000,10.01114111328125,-0.8086819052696228,-0.22994279861450195,-0.19332396984100342
1780506657055133000,10.0211328125,-0.7613986730575562,-0.1950104534626007,-0.16644765436649323
1780506657065124900,10.031124755859375,-0.6763945817947388,-0.22760461270809174,-0.08950173854827881
1780506657075117800,10.041117919921875,-0.5580673813819885,-0.2914617657661438,0.008238810114562511
1780506657085110000,10.051110107421875,-0.4295054078102112,-0.36372342705726624,0.09699477255344391
1780506657095102000,10.06110205078125,-0.2894465923309326,-0.4411770701408386,0.18500512838363647
1780506657105094000,10.071093994140625,-0.16252034902572632,-0.548667848110199,0.25837549567222595
1780506657115086800,10.0810869140625,-0.035930436104536057,-0.628646731376648,0.27710723876953125
1780506657125079000,10.0910791015625,0.10538887232542038,-0.6637727618217468,0.2543177604675293
1780506657135070700,10.10107080078125,0.2502415180206299,-0.680791437625885,0.20505055785179138
1780506657145064000,10.11106396484375,0.3866156041622162,-0.7224688529968262,0.14929568767547607
1780506657155055900,10.121055908203125,0.4963150918483734,-0.7567901611328125,0.12089495360851288
1780506657165047800,10.1310478515625,0.5714942812919617,-0.7736487984657288,0.11767492443323135
1780506657175041000,10.141041015625,0.6406253576278687,-0.7611939311027527,0.15697269141674042
1780506657185033000,10.151032958984375,0.7039239406585693,-0.6784375309944153,0.22929775714874268
1780506657195025000,10.16102490234375,0.6067658066749573,-0.686917781829834,0.21695463359355927
1780506657205017900,10.171017822265625,0.6451513171195984,-0.34550002217292786,0.275386244058609
1780506657215010000,10.181010009765625,0.8332263827323914,0.015456841327250004,0.47709453105926514
1780506657225001700,10.191001708984375,0.8923264741897583,0.21593400835990906,0.5126919150352478
1780506657234994000,10.200993896484375,0.8742842078208923,0.5040355324745178,0.5036163330078125
1780506657244987000,10.21098681640625,0.8834124207496643,0.8016757369041443,0.527198076248169
1780506657254978800,10.220978759765625,0.8875331878662109,1.022977352142334,0.5629191398620605
1780506657264970800,10.230970703125,0.908075749874115,1.189605951309204,0.6459120512008667
1780506657274964000,10.2409638671875,0.9110645651817322,1.2299644947052002,0.762231171131134
1780506657284956000,10.250955810546875,0.9029943943023682,1.3088082075119019,0.857882559299469
1780506657294947800,10.26094775390625,0.8910043239593506,1.2354001998901367,0.8861786723136902
1780506657304941000,10.270941162109375,0.8080924153327942,1.1569477319717407,0.8589060306549072
1780506657314932700,10.2809326171875,0.6907707452774048,1.0781208276748657,0.7711974382400513
1780506657324925000,10.290925048828125,0.5561370253562927,1.0384833812713623,0.6473281979560852
1780506657334918000,10.30091796875,0.4223475158214569,1.0885815620422363,0.5062355399131775
1780506657344909800,10.310909912109375,0.292626291513443,1.1656819581985474,0.3872787654399872
1780506657354901800,10.32090185546875,0.2151690274477005,1.1907997131347656,0.2783181965351105
1780506657364894000,10.33089404296875,0.18971559405326843,1.0901933908462524,0.16598182916641235
1780506657374887000,10.340886962890625,0.18206419050693512,0.8914155960083008,0.09279030561447144
1780506657384878800,10.35087890625,0.19920189678668976,0.658423125743866,0.09579648077487946
1780506657394870800,10.360870849609375,0.23165279626846313,0.5034292340278625,0.14080825448036194
1780506657404863700,10.37086376953125,0.2914849817752838,0.34045174717903137,0.18450327217578888
1780506657414856000,10.38085595703125,0.36617839336395264,0.16341640055179596,0.2096255123615265
1780506657424848000,10.390847900390625,0.42756184935569763,0.0112913241609931,0.22842849791049957
1780506657434840800,10.4008408203125,0.4336607754230499,-0.10612132400274277,0.22386756539344788
1780506657444832800,10.410832763671875,0.38915589451789856,-0.22208601236343384,0.16899313032627106
1780506657454825000,10.420824951171875,0.32634949684143066,-0.3859456479549408,0.09326816350221634
1780506657464817000,10.43081689453125,0.26726406812667847,-0.5502379536628723,0.03986699506640434
1780506657474809900,10.440809814453125,0.21209508180618286,-0.6631671190261841,0.04561465606093407
1780506657484801800,10.4508017578125,0.16535313427448273,-0.7183176875114441,0.115289606153965
1780506657494794000,10.4607939453125,0.1487930566072464,-0.7716633677482605,0.20957008004188538
1780506657504787000,10.470786865234375,0.16428519785404205,-0.8373486399650574,0.2707284986972809
1780506657514779000,10.48077880859375,0.2032102346420288,-0.8930193781852722,0.28791576623916626
1780506657524771000,10.49077099609375,0.28781887888908386,-0.8246139287948608,0.38861414790153503
1780506657534763800,10.500763671875,0.23809708654880524,-0.6549093127250671,0.5379321575164795
1780506657544756000,10.510755859375,0.06269863992929459,-0.4579411447048187,0.6178144812583923
1780506657554748000,10.520747802734375,-0.3014017939567566,-0.17107301950454712,0.548588752746582
1780506657564740900,10.530740966796875,-0.7000202536582947,0.057058680802583694,0.4849559962749481
1780506657574732800,10.54073291015625,-0.8744698762893677,0.657355546951294,0.329301655292511
1780506657584725000,10.55072509765625,-0.5028818845748901,1.1196497678756714,0.030002815648913383
1780506657594716700,10.560716552734375,-0.13701072335243225,0.8171509504318237,-0.16709470748901367
1780506657604710000,10.5707099609375,-0.11925622075796127,1.197587013244629,-0.1616639941930771
1780506657614702000,10.5807021484375,-0.09555663168430328,1.2921010255813599,0.0231615100055933
1780506657624693800,10.59069384765625,-0.1143428385257721,0.967207670211792,0.2564232647418976
1780506657634687000,10.60068701171875,-0.16911940276622772,0.8956015706062317,0.23089760541915894
1780506657644679000,10.610678955078125,-0.2617923319339752,0.696763813495636,-0.013817873783409595
1780506657654670800,10.6206708984375,-0.44205442070961,0.2784983217716217,-0.44062715768814087
1780506657664663800,10.630663818359375,-0.5080686211585999,0.11527051776647568,-0.6220131516456604
1780506657674656000,10.640656005859375,-0.37077808380126953,-0.09736651927232742,-0.3931765854358673
1780506657684651300,10.6506513671875,-0.24854591488838196,-0.3944317400455475,0.009029203094542027
1780506657694643200,10.660643310546876,-0.164334237575531,-0.5631757974624634,0.4803556501865387
1780506657704636200,10.67063623046875,-0.13941556215286255,-0.5311563611030579,0.907759428024292
1780506657714628000,10.680628173828126,-0.09993275254964828,-0.3671484589576721,1.2677197456359863
1780506657724620000,10.6906201171875,-0.03743768483400345,-0.17403492331504822,1.4868533611297607
1780506657734613200,10.70061328125,0.060755882412195206,0.032924581319093704,1.5095585584640503
1780506657744605200,10.710605224609376,0.08714140951633453,0.13872797787189484,1.3736611604690552
1780506657754597000,10.72059716796875,0.02671094611287117,0.3033005893230438,1.224238634109497
1780506657764589300,10.73058935546875,0.054723672568798065,0.5233759880065918,1.100109577178955
1780506657774582300,10.740582275390626,0.10689660906791687,0.5870776176452637,0.9044811725616455
1780506657784574200,10.75057421875,0.1636405736207962,0.48474857211112976,0.7785679697990417
1780506657794566100,10.760566162109376,0.17935122549533844,0.32928699254989624,0.71000075340271
1780506657804559000,10.77055908203125,0.17025598883628845,0.18548668920993805,0.6533190608024597
1780506657814551000,10.780551025390626,0.13143856823444366,0.09811823070049286,0.5984553694725037
1780506657824543200,10.790543212890626,0.07842008769512177,0.05631565675139427,0.5642576813697815
1780506657834536200,10.8005361328125,0.050832804292440414,0.06721591204404831,0.5262500643730164
1780506657844528000,10.810528076171876,0.06114323064684868,0.07195420563220978,0.4765666723251343
1780506657854520300,10.820520263671876,0.08578813821077347,0.09253031760454178,0.426252156496048
1780506657864512300,10.83051220703125,0.12028779834508896,0.12213348597288132,0.37956002354621887
1780506657874505200,10.840505126953126,0.1507522016763687,0.0895565077662468,0.3208991289138794
1780506657884497200,10.8504970703125,0.174287348985672,0.07072848826646805,0.1997402012348175
1780506657894489300,10.8604892578125,0.17349785566329956,0.03214414045214653,0.08459237217903137
1780506657904482000,10.87048193359375,0.14347949624061584,0.06745153665542603,-0.07784686982631683
1780506657914474200,10.88047412109375,0.12387531995773315,0.04417570307850838,-0.16346992552280426
1780506657924466200,10.890466064453125,0.12311126291751862,0.06224445253610611,-0.22998929023742676
1780506657934459100,10.900459228515626,0.14860525727272034,0.020002922043204308,-0.3351697027683258
1780506657944451000,10.910451171875,0.1767655313014984,-0.03488456457853317,-0.4179535210132599
1780506657954443300,10.920443359375,0.20050963759422302,-0.05393128842115402,-0.518256425857544
1780506657964435200,10.930435302734375,0.21186162531375885,-0.07507599145174026,-0.6384952068328857
1780506657974428200,10.94042822265625,0.20813493430614471,-0.08740342408418655,-0.7060187458992004
1780506657984420400,10.95042041015625,0.23007752001285553,-0.1018257737159729,-0.7269967198371887
1780506657994412300,10.960412353515625,0.25614866614341736,-0.0954732745885849,-0.743064284324646
1780506658004405200,10.9704052734375,0.27777087688446045,-0.06834418326616287,-0.7459056377410889
1780506658014397200,10.980397216796876,0.2886120676994324,-0.005031390581279993,-0.7572463750839233
1780506658024389400,10.990389404296875,0.25212860107421875,0.062012091279029846,-0.7500582337379456
1780506658034381000,11.000381103515625,0.16800642013549805,0.1065167710185051,-0.718536913394928
1780506658044374300,11.010374267578126,0.09581105411052704,0.10566536337137222,-0.6219358444213867
1780506658054366200,11.0203662109375,0.05779294669628143,0.0829651802778244,-0.511634111404419
1780506658064358100,11.030358154296875,0.027986319735646248,0.11245302855968475,-0.40193772315979004
1780506658074351400,11.040351318359376,-0.013300513848662376,0.2067902535200119,-0.3274284303188324
1780506658084343300,11.05034326171875,-0.03902025893330574,0.18960967659950256,-0.3169717788696289
1780506658094335200,11.060335205078125,-0.05823881924152374,0.11599422991275787,-0.33771756291389465
1780506658104328200,11.070328125,-0.028408488258719444,-0.057032402604818344,-0.31693559885025024
1780506658114320400,11.0803203125,0.04908442497253418,-0.275776743888855,-0.2626817524433136
1780506658124312000,11.09031201171875,0.10619005560874939,-0.4339280128479004,-0.22356578707695007
1780506658134304300,11.10030419921875,0.09303402155637741,-0.45057743787765503,-0.21503107249736786
1780506658144297200,11.110297119140625,0.051482051610946655,-0.3361073136329651,-0.20473289489746094
1780506658154289200,11.1202890625,0.015586377121508121,-0.22508013248443604,-0.1918322592973709
1780506658164281000,11.130281005859375,0.01353281270712614,-0.25072264671325684,-0.1627958118915558
1780506658174274300,11.1402744140625,0.025797735899686813,-0.3575305640697479,-0.09653423726558685
1780506658184266000,11.150265869140625,0.03379733860492706,-0.4605445861816406,-0.04661887139081955
1780506658194258200,11.160258056640625,0.02859155461192131,-0.5163751244544983,-0.03468146547675133
1780506658204250000,11.17025,0.00917151477187872,-0.5569207072257996,-0.07698763906955719
1780506658214243000,11.1802431640625,-0.046205759048461914,-0.6058266162872314,-0.16469541192054749
1780506658224235300,11.1902353515625,-0.11984402686357498,-0.6456893086433411,-0.22431239485740662
1780506658234227200,11.200227294921875,-0.21629083156585693,-0.6397358179092407,-0.2537643313407898
1780506658244220200,11.21022021484375,-0.37133103609085083,-0.5879351496696472,-0.3199228346347809
1780506658254212000,11.220212158203125,-0.6034688949584961,-0.58857661485672,-0.4818423092365265
1780506658264204300,11.230204345703125,-0.8398518562316895,-0.6977957487106323,-0.7005158066749573
1780506658274196200,11.2401962890625,-1.0565626621246338,-0.8782761096954346,-0.9230825304985046
1780506658284189200,11.250189208984375,-1.2244377136230469,-0.997122049331665,-1.1331063508987427
1780506658294181000,11.26018115234375,-1.342247486114502,-1.0425565242767334,-1.3508639335632324
1780506658304173300,11.27017333984375,-1.3948020935058594,-0.8274708390235901,-1.5649559497833252
1780506658314166300,11.280166259765625,-1.3679637908935547,-0.5421685576438904,-1.7214339971542358
1780506658324158200,11.290158203125,-1.2876577377319336,-0.19991159439086914,-1.7609648704528809
1780506658334150400,11.300150390625,-1.2431657314300537,0.06853576749563217,-1.6473592519760132
1780506658344143000,11.31014306640625,-1.1726516485214233,0.1882762908935547,-1.4685207605361938
1780506658354135300,11.32013525390625,-1.0654692649841309,0.30518320202827454,-1.2962400913238525
1780506658364127200,11.330127197265625,-1.0197209119796753,0.4267253577709198,-1.0928939580917358
1780506658374119200,11.340119140625,-0.9528365731239319,0.47999662160873413,-0.929286003112793
1780506658384112000,11.350112060546875,-0.7983737587928772,0.2943612337112427,-0.8334524035453796
1780506658394104300,11.360104248046875,-0.6491926908493042,0.07997684180736542,-0.7514538764953613
1780506658404096000,11.370095947265625,-0.508362889289856,-0.05582413077354431,-0.644271731376648
1780506658414089200,11.380089111328125,-0.4139902889728546,-0.1874491423368454,-0.6040554642677307
1780506658424081400,11.390081298828125,-0.3479148745536804,-0.23428934812545776,-0.6008732914924622
1780506658434073000,11.400072998046875,-0.32754531502723694,-0.2658843398094177,-0.5558883547782898
1780506658444065000,11.41006494140625,-0.30153608322143555,-0.11379948258399963,-0.4873497784137726
1780506658454058200,11.420058349609375,-0.2400743067264557,-0.01755577325820923,-0.4090811014175415
1780506658464050200,11.43005029296875,-0.19296672940254211,-0.02212628908455372,-0.3176449239253998
1780506658474042000,11.4400419921875,-0.09992065280675888,0.02867870219051838,-0.1920359581708908
1780506658484035300,11.450035400390625,-0.012983621098101139,0.02765471674501896,-0.07958317548036575
1780506658494027300,11.46002734375,0.07308188080787659,-0.06458992511034012,0.01711488701403141
1780506658504019200,11.470019287109375,0.16769438982009888,-0.18197380006313324,0.07689139991998672
1780506658514011100,11.48001123046875,0.28138676285743713,-0.25176307559013367,0.07645334303379059
1780506658524004000,11.490004150390625,0.4027336835861206,-0.30290907621383667,0.04974929243326187
1780506658533996000,11.49999609375,0.5025947690010071,-0.3571692705154419,0.03043847717344761
1780506658543988200,11.50998828125,0.5723285675048828,-0.44958627223968506,0.05318799987435341
1780506658553981200,11.519981201171875,0.6331659555435181,-0.5384178161621094,0.12614482641220093
1780506658563973000,11.52997314453125,0.6798344254493713,-0.5979421138763428,0.21540385484695435
1780506658573965300,11.53996533203125,0.6995981931686401,-0.5966490507125854,0.3130682110786438
1780506658583957200,11.549957275390625,0.716779351234436,-0.5037004351615906,0.4040535092353821
1780506658593950200,11.5599501953125,0.733668327331543,-0.3693769872188568,0.4997345805168152
1780506658603942100,11.569942138671875,0.7531805038452148,-0.23192007839679718,0.5890554189682007
1780506658613934300,11.579934326171875,0.7689983248710632,-0.12530893087387085,0.6633849740028381
1780506658623927000,11.589927001953125,0.779179036617279,-0.013634067960083485,0.7157946825027466
1780506658633919200,11.599919189453125,0.7892507314682007,0.06992028653621674,0.7827759385108948
1780506658643911200,11.6099111328125,0.8159971237182617,0.12731167674064636,0.8618038892745972
1780506658653903400,11.6199033203125,0.8283957242965698,0.2082211673259735,0.9590176939964294
1780506658663896300,11.629896240234375,0.8497039675712585,0.3178267478942871,1.0852872133255005
1780506658673888300,11.63988818359375,0.8625909090042114,0.37514498829841614,1.237178087234497
1780506658683880200,11.649880126953125,0.8231228590011597,0.42718902230262756,1.3564363718032837
1780506658693869600,11.65986962890625,0.765594482421875,0.4599241018295288,1.395411729812622
1780506658703861500,11.669861572265624,0.6826266050338745,0.44902804493904114,1.3404117822647095
1780506658713853700,11.679853759765624,0.5697218775749207,0.4172518849372864,1.2221742868423462
1780506658723845400,11.689845458984376,0.43124493956565857,0.40607884526252747,1.0798741579055786
1780506658733838600,11.699838623046874,0.28301113843917847,0.42888692021369934,0.9381862282752991
1780506658743830500,11.70983056640625,0.15618102252483368,0.46334847807884216,0.8103798031806946
1780506658753822500,11.719822509765624,0.07252233475446701,0.4090885519981384,0.6524256467819214
1780506658763814400,11.729814453125,-0.006446243729442358,0.37703606486320496,0.4937390685081482
1780506658773807600,11.7398076171875,-0.0688897892832756,0.36170193552970886,0.350280225276947
1780506658783799300,11.74979931640625,-0.1044595018029213,0.3944460451602936,0.1933598518371582
1780506658793791500,11.75979150390625,-0.09405066817998886,0.3679178059101105,0.046344123780727386
1780506658803784700,11.76978466796875,-0.05666893720626831,0.3133491277694702,-0.07480200380086899
1780506658813776400,11.7797763671875,0.017389092594385147,0.26579052209854126,-0.1512352079153061
1780506658823768600,11.7897685546875,0.08377770334482193,0.21745069324970245,-0.1696927845478058
1780506658833760500,11.799760498046876,0.1349862515926361,0.1732608526945114,-0.18573713302612305
1780506658843753500,11.80975341796875,0.18121446669101715,0.16404737532138824,-0.23689351975917816
1780506658853745400,11.819745361328126,0.19896243512630463,0.13943757116794586,-0.2836272716522217
1780506658863737600,11.829737548828126,0.16082145273685455,0.1449974626302719,-0.3332992196083069
1780506658873730300,11.839730224609376,0.09716323018074036,0.09298279136419296,-0.32728126645088196
1780506658883722500,11.849722412109376,0.04698261246085167,-0.01619483344256878,-0.22471337020397186
1780506658893714400,11.85971435546875,0.04467951878905296,-0.14990442991256714,-0.0187375508248806
1780506658903706600,11.86970654296875,0.07724598050117493,-0.277943879365921,0.2397182434797287
1780506658913699300,11.87969921875,0.07136612385511398,-0.19757680594921112,0.42686450481414795
1780506658923691500,11.88969140625,-0.04960210248827934,-0.11711631715297699,0.5862008929252625
1780506658933683500,11.899683349609376,-0.30638569593429565,0.1804041862487793,0.6682229042053223
1780506658943676400,11.909676513671876,-0.6095109581947327,0.5024418830871582,0.6535864472389221
1780506658953668600,11.919668701171876,-0.7866108417510986,0.7107536196708679,0.5392429828643799
1780506658963660500,11.92966064453125,-0.6682013869285583,1.0010584592819214,0.5499742031097412
1780506658973652500,11.939652587890626,-0.3659989535808563,1.3552830219268799,0.6200084686279297
1780506658983645400,11.9496455078125,-0.05931679159402847,1.5828464031219482,0.6479791402816772
1780506658993637600,11.9596376953125,0.11160756647586823,1.343076467514038,0.5600975155830383
1780506659003629600,11.969629638671876,0.13673608005046844,0.6436461210250854,0.17173568904399872
1780506659013621500,11.97962158203125,0.1983075588941574,0.41334474086761475,-0.1208413615822792
1780506659023614500,11.989614501953126,0.2553463280200958,0.49439457058906555,-0.06131145730614662
1780506659033606700,11.999606689453126,0.21502605080604553,0.3247053027153015,0.16561466455459595
1780506659043598300,12.009598388671876,0.13679835200309753,0.03131229430437088,0.35092273354530334
1780506659053591600,12.019591552734376,0.19848519563674927,-0.2531068027019501,0.5281877517700195
1780506659063583500,12.02958349609375,0.2871258556842804,-0.3354642391204834,0.40253928303718567
1780506659073575400,12.039575439453126,0.30859383940696716,-0.07413037866353989,-0.047530464828014374
1780506659083567600,12.049567626953126,0.2439463883638382,0.1152600571513176,-0.3715546131134033
1780506659093560600,12.059560546875,0.006492311134934425,-0.00017878177459351718,-0.3400566577911377
1780506659103552500,12.069552490234376,-0.10584168136119843,0.08819688856601715,-0.08902552723884583
1780506659113544400,12.07954443359375,-0.09981216490268707,0.2770652770996094,0.23876051604747772
1780506659123536600,12.08953662109375,-0.12133742868900299,0.4746904671192169,0.5329455137252808
1780506659133529300,12.099529296875,-0.1947258859872818,0.543723464012146,0.721322774887085
1780506659143521500,12.109521484375,-0.21026062965393066,0.47936496138572693,0.8348793983459473
1780506659153513500,12.119513427734375,-0.2149142473936081,0.6096493601799011,0.8722130656242371
1780506659163506400,12.12950634765625,-0.17568828165531158,0.6431271433830261,0.8748536109924316
1780506659173498400,12.139498291015625,-0.09442353993654251,0.6308189630508423,0.8740707635879517
1780506659183490600,12.149490478515625,-0.008441787213087082,0.6515308618545532,0.798874020576477
1780506659193482500,12.159482421875,0.07666052132844925,0.5702543258666992,0.7349390983581543
1780506659203475500,12.169475341796876,0.14970837533473969,0.5448208451271057,0.6061779260635376
1780506659213467600,12.179467529296875,0.1935466229915619,0.5022960901260376,0.492360383272171
1780506659223459600,12.18945947265625,0.20057444274425507,0.41023483872413635,0.46540334820747375
1780506659233452500,12.19945263671875,0.23589421808719635,0.230192169547081,0.5200866460800171
1780506659243444500,12.209444580078125,0.25765275955200195,0.1819910854101181,0.5496131181716919
1780506659253436700,12.219436767578125,0.28492578864097595,0.11012481898069382,0.5924568176269531
1780506659263428400,12.229428466796875,0.3309752941131592,0.003519546939060092,0.6422132253646851
1780506659273421600,12.239421630859376,0.36244961619377136,-0.0026231666561216116,0.6561866998672485
1780506659283413500,12.24941357421875,0.36791256070137024,0.0019271101336926222,0.6492552757263184
1780506659293405400,12.259405517578125,0.3557651937007904,-0.02360561303794384,0.5659633874893188
1780506659303397400,12.2693974609375,0.310362309217453,-0.009820292703807354,0.47807589173316956
1780506659313390600,12.279390625,0.26083841919898987,0.039977360516786575,0.39561328291893005
1780506659323382500,12.289382568359375,0.2036513239145279,0.02483915351331234,0.2691679894924164
1780506659333374500,12.29937451171875,0.13822142779827118,-0.027488235384225845,0.10290171205997467
1780506659343367700,12.30936767578125,0.09022514522075653,-0.08567564189434052,-0.1074129119515419
1780506659353359400,12.319359375,0.059329546988010406,-0.0958477184176445,-0.29262253642082214
1780506659363351600,12.3293515625,0.08607940375804901,-0.07435067743062973,-0.4469521939754486
1780506659373343500,12.339343505859375,0.13815805315971375,-0.09376752376556396,-0.5065934658050537
1780506659383336400,12.34933642578125,0.16250334680080414,-0.23522238433361053,-0.5222864151000977
1780506659393328400,12.359328369140625,0.16194528341293335,-0.3467664122581482,-0.5898597836494446
1780506659403320600,12.369320556640625,0.1409212201833725,-0.3497433066368103,-0.7325788736343384
1780506659413312500,12.3793125,0.09476889669895172,-0.30768054723739624,-0.9219953417778015
1780506659423305500,12.389305419921875,0.04605541378259659,-0.22100156545639038,-1.0608137845993042
1780506659433297400,12.39929736328125,0.006304948590695858,-0.13992942869663239,-1.0330790281295776
1780506659443289600,12.40928955078125,-0.013055432587862015,-0.15079911053180695,-0.8588370084762573
1780506659453282600,12.419282470703125,-0.007837501354515553,-0.2570731043815613,-0.6403898596763611
1780506659463274500,12.4292744140625,0.0298004187643528,-0.3207857608795166,-0.45938223600387573
