time,seconds_elapsed,z,y,x
1780506532994076200,0.058076171875,1.6733482230067251,0.8268954986803233,0.818983483446762
1780506533004068400,0.068068359375,1.9317314481675625,0.3984811394199729,0.6027466246198863
1780506533014060300,0.078060302734375,1.747010840588808,-0.23669395592212675,0.14701229675747454
1780506533024053200,0.08805322265625,1.740565317711234,-0.8030969822026789,-0.16167020605467258
1780506533034045200,0.098045166015625,1.011191304975748,-0.9651835870385169,-0.21796602070704102
1780506533044037400,0.108037353515625,1.140680439198017,-0.6752540077522396,-0.40562275480292737
1780506533054030300,0.1180302734375,1.1957611059069633,-0.22166166035458446,-0.4767793809134513
1780506533064022300,0.128022216796875,0.3126297791332006,-0.35452494718506933,-0.4807321736598387
1780506533074014500,0.138014404296875,-1.2259300341993569,-0.6789754394281655,-0.46268882317543025
1780506533084007200,0.148007080078125,-2.156427507781982,-0.3803964705444872,-0.6233895996760577
1780506533093999400,0.157999267578125,-2.239369994884729,0.41324521250538526,-1.107894752535969
1780506533103991300,0.1679912109375,-2.1014672525823115,0.9440823468208313,-1.3698936839759348
1780506533113984300,0.177984375,-1.2048784783422946,1.2584993016317485,-1.0874469347257167
1780506533123976200,0.18797607421875,0.5066209038823842,1.6780805122256277,-0.047273938480764624
1780506533133968400,0.197968505859375,1.53374335296154,1.4701229675747454,0.43526115641519425
1780506533143960300,0.207960205078125,1.724921758377552,0.7411863233432173,0.3972722020216286
1780506533153953300,0.217953369140625,0.5855050555050373,-0.3516808098003268,0.11157225966174154
1780506533163945500,0.227945556640625,-0.9960434202045202,-1.0718968258291481,-0.22711187031818553
1780506533173937400,0.2379375,-2.428236616227031,-1.245850978591293,-0.7972622846998274
1780506533183930400,0.247930419921875,-4.077486755287647,-0.9002145635217428,-1.3985902016282081
1780506533193922300,0.25792236328125,-2.2406109348565337,0.14821283165365456,-1.4495190093547106
1780506533203914500,0.26791455078125,-0.27828268837332726,1.119409979893267,-1.5010856765933334
1780506533213906200,0.27790625,1.6751187398105858,1.7110957698598503,-0.979114058844
1780506533223899400,0.2878994140625,3.6117736158549785,2.05937700034976,0.13466361425071954
1780506533233891300,0.297891357421875,2.588335408246517,1.155822771011293,0.6058815616447478
1780506533243883300,0.30788330078125,1.9551327820211648,0.20365619419515132,1.3257736794814468
1780506533253876500,0.31787646484375,2.315033430895209,-0.3331415290251374,1.740220157535374
1780506533263868400,0.327868408203125,2.4840917744398117,-0.4674298802226782,1.5805732009366154
1780506533273860000,0.337860107421875,1.3163695990592241,-0.18733225138187407,1.8325095880456268
1780506533283853300,0.347853271484375,-1.0107768789559601,0.13442922097295523,2.6877508912444115
1780506533293845500,0.357845458984375,-2.226621572470665,0.3528542374938726,3.275851808461547
1780506533303837200,0.367837158203125,-1.6415081466317176,1.2345008786678313,1.9968055394940076
1780506533313830400,0.377830322265625,-0.6700707598954438,2.065742735989392,0.4356692988246679
1780506533323822300,0.387822265625,-0.4797492635697126,1.4359896656960247,0.26756032842677085
1780506533333814300,0.397814208984375,-0.2892290298014879,0.13085428509563207,0.858585206799209
1780506533343806200,0.40780615234375,-0.250994283953309,-0.3937827524706721,1.2060755061071364
1780506533353799400,0.41779931640625,-0.3148872026711702,-0.12234335412085055,0.9924873351581394
1780506533363791000,0.427791015625,0.012519289833307266,0.014079963278770445,0.5438288274334744
1780506533373783300,0.437783203125,0.26974106999933717,-0.2235515657544136,0.127482644104911
1780506533383776500,0.447776611328125,0.2416238135397434,-0.5433902533531189,-0.037371708411211145
1780506533393768200,0.457768310546875,0.06868366012573242,-0.5259297077253461,0.09902946108868345
1780506533403760400,0.467760498046875,0.4530687619149685,-0.05529577076435089,0.10394430380025878
1780506533413753300,0.47775341796875,0.7387105808794499,0.6108405722916126,0.04592610406838357
1780506533423745300,0.487745361328125,0.40321430542171,1.7529364312455058,0.6459349742874503
1780506533433737200,0.4977373046875,-0.7981284000098705,1.2459595535323023,0.3575210602611303
1780506533443729400,0.5077294921875,-1.449094646462798,0.6750216603010892,0.02755564052145928
1780506533453722000,0.51772216796875,-1.9327122758984565,0.19167378771752117,-0.42898361051566897
1780506533463714300,0.52771435546875,-2.62490309766531,-0.6343281231239438,-1.0783923253282903
1780506533473706200,0.537706298828125,-3.6667256877481935,-1.741814733250439,-1.9889204853326081
1780506533483699200,0.54769921875,-2.555918408766389,-1.117172430099547,-1.7253556197501718
1780506533493691400,0.55769140625,0.26305472410321235,0.3354989058062434,-0.8436617784336209
1780506533503683300,0.567683349609375,1.3386544961035252,0.5356278026580811,-0.38911099779997016
1780506533513676300,0.57767626953125,1.8011966042846441,-0.006160276195406913,0.4779525894112885
1780506533523668200,0.587668212890625,2.114474618193507,-0.6418561805412173,1.0319957542039453
1780506533533660400,0.597660400390625,2.0281804825752974,-0.6828545458838343,0.5069146261319518
1780506533543652400,0.60765234375,1.767344603565335,-0.5363716067627072,0.27028219113871454
1780506533553645300,0.617645263671875,1.8181302034288644,-0.04027823437452316,0.6311019276190549
1780506533563637200,0.62763720703125,1.6663550031185148,0.46025428950488567,1.023081868451461
1780506533573632500,0.637632568359375,1.133145952039957,0.8483373690292239,1.0421418120998889
1780506533583625500,0.64762548828125,-0.38825872835218905,0.5713999577850103,0.7090523055229335
1780506533593617400,0.657617431640625,-2.3084797714680434,-0.2604085935086012,0.04223747868351638
1780506533603609600,0.667609619140625,-2.7715076173394917,-0.3319514424577355,-0.9252053585238754
1780506533613602600,0.6776025390625,-1.6729074935019015,0.11812369059920311,-1.6687182251185178
1780506533623594500,0.687594482421875,-0.44019291372895236,0.19935966604501007,-1.4539742351979017
1780506533633586700,0.697586669921875,0.25928631148040293,-0.055601767973601814,-0.559380434167385
1780506533643578600,0.70757861328125,0.8830904102414846,-0.10359276868253946,0.2649033476445824
1780506533653571600,0.717571533203125,1.2995096496731042,0.07443973943442106,0.7164747836738824
1780506533663563500,0.7275634765625,1.3996791659086942,0.17518296390473842,0.7374016171727329
1780506533673555700,0.7375556640625,1.2867203107267617,0.2182271558612585,0.6149602095048874
1780506533683548400,0.74754833984375,0.5130564898878336,0.05671732800006866,0.42891266417130824
1780506533693540600,0.75754052734375,-0.4811924481153488,-0.0911693404391408,0.1660941599767655
1780506533703532500,0.767532470703125,-1.1278870085984467,0.04078340741768479,-0.1279867668353021
1780506533713525500,0.777525390625,-1.522977044275403,0.19636194553375244,-0.32723873472213744
1780506533723517700,0.787517578125,-1.621374874663353,0.3180148331724107,-0.5590909497015177
1780506533733509600,0.797509521484375,-1.3847417090177536,0.32469898711144923,-0.6030749067261815
1780506533743501300,0.807501220703125,-1.0314105016618966,0.23859277528077363,-0.46923766029700636
1780506533753494500,0.81749462890625,-0.3815414027959108,0.25472543330565095,0.05753244377523661
1780506533763486700,0.82748681640625,1.1014227800428866,0.40200697545856234,1.005417105488479
1780506533773478400,0.837478515625,0.8945698356330394,0.5154430927634239,1.4970415157690644
1780506533783471600,0.8474716796875,-0.052912675020098686,0.4909104167923331,0.9870461670175195
1780506533793463600,0.857463623046875,-0.19786767392158508,0.32848025921583174,0.31883725547119973
1780506533803455500,0.86745556640625,-0.13537643869519234,0.1329641168564558,-0.2746665437027812
1780506533813448400,0.877448486328125,-0.42608664696514603,0.020016221459954978,-0.7015234443880617
1780506533823440600,0.887440673828125,-0.4349889153450727,-0.10976020527109503,-0.4970945122547447
1780506533833432300,0.897432373046875,0.33693595287203787,-0.046992929582297796,0.1291276074334979
1780506533843424500,0.907424560546875,0.48687458540499207,0.6133233290180563,0.9457380050733685
1780506533853417700,0.917417724609375,0.49358138956725595,0.6073121059045196,0.9837529706910252
1780506533863409400,0.927409423828125,0.1292389588534832,0.5762082348495722,0.7615481433704495
1780506533873401600,0.937401611328125,-0.022833763098716736,0.42101738087683915,0.4190918196417391
1780506533883394600,0.94739453125,-0.2832604767858982,0.21550752163901923,0.04313647334985435
1780506533893386500,0.957386474609375,-0.41521278625130653,0.08776143169179558,-0.2312712002210319
1780506533903378400,0.96737841796875,-0.33102117587029933,0.08243263788446784,-0.32108539972417055
1780506533913371600,0.97737158203125,-0.28813305125832556,0.07028437332063912,-0.26011004895344375
1780506533923363300,0.98736328125,-0.21754852594733237,0.1711659833483398,-0.04682232225574553
1780506533933355500,0.99735546875,0.01212473755776882,0.3667446695499122,0.19211415189616382
1780506533943347500,1.007347412109375,-0.09047288260757923,0.4511072525836527,0.42623504245989025
1780506533953340400,1.01734033203125,-0.4902443540990352,0.3584147942304611,0.4625220883063972
1780506533963332600,1.02733251953125,-0.3248229057520628,0.2777349913626909,0.1024460828654468
1780506533973324500,1.037324462890625,0.6704770026087761,0.6309748671732842,-0.8462018913704902
1780506533983317500,1.0473173828125,0.06983575277030468,0.3434102634526789,-0.04945113638937473
1780506533993309400,1.057309326171875,-0.07505670228898524,-0.03429828318208456,0.10051716062948107
1780506534003301600,1.067301513671875,0.3662397887676954,0.11678469708040357,0.36040669870004055
1780506534013294300,1.07729443359375,0.7414391290605068,0.21812647196576,0.26159356550946833
1780506534023286500,1.08728662109375,0.7288982119172811,0.05875584809035062,-0.005701353446766734
1780506534033278500,1.097278564453125,0.8151952701449394,-0.14153934523910283,-0.1511192206196487
1780506534043270700,1.107270751953125,0.6753115831583738,-0.3570110649123788,-0.06623655923455954
1780506534053263400,1.117263427734375,0.400073669308424,-0.46645577449351544,-0.11705050840973853
1780506534063255600,1.127255615234375,0.33224984088242054,-0.3299076616704464,0.031892610279843206
1780506534073247500,1.13724755859375,0.24649755705595014,-0.1698524165317416,0.2629875406185165
1780506534083240400,1.147240478515625,0.07034779394567012,-0.02810644280463457,0.46565088785141706
1780506534093232600,1.157232666015625,-0.189902394130826,0.09371347196400165,0.5498639428792521
1780506534103224600,1.167224609375,-0.5939718550771474,0.24292057535201309,0.46218251762110735
1780506534113216500,1.177216552734375,-0.9269313055336474,0.39267128409743307,0.26236612078454347
1780506534123209500,1.18720947265625,-0.4969903212279081,0.5687830532848834,-0.17878736333856357
1780506534133201700,1.19720166015625,-0.2652712311089039,0.47278263942748305,-0.34958281460776924
1780506534143193600,1.207193603515625,-0.425792047932744,0.016608312712609766,-0.4617905591614544
1780506534153186600,1.2171865234375,-0.07819032413959502,-0.2201598774895072,-0.48659617032241076
1780506534163178500,1.227178466796875,0.3012199118465185,-0.29255729744136333,-0.30893976550884544
1780506534173170700,1.237170654296875,0.39573593236505983,-0.37920039262771604,-0.15429134784974158
1780506534183163600,1.24716357421875,0.26156243971884247,-0.22339871328026056,0.11065449636285192
1780506534193155600,1.257155517578125,-0.09764262810647487,0.08557605047672986,0.4988144679151475
1780506534203147800,1.267147705078125,-0.27892800053954125,0.34309067610949273,0.9337265916969627
1780506534213139500,1.277139404296875,-0.40900516378283497,0.14221329897791146,1.0682385955825446
1780506534223132700,1.287132568359375,0.2956634467631578,0.03207417739182711,0.250038773326762
1780506534233124600,1.29712451171875,0.8734814548969269,-0.06998334454745053,-0.29480544169433415
1780506534243116500,1.307116455078125,0.8941852202296257,-0.25765929480046035,-0.3458008849162608
1780506534253109500,1.317109619140625,0.6544353838682174,-0.053823652385175225,-0.3908206877946853
1780506534263101700,1.327101806640625,0.009059504768252373,0.03223842804282903,0.37918439134098586
1780506534273093400,1.33709326171875,0.12193068166673182,0.5628358353182673,0.6125964029829949
1780506534283086600,1.347086669921875,0.36090076582729813,0.7859417031317949,0.6171757666625082
1780506534293078500,1.35707861328125,0.17609131092131136,0.6881728182971477,0.4736768117882311
1780506534303070500,1.367070556640625,0.16804595163166522,0.1960229228377342,0.0050931081881979475
1780506534313062400,1.3770625,0.42041678463518617,-0.45784284444898365,-0.37470578462220727
1780506534323055600,1.3870556640625,0.6414134052097797,-0.6405220093280076,-0.31346491478309035
1780506534333047600,1.397047607421875,0.9304705855756997,-0.3137839176043868,-0.010650829080305993
1780506534343039500,1.40703955078125,1.457529881852865,0.057142859935760494,0.321693448619917
1780506534353032700,1.41703271484375,2.437519408357143,0.4432262900754809,0.476354396967031
1780506534363024400,1.4270244140625,2.1842846520006653,0.08431289867311716,0.2534736066136509
1780506534373016600,1.4370166015625,2.05221485363543,-0.554423396281898,-0.7662607049755752
1780506534383009500,1.447009521484375,2.2853151689797637,-0.5812117422252893,-1.0677858103137463
1780506534393001500,1.45700146484375,2.6412814010143277,0.3508496196731925,0.2039638719048351
1780506534402993400,1.466993408203125,3.413447092249989,2.1576786768868566,1.7338628974631427
1780506534412985600,1.476985595703125,4.78870142647624,3.8676521647185087,2.1757887724645433
1780506534422978600,1.486978515625,4.764367195686698,3.621539515326917,2.9601269859224555
1780506534432970500,1.496970458984375,4.538938145622611,3.363678560474515,2.6404130937471986
1780506534442962700,1.506962646484375,5.381397854790091,3.058212389360368,1.4244193471506237
1780506534452955400,1.516955322265625,6.48097003853023,2.5149966157913206,0.9505874909311532
1780506534462947600,1.526947509765625,7.369639125686883,2.5534365288227794,1.3866855365619062
1780506534472939500,1.536939453125,7.619698759138584,4.2355601789593695,3.9785020649224516
1780506534482932500,1.546932373046875,6.367281700029968,5.811838020789623,5.38828235360682
1780506534492924400,1.55692431640625,4.39041113345325,6.140691204971075,4.345391257509589
1780506534502916600,1.56691650390625,2.4341829574108123,5.299595185372233,3.5313241146117447
1780506534512909600,1.57690966796875,2.606314132529497,4.037040178608894,4.950984576797485
1780506534522901500,1.586901611328125,4.418489226946234,4.179790360942483,6.846307910022139
1780506534532893700,1.596893798828125,6.405987570521235,4.969273097681999,6.912091757053137
1780506534542885600,1.6068857421875,7.259412325817346,4.788408288748562,7.559364994207024
1780506534552878600,1.616878662109375,5.370477816846966,5.414403467813134,8.45722276546955
1780506534562870500,1.62687060546875,3.789136261886358,6.780121911931038,8.047709652164578
1780506534572859600,1.636859619140625,4.068535387068986,7.172465863770246,4.228776217907667
1780506534582852600,1.6468525390625,3.2047987888559697,6.271740428116917,0.189208566647768
1780506534592844800,1.6568447265625,0.8317397238411008,6.600101444867253,-0.38544834710657594
1780506534602836700,1.666836669921875,-2.066561797287315,8.100868410900235,-0.6445353366225958
1780506534612829700,1.67682958984375,-4.0327456962853665,8.309915065962075,-2.9059377150952814
1780506534622821600,1.686821533203125,-4.477793648830056,7.609109560585021,-5.837891330456733
1780506534632813600,1.6968134765625,-3.580134030488133,7.190515899723768,-7.216833997806907
1780506534642805500,1.706805419921875,-2.2780160980127753,7.43007284386158,-7.862144410455226
1780506534652798700,1.716798828125,-1.1211381188601255,7.7756375088691705,-8.726654623389244
1780506534662790700,1.726790771484375,-0.9587918401747941,8.571686764517427,-11.06101410152316
1780506534672782600,1.736782470703125,-1.9143173720300197,8.730217868828772,-15.801112532871961
1780506534682775800,1.74677587890625,-4.804227496910095,6.96827717013359,-21.223585325372216
1780506534692767700,1.756767822265625,-5.488058486610651,4.885981651011109,-21.657447867035863
1780506534702759700,1.766759765625,-4.664980354261398,4.602147173729539,-19.661441222834586
1780506534712752600,1.776752685546875,-1.681853016501665,2.334066632667184,-18.91263244178891
1780506534722744600,1.78674462890625,2.2022855881154535,2.6388433602124453,-17.230936077153682
1780506534732736500,1.796736572265625,3.9082571468293663,3.9224686275333163,-13.550421518027782
1780506534742729700,1.806729736328125,5.466773706519604,1.2357114235013722,-8.009280260527133
1780506534752721700,1.8167216796875,34.60192126098871,-6.219304722958803,-5.936999939462543
1780506534762713600,1.826713623046875,31.046781971025464,-4.802936288055777,-5.090875278046727
1780506534772705500,1.83670556640625,-0.6377595588773488,5.955353926798701,-3.330348537802696
1780506534782698800,1.84669873046875,-7.859909783270955,8.440596040317416,-6.184673554560542
1780506534792690700,1.856690673828125,-9.409069316551088,3.741847271966934,-10.66966149880886
1780506534802682600,1.8666826171875,-1.7272627685457467,2.4941467199862,-10.348429311025143
1780506534812675800,1.87667578125,2.1082488755464555,-0.5890484272003174,-6.187164786854386
1780506534822667500,1.88666748046875,3.3922412226140497,-1.131176113271713,-2.021961169669032
1780506534832659700,1.89665966796875,1.7793897000156342,0.418591322773695,-1.6035972259104252
1780506534842652700,1.906652587890625,-1.4672230083495377,1.0128384876608847,-2.1630618312299252
1780506534852644600,1.91664453125,-2.2697714167587457,3.412841527572274,-0.13002163366377353
1780506534862636500,1.926636474609375,-3.4971383518934247,0.5710533363044261,0.3435965798050165
1780506534872628700,1.936628662109375,2.705991481333971,0.14407704702317714,3.899166662400961
1780506534882621700,1.94662158203125,-1.265240884846449,1.5335796868324278,1.2113275083512067
1780506534892613600,1.956613525390625,0.5913239709168672,-0.15634674600958823,-0.8633511060267687
1780506534902605800,1.966605712890625,2.0332273907013234,-2.486750179994106,-1.7788345503509044
1780506534912598500,1.9765986328125,2.363316254157573,-3.1004905653804538,-0.3299263663709163
1780506534922590700,1.9865908203125,-0.15753215640187263,-1.7406033116340636,2.001755416986346
1780506534932582700,1.996582763671875,0.1950324504956603,-3.5978783614933487,2.299773902443051
1780506534942575600,2.00657568359375,-16.865799281191826,0.8014747878283262,-2.3226012358009815
1780506534952567600,2.016567626953125,-2.982720510524511,-2.371785245686769,0.5000169755727052
1780506534962559700,2.026559814453125,13.41955758832097,-13.793779023492336,1.2121738960474728
1780506534972552700,2.036552734375,4.073712205184996,-10.676825399088859,2.2138024229079485
1780506534982544600,2.046544677734375,6.501520074605941,-5.381117868804932,5.321358688890934
1780506534992536800,2.056536865234375,7.789708704319596,-8.781004053214192,-0.095201080173254
1780506535002528800,2.06652880859375,4.1725142324596645,-9.000228987941146,-0.5734563057929277
1780506535012521700,2.076521728515625,-0.48623687202334404,-4.438647048833966,1.6726485503047703
1780506535022513700,2.086513671875,-1.859004650130868,-5.0628930461436505,1.9158289456367492
1780506535032505900,2.096505859375,0.559919655610621,-6.488502187600732,4.055078524124622
1780506535042498600,2.10649853515625,3.2668443261414764,-7.497306889700889,6.093322135552763
1780506535052490800,2.11649072265625,1.8392679762646555,-6.971189258188009,3.6784020970165727
1780506535062482700,2.126482666015625,3.5667350352108476,-6.161306707498431,3.2482290575206276
1780506535072475600,2.1364755859375,5.174055665558576,-6.202047883209586,3.804177763673663
1780506535082467600,2.146467529296875,5.2876843828260895,-8.311259466308355,5.575272659683227
1780506535092459800,2.156459716796875,2.8699720832228657,-7.737809005734324,7.501043153619766
1780506535102451500,2.166451416015625,1.364257139393687,-3.5916128713577984,4.9049289280653
1780506535112444700,2.176444580078125,2.946800471359491,-5.520963561868667,2.8568916523754595
1780506535122436900,2.186436767578125,2.210902755943686,-4.554994961932302,3.504844103965163
1780506535132428500,2.196428466796875,-0.5203634519003332,-1.4504589205533265,6.089954704946279
1780506535142421800,2.206421875,-3.4038661939561363,1.507139423674345,6.79516808989346
1780506535152413700,2.21641357421875,-2.4875217488884926,6.1364107511729,-3.1935236538648604
1780506535162405600,2.226405517578125,-2.0461977853029967,4.600201300358772,-8.018083744707702
1780506535172398600,2.236398681640625,1.0176595511417836,9.869542217242717,-9.225890093195439
1780506535182390800,2.246390869140625,-2.878390952000022,9.473511101323366,-8.538440912997721
1780506535192382500,2.256382568359375,-0.18760873023569583,10.083673628222941,-8.254853688475489
1780506535202375700,2.266375732421875,0.47649756829738615,10.435470465618371,-7.63665749272406
1780506535212368000,2.276367919921875,1.5059651191979646,7.7582678563952445,-5.809275476825237
1780506535222359600,2.286359619140625,0.30245098801143466,6.250536896568536,1.1942290740340948
1780506535232351700,2.296351806640625,-0.600647021992132,4.499620865234732,8.25889682638645
1780506535242344700,2.3063447265625,-0.9027735272895544,5.854958785113692,12.381840679991244
1780506535252336600,2.316336669921875,-0.5582960729967802,5.372994183582067,13.58461020335555
1780506535262328600,2.32632861328125,-0.9605909254860132,5.75026039327681,11.080768603307009
1780506535272321800,2.33632177734375,-1.8076349667690694,5.422983080109954,7.013564757102728
1780506535282313500,2.3463134765625,-3.7515351377665995,1.142193181848526,-5.881633441549539
1780506535292305700,2.3563056640625,-0.8942570433568209,-6.909971696159243,-19.734815086603163
1780506535302299000,2.366298828125,0.216305247887969,-5.6066556399405,-14.793014517736434
1780506535312290600,2.37629052734375,-0.35443551533594725,-5.323820110568404,-12.154501412391662
1780506535322282500,2.386282470703125,1.2553501899510622,-6.609717414474487,-8.502850544178486
1780506535332275700,2.396275634765625,3.905251535272598,-8.034137638407945,-5.657903012096882
1780506535342267600,2.406267578125,4.437291542571783,-7.899628630197047,-3.033408202971518
1780506535352259600,2.416259521484375,3.506618127900362,-6.751275756675004,-2.182821885971725
1780506535362251800,2.426251708984375,2.929597992146015,-6.657036215010285,-2.5453841552704572
1780506535372244500,2.436244384765625,3.0348791523069143,-4.772229015102982,-2.465788055986166
1780506535382236700,2.446236572265625,2.616438051658869,-2.3886761747330425,-1.7063418533310293
1780506535392228600,2.456228515625,4.69817301428914,-3.081562577548623,1.122181782694161
1780506535402221600,2.4662216796875,3.1638989154517647,-9.429084515097736,-2.6539927062883972
1780506535412213500,2.476213623046875,-0.6883576733447611,-16.624915472364425,-10.934054778039455
1780506535422205700,2.486205810546875,2.5362463245689866,-17.111359265136716,-12.93618487355709
1780506535432198700,2.49619873046875,1.3428018250413238,-7.667761071518063,-9.048270257532597
1780506535442190600,2.506190673828125,-1.6222240388385951,2.219880866038799,-3.830034089463949
1780506535452182800,2.516182861328125,-3.076070409873128,5.977628302448988,0.8300175762236118
1780506535462175500,2.526175537109375,-11.214618270826339,14.374630115711689,11.160720676422118
1780506535472167700,2.536167724609375,-12.006135728263855,18.91047321792841,15.077729284983873
1780506535482159600,2.54615966796875,-6.2088967261910435,11.556113494437932,9.240699539792537
1780506535492151800,2.55615185546875,-2.7731869487285614,7.213593992972373,0.9772060332655906
1780506535502144500,2.56614453125,2.849107574370503,6.32360096373558,-3.257646874207258
1780506535512136700,2.57613671875,4.329262545007467,4.6961160817593335,-3.6659959121689196
1780506535522128600,2.586128662109375,4.091690637207031,-1.8057319096267221,-5.715778862482309
1780506535532121600,2.59612158203125,-3.300793942016363,-3.6518817543596027,0.01220452479571104
1780506535542113800,2.60611376953125,2.5197335811853407,4.931543963268399,2.6254972641661762
1780506535552105700,2.616105712890625,-1.0611886770710348,6.562306844002008,5.408514994296431
1780506535562098700,2.6260986328125,-0.07178601005524396,1.1483405985623598,0.4148232024118304
1780506535572090400,2.63609033203125,-0.7448341783262789,1.1104507206290959,-3.1722868045687673
1780506535582082300,2.646082275390625,-1.5990332789957522,1.0537503437638283,-3.1709234072610735
1780506535592074500,2.656074462890625,-0.7764867693051696,-4.555193114852905,-1.7731778397634625
1780506535602067200,2.666067138671875,-3.5328070466458796,-6.336631710222363,-2.212966848866641
1780506535612059400,2.676059326171875,-7.0167410490512845,-6.410152873507141,-2.176645243163407
1780506535622051300,2.68605126953125,0.5594679663203657,-5.9801692191034554,-0.4013201622381806
1780506535632044300,2.696044189453125,6.385795261842012,-4.186103781872988,1.356836634004116
1780506535642036200,2.7060361328125,7.220175709450245,-2.5024101059406996,1.3157286708071827
1780506535652028400,2.7160283203125,4.399788618129492,-1.430159644368291,-0.8188222284704446
1780506535662021400,2.726021484375,1.7929704816006122,-0.5406190350741148,-2.521835229639709
1780506535672013300,2.736013427734375,0.08029358002915978,-0.4314011199861765,-1.7330153407230973
1780506535682005500,2.746005615234375,0.5006044200718403,-1.3037731523364782,-0.16116905159950257
1780506535691998200,2.755998291015625,0.014970920769125222,-3.9265415760606523,0.07663374234735966
1780506535701990400,2.765990478515625,-3.668095807057619,-11.359792465436458,1.7460349812939762
1780506535711982300,2.775982421875,-5.799985085910558,-9.598610476154088,3.405539680126309
1780506535721975300,2.785975341796875,1.471730256640911,-7.291686117434502,3.9077328306943175
1780506535731967200,2.79596728515625,2.584271812069416,-7.424155728772282,4.702108600172401
1780506535741959400,2.80595947265625,-1.23254506842494,-6.265494227203726,5.70376693764925
1780506535751951000,2.815951171875,-1.4780137208245694,-2.9371207888662814,2.575912856785953
1780506535761944300,2.8259443359375,1.1218901062712072,1.2331056249171495,-7.650493710374832
1780506535771936300,2.835936279296875,1.1916264903202651,10.006250196802615,-4.644739238004386
1780506535781928200,2.84592822265625,1.0531215443409978,11.075084712451696,-6.117587392759323
1780506535791921400,2.85592138671875,-0.3033950639285147,7.048370113024115,-8.724510012575983
1780506535801913300,2.865913330078125,0.22507716788649557,6.604906214800477,-7.462465877944231
1780506535811905300,2.8759052734375,1.7083517318487167,5.001206113037466,-4.917374568140507
1780506535821898200,2.885898193359375,1.3524969973646104,6.517939879009127,-3.852068811139464
1780506535831890400,2.895890380859375,-0.5289655682899057,7.853910250595211,-2.3270400950312613
1780506535841882000,2.905882080078125,-0.18672201052904128,7.112012271851301,0.3803457632705569
1780506535851875300,2.915875244140625,0.6119383044004439,5.9332040543109175,1.2585828882619738
1780506535861867300,2.9258671875,1.6378806037843225,5.003712542900443,0.9231497411683202
1780506535871859200,2.935859130859375,1.7444100104406475,2.9248522589236496,-0.37515667019486426
1780506535881852400,2.945852294921875,0.8487327980875968,1.1762503497511148,-1.6878279992580414
1780506535891844400,2.95584423828125,0.25792130673751235,0.8859756102889775,-0.9465148346647619
1780506535901836300,2.965836181640625,1.348522102384269,2.0879595362335444,1.2944567501977085
1780506535911828200,2.975828125,0.8094725085839629,2.8689111759930848,1.9941051944941282
1780506535921821400,2.985821533203125,1.090754378773272,3.143072400522232,2.477914254848659
1780506535931813000,2.995813232421875,1.0017644281998277,2.951855416661501,3.2012598010748623
1780506535941805300,3.005805419921875,0.7011538804233074,2.8297616533875463,3.252902310028672
1780506535951798300,3.01579833984375,0.49323389130383727,2.5877584851413964,2.981297784245014
1780506535961790200,3.025790283203125,0.43293461316376924,2.1014508859694003,2.666432208883762
1780506535971782100,3.0357822265625,0.09665537063479424,1.1830997772544622,2.2088854247719047
1780506535981775400,3.045775390625,-0.2561725633740425,0.496888029897213,1.6418012843593954
1780506535991767300,3.055767333984375,0.14171353276222942,0.6111702426373958,0.6523463026344776
1780506536001759200,3.06575927734375,0.4727122045397758,1.0955670397520065,-0.44960546971857546
1780506536011752400,3.07575244140625,0.6462225590571761,0.8139385480821132,-0.9936518488928675
1780506536021744000,3.085744140625,0.04824380642622709,0.43370588979721064,-1.3333286249056457
1780506536031736300,3.095736328125,-0.17905074524879455,0.3564578149437904,-1.7590093214184044
1780506536041729300,3.105729248046875,-0.07515344066172838,0.5644172592908143,-1.1378522300347684
1780506536051721200,3.11572119140625,-0.11634206787943839,-0.4512374548345804,0.40858021636903286
1780506536061713200,3.125713134765625,-0.5315422869101166,-1.5903291635364294,1.3148518879726527
1780506536071705300,3.135705322265625,-0.3536263909101486,-2.261806867620349,1.988506351573765
1780506536081698300,3.1456982421875,-0.3987675551459193,-3.0728274824291466,2.828680580152571
1780506536091690200,3.155690185546875,-0.6753919549182057,-3.1714503537446257,3.3092844147250053
1780506536101682200,3.16568212890625,-0.8099734438434243,-3.17627324385643,3.503859769102931
1780506536111675100,3.175675048828125,-1.0149942043900488,-3.2064287281453607,3.516498301401734
1780506536121667300,3.185667236328125,-1.1055819455489515,-3.1496535324782133,3.349918038408458
1780506536131659300,3.1956591796875,-1.1334472730740903,-3.056218877455592,2.938734946064651
1780506536141652200,3.20565234375,-1.1368889379605651,-3.150513364177942,2.4223300225317477
1780506536151644200,3.21564404296875,-1.1635016350761056,-3.121766577643156,2.1144404236629604
1780506536161636400,3.22563623046875,-1.1486015875861049,-3.1127830607205627,1.8652648795694111
1780506536171629300,3.23562939453125,-0.9231053175047039,-3.450160912141204,1.4639149067148565
1780506536181621200,3.245621337890625,-0.7697033927753567,-3.6052345694750545,1.2162640879705549
1780506536191613200,3.25561328125,-0.7859402418270707,-3.5561470057010647,1.0969003341823815
1780506536201606400,3.2656064453125,-0.8790335360661149,-3.330567148989439,0.9446005254760385
1780506536211598300,3.275598388671875,-1.0067428011342883,-3.0196020881980656,0.7447691502660513
1780506536221590300,3.28559033203125,-1.0830009881675242,-2.3025445362001657,0.5611576729729771
1780506536231583200,3.295583251953125,-0.8620867851793765,-1.6492255891412495,0.16709756486564872
1780506536241575200,3.3055751953125,-0.39100451992899177,-1.1929676757961512,-0.15778145498782395
1780506536251567400,3.3155673828125,0.4355208302646875,-0.7900976537674665,-0.4038955656841397
1780506536261559300,3.325559326171875,0.9691165425732732,-0.6339671808570623,-0.8880033167243003
1780506536271552300,3.33555224609375,1.1312523933783174,-0.7396347099870443,-1.4572086870744823
1780506536281544200,3.345544189453125,1.4750328053176402,-0.7466822904109954,-1.7560305978685617
1780506536291536400,3.355536376953125,1.4712842664390802,-0.7040162841171026,-1.9349784672647714
1780506536301529300,3.365529296875,1.1926382977113128,-0.5915379059284925,-1.9851900666326283
1780506536311521300,3.375521240234375,0.8866717758595943,-0.7720482023358345,-2.0431778529599307
1780506536321513200,3.38551318359375,0.5611576729729771,-1.0688941368818283,-1.861134355635941
1780506536331506200,3.395506103515625,0.739053402967751,-1.4821189641863106,-1.3571391240820287
1780506536341498400,3.405498291015625,1.1806161437451839,-2.16790167247653,-0.9874006795436143
1780506536351490300,3.415490234375,1.6352452868446707,-2.8253257167667147,-0.9209840875670313
1780506536361483300,3.425483154296875,2.3261869853332637,-3.1268940036594866,-0.8218219948083162
1780506536371475200,3.43547509765625,2.9216908722832797,-3.414189435049891,-1.2397490084543823
1780506536381467400,3.44546728515625,3.4190564565643666,-2.8150053982824086,-1.2361767029255628
1780506536391460000,3.455460205078125,3.52725847260803,-2.2978934955239296,-1.5283707200124859
1780506536401452300,3.465452392578125,3.6828523544237015,-1.4546663091152905,-1.6820967621296643
1780506536411444200,3.4754443359375,4.14067737095505,-0.4422907627910375,-1.605491953615844
1780506536421436400,3.4854365234375,5.139072030460834,0.5324298833996057,-1.6444246186003089
1780506536431429400,3.495429443359375,5.312303860297799,1.9632856933385132,-0.9380462815269828
1780506536441421300,3.50542138671875,4.208069237704575,2.033818780723214,-1.070809907375276
1780506536451413500,3.51541357421875,2.654997499416768,2.714997210088372,-0.7203203531861305
1780506536461406200,3.52540625,-0.5590867119178176,3.238113321697712,-0.3458712467387318
1780506536471398400,3.5353984375,-3.885517784015834,4.198526625594496,0.9217746534228324
1780506536481390300,3.545390380859375,-5.22714486618936,5.073370016494393,3.3827354353830215
1780506536491383300,3.55538330078125,-5.954531504499912,4.712487370845675,5.321639259397983
1780506536501375200,3.565375244140625,-3.8454771577894684,4.956921565631031,6.749575382497906
1780506536511367400,3.575367431640625,-4.567157985673845,4.332049545377493,5.592131440025567
1780506536521360400,3.5853603515625,-5.553997231942415,2.769009370782971,2.1308491221502424
1780506536531352300,3.595352294921875,-3.4627146887660025,2.0028683466643096,-0.0798407216951251
1780506536541344500,3.605344482421875,-2.460373045200109,1.8274352073907851,-2.433174072629213
1780506536551337200,3.615337158203125,-0.9418054879300296,3.2649107277303933,-3.9231583633631466
1780506536561329400,3.625329345703125,0.8305657116256654,5.802062476706505,-4.589223102487623
1780506536571321000,3.635321044921875,1.4044047331258653,6.36882776042819,-4.347758278901875
1780506536581314000,3.64531396484375,0.16506269803717732,4.751090365484357,-2.1312562416464087
1780506536591306000,3.655305908203125,-1.9853002490088343,2.9667800140708684,1.0960615452706812
1780506536601298200,3.665298095703125,-3.338396235179901,2.2659634027779103,3.1824937258064745
1780506536611291000,3.675290771484375,-3.1916964384377002,1.5958458811312912,3.5452839586421847
1780506536621283000,3.685282958984375,-2.197422365993261,1.0855419048219919,3.034739743836224
1780506536631275000,3.69527490234375,-1.1737000807464122,1.1246773989021777,2.1096607881709932
1780506536641268000,3.70526806640625,-0.7056684352383017,1.4172855497479437,0.9422484093919395
1780506536651260200,3.71526025390625,-0.9691267717063426,1.7848060259759424,0.4889426238507032
1780506536661252000,3.725252197265625,-1.6113503242552278,1.952407740971446,0.41150224129557605
1780506536671245000,3.7352451171875,-1.5482112926445901,1.5668284609615801,-0.09561667523682117
1780506536681237000,3.745237060546875,-0.9897298531435429,0.8001859170615673,-0.7169654898002743
1780506536691229200,3.755229248046875,-0.48453123714923857,-0.1742114885240793,-1.3474158947080372
1780506536701222000,3.765221923828125,-0.21131649968996644,-0.9994909303098917,-1.8171409001305698
1780506536711214000,3.775214111328125,-0.1644051109112799,-1.7125988678991793,-2.055525585618615
1780506536721206000,3.7852060546875,-0.23156068468689917,-2.3459634066879747,-2.0423016546472907
1780506536731198000,3.795197998046875,-0.17506912826672194,-2.8341899912238118,-1.7852338959991931
1780506536741191200,3.805191162109375,-0.04390110104680061,-3.051274991312623,-1.3742664922326802
1780506536751183000,3.81518310546875,0.29289705078974365,-3.154038615694642,-0.8726517260745167
1780506536761175000,3.825175048828125,0.8235258761167525,-3.1222049690604208,-0.3376601754933595
1780506536771168000,3.83516796875,1.137898115003109,-2.873196305966377,0.002549392221868038
1780506536781160200,3.84516015625,1.084336182294041,-2.420644845923781,-0.004476268631219864
1780506536791152000,3.855152099609375,0.9253871448315679,-1.8039678225636482,-0.2901835540473461
1780506536801145000,3.86514501953125,0.9813361188076436,-1.3155331482350825,-0.6380369145140051
1780506536811137000,3.875136962890625,0.9804488876443356,-1.03524613430202,-0.9068445030555129
1780506536821129000,3.88512890625,1.2166752260547131,-0.8030354612737893,-1.178603634878993
1780506536831122200,3.8951220703125,1.8681471570074557,-0.5059674084097147,-1.3253519469380377
1780506536841114000,3.905114013671875,2.448364627498388,-0.4213520196586847,-1.3462757847622036
1780506536851106000,3.91510595703125,2.4271663566470143,-0.6532312687754631,-1.1353963613152502
1780506536861099000,3.92509912109375,1.7528806094050406,-0.9990718281149864,-0.7361568047434092
1780506536871091200,3.93509130859375,0.6154593911986798,-1.4024784412384033,-0.49392508843839167
1780506536881083100,3.945083251953125,-0.7390436122260987,-1.7910785303741692,-0.341786607773602
1780506536891076000,3.955076171875,-0.7938555449962615,-2.106779972037673,-0.2501359135583043
1780506536901068000,3.965068115234375,0.22205036741122602,-2.6646500016421077,-0.13923603673279283
1780506536911060000,3.97506005859375,0.4148736174248159,-2.9172417839199305,0.355522287659347
1780506536921053000,3.985052978515625,-1.5543959726288914,-3.103689069160819,1.057786759673059
1780506536931045000,3.995045166015625,-2.1843758374154567,-3.3353736724883314,1.1757751334547997
1780506536941037000,4.005037109375,-1.8268483474135397,-3.472411906915903,1.1517732033595443
1780506536951030000,4.015030029296875,-2.0731017204500732,-3.7043355796962976,1.0246788553193211
1780506536961022200,4.025022216796875,-1.9579929937578737,-3.9096038852632042,0.534867047418654
1780506536971014100,4.03501416015625,-1.5621110770508646,-3.7568051871240136,-0.16524521499723194
1780506536981007000,4.045007080078125,-1.9722841155692934,-3.4015964954584836,-0.9364227719783782
1780506536990999000,4.0549990234375,-2.804724242764711,-3.0502941635817287,-1.604438645170629
1780506537000991200,4.0649912109375,-2.63449831674546,-2.1845231369316576,-2.048136352150142
1780506537010984000,4.07498388671875,-1.8521081686154006,-0.9424316570043564,-2.6420035778090356
1780506537020976000,4.08497607421875,-1.3125991406098008,-0.06073942312300205,-3.6333588401973245
1780506537030968000,4.094968017578125,-0.6003270693227648,0.5935720421046018,-4.617975734241306
1780506537040961000,4.1049609375,-0.1759010490462184,0.9124041830092668,-5.112414909681678
1780506537050953200,4.114953125,-0.004501110811531543,0.6873088949441909,-4.073661936302483
1780506537060945200,4.124945068359375,-0.7184262100026011,0.22654081069827078,-2.3220272353053093
1780506537070938000,4.134938232421875,-1.1712895124733447,0.13829437196850775,-1.0581599768996237
1780506537080930000,4.144929931640625,-0.5507657505571842,0.4686702356725931,-0.6047644672483206
1780506537090922200,4.154922119140625,0.09176759859323501,1.4067472045987843,-0.8081953282549977
1780506537100915000,4.1649150390625,0.7146420152887701,3.0520424685537813,-0.9214239402890205
1780506537110907100,4.1749072265625,1.0183818010017276,4.977050745946169,-0.9141931122526525
1780506537120899000,4.184899169921875,1.0604913424566387,6.463842962640523,-0.8723451443433761
1780506537130892000,4.19489208984375,0.9306254838764667,6.847923528525233,-1.124445635972917
1780506537140884000,4.204884033203125,1.228257308103144,6.400360378289222,-1.3366215289711951
1780506537150876200,4.214876220703125,1.6107538196668028,5.804307040762901,-0.9997527961164713
1780506537160869000,4.224869140625,1.902416214095056,5.339861144787073,0.06988602165281772
1780506537170861000,4.234861083984375,1.7070684140399097,5.446815791118144,1.112230005261302
1780506537180853200,4.244853271484375,1.4576567231029272,5.098735928419232,1.3714932281270622
1780506537190846000,4.254845947265625,1.535903453604877,4.6032501665353776,1.0476172478362917
1780506537200838100,4.264838134765625,1.3261676472350954,4.437229583251476,0.669486822527647
1780506537210830000,4.274830078125,0.9762693369373678,3.90039883454442,0.24120704943239688
1780506537220823000,4.284822998046875,0.6331555722132325,3.100671182644367,-0.2165428560361266
1780506537230815000,4.29481494140625,0.6723571172669529,2.3782284304767844,-0.6278010594427585
1780506537240807200,4.30480712890625,0.25887451580911874,2.2147364888876675,-1.01738869831115
1780506537250800000,4.314800048828125,0.2701601721942425,2.3899533550620076,-0.7913838941857219
1780506537260792000,4.3247919921875,0.3132689538195729,2.246291318580508,0.06581248860359191
1780506537270784300,4.3347841796875,0.11163111370950937,2.32963478769958,1.1433005585685372
1780506537280777000,4.34477685546875,-0.2029512607961893,2.014500332269072,1.8873066155076026
1780506537290769200,4.35476904296875,-0.7531497328594327,1.4965432108581065,2.3756392907664177
1780506537300761000,4.364760986328125,-0.9597323358952998,0.778757344585657,2.8765923781454563
1780506537310754000,4.374754150390625,-1.1553390791475773,-0.18891455213725566,3.2177158458352086
1780506537320746000,4.38474609375,-1.205983516974747,-0.8854109621435403,3.4426696796029805
1780506537330738200,4.39473828125,-1.1531342625796794,-1.4867495465964078,3.45274099176228
1780506537340731100,4.404731201171875,-0.901202405515313,-2.0421616616547107,3.453903313539922
1780506537350723000,4.41472314453125,-0.6807137344628572,-2.6702584891736505,3.4802827864214776
1780506537360715300,4.42471533203125,-0.5370800472930073,-2.830157959228754,3.380343864071369
1780506537370708000,4.4347080078125,-0.5981567395463585,-2.8552748648285866,3.1655782468408344
1780506537380700200,4.4447001953125,-0.7711167667046189,-2.7108020964860913,2.822442270284891
1780506537390692000,4.454692138671875,-0.9318886356800794,-2.4002859485059975,2.464000880308449
1780506537400685000,4.46468505859375,-1.147373799356818,-2.1916607337266205,2.048658330197632
1780506537410677000,4.474677001953125,-1.4478297410935164,-2.087078077223897,1.6639476497158407
1780506537420669200,4.484669189453125,-1.604891941896081,-2.0093524479866027,1.4562705294415355
1780506537430662100,4.494662109375,-1.80120420306921,-2.082892315971851,1.4356401216059922
1780506537440654000,4.504654052734375,-1.9361732300072907,-1.932373837724328,1.6128332562893628
1780506537450646000,4.51464599609375,-1.9919073921889066,-1.8707628924638031,1.7809528576791285
1780506537460639000,4.524638916015625,-1.927273007453978,-1.8128730135530233,2.071386879356205
1780506537470631200,4.534631103515625,-1.7128098803013563,-1.6927584413975476,2.258276063145697
1780506537480623000,4.544623046875,-1.3052251047104597,-1.5302011503100394,2.247020217376947
1780506537490616000,4.554615966796875,-0.8343369007274508,-1.2649006931066513,1.988773185816407
1780506537500608000,4.56460791015625,-0.5009615629464388,-1.0328875884771347,1.5184323865830898
1780506537510600200,4.57460009765625,-0.179945063740015,-0.5708621976464986,1.0075906501352787
1780506537520593000,4.584593017578125,0.30810470292419195,-0.11638356893360614,0.2363669159248471
1780506537530585000,4.594585205078125,0.7587704953506589,0.23491291772425174,-0.7005418860048055
1780506537540578000,4.604578125,1.0704586097195743,0.4316010264724493,-1.7609785756647587
1780506537550570000,4.614570068359375,1.022802540053427,0.2504196989357471,-2.7534283552914856
1780506537560562200,4.624562255859375,0.8233005429282784,-0.25067104334831236,-3.0545199645832177
1780506537570554600,4.6345546875,0.8953528027042746,-0.6388584600299596,-2.5677283812865612
1780506537580546800,4.644546875,1.2689704267635942,-0.9768798700511455,-1.9615338812351226
1780506537590538800,4.654538818359375,1.489257730025053,-1.366631467309594,-1.489820916865766
1780506537600531700,4.66453173828125,1.3708753884896636,-1.631546724587679,-1.079081184375286
1780506537610523600,4.674523681640625,1.0761208732649683,-1.8467770367205143,-0.6793576436787844
1780506537620515800,4.684515869140625,0.8750237159028649,-1.9423229848086834,-0.19689181462675331
1780506537630508800,4.6945087890625,0.6336313730314374,-2.0556331376463173,0.12735182993263006
1780506537640500700,4.704500732421875,0.26418285135030745,-2.281059265100956,0.08577128078788518
1780506537650493000,4.714492919921875,0.4319441408216953,-2.256073292404413,-0.1403273391008377
1780506537660485600,4.724485595703125,1.0283967067986726,-2.183485610577464,-0.5437319063976407
1780506537670477800,4.734477783203125,1.5836042391955851,-1.9959207194834947,-0.8302788575083017
1780506537680469800,4.7444697265625,1.7956290332853793,-1.5486398933202028,-0.8915352902427315
1780506537690462700,4.754462646484375,1.5814181273281573,-0.8708189576894044,-0.7376353528633713
1780506537700454700,4.76445458984375,1.2445455950811504,-0.30664427498281,-0.4751411852523684
1780506537710446800,4.77444677734375,0.867552357108891,0.1226461364597082,-0.09413198963701724
1780506537720439600,4.784439453125,0.8954299595937132,0.1640203493773937,0.3944833019554615
1780506537730431700,4.794431640625,1.2822595319256185,-0.2463736384153366,0.5607146053805947
1780506537740423700,4.804423583984375,1.4237991694256662,-0.7546580915957689,0.3143824680194259
1780506537750416600,4.814416748046875,1.3240320965111254,-1.2592220629483462,-0.1032595912054181
1780506537760408800,4.824408935546875,1.268496964032948,-1.6977023275405168,-0.4548988999515772
1780506537770400800,4.83440087890625,0.8469628658056259,-2.4213795899391175,-1.0473486600279807
1780506537780393700,4.844393798828125,0.7696075311854481,-2.2839169926196337,-0.7172372924789786
1780506537790385700,4.8543857421875,0.3953150766044855,-3.061718059393763,-1.3287582482501863
1780506537800377900,4.8643779296875,0.744394763995707,-3.336101986762881,-1.1713926805868744
1780506537810370600,4.87437060546875,1.3738053044617176,-2.301818560013175,-0.11436433806568383
1780506537820362800,4.88436279296875,1.8501038430556653,-0.8637491654336452,0.5414829584270715
1780506537830354700,4.894354736328125,1.560932534790784,0.757761318308115,0.6363914853945374
1780506537840347600,4.90434765625,0.3676715751364827,2.2926345520824194,0.15981676020771263
1780506537850339800,4.91433984375,-1.3231012454017996,3.721988725286722,0.1818602497115731
1780506537860331800,4.924331787109375,-1.5963921168372035,5.369550765129923,1.5256670140117405
1780506537870324700,4.93432470703125,-2.746148135155439,6.053314534813166,2.701780001118779
1780506537880316700,4.944316650390625,-4.83167079963088,4.480861804229021,3.0132576876074073
1780506537890308900,4.954308837890625,-3.6180876213073727,2.6568811212062835,2.8528341936782002
1780506537900301600,4.964301513671875,-2.7490920796528457,1.4007967717617749,1.9005352226540446
1780506537910293800,4.974293701171875,-1.8998375957787035,-0.12822948954999447,0.3239151432573795
1780506537920285700,4.98428564453125,-0.01117386657372117,-0.7247124506652355,-0.9995680871993303
1780506537930278700,4.994278564453125,2.106230959852785,1.8693863434135913,-1.651032054041326
1780506537940270800,5.004270751953125,1.7050585355222225,7.53785166605711,-2.240557158842683
1780506537950263800,5.014263916015625,2.0820083727441725,11.50393439438939,-3.3157781606584784
1780506537960255700,5.024255859375,0.7319546768784523,11.876124031472205,-4.337996471083164
1780506537970247700,5.03424755859375,-2.0048051599457857,7.3936366718679665,-3.300840119245648
1780506537980241000,5.044240966796875,-4.060570984061062,2.9987153675138947,-0.21382950542420148
1780506537990232800,5.05423291015625,-4.134411004036664,0.7251011577218771,1.671841617836058
1780506538000224800,5.064224853515625,-2.1618122695602477,-0.7982979113578796,2.197133319918811
1780506538010218000,5.074218017578125,-2.776937533433735,-1.527348683488369,1.9225889412909745
1780506538020209700,5.084209716796875,-2.9775577209338544,-1.5447352870970963,1.7718389923751354
1780506538030201600,5.09420166015625,-2.572287067504227,-1.0337871676653623,1.6229647742033004
1780506538040194800,5.10419482421875,-2.468977207416296,-0.27913141415715215,1.2164505504533647
1780506538050186800,5.114186767578125,-2.015028155535459,0.198863699221611,0.5612374602109194
1780506538060178700,5.1241787109375,-1.0798716041006147,0.40451954280138014,0.013686287786066531
1780506538070172000,5.134171875,-0.42261634050607677,0.7138385899513959,-0.4133157204583287
1780506538080163800,5.144163818359375,-0.3212451203305274,1.3725281241327523,-0.758320705756545
1780506538090155800,5.15415576171875,-0.23619031724892556,1.9240426472306251,-1.124697272646427
1780506538100148700,5.164148681640625,-0.049469110437482595,1.5770090787142514,-1.3194926995158194
1780506538110141000,5.174140869140625,0.45588374627046285,0.8243617424190044,-0.9786682147726417
1780506538120132600,5.184132568359375,0.47820196106247603,0.20870821688771246,-0.23099457523673772
1780506538130125800,5.194125732421875,0.5662719472467899,-0.4332119688004255,0.7078510399743915
1780506538140117800,5.20411767578125,0.8564846543233842,-1.0995219148576258,1.525159064489603
1780506538150109700,5.214109619140625,0.6356734002530574,-1.806931348544359,1.9523127561643718
1780506538160103000,5.22410302734375,0.5260018231134861,-2.596955937075615,1.921356769147515
1780506538170094800,5.2340947265625,0.5218939494032413,-3.0310347518384453,1.6972966693490743
1780506538180086800,5.244086669921875,0.36004210317134855,-3.0253111134946344,1.2313920989975333
1780506538190079700,5.254079833984375,0.22359956961460412,-2.59974410648942,0.6222621300160884
1780506538200072000,5.264072021484375,0.06189969907402992,-2.183693115848303,0.04922054250389337
1780506538210065000,5.27406494140625,0.13858312578201293,-1.8890338776916265,-0.6210501238778233
1780506538220056800,5.284056884765625,0.48199207406044003,-1.7919342704206704,-1.0240557549849152
1780506538230048800,5.294048828125,1.0864577775578945,-1.8747054926097393,-1.2957105496510863
1780506538240041700,5.304041748046875,1.8647768037915229,-1.7417191639214753,-1.3202017245680093
1780506538250034000,5.314033935546875,2.4608441698431966,-1.6499673474192618,-1.2336077292203902
1780506538260025900,5.32402587890625,1.9981904179811476,-1.7520663704127073,-1.2452324083015323
1780506538270018800,5.334018798828125,1.1836767003595827,-1.7906266949534415,-1.2494593783468007
1780506538280010800,5.3440107421875,0.2753739613197744,-1.924441875681281,-0.9610837505042552
1780506538290003000,5.3540029296875,-0.29346169893518087,-2.2942899180740115,-0.4804875147163868
1780506538299996000,5.363995849609375,-1.0959586694180965,-2.678217339223623,-0.01331160925477743
1780506538309987800,5.37398779296875,-1.3526492653168738,-2.9195021300673485,0.16107669714093206
1780506538319980000,5.38397998046875,-0.3940541167579591,-2.718863237866759,0.1302475513741374
1780506538329972700,5.39397265625,0.638867227858305,-2.2928093241274357,-0.5242433620736002
1780506538339965000,5.40396484375,0.9157762897908687,-1.534698461729288,-1.162460017068684
1780506538349956900,5.413956787109375,0.7053146533645689,-1.335135674327612,-1.1295888440802693
1780506538359949800,5.42394970703125,-0.5974817628942429,-1.2357248675048351,-1.0775304478019476
1780506538369941800,5.433941650390625,-2.1550820845223964,-0.9550707738250493,-1.1458359222650527
1780506538379934000,5.443933837890625,-2.122383783882856,-0.3596721008151769,-1.1957435702502728
1780506538389927000,5.453927001953125,-1.3590811980605124,0.015934651234745977,-1.5192276286140083
1780506538399918800,5.4639189453125,-0.27038696668744083,-0.02436813305914402,-2.046795458935201
1780506538409910800,5.473910888671875,-0.12938377415165303,-0.29501228937804697,-2.7097905813559886
1780506538419903700,5.48390380859375,-0.8903767678573727,-0.5333195257157087,-2.8001506512388588
1780506538429896000,5.49389599609375,-1.2625791182912884,-0.9976058472156524,-2.1864371538594365
1780506538439888000,5.503887939453125,-0.5571687494672835,-1.3081219951957463,-1.1039572669565676
1780506538449880800,5.513880859375,-0.18383651822060346,-1.4665040464252233,-0.7493328049197793
1780506538459872800,5.523872802734375,-0.2543044314146042,-1.4379033903628586,-1.1364625292420387
1780506538469865700,5.53386572265625,-0.24462825605273245,-1.0656623153537512,-1.24880822096169
1780506538479857700,5.543857666015625,-0.00395575188845396,-0.8426718906134366,-1.2111094816863537
1780506538489849900,5.553849853515625,-0.1408418644942343,-0.8635323078125715,-1.3884882020696996
1780506538499842800,5.5638427734375,-0.9158274354562163,-1.0644237134695052,-1.5228268221497534
1780506538509834800,5.573834716796875,-0.9271838189899921,-1.361762399968505,-1.335517659382522
1780506538519827000,5.583826904296875,-0.871137668249756,-1.5922738678634165,-1.1666890329405664
1780506538529819600,5.593819580078125,-0.9836275907456874,-1.6170838994711636,-1.315651513917744
1780506538539811800,5.603811767578125,-0.5315748740054667,-0.988868998530507,-1.3658748037233948
1780506538549803800,5.6138037109375,1.0383478997096418,0.16996669056117533,-1.1775763376578687
1780506538559796700,5.623796630859375,1.796669336118549,1.6873878542751073,-1.1240993067532776
1780506538569789200,5.6337890625,1.5137988815635441,3.761759594660997,-1.3282988140448928
1780506538579781000,5.643781005859375,0.45593525726199147,5.43742427791655,-1.3916846600234507
1780506538589774000,5.653774169921875,0.5295163340404629,6.468890893679857,-0.8750622943475842
1780506538599766000,5.66376611328125,0.8527879186972975,6.965186218380928,-0.5226645684495568
1780506538609758200,5.67375830078125,1.205994622890651,6.903710297676921,-0.511994413614273
1780506538619751000,5.6837509765625,1.598007735340297,6.70150605585575,-0.3319856369882822
1780506538629743000,5.6937431640625,1.3081903842568396,6.149641988667845,0.011325403873622417
1780506538639735000,5.703735107421875,0.8962237403199076,5.360343376323581,1.605954602691531
1780506538649728000,5.71372802734375,0.8145882441624999,4.694521506044269,2.9216724598437547
1780506538659720200,5.72372021484375,0.6083858726158737,4.269260788509249,2.649755507110059
1780506538669712100,5.733712158203125,0.6899503493636846,4.116927369794249,1.8414599333509802
1780506538679705000,5.743705078125,1.0826344929426908,3.9257770214289422,0.9344199077233671
1780506538689697000,5.753697021484375,1.6076020776376128,3.4832261463969942,0.5671925692230463
1780506538699690000,5.76368994140625,1.0739081656515597,2.9663381155222655,-0.02185498119443655
1780506538709682000,5.773681884765625,0.5719838951528072,2.372746199673414,-0.21148206551522014
1780506538719674000,5.783674072265625,0.15331366192400456,1.8670956021279095,-0.03553483923971653
1780506538729667000,5.7936669921875,-0.23341654168665407,1.4359960954368114,0.06503565901219845
1780506538739659000,5.803658935546875,-0.13715513880550861,1.085838257420063,0.44592882703244685
1780506538749651200,5.813651123046875,-0.42553836543262,0.8110188612431287,0.9078016576498746
1780506538759644000,5.823643798828125,-0.536359039542079,0.652739101344347,1.5765098970204592
1780506538769636000,5.833635986328125,-0.5264020014122128,0.3807674958139658,2.422123686304688
1780506538779628000,5.8436279296875,-0.6313835941046476,-0.21661562901139259,3.069190294970572
1780506538789621000,5.85362109375,-0.8416606677442788,-0.878837428972125,3.474045061075687
1780506538799613000,5.863613037109375,-0.9574509469598531,-1.4164140276104211,3.8409745856732127
1780506538809605000,5.873605224609375,-0.9538286648094654,-1.9380963070243595,4.060768552459776
1780506538819598000,5.88359814453125,-0.9282698606610298,-2.4339585010051725,4.13972635384053
1780506538829590000,5.893590087890625,-0.8622916601017117,-2.7001398326963186,4.064799415411055
1780506538839582000,5.90358203125,-0.8811866224467754,-2.650212895488739,3.8676816830739376
1780506538849575200,5.9135751953125,-1.0116156678676604,-2.487759649297595,3.4577281325250864
1780506538859567000,5.923567138671875,-1.268030515564978,-2.1848411168396473,3.0281404917016626
1780506538869559000,5.93355908203125,-1.3160709083735942,-2.014090582424402,2.5042805759876967
1780506538879552000,5.943552001953125,-1.3338041334629058,-2.113539967691898,2.0635572086438536
1780506538889544000,5.9535439453125,-1.3729255990177391,-2.3080074777811763,1.9206255322635173
1780506538899536100,5.9635361328125,-1.2979337786585092,-2.535580554136634,1.8135002055406568
1780506538909529000,5.973529052734375,-1.1660983735710382,-2.5466215881109235,1.5081357412353158
1780506538919521000,5.98352099609375,-0.8637742998749017,-2.4960259578615425,0.9542553657889365
1780506538929513000,5.993512939453125,-0.7926157740682364,-2.3349346476733683,0.786096309171617
1780506538939506200,6.003506103515625,-0.4658820662587881,-2.2475515477746724,0.8601496796369552
1780506538949498000,6.013498046875,-0.038050621452927584,-1.9141314940690992,0.8313041089028119
1780506538959491000,6.023490966796875,-0.05560585962682962,-1.5721125388443469,0.7177808978363871
1780506538969483300,6.033483154296875,-0.07092413252890109,-1.352612294307351,0.2558896547794342
1780506538979475000,6.043474853515625,0.20940672054588794,-0.9927139835208654,-0.2802855526283383
1780506538989468200,6.05346826171875,0.7806663930773735,-0.4149158491313457,-0.6650678370416164
1780506538999460000,6.063460205078125,1.2906184872090816,-0.28861703538298605,-1.2847329363018274
1780506539009452000,6.0734521484375,1.6848863928481936,-0.3482809382289648,-1.9138351414710282
1780506539019445200,6.0834453125,2.155883902424574,-0.4258709583878517,-2.2513836732834576
1780506539029437200,6.093437255859375,2.2533801077976823,-0.4092629379361868,-2.421018355411291
1780506539039429000,6.10342919921875,2.055075503763556,-0.41265374941825866,-2.255441716502607
1780506539049422000,6.113422119140625,2.0035157046571372,-0.48219957933127877,-1.711511949445307
1780506539059414300,6.123414306640625,1.837411242482066,-0.6002981354892254,-1.1850605559334157
1780506539069406000,6.133406005859375,1.4718538830205796,-0.7121037289828062,-0.9133098996773361
1780506539079399200,6.143399169921875,1.1908031912386416,-0.876694571724534,-0.7185279168114066
1780506539089391000,6.15339111328125,0.9275953224003315,-1.3020938209474087,-0.5169494056731462
1780506539099383000,6.163383056640625,0.8441977850064635,-1.8966075278162955,-0.06798924812078476
1780506539109376300,6.173376220703125,1.1860682716712354,-2.2784879533082245,0.3670633801102638
1780506539119368200,6.1833681640625,1.7240943676427005,-2.33825122487545,0.5984834872826934
1780506539129360100,6.193360107421875,2.0695184551358223,-2.1760113291740417,0.6544008970767259
1780506539139353000,6.20335302734375,2.2212495240435004,-2.15022163887918,0.4839309331685304
1780506539149345300,6.21334521484375,2.2977748375803233,-2.3478274469941853,-0.26362054129242896
1780506539159337000,6.2233369140625,2.3589576205566525,-2.3706752386182544,-0.9446046171292662
1780506539169330200,6.233330078125,2.133045170889795,-2.385896773147583,-1.4897157029256223
1780506539179322000,6.243322021484375,1.8299428062975405,-2.3571797972291706,-1.7128227397829294
1780506539189315000,6.253315185546875,2.08665225302726,-2.064063696861267,-1.4826453261479735
1780506539199307000,6.26330712890625,2.493352646999061,-1.7404501668989658,-1.2027566638827323
1780506539209299200,6.27329931640625,2.5079981352061034,-1.6834738957017659,-1.0339718765825032
1780506539219292200,6.283292236328125,2.929260430754721,-1.6300345664590596,-0.6962687387302517
1780506539229284000,6.2932841796875,2.9339313451752065,-1.5066308896303175,-0.39070261437296866
1780506539239276300,6.3032763671875,2.25301609679088,-1.4083926337182522,-0.2405740122258663
1780506539249269000,6.31326904296875,3.077946432878077,-1.0328297208100556,0.3578127366840839
1780506539259261200,6.32326123046875,3.7389293386936187,0.44700025565624235,1.273765552085638
1780506539269253000,6.333253173828125,1.0174565028503537,2.5577503003686664,0.8123141617506742
1780506539279246000,6.34324609375,-2.661952433121204,4.8095770412445065,0.4311562053143978
1780506539289238000,6.353238037109375,-2.4470213961958884,7.85366942757666,2.942323325945437
1780506539299230200,6.363230224609375,-2.3422237817682325,10.026163688540459,5.271566191717982
1780506539309223200,6.37322314453125,-8.497520873588323,7.906043757936358,3.430799793589115
1780506539319215000,6.383215087890625,-7.360165194898843,4.022901178619265,1.753965482032299
1780506539329207300,6.393207275390625,-3.4023066895544525,2.457695350423455,0.44949879447370766
1780506539339200000,6.403199951171875,-2.2283695851817726,1.6660475446045397,-0.45303544416725633
1780506539349192200,6.413192138671875,-1.8139808286644516,1.4920441458731888,-1.3221148647129535
1780506539359184100,6.42318408203125,-0.4667781383156776,2.991924392199516,-2.163326911906898
1780506539369177000,6.433177001953125,0.9949275679171085,4.263352441248298,-2.6454239076465367
1780506539379169000,6.4431689453125,-0.958454571044445,4.397387402206659,-2.169161901670694
1780506539389161200,6.4531611328125,-2.751350087712705,3.7995623788326975,-0.49622167494297026
1780506539399154200,6.463154296875,-2.7799826002180574,2.9422108054816722,0.8894859564974904
1780506539409146000,6.47314599609375,-2.7880174381136893,2.292647996085882,1.4971081512644886
1780506539419138300,6.48313818359375,-2.0850668835319577,2.0747563557893036,2.2593378471583128
1780506539429131000,6.493131103515625,-1.466309839027375,2.1189134774237868,2.9081682506263253
1780506539439123200,6.503123291015625,-1.7182151003457604,2.5393279239714146,2.840862893116474
1780506539449115100,6.513115234375,-1.7988113165833055,2.806539183232188,2.430798283408582
1780506539459108000,6.523108154296875,-1.3643864648617803,2.7428800732702014,1.4817442856550216
1780506539469100000,6.53310009765625,-1.0216086540937424,2.575286541581154,0.7381131995081901
1780506539479093000,6.543093017578125,-0.9537984158016741,1.9641332500785589,0.17277531824111939
1780506539489085200,6.553085205078125,-0.8832640132427215,1.042946625676751,-0.45579467974752186
1780506539499077000,6.5630771484375,-0.5044739549815654,0.17862638235688208,-0.6663970398187637
1780506539509070000,6.573070068359375,-0.419739177634567,-0.5367763881713151,-0.7154422257557511
1780506539519062000,6.58306201171875,-0.5451647156797349,-1.2370511476725339,-0.7438888603001833
1780506539529054200,6.59305419921875,-0.5836297631524503,-1.8637299250870942,-0.7852396923422813
1780506539539047000,6.603046875,-0.5556488464236259,-2.216024775132537,-0.8525167005404829
1780506539549039000,6.6130390625,-0.6652466276746243,-2.4282816244125365,-0.868615310165286
1780506539559031000,6.623031005859375,-0.641304684138298,-2.472853756588697,-0.9023387160688638
1780506539569024000,6.63302392578125,-0.4654736315883696,-2.3636522081136704,-0.8399798750504851
1780506539579018800,6.643018798828125,-0.08417707039900124,-2.1438293074935673,-0.6988932420149445
1780506539589010700,6.6530107421875,0.2550631408274174,-1.9071949728041886,-0.5185501188680529
1780506539599004000,6.66300390625,0.4538322205681354,-1.7989561318814753,-0.44816871491372584
1780506539608995800,6.672995849609375,0.6254816765844822,-1.8091256437182426,-0.4035492364645004
1780506539618987800,6.68298779296875,0.7023918247204274,-1.825779256877303,-0.39226474912315606
1780506539628981000,6.69298095703125,0.614230872317031,-1.839481619015336,-0.37605800294876096
1780506539638972700,6.70297265625,0.47364751262851057,-2.0514584823101756,-0.3715881640583277
1780506539648964900,6.71296484375,0.24296127268858253,-2.3827269109398124,-0.3280304696217179
1780506539658957800,6.722957763671875,-0.09868022752590477,-2.860626747250557,-0.22195172934234142
1780506539668949800,6.73294970703125,-0.4566671517331153,-3.2694109617590903,-0.0513040707796812
1780506539678941700,6.742941650390625,-0.6125135470051318,-3.608023907932639,0.06968816099315882
1780506539688935000,6.752934814453125,-0.6556547695953399,-3.8509360077172516,0.22225801881253718
1780506539698926800,6.7629267578125,-0.4859691609978676,-4.120367865636944,0.42887335507422686
1780506539708918800,6.772918701171875,-0.3287141410369426,-4.2193636619180435,0.629167379359901
1780506539718912000,6.782912109375,0.05572239867858588,-4.138195198750496,0.736475953695178
1780506539728903700,6.792903564453125,0.7006722343862056,-3.7594723605066536,0.5200581853434443
1780506539738897000,6.80289697265625,0.5491127957183868,-2.917008559685945,0.09717413381189108
1780506539748888800,6.812888916015625,-0.0072737903952598566,-1.807367986395955,-0.3449140921443701
1780506539758880800,6.822880859375,0.07141798046045005,-0.5506313105225563,-0.8224754902809858
1780506539768874000,6.8328740234375,0.5578957485675812,0.6207943955510854,-1.5417355207592247
1780506539778866000,6.842865966796875,0.7630944960296153,1.2070458855092525,-2.437607378901541
1780506539788857900,6.85285791015625,0.7981891172211617,1.1627344500958918,-3.0741791892990467
1780506539798850800,6.862850830078125,0.676893737783283,0.8665092777967452,-3.3511808979511257
1780506539808843000,6.872843017578125,-0.07729600564837455,0.41852527180016036,-3.1810052408143874
1780506539818834700,6.882834716796875,-0.7957575792253017,-0.8684031287193298,-2.2965900117099283
1780506539828828000,6.892827880859375,-0.9820574188195168,-2.7090876937836406,-1.1132882821425796
1780506539838819800,6.90281982421875,-1.2005800504960118,-4.0321471458703275,-0.03504939381033182
1780506539848811800,6.912811767578125,-1.5295464857935905,-4.728657584401965,0.34279461577236653
1780506539858805000,6.922804931640625,-1.3612265395261347,-4.709431490406394,0.016385317611694334
1780506539868797000,6.932796875,-0.5618995773814618,-4.428577490240335,-0.6792308024287224
1780506539878788900,6.942788818359375,-0.205827693015337,-3.1178882749050856,-1.5412141272336244
1780506539888781800,6.95278173828125,-0.4693769226372242,-1.4108306745201349,-2.2896511523574588
1780506539898774000,6.96277392578125,-0.7890215489685535,0.1791921995460987,-2.6910110620841383
1780506539908765700,6.972765625,-1.1941149461351335,1.4042998114466667,-2.9998689214631913
1780506539918759000,6.982759033203125,-1.1562975489161909,2.1175047796696425,-3.0445038897424936
1780506539928750800,6.992750732421875,-0.7357118374548852,2.3541402834028005,-2.618096924781799
1780506539938742800,7.00274267578125,0.13435586347579956,2.3609435336768625,-2.087935570836067
1780506539948735700,7.01273583984375,0.5114847105264664,2.322221296572685,-1.834874709741771
1780506539958728000,7.02272802734375,0.3583167406834662,2.4304899481117723,-1.5370020624965428
1780506539968719600,7.0327197265625,1.4658549348667262,2.847457469075918,-0.880168969836831
1780506539978712800,7.042712890625,3.460050437992811,3.6555624886989593,-0.4296431704029441
1780506539988705000,7.052705078125,3.351708428956568,4.759430908328294,-0.9439213110402226
1780506539998696700,7.06269677734375,2.570802966426313,5.832723572430014,-1.5382970707431434
1780506540008690000,7.07268994140625,2.1111609636008737,6.48328240712583,-1.4236749585241077
1780506540018681900,7.082681884765625,1.6588085332617162,6.515640369895101,-0.9370447032690048
1780506540028673800,7.092673828125,0.6737637691944837,5.9103065783262245,-0.31231121470332146
1780506540038666800,7.102666748046875,0.3062628744497895,5.236839746251702,0.49502223602533335
1780506540048659000,7.112658935546875,1.075951946438849,4.543962111264467,0.9089055272385478
1780506540058650600,7.122650634765625,0.9164967130199074,4.624109999212623,1.1015069511950015
1780506540068643800,7.132643798828125,0.634907676577568,4.7172599920749665,0.7770622311055659
1780506540078636000,7.142635986328125,0.49894087077379223,4.400837834921479,-0.35678953111618755
1780506540088628700,7.152628662109375,0.43489130018949507,3.5892777064085006,-1.3856103085458278
1780506540098621000,7.162620849609375,0.5613140325784682,2.645088976603746,-1.7478394003674387
1780506540108612900,7.17261279296875,0.0990922423928976,1.9126415477722882,-1.0279948479995131
1780506540118605800,7.182605712890625,-0.3441480762079358,1.4056068023920059,-0.25132249299436804
1780506540128597800,7.19259765625,-0.3771943135023117,1.40233523337543,0.35073329981714485
1780506540138590000,7.20258984375,-0.5067772634878754,1.7544266698032616,0.8012786807343363
1780506540148583000,7.2125830078125,-0.6972507355049252,1.7767396238982676,1.544543856178224
1780506540158574800,7.222574951171875,-0.8217001219943165,1.3640408662945032,2.5193890055313704
1780506540168567000,7.232567138671875,-0.8063891556158661,0.6705109048783778,3.449770451518893
1780506540178559700,7.242559814453125,-0.6418687477618455,-0.11461012952029705,4.128459109894931
1780506540188552000,7.252552001953125,-0.5787564580276608,-0.9674491938829421,4.575405881798267
1780506540198544000,7.2625439453125,-0.7996051945641637,-1.679973194104433,4.481240866674483
1780506540208536800,7.272536865234375,-0.7717161939024925,-2.304963287779689,4.237221390169859
1780506540218528800,7.28252880859375,-0.7271814711272716,-2.615404616957903,3.693900110399723
1780506540228521000,7.29252099609375,-0.7091402030020951,-2.4118957222789525,3.011735008084774
1780506540238514000,7.302513916015625,-0.8126859176725149,-2.0133406408399344,2.3406483491450545
1780506540248505900,7.312505859375,-0.993856139293313,-1.5784353121250867,1.6587974273458121
1780506540258497800,7.322497802734375,-1.130975037741661,-1.4395622634857892,1.3372083889484405
1780506540268490800,7.33249072265625,-1.4699439577460287,-1.6641379115909336,1.4416989832535385
1780506540278483000,7.34248291015625,-1.7368524346679448,-2.1800340088188648,1.7052447057440876
1780506540288475000,7.352474853515625,-1.8275182094991207,-2.6793296843796965,1.863871963906288
1780506540298467800,7.3624677734375,-1.755498682948947,-2.9009733706861733,2.1181690887972713
1780506540308459800,7.372459716796875,-1.6953198163181542,-3.042012657448649,2.36305599578619
1780506540318452000,7.382451904296875,-1.768637565985322,-3.0899229941368103,2.533873165696859
1780506540328444700,7.392444580078125,-1.7137439462810753,-2.8749428573727607,2.6406094931021333
1780506540338436900,7.402436767578125,-1.3953665634065866,-2.3495482794374225,2.7081691176339984
1780506540348428800,7.4124287109375,-1.0456561768963932,-1.624461150240898,2.5829127986758946
1780506540358421800,7.422421875,-0.6801824040651321,-1.0338912125617266,2.211852457883954
1780506540368414000,7.4324140625,-0.527201627357304,-0.5728939957350492,1.335721073000133
1780506540378406000,7.442406005859375,-0.04781710544675588,0.22638883500695228,0.31885552178025245
1780506540388398800,7.45239892578125,1.0579182770982385,0.7375012050896883,-0.8952245001494884
1780506540398390800,7.462390869140625,1.6973600899741053,0.6384224067002534,-2.5177754328548905
1780506540408383000,7.472383056640625,2.1011817136391997,0.5552548786699771,-3.4911540167868136
1780506540418375700,7.482375732421875,2.525021750721335,0.27984686895012856,-3.914345819093287
1780506540428368000,7.492367919921875,2.6467686002537607,-0.017617489755153655,-3.788047589866817
1780506540438359800,7.50235986328125,2.3806468897953628,-0.20300445228815078,-3.2355157064199447
1780506540448352800,7.512352783203125,1.9803575319096445,-0.35771161439716814,-2.4979189320012924
1780506540458345000,7.522344970703125,1.536928997260332,-0.6882382847487926,-1.8811565684452651
1780506540468337000,7.5323369140625,1.2446312275379896,-1.1107891588032246,-1.2368556251004337
1780506540478329900,7.542329833984375,1.221940964563191,-1.4645377147883176,-0.6108876263037324
1780506540488321800,7.55232177734375,1.3822516457676888,-1.5836644449502228,-0.0024985388174653053
1780506540498314800,7.562314697265625,1.7886536413148044,-1.6711697099238634,0.31584932570159435
1780506540508306700,7.572306640625,2.248810607925057,-1.723207355675101,0.3228279325425625
1780506540518299000,7.582298828125,2.3918711713820695,-1.8597832332879303,0.08983867635726928
1780506540528291800,7.592291748046875,2.382651507616043,-2.245450191581249,-0.36616906161904333
1780506540538283800,7.60228369140625,2.126742563614249,-2.56005623922348,-0.7927578128874302
1780506540548276000,7.61227587890625,2.100079305355251,-3.2070126655131577,-1.4017933815836905
1780506540558268700,7.6222685546875,2.0262775715634227,-3.430173186123371,-1.6737380991071462
1780506540568260900,7.6322607421875,1.6933531924203038,-3.2449352766722437,-0.887114258930087
1780506540578249700,7.642249755859375,1.402254861615598,-3.2670927479445933,-0.4914829559832811
1780506540588242700,7.65224267578125,0.6160051154479385,-3.9774937646627424,-0.5910591825008392
1780506540598234600,7.662234619140625,0.1604246629729867,-4.171242897349596,-0.17319354365319012
1780506540608226800,7.672226806640625,0.15618687927275895,-4.0795033558070655,0.3898036197066307
1780506540618219500,7.682219482421875,1.0285434217929839,-3.5768361579865213,0.9847840673044324
1780506540628211700,7.692211669921875,1.7999872284948826,-2.4109821145653725,0.9437237426415085
1780506540638203600,7.70220361328125,3.078669194194674,0.1573497855722904,1.496482712842524
1780506540648196600,7.712196533203125,1.8503136864140628,3.2340012102037665,0.14685264921635388
1780506540658188500,7.7221884765625,-1.6476885888323187,5.879083172544837,-2.1645380412623285
1780506540668180700,7.7321806640625,-3.993880543579161,8.672684548270702,-2.154980231583118
1780506540678173700,7.742173583984375,-3.3466084754690524,10.738787057483195,0.22384762609153985
1780506540688165600,7.75216552734375,-5.101487272953987,8.139471990060805,1.9466624753177164
1780506540698157600,7.762157470703125,-3.4536695047840476,3.53148135100007,2.8451781259670854
1780506540708150500,7.772150634765625,0.5728700303375721,2.4970021094173194,3.006729162621498
1780506540718142700,7.782142822265625,0.19859715723991392,3.8855397035866974,1.1559852680966258
1780506540728134700,7.792134765625,-0.13575403983592987,5.266980617493391,-0.38487054721862074
1780506540738127600,7.802127685546875,0.9021990153372287,6.129219962885975,-1.2522978166431187
1780506540748119600,7.81211962890625,0.47504766175001856,5.714245077043771,-1.9181866146788
1780506540758111700,7.82211181640625,-1.1811924823284148,4.272586133539677,-1.3931450879648326
1780506540768104400,7.8321044921875,-3.909455124442279,2.037716957205534,-0.09297902020961046
1780506540778096600,7.8420966796875,-4.963084179913998,-0.32265199145376683,0.5677636471092701
1780506540788088600,7.852088623046875,-3.9498806583330035,-1.6929712073653935,0.8053653655260801
1780506540798081500,7.86208154296875,-3.4114760844379663,-2.183694869413972,0.4877002225741744
1780506540808073700,7.87207373046875,-2.482754388356209,-1.2655267160505055,0.14892273348867893
1780506540818065700,7.882065673828125,-1.473471401219815,0.98955347366333,-0.06059007778018713
1780506540828058600,7.89205859375,-0.7963315797209739,2.9514433287292716,-0.7940241795614361
1780506540838050600,7.902050537109375,-0.9934893518075346,4.342336546114087,-1.7769044590711593
1780506540848042800,7.912042724609375,-1.3059816221661864,4.499209946346283,-2.300937685525417
1780506540858035500,7.922035400390625,-1.0201485184133052,3.4888562612384555,-2.0468656015619633
1780506540868027600,7.932027587890625,-0.7951461693286895,2.43627613029778,-1.1477481856271623
1780506540878019600,7.94201953125,-1.0154581686399877,1.1102584129273891,-0.1842573739811778
1780506540888012500,7.952012451171875,-0.8565675833664834,-0.46722997373640535,0.4974275436013937
1780506540898004700,7.962004638671875,-0.4448736188910901,-1.6867255909740924,1.2454130255654454
1780506540907996700,7.97199658203125,-0.21736147894263266,-2.513634095266461,2.000398157158494
1780506540917989600,7.98198974609375,-0.024034371060132977,-2.870917255118489,2.7063486242085695
1780506540927981600,7.991981689453125,0.058876551860570905,-3.0030893448144194,2.8958959212914106
1780506540937973800,8.001973876953125,0.010014029014110564,-3.043494420439005,2.4604025635555384
1780506540947966500,8.011966552734375,-0.04661788572482765,-2.722175723415613,2.0009493613004685
1780506540957958700,8.021958740234375,0.21485154194831846,-2.2374375655174252,1.6602368124991653
1780506540967950600,8.03195068359375,0.4869838909983635,-1.6047522411644457,1.2245900177672504
1780506540977943600,8.041943603515625,0.44138292723111805,-1.2696861738175154,0.5519505764275789
1780506540987935700,8.051935791015625,0.22324761437177656,-0.9224544523805379,-0.3209194685727358
1780506540997927700,8.061927734375,0.4954172997575253,-0.4619523255944252,-1.0411074275508523
1780506541007920600,8.071920654296875,1.0394997000932693,-0.07701894227266311,-1.4225804412856697
1780506541017912600,8.08191259765625,1.305944651156664,0.21647008306086063,-1.711131425695121
1780506541027904800,8.09190478515625,1.2708546330749988,0.2992635170817375,-2.0085548678681255
1780506541037897500,8.1018974609375,0.8481202922124416,0.00443242948949337,-2.1586834700152275
1780506541047889700,8.1118896484375,0.4556080711342394,-0.6604477760255336,-1.9919898097753523
1780506541057881600,8.121881591796875,0.47117725005745886,-1.2745125710606575,-1.5506602932319045
1780506541067874600,8.13187451171875,0.6932710182189941,-1.738355240446329,-1.1120391588643193
1780506541077866500,8.141866455078125,0.5800256011806428,-2.038492617753148,-0.7810518852636218
1780506541087858700,8.151858642578125,0.2606932556688785,-2.335406941360235,-0.3527209665030241
1780506541097851600,8.1618515625,0.008752630776166915,-2.5135224515855312,0.25591391243785616
1780506541107843600,8.171843505859375,-0.2856475180529058,-2.7246283772647377,0.5949132275804877
1780506541117835800,8.181835693359375,-0.3014965368308127,-2.9889614507406947,0.7563309932440518
1780506541127828500,8.191828369140625,-0.9014801995433867,-3.14063319067657,0.7088780449345707
1780506541137820700,8.201820556640625,-1.1076470613852143,-3.225432703822851,0.6376356402367354
1780506541147813600,8.211813720703125,-0.9648667761743068,-3.148338942748308,0.6543029896602034
1780506541157805600,8.2218056640625,-0.49329775032028556,-2.888769138151407,0.8962842383354902
1780506541167797500,8.231797607421875,-0.3312777809798717,-2.256517529040575,1.2931234557673335
1780506541177790700,8.241790771484375,-0.26610826645493507,-1.659267675206065,1.4185525009438396
1780506541187782700,8.25178271484375,-0.4680196628093719,-0.7890127811402082,0.6217535959720611
1780506541197774600,8.261774658203125,-0.5021931505680084,-0.1370335582524538,-0.4938511464193463
1780506541207766800,8.271766845703125,-0.42301045439019797,-0.049396191331744194,-1.2727557905212044
1780506541217759500,8.281759521484375,-0.13794731209650635,-0.012742577195167542,-1.6931348734945058
1780506541227751700,8.291751708984375,-0.661260261452198,-0.3018126170426607,-2.0260075224503873
1780506541237744600,8.30174462890625,-0.7746341271758079,-0.7710837412178516,-2.0657059111103413
1780506541247736600,8.311736572265625,-0.31615240030139685,-1.0696540153384209,-1.917101157529652
1780506541257728500,8.321728515625,0.09943681804686784,-1.2372592374652622,-2.0246052544370294
1780506541267721700,8.3317216796875,0.18052447106316685,-1.581113006901741,-2.549709032732248
1780506541277713700,8.341713623046875,-0.07949000856131315,-1.7054893281549215,-2.8052450517684218
1780506541287705600,8.35170556640625,-0.5270724480196833,-1.6175445027202366,-2.4669658675938844
1780506541297698800,8.36169873046875,-0.46189621149301524,-1.6456068141222,-2.073332752726972
1780506541307690500,8.3716904296875,-0.00026771102547645565,-1.5487328323006628,-2.1334964217886325
1780506541317682700,8.3816826171875,0.36918197969943284,-1.186559562319517,-2.6023387991577387
1780506541327675600,8.391675537109375,-0.031055794129520652,-0.7692454198747873,-2.926538020053506
1780506541337667600,8.40166748046875,-0.04865443305373192,-0.40431496013998985,-2.5833374538287517
1780506541347659500,8.411659423828125,0.3657902914345264,0.23379589639306067,-2.020932118882239
1780506541357652700,8.42165283203125,0.7232946928218007,1.0506225671321152,-1.6686743859767912
1780506541367644700,8.431644775390625,1.044332527077198,1.7387223201930522,-1.1929431258767842
1780506541377636600,8.44163671875,1.7422937489390373,2.5500813731759786,-0.35372196023911234
1780506541387629800,8.4516298828125,2.1372636653676627,3.3345535882771014,0.5975207797303795
1780506541397621500,8.46162158203125,1.798303805452585,4.228205724543333,0.7623112366974353
1780506541407613700,8.47161376953125,1.3462626330196856,5.657642899855971,0.8359893441095948
1780506541417606700,8.481606689453125,1.0820341889619827,6.575014934405684,0.829077080503106
1780506541427598600,8.4915986328125,1.0246747636660933,6.570225362041592,0.4182654518201947
1780506541437590500,8.501590576171875,0.555600331106782,6.3226657287120815,0.1306391810402274
1780506541447583700,8.511583740234375,0.10516367126107215,5.1886067534804345,0.08537409816384316
1780506541457575700,8.52157568359375,0.6483049182891846,4.5055566850245,0.39553018065989015
1780506541467567600,8.531567626953125,1.799340747284889,4.833807811659574,0.893516819448769
1780506541477560800,8.541560791015625,1.523528832939267,4.961940855097771,0.9600295652762055
1780506541487552800,8.551552734375,0.5023363584309816,4.280903880029917,0.7956316147580742
1780506541497544700,8.561544677734375,0.2800239790827036,3.3040637574672695,0.4854056818962097
1780506541507537700,8.57153759765625,0.39470395896881816,2.4041654202878475,-0.2679527252778411
1780506541517529600,8.581529541015625,0.4454559488236904,2.0234154601305723,-0.8665496098071336
1780506541527521500,8.591521484375,0.39835955886691804,1.9783096594691276,-0.8163944168016314
1780506541537514800,8.6015146484375,0.2031827314645052,1.7323504470735787,-0.35724867306053637
1780506541547506700,8.611506591796875,-0.20465631114840507,1.544361193087697,0.5394888620004058
1780506541557498600,8.62149853515625,-0.48398178657293317,1.2105834119856358,1.7023919466614723
1780506541567491800,8.631491943359375,-0.5441664984226227,0.6430921520769596,2.841881130248308
1780506541577484300,8.641484375,-0.7145277412593364,-0.11534487353563308,3.726630705873668
1780506541587476200,8.651476318359375,-0.9957648955240845,-0.880217485153675,4.207161475209891
1780506541597469400,8.661469482421875,-1.19049836307317,-1.511732596683502,4.335048142671585
1780506541607461000,8.671461181640625,-1.277525196880102,-1.9718290652781725,4.394325384287536
1780506541617453300,8.681453369140625,-1.2701768799439073,-2.403679682597518,4.3392265974000095
1780506541627446300,8.6914462890625,-1.2348328871011733,-2.683926949042082,3.9438299799919125
1780506541637438200,8.701438232421875,-1.2075783849507569,-2.776753116777539,3.2776234943091866
1780506541647430100,8.71143017578125,-1.2842723330527543,-2.603412565869093,2.476635905475914
1780506541657423400,8.72142333984375,-1.4415049219861626,-2.326020688855648,1.8580086248308418
1780506541667415300,8.731415283203125,-1.6636515893787145,-2.208383320468664,1.4974121026471257
1780506541677407200,8.7414072265625,-1.8801257640928029,-2.331249821680784,1.151713874387741
1780506541687400400,8.751400390625,-1.9824089114814996,-2.5925790371656414,0.8859382008880377
1780506541697392000,8.76139208984375,-1.9466426015734672,-2.977511835965514,0.7515528190568089
1780506541707384300,8.77138427734375,-1.9167361236095428,-3.38390418690145,0.7520663215368986
1780506541717377300,8.781377197265625,-1.7675374957889318,-3.704789753204584,0.9884124869346618
1780506541727369200,8.791369140625,-1.3971259742945432,-3.8177018466353414,1.2842416456535457
1780506541737361200,8.801361083984375,-1.0608692358583212,-3.715952952253818,1.4204440137788652
1780506541747354400,8.811354248046875,-1.1565247818008064,-3.295015943136811,1.046013027510047
1780506541757346300,8.82134619140625,-0.7783736059650779,-2.3876035770654678,0.6836857360109686
1780506541767338200,8.831338134765625,-0.12026450202018021,-1.4998276393562555,0.2142515302285552
1780506541777331500,8.84133154296875,0.7070636889889836,-0.8008668850630521,-0.5358399841040372
1780506541787323100,8.8513232421875,1.545269247843325,-0.27786943139731884,-1.286156539364159
1780506541797315300,8.8613154296875,2.0638743117690086,-0.06056991177499294,-1.9461480960547923
1780506541807307300,8.871307373046875,2.1782827812373635,-0.03146130619049072,-2.2697511046230794
1780506541817300200,8.88130029296875,2.265722872020304,-0.33224750279486176,-2.1497052137896415
1780506541827292200,8.891292236328125,2.1095576200574637,-0.8824725706040859,-1.8873460707351564
1780506541837285400,8.901285400390625,1.7867106905534862,-1.3167068681895733,-1.446824947965145
1780506541847277300,8.91127734375,1.5032111443147063,-1.7893150278329848,-1.048293831923604
1780506541857269200,8.921269287109375,1.195772796344757,-2.3248709342986342,-0.7426701321601867
1780506541867261400,8.931261474609375,0.9576268880486488,-2.8477999989032745,-0.3356967664659023
1780506541877254100,8.941254150390625,0.9225912305027246,-3.067908146205544,0.15046704032123087
1780506541887246300,8.951246337890625,1.3517913333132863,-2.8070143995285033,0.6234533856272697
1780506541897238300,8.96123828125,1.8316788363099097,-2.4360014050096273,0.8495335930764675
1780506541907231200,8.971231201171875,2.1811326177105306,-2.101082052657008,0.9158774120777845
1780506541917223200,8.98122314453125,2.851473134458065,-1.728004526823759,0.7474693491354584
1780506541927215400,8.99121533203125,3.4227728467389937,-1.4534808987230061,0.334145737631619
1780506541937208000,9.0012080078125,3.469870113478601,-1.3430436709731817,-0.24836948840767142
1780506541947200300,9.0112001953125,3.161334325660765,-1.5408412022680043,-1.0593076856300234
1780506541957192200,9.021192138671875,3.0996736960396167,-1.9303958156496286,-1.6366367412030696
1780506541967185200,9.03118505859375,3.915731428232789,-2.1699691264003516,-1.8119430392265319
1780506541977177300,9.04117724609375,4.407617704319954,-1.2033686583012342,-1.6467121450155973
1780506541987169300,9.051169189453125,3.9543654025316237,0.34766485215723514,-1.760181287807226
1780506541997162200,9.061162353515625,4.0647418400049204,3.0137481014728547,-1.2305556481733917
1780506542007154200,9.071154296875,1.3301412270411848,6.310169819754361,-1.3007841996535658
1780506542017146400,9.081146484375,-4.469962809073925,9.390555754739045,-0.9156345432326197
1780506542027139000,9.09113916015625,-6.398259606617689,11.008827987211943,2.002534584665298
1780506542037131300,9.10113134765625,-2.7049092390552163,8.429816872149706,4.29039914586693
1780506542047123200,9.111123291015625,-2.5805814331188794,3.0346102722376584,2.9169781645476816
1780506542057116200,9.1211162109375,-5.470928488111496,0.9717390000313519,2.1896277665942905
1780506542067108400,9.1311083984375,-2.795795378638804,1.4877911646038293,1.8768512724667787
1780506542077100300,9.141100341796875,-0.5361152939140796,3.8793899487853047,-1.1970379939749836
1780506542087093200,9.15109326171875,0.7059355617418884,5.928841182926297,-5.146202612993121
1780506542097085200,9.161085205078125,2.251177629317343,5.450708706903457,-6.768327429240942
1780506542107077400,9.171077392578125,0.381958751425147,3.470491167986393,-5.789774073019624
1780506542117070000,9.181070068359375,-4.469280379767715,1.9912597419351339,-2.4242417013719675
1780506542127062300,9.191062255859375,-5.784247418552637,1.1308470274478197,0.7524407078072428
1780506542137054200,9.20105419921875,-4.427547270409763,0.3887748611807823,1.7642776172101498
1780506542147047200,9.211047119140625,-2.9490473735034466,0.551573559808731,1.5746455644533037
1780506542157039400,9.221039306640625,-2.42490805632621,1.504334303125739,1.3411013047337532
1780506542167031300,9.23103125,-2.3951985622391105,2.7434879760354756,1.4577806417435406
1780506542177024300,9.241024169921875,-1.548513198200613,3.9976895804733035,1.909348059184849
1780506542187016200,9.25101611328125,-1.1719991220474242,4.2931694873631,1.511382175810635
1780506542197008400,9.26100830078125,-1.379822665055096,3.778901283597946,0.6885244082137942
1780506542207001000,9.2710009765625,-1.0043092903770505,2.860156207129359,0.2982861964821815
1780506542216993300,9.2809931640625,-0.9301612273655832,1.6250158615142105,-0.2919596238091588
1780506542226985200,9.290985107421875,-0.7959060477852821,0.699970223596692,-0.6511325429305433
1780506542236978200,9.300978271484375,-0.31207492172941564,-0.07892565267682075,-0.46302492326200007
1780506542246970000,9.31097021484375,0.13090484623908996,-0.8003782247632741,-0.19259937812983988
1780506542256962300,9.32096240234375,0.4505412892639637,-1.4750807361125946,0.125315355668962
1780506542266955300,9.330955322265625,0.39641105514764785,-1.967725137090683,0.4808002339273691
1780506542276947200,9.340947265625,0.2294916233278811,-2.320996138691902,0.9993269719198346
1780506542286939400,9.350939453125,-0.08842413338422775,-2.463199208536744,1.451166484300792
1780506542296932000,9.36093212890625,-0.5226899951517582,-2.5793618281960486,1.5601555590689182
1780506542306924300,9.37092431640625,-0.667279521741718,-2.4887691186010836,1.314512280754745
1780506542316916200,9.380916259765625,-0.36845556512102484,-2.2140993600279093,0.8608242178976535
1780506542326909200,9.3909091796875,0.3538027703903615,-1.7649013020664452,0.2856713373199105
1780506542336901000,9.400901123046875,0.9329471317570656,-1.2257207753628492,-0.2982818125680089
1780506542346893300,9.410893310546875,1.2839081759154796,-0.814343621751666,-0.7117632449820638
1780506542356886300,9.42088623046875,1.4415173430763184,-0.6985141795694828,-0.8341928160816431
1780506542366878200,9.430878173828125,1.3906079707026482,-0.9019196138739586,-0.7030933240532875
1780506542376870400,9.440870361328125,0.8992413345754146,-1.2440420294731855,-0.5925275014877319
1780506542386863000,9.450863037109375,0.5850643260002136,-1.4642331788837908,-0.6545671935543418
1780506542396855300,9.460855224609375,0.5304021769642829,-1.3766729688525199,-0.7406497322484851
1780506542406847200,9.47084716796875,0.5549379947405308,-1.2565525514781475,-0.8529153444692492
1780506542416840200,9.480840087890625,0.9333131155252457,-1.3026760047495365,-0.7567910119712352
1780506542426832100,9.49083203125,1.1012660551112146,-1.455392869824171,-0.5233478745386004
1780506542436824300,9.50082421875,0.6774526868402958,-1.5257991159588098,-0.3176838476523757
1780506542446817300,9.5108173828125,0.29071780705451966,-1.6798089434534311,-0.14613865572810172
1780506542456809200,9.520809326171875,-0.02327113160267472,-1.9380010299563406,-0.0038397242933511733
1780506542466801400,9.530801513671875,-0.4637304411828518,-2.2453601752102372,0.17925328208357094
1780506542476794400,9.54079443359375,-0.7441301217101514,-2.7195342689961195,0.2962605358734727
1780506542486786300,9.550786376953125,-1.0157843318544328,-3.2581682677328585,0.4547738122671842
1780506542496778200,9.5607783203125,-0.47424701289162036,-3.647948506563902,0.393676661747694
1780506542506770400,9.5707705078125,0.2641734990000725,-3.612048925665021,-0.010334347009658813
1780506542516763100,9.58076318359375,-0.11883929152265191,-2.951802809691429,-0.36863048329651354
1780506542526755300,9.59075537109375,-1.4011318489350377,-2.366373157510161,-0.6254109494358301
1780506542536747300,9.600747314453125,-2.3630898980557915,-1.9524381361097096,-0.7216206221297383
1780506542546740200,9.610740234375,-1.9971277571856973,-1.218598376137018,-0.6959507588222622
1780506542556732200,9.620732177734375,-1.1628653829991817,-0.3275806800276041,-0.6794423993527889
1780506542566724400,9.630724365234375,-0.7001707146048546,0.47058512938320635,-0.7133303481683134
1780506542576716800,9.640716796875,-0.48334699580073354,0.6944184346884489,-0.9033873483389615
1780506542586709000,9.650708984375,-0.6267484816499054,0.25125965689122676,-1.0503744375899433
1780506542596701000,9.660700927734375,-0.5573521432101726,-0.38936931994259355,-1.1148413568034767
1780506542606694000,9.67069384765625,-0.4814695114910602,-0.7921230221152306,-1.159491230390966
1780506542616685800,9.680685791015625,-0.3267768162988126,-1.07165132663548,-1.2608029023990035
1780506542626678000,9.690677978515625,0.19453575301989912,-0.999503205269575,-1.4073048384815454
1780506542636670700,9.700670654296875,0.6851767052210866,-0.6918003611445427,-1.6516116074949503
1780506542646663000,9.710662841796875,0.5400023644804954,-0.4097662112832069,-1.9324340434789657
1780506542656654800,9.72065478515625,0.41323491030707954,-0.4839245034277439,-1.9887424984171986
1780506542666647800,9.730647705078125,0.3610254151202738,-1.002711061400175,-1.8874641441568731
1780506542676640000,9.740639892578125,-0.22456892610341309,-1.5556173311173915,-1.6931149997502564
1780506542686632000,9.7506318359375,-0.7371256497755646,-1.911401776844263,-1.511757146602869
1780506542696625000,9.760625,-0.7334007840335369,-1.7066490195840596,-1.382530754970014
1780506542706616800,9.770616943359375,0.0367842547789216,-0.7374193720251321,-1.2529916441261768
1780506542716609000,9.780609130859375,0.8590554546594619,0.5156617039501666,-1.533364875037968
1780506542726601700,9.790601806640625,1.148570169534534,1.8355963020145891,-1.843243309636414
1780506542736594000,9.800593994140625,2.326024195986986,3.2650188642799853,-1.7321932106852531
1780506542746585900,9.8105859375,2.8055960571631786,4.687179326587915,-2.073071763703227
1780506542756578800,9.820578857421875,1.5726038294926286,5.5373190688639875,-2.634750245679915
1780506542766570800,9.83057080078125,0.9255357595220207,5.778941128838062,-2.2071496870204803
1780506542776563000,9.84056298828125,1.0911039228633046,5.5862388748556375,-1.1743752035290003
1780506542786556000,9.850555908203125,0.9900175840437412,5.1036248695045705,-0.28567279862463474
1780506542796547800,9.8605478515625,0.9707342069029807,4.667428916457295,0.33812282456904647
1780506542806540000,9.8705400390625,0.9147674050092697,3.994174850350618,0.7322913614869118
1780506542816532000,9.880531982421875,0.6963797978892922,3.5027860023915767,1.3027891097351907
1780506542826525000,9.89052490234375,0.9611272973850369,3.30943434458971,2.0707745926767585
1780506542836516900,9.900516845703125,0.524786382909119,2.8863234985649586,2.0395058864489197
1780506542846509000,9.910509033203125,0.19596563969254494,2.481537413781881,1.9268343237757681
1780506542856501800,9.920501708984375,0.5486953740239143,2.4508371550917625,2.1136919433832166
1780506542866494000,9.930493896484375,-0.0703422409877181,2.369594457644224,1.9168676410347223
1780506542876486000,9.94048583984375,-0.3886263926208019,2.244678622686863,1.6814646017059682
1780506542886478800,9.950478759765625,0.1437865396440029,2.276440957650542,1.5091449182778596
1780506542896471000,9.960470947265625,0.5922410857617855,2.382213700720668,1.3240493399068713
1780506542906463000,9.970462890625,0.474272877985239,2.2644226030766963,0.8529702895268797
1780506542916456000,9.9804560546875,0.22228695264607667,2.00557117588222,0.5106099735185504
1780506542926447900,9.99044775390625,0.09421820661574602,1.8105138832062482,0.800902540898323
1780506542936440000,10.000440185546875,-0.07016366955041885,1.3948434163153172,1.515500424784422
1780506542946432800,10.010432861328125,-0.29206892940253015,0.7510340558797121,2.0675112069666386
1780506542956425000,10.020425048828125,-0.4144444322273135,0.11709200946390629,2.2503946622461077
1780506542966417000,10.0304169921875,-0.5195584191277622,-0.5268167196929454,2.2830364103928207
1780506542976409900,10.040409912109375,-0.6843246184363961,-1.3246984514653681,2.2437790434986353
1780506542986402000,10.050402099609375,-0.8167363621070981,-2.0814368564665315,2.303966677957773
1780506542996394000,10.06039404296875,-0.9452861696526408,-2.626825005638599,2.4973408398523924
1780506543006387000,10.070386962890625,-0.8904071629956364,-3.2433693425297734,2.6651521059453485
1780506543016379000,10.08037890625,-0.7854048197761178,-3.356609937262535,2.5046891567885874
1780506543026371000,10.09037109375,-0.7265855510607362,-3.310803294855356,2.1910528309613464
1780506543036363800,10.10036376953125,-0.8099909795001149,-3.237560948511958,1.9410785377055406
1780506543046356000,10.11035595703125,-0.9732023505821823,-3.1699329349189993,1.8815534588083624
1780506543056348000,10.120347900390625,-1.074047866383195,-3.256143483906984,1.9660870144948361
1780506543066340000,10.130340087890625,-1.1317848928198218,-3.408773839741945,2.168435048700869
1780506543076332800,10.140332763671875,-1.4504983757808803,-3.6778462166994808,1.9151830489486454
1780506543086325000,10.150324951171875,-1.5204247294440865,-3.7624762184977527,1.6878090022966266
1780506543096317000,10.16031689453125,-1.4270835979238152,-3.8246003739774226,1.6068690871879459
1780506543106310000,10.170309814453125,-0.9922302916571497,-3.9237387935996053,1.5225556039929389
1780506543116302000,10.180302001953125,-1.2352294852033257,-3.6051030520498752,0.7643599859207868
1780506543126294000,10.1902939453125,-1.7769696332618594,-2.94236395021677,0.24643062929958104
1780506543136287000,10.200286865234375,-1.0465680310443044,-2.4548317776858806,0.4461658506587147
1780506543146279000,10.21027880859375,0.14477525842040775,-2.1263877588272093,0.7705556256905197
1780506543156271000,10.22027099609375,1.1220479271814225,-1.5125304690629242,0.5314096004411578
1780506543166263800,10.230263916015625,1.7595783534780143,-0.5790647933244705,-0.23619039031416175
1780506543176256000,10.240256103515625,2.2687007187873123,-0.05777239001095295,-2.046883429479599
1780506543186248000,10.250248046875,2.0358169688031076,0.19932021081745624,-2.4954110408335923
1780506543196241000,10.260240966796875,1.638433561491966,0.7853858228147029,-1.3966390675604343
1780506543206233000,10.270233154296875,1.2828411312058567,0.36554537676274773,-1.289944241209328
1780506543216225000,10.28022509765625,1.174081189018488,-0.17489888626635072,-1.0086246693581342
1780506543226218000,10.290218017578125,1.42088298971802,-0.8668646671056747,-0.8732157896980642
1780506543236210000,10.3002099609375,1.9621835773155092,-1.5927929233014582,-0.9469286761626601
1780506543246202000,10.3102021484375,2.7097335904717443,-2.209366486287117,-0.9667825466677545
1780506543256194800,10.32019482421875,3.406019572597742,-2.7769921862304208,-1.0100842205166816
1780506543266187000,10.33018701171875,3.6091385911762712,-3.081034169760346,-0.9907830154582857
1780506543276179000,10.340178955078125,3.419604153575003,-3.1717519670397043,-1.0653618711024522
1780506543286171000,10.3501708984375,3.9422055936604736,-2.8076579581290484,-0.864762141868472
1780506543296164000,10.3601640625,4.7069618854224675,-1.3775702099531888,-0.44430122583061454
1780506543306156000,10.370156005859375,5.003824186581373,0.7277297526597977,-0.6937856897428631
1780506543316147700,10.380147705078125,5.6759682456195355,2.0747458343952894,-2.0808181400462984
1780506543326141000,10.390140869140625,3.3109441646307705,3.485115321144461,-4.140497045952081
1780506543336133000,10.400133056640625,-2.1390017412066458,4.8801463689863676,-4.506297858780623
1780506543346124800,10.410124755859375,-5.205403574502467,6.488657085901498,-2.271687041121721
1780506543356118000,10.420117919921875,-4.919312842726707,7.849975833755731,1.2991563061907887
1780506543366110000,10.43010986328125,-5.239779306834936,5.84507685804665,4.653156937737763
1780506543376102000,10.440101806640625,-7.781378682869672,1.9183575873315333,5.132872591298819
1780506543386094800,10.4500947265625,-5.370775338488817,0.3907750950872898,4.190638794954121
1780506543396087000,10.460087158203125,-1.1326038079872727,1.8750199653863906,2.3281363658353684
1780506543406078700,10.47007861328125,0.19607114589363336,3.9210453167319295,-0.6098176589846611
1780506543416072000,10.480072021484375,0.4757531796708703,4.971636319682002,-2.494485158160329
1780506543426064100,10.490064208984375,1.2856985664635896,5.404809710037708,-3.3195383899748325
1780506543436055800,10.500055908203125,0.05119359614253044,5.045823837921023,-3.5925808396071193
1780506543446048000,10.510048095703125,-2.052216899462044,4.271353961396217,-2.4197680630892515
1780506543456041000,10.520041015625,-2.42155173163563,2.904838813942671,-0.577586829726398
1780506543466033000,10.530032958984375,-2.867517968069017,1.2865776873856782,0.7406412566810846
1780506543476024800,10.54002490234375,-3.0256369844481346,0.21111060185432431,1.7801918101787566
1780506543486018000,10.55001806640625,-2.8356568489059804,-0.10768529869318008,2.326820899322629
1780506543496009700,10.560009765625,-2.137046369355172,0.35071371833384035,2.6016154533192513
1780506543506002000,10.570001953125,-1.548506914590299,1.2178630475997925,2.4095661102876065
1780506543515995100,10.5799951171875,-1.1652420490026474,2.08705352730453,1.5742089266017079
1780506543525986800,10.58998681640625,-0.9712744512595236,2.720918416830897,0.7273612116083502
1780506543535979000,10.59997900390625,-1.087535708987713,2.916127100676298,0.13210691550523043
1780506543545972000,10.609971923828125,-0.8857526151880621,2.396522796580195,-0.145608494374156
1780506543555964000,10.6199638671875,-0.6260076001547277,1.6086352200776337,-0.18537907148748636
1780506543565955800,10.629955810546875,-0.37595381192192434,0.812031253156066,-0.31036709489822384
1780506543575949300,10.63994921875,-0.3973661639153957,0.08088204744160175,-0.3753486856356263
1780506543585941000,10.64994091796875,-0.4454534646056592,-0.8347066108226776,-0.22183803983479736
1780506543595933200,10.65993310546875,-0.40899128138795493,-1.6706307807415723,0.008720482072234153
1780506543605926400,10.669926513671875,-0.36271322207674384,-2.007458597064018,0.2077221284598112
1780506543615918000,10.67991796875,-0.3899089797772467,-1.9884592975616453,0.4009028136089444
1780506543625910300,10.68991015625,-0.5365550005055963,-1.8414543803930281,0.5318377627253532
1780506543635902200,10.699902099609375,-0.2986567833602428,-1.4954443097054957,0.39943274105638266
1780506543645895200,10.709895263671875,0.16388707838654518,-1.1039169349461793,-0.07171060673147439
1780506543655887000,10.71988720703125,0.3731120126247406,-0.7791992431342601,-0.504547604739666
1780506543665879300,10.72987939453125,0.33143326380252836,-0.7018938851356505,-0.8206243094563483
1780506543675872000,10.7398720703125,0.2405976122971624,-0.7363122875660657,-1.0713429913386703
1780506543685864200,10.7498642578125,0.3950829483490437,-0.8508125269711017,-1.1396066724866627
1780506543695856000,10.759856201171875,0.5670902778923511,-0.8844166904091835,-1.0249214319035411
1780506543705849000,10.76984912109375,0.9888765973150729,-0.8131161257833242,-0.9381380514636635
1780506543715841000,10.779841064453125,1.1054057121992111,-0.6826970172345638,-0.9113511668249964
1780506543725833200,10.789833251953125,0.8530442315459251,-0.7297820090144872,-0.9363386008262634
1780506543735826200,10.799826171875,0.7875542528949677,-0.8938239857017993,-0.8336991873458027
1780506543745818000,10.809818115234375,0.4900760117948055,-1.1206120491594076,-0.86056030626446
1780506543755810300,10.819810302734375,0.19718027617931363,-1.4562094469040632,-0.942756651175022
1780506543765803000,10.829802978515625,0.3875660699129104,-1.7447469873100518,-0.8760968980923295
1780506543775795200,10.839795166015625,0.9637129299640655,-1.9888444974869488,-0.6947144950255751
1780506543785787100,10.849787109375,1.2812801654994488,-2.3417566026479006,-0.22257249158918857
1780506543795779300,10.859779296875,1.2831751854658127,-2.5598487339526415,0.31846330759227276
1780506543805772000,10.86977197265625,0.769088329616934,-2.6079806044369933,0.2655699217945337
1780506543815764200,10.87976416015625,0.376911258777231,-2.563404380607605,0.035837329317629334
1780506543825756200,10.889756103515625,-0.29806875433921814,-2.45279939507544,-0.04003741135597229
1780506543835749000,10.8997490234375,-1.1034265210807324,-2.334282321244478,0.0919470468133688
1780506543845741300,10.9097412109375,-0.8879343431413174,-2.1887235112309456,0.2761825012236833
1780506543855733200,10.919733154296875,-0.5744435632646083,-1.9025772498756646,0.29989450846165416
1780506543865726200,10.929726318359375,-0.6698154699601233,-1.8047358843266963,0.1811196604773402
1780506543875718100,10.93971826171875,-0.5373743540644645,-1.722045910680294,0.09657324530929326
1780506543885710300,10.94971044921875,-0.4955645262084901,-1.6351596543878315,-0.03547609478980303
1780506543895703000,10.959703125,-0.508455571963638,-1.4610171394467353,-0.2944870964601636
1780506543905695200,10.9696953125,-0.8402091537617147,-1.2832131793886423,-0.5893424417108297
1780506543915687200,10.979687255859375,-0.671325728392601,-1.1286264287889003,-0.7308972767800093
1780506543925680000,10.98968017578125,-0.41267581511959434,-0.8546224406480789,-0.9358905647978186
1780506543935672300,10.99967236328125,-0.27052725194096566,-0.6699807435244322,-1.389604638879001
1780506543945664300,11.009664306640625,-0.008823065663874148,-0.5542366415381431,-2.0272940551295875
1780506543955656000,11.019656005859375,0.10203034167140722,-0.42329730850756164,-2.494031861434877
1780506543965649200,11.029649169921875,-0.40934783974066374,-0.5798375312626362,-2.80086581377089
1780506543975641300,11.039641357421875,-0.5772564287282527,-0.8285743916779756,-2.8619053888842463
1780506543985633000,11.049633056640625,-0.2816983420357108,-0.9600339491903781,-2.755904682277143
1780506543995626200,11.059626220703125,-0.26495178989619017,-0.8881845185101032,-2.2885876147791744
1780506544005618200,11.0696181640625,-0.6232929343685507,-0.8099024244338273,-1.8044012455448508
1780506544015610000,11.079610107421875,-0.4494964563861489,-0.8084563172787428,-1.287745854382217
1780506544025603000,11.08960302734375,-0.11385229689031838,-0.931699250587821,-0.7712231496885419
1780506544035595300,11.09959521484375,-0.37381110080480573,-1.0034756160318852,-0.48403819293528794
1780506544045587000,11.1095869140625,-1.159858602398634,-1.118998184221983,-0.4829322775200009
1780506544055580200,11.119580078125,-0.8310954345881938,-1.0647720885157586,-0.5805532783165573
1780506544065572400,11.129572265625,-0.8067313931822776,-0.7222989597827195,-0.6243941736087203
1780506544075564000,11.13956396484375,-0.7571442093230784,-0.1363233641564846,-0.8601271755442023
1780506544085556200,11.14955615234375,-0.18156185128688812,0.5001975928366184,-1.2040005264639855
1780506544095549200,11.159549072265625,1.091754203465581,1.3693407262682913,-1.3349632403701543
1780506544105541000,11.169541015625,2.130983269923925,2.387168692779541,-0.9867036371901631
1780506544115533000,11.179532958984375,2.404201660645008,3.1130560324430463,-0.8096633549809455
1780506544125526300,11.1895263671875,1.291249770849943,3.715143973958492,-1.3301079092934727
1780506544135518000,11.19951806640625,0.5274342670693993,4.2706519506067036,-2.139620749887824
1780506544145510100,11.20951025390625,0.8291454695641994,4.628747011363506,-2.406288403791189
1780506544155503400,11.21950341796875,1.2176210555374622,4.818361236202716,-2.161256243112683
1780506544165495000,11.2294951171875,0.92096772095412,4.849395841413736,-1.5456632155969738
1780506544175487200,11.2394873046875,0.8643290111482143,4.8861926634132855,-0.4391089178845286
1780506544185480200,11.249480224609375,0.8433680561840534,4.4110967786073685,0.08209580714553594
1780506544195472100,11.25947216796875,0.6902581001386046,3.8453561617583034,0.6250713422179222
1780506544205464000,11.269464111328125,0.5680848418876528,3.6727386644273996,1.2027861822381616
1780506544215457300,11.279457275390625,0.4586465620473027,3.419426751181483,1.2785320358350871
1780506544225449000,11.289448974609375,0.5709980989858507,2.955461916720867,0.9742708565965295
1780506544235441200,11.299441162109375,0.6640607058256864,2.6322633973002434,0.7522276495784521
1780506544245433000,11.30943310546875,0.764846308133006,2.399987842342257,1.099898639215529
1780506544255426000,11.319426025390625,0.5493249040991067,2.1931951036870476,1.567209276972711
1780506544265418000,11.32941796875,0.25865765818804504,1.8761732270747422,1.425618201546371
1780506544275410200,11.33941015625,0.024295067822933194,1.817468524649739,1.0533744961887597
1780506544285403100,11.349403076171875,-0.07503039880394935,1.793703033658862,1.0826391691178083
1780506544295395000,11.35939501953125,-0.10717968725860118,1.576888667204976,1.348955233104527
1780506544305387300,11.36938720703125,-0.3520604567676782,1.1632447377055883,1.6563205158382652
1780506544315380200,11.379380126953125,-0.3838561094790697,0.6818763485014439,2.109357421310246
1780506544325372200,11.3893720703125,-0.3643994215980172,0.1536725583642721,2.494630411849916
1780506544335364000,11.399364013671875,-0.48214931044876574,-0.4166039483487606,2.702232713322341
1780506544345357000,11.409357177734375,-0.5277244821876287,-0.9825164146333932,2.7711045894965527
1780506544355349000,11.419348876953125,-0.439466353020072,-1.3722048835277556,2.889841735818982
1780506544365341200,11.429341064453125,-0.3767036073759198,-1.5910264981508253,3.121312988656759
1780506544375333000,11.4393330078125,-0.3951806365698576,-1.78165896012187,3.096769791291654
1780506544385326000,11.449326171875,-0.6031278059571981,-1.8845318900972603,2.885489970350265
1780506544395318300,11.459318359375,-0.9304472047001123,-2.1096189948558806,2.5754656975403427
1780506544405310200,11.469310302734375,-1.2332038245946169,-2.2899024967700243,2.1798834944322705
1780506544415303200,11.47930322265625,-1.4734639485657215,-2.3811510399252174,1.969376995950937
1780506544425295000,11.489295166015625,-1.6996692436993122,-2.536623925709724,1.8362229094803333
1780506544435287300,11.499287353515625,-1.7470640320807695,-2.686419350379705,1.7590087368965148
1780506544445280000,11.509280029296875,-1.7125892232879996,-2.8377567437946793,1.7610408272460103
1780506544455272200,11.519272216796875,-1.6493711350917815,-3.1291128487527367,1.8810200825840233
1780506544465264000,11.52926416015625,-1.5798095230877398,-3.4165655165314672,1.9390479086607693
1780506544475256300,11.53925634765625,-1.4179469362661241,-3.5436312229990956,1.9847312169492244
1780506544485249300,11.549249267578125,-1.2676193044155835,-3.3837592254728075,1.9687886746689676
1780506544495241200,11.5592412109375,-1.1098284970775245,-3.1144092006176707,1.7126634575679898
1780506544505233200,11.569233154296874,-0.7286185181930661,-2.867814028406143,1.0446075446262955
1780506544515226000,11.57922607421875,-0.4007181046918034,-2.4526170242458583,0.3295940656766295
1780506544525218300,11.58921826171875,-0.23475685037970542,-1.6836451606154441,-0.3778516083672642
1780506544535210200,11.599210205078125,0.20094518167078493,-0.9788765968263149,-1.229665421335399
1780506544545203200,11.609203125,1.0464996419832109,-0.5934650745987892,-1.8244333952262997
1780506544555195100,11.619195068359375,1.7604583511829375,-0.6256523569762706,-2.139082697488367
1780506544565187300,11.629187255859375,1.6526856664672493,-0.7058388233691454,-2.4075240830659865
1780506544575180000,11.639179931640625,1.2676014764979482,-0.44106034421324725,-2.3099285089716313
1780506544585172000,11.649171875,1.1283858980312942,-0.3540758882433176,-1.715503649429977
1780506544595164200,11.6591640625,1.041277523420751,-0.5570470227837562,-1.1796546052366494
1780506544605155800,11.66915576171875,0.9883248086512089,-0.89801909930408,-0.8818895100191235
1780506544615149000,11.679149169921875,1.222983167092502,-1.3257009065061807,-0.7708613306388259
1780506544625141200,11.689141357421875,1.6142610971353948,-1.8093594524741172,-0.696143358784914
1780506544635133000,11.6991328125,1.7943031915090977,-2.2025784335821865,-0.5845116605535149
1780506544645126100,11.709126220703125,2.3295371725440024,-2.3920202244639395,-0.3757733407884836
1780506544655118000,11.7191181640625,2.6710993239119647,-2.458435939657688,-0.2885606290206313
1780506544665110000,11.729110107421874,2.674924142897129,-2.5220669925689694,-0.4314972738370299
1780506544675103000,11.73910302734375,2.8044688066989183,-2.593498490098119,-0.5627864432185888
1780506544685095200,11.74909521484375,3.1083184825271366,-2.6252842059373855,-0.6238011761516332
1780506544695086800,11.7590869140625,3.7939991917476057,-2.235736022296548,-0.47792204814255235
1780506544705079000,11.7690791015625,4.201911591857671,-1.152139406323433,-0.5144716173827648
1780506544715072300,11.779072265625,4.6620863863855595,0.05469488226175308,-0.9929445774063468
1780506544725064000,11.78906396484375,3.9053330760762095,1.453184546124935,-1.9568132824540136
1780506544735056000,11.799055908203124,1.456305454624444,4.213056670728325,-2.263679091233015
1780506544745049000,11.809049072265625,-2.748310573886335,7.477515563037991,-1.858476826864481
1780506544755041000,11.819041015625,-5.565394239747524,9.54793535092771,0.36070904264748094
1780506544765033000,11.829032958984374,-4.798673077653349,9.292680486920476,3.5758836795672773
1780506544775026200,11.839026123046875,-3.181226482349634,6.324395913505554,4.857686992157995
1780506544785017900,11.849017822265624,-3.2985306732594966,2.409190554973483,3.128711574475467
1780506544795010000,11.859010009765624,-2.4977032434239983,0.6765443398237228,1.777337589791417
1780506544805002000,11.869001953125,-0.6212745802834629,0.8994687135905027,1.4309475798755884
1780506544814995000,11.878994873046874,-0.9015535570405423,1.5905845996022223,0.22883359781056642
1780506544824987000,11.88898681640625,0.11747720938920975,2.8361586609482763,-0.8323463114321231
1780506544834979000,11.89897900390625,1.4632581963717937,4.4062195279598235,-1.211696049402654
1780506544844972000,11.908971923828124,-0.1085994909286499,4.396856071808934,-1.4017919202789664
1780506544854964000,11.9189638671875,-2.851685900425911,2.7194951060295103,-1.0932453188061713
1780506544864956200,11.9289560546875,-3.3372681079328057,1.0018377856969833,-0.2521951841756701
1780506544874948900,11.938948974609374,-3.290349704891443,0.02825754171311855,0.46398500046581026
1780506544884941000,11.948941162109374,-3.4728771863400936,0.20204642091095446,1.2528826307937502
1780506544894933000,11.95893310546875,-3.029332624095678,1.0774749182224272,1.5402069960176943
1780506544904925200,11.96892529296875,-1.0297849462866782,2.1627572953253984,1.2263561506569385
1780506544914918000,11.97891796875,-0.03478708961233497,3.1698505173325535,0.4818573417648673
1780506544924910000,11.98891015625,-0.7154746667206286,3.3277515070468184,-0.5805407110959291
1780506544934902000,11.998902099609374,-0.7898259241539984,2.7120535578519105,-1.2253048880383373
1780506544944895000,12.00889501953125,-0.409161815649271,1.9401964941740035,-1.10403705419451
1780506544954887200,12.01888720703125,-0.4809364275276661,1.2934569255053996,-0.4340262077927589
1780506544964879000,12.028879150390624,-0.4180629880506545,0.782384887433052,0.47169893584400413
1780506544974872000,12.0388720703125,-0.577075300007686,0.009473930788040161,1.08717710480839
1780506544984864000,12.048864013671874,-0.8267957646328955,-0.8560258777052163,1.3612953669786452
1780506544994856200,12.058856201171874,-0.6448853921692818,-1.5170248578727243,1.7647119169741867
1780506545004848000,12.06884814453125,-0.3508205397091806,-1.9882395173311231,2.0713810341373087
1780506545014841000,12.078841064453124,-0.1115618478655815,-1.9768226357817649,2.031025058351457
1780506545024833000,12.0888330078125,-0.1081154337387532,-1.7211550993204117,1.6681439323619007
1780506545034825000,12.098824951171874,-0.3369241893690079,-1.4439894322782754,1.1791554235428572
1780506545044818000,12.10881787109375,-0.6979284155707806,-1.3534919997513293,0.7888298257887363
1780506545054810000,12.11881005859375,-0.7807504911642521,-1.4980699820339678,0.6060872402846813
1780506545064802000,12.128802001953124,-0.5056792391180992,-1.535392289212346,0.41197190463393923
1780506545074795000,12.138794921875,-0.05469722034931183,-1.25671563308537,0.020194354505836964
1780506545084787200,12.148787109375,0.5614835804590955,-0.6432482194215059,-0.4320911480769515
1780506545094779100,12.158779052734374,1.2026222238481044,0.1338449913442135,-0.8653232828825712
1780506545104771000,12.16877099609375,1.6175181992352008,0.5998416238933801,-1.3432941386029122
1780506545114764000,12.178763916015624,1.7657845146417617,0.5735574280798434,-1.824320874762535
1780506545124756200,12.188756103515624,1.5927964304327964,0.1892822164058685,-2.169350117719173
1780506545134748000,12.198747802734376,1.233287411224842,-0.4604869292169809,-2.2467434462621805
1780506545144741000,12.2087412109375,0.720181236976385,-1.3147884673476218,-1.9651722377374767
1780506545154733000,12.218733154296874,0.17706684142258017,-2.1382354330092666,-1.336793670667708
1780506545164725000,12.22872509765625,0.01767714752051979,-2.909562335333228,-0.9207131616711616
1780506545174717000,12.238717041015626,0.6285481514830142,-3.4052520953565835,-0.6468395219117402
1780506545184710100,12.248710205078124,1.5273101050436495,-3.496595331057906,-0.31385201440453525
1780506545194702000,12.2587021484375,2.3605671015799046,-2.9802193413585423,-0.2699780936256051
1780506545204694000,12.268694091796876,2.116625074225664,-2.0990257046490908,-0.5841799443811178
1780506545214687200,12.278687255859374,1.190465410651639,-1.6652590245753525,-0.9183461402788757
1780506545224679000,12.288678955078124,0.4616682479560375,-1.4698761532068252,-0.5389002484574914
1780506545234671000,12.298671142578126,-0.6594845570165664,-1.6110954727113247,0.34660423718839883
1780506545244664000,12.3086640625,-1.7581565039813518,-1.8401053038716315,1.1609557499855756
1780506545254656000,12.318656005859374,-2.3325579816699027,-2.4414777905941007,1.5017425330668688
1780506545264648000,12.32864794921875,-1.9937761086702346,-3.5035131476223467,1.4285650686532259
1780506545274640100,12.33864013671875,-1.7095112771473824,-4.204079583546519,1.0576996659114957
1780506545284633000,12.348633056640624,-2.0127740929983555,-4.580349183419346,0.2842804674834013
1780506545294625000,12.358625,-1.798967822319269,-4.819364860287308,-0.675353960995376
1780506545304617000,12.368616943359376,-0.9577601590394973,-3.7573125521242616,-1.6732055996656416
1780506545314610000,12.37860986328125,-0.36206790991052984,-1.1718079833894968,-2.6535835409656165
1780506545324602000,12.38860205078125,0.3004218933366239,0.8709557358115911,-3.740072078987956
1780506545334594000,12.398593994140626,0.7430605927824974,1.9901912359207867,-4.614936804936826
1780506545344587000,12.4085869140625,0.47354339466691014,2.0821382827341557,-4.624825161744654
1780506545354579000,12.418578857421876,-0.4856652096152305,0.9799678991943597,-3.6764039089366793
1780506545364571100,12.428571044921876,-1.1857469307623802,-0.4036135338723659,-2.4567715135768053
1780506545374563000,12.43856298828125,-0.786112968045473,-1.1908429387271404,-1.3143842704609037
1780506545384556000,12.44855615234375,-0.3675857965491712,-1.756867633214593,-0.5909948850929737
1780506545394548000,12.4585478515625,-0.42489129970073697,-2.0673808585852385,-0.5153808411821723
1780506545404540200,12.4685400390625,-0.5617430716454982,-1.6509242097526788,-0.6722869746401906
1780506545414533000,12.478533203125,-0.08035539321899414,-1.1789029100865125,-0.5622632961273193
1780506545424525000,12.488525146484376,0.4170343025900423,-0.46765609019398685,-0.7868491733655333
1780506545434517200,12.498517333984376,0.29970760758742687,0.6100093821644783,-1.4144427275374531
1780506545444509000,12.508509033203126,-0.15122750329971313,1.6824749477922916,-2.0195488478302956
1780506545454502100,12.518502197265626,0.36443069351911545,2.919728340038657,-1.9673785156100987
1780506545464494000,12.528494140625,2.037078951562941,4.328485715416074,-1.2319792512357235
1780506545474486000,12.538486083984376,2.244049969394505,5.349584666422009,-0.9757236857533454
1780506545484479000,12.54847900390625,1.28320821095258,5.8129620563834905,-1.0488190248414873
1780506545494471200,12.55847119140625,0.7180114917218685,5.716999928709864,-0.8175581998839974
1780506545504462800,12.568462890625,1.017584513144195,5.314466591289639,-0.19139818564653396
1780506545514455000,12.578455078125,1.3760644815653562,4.986290283456444,0.2580520935103297
1780506545524448300,12.5884482421875,1.1147136387705803,4.652006306397914,0.36424656912386416
1780506545534440000,12.59843994140625,0.7035597725212573,4.100578292539716,0.5141764338284731
1780506545544431900,12.608431884765626,0.6494575954556465,3.484911323004961,0.8285577328041195
1780506545554425000,12.618425048828126,0.6474769430324435,3.1915310187429187,1.8664786392733455
