time,seconds_elapsed,z,y,x
1780506532994076200,0.058076171875,1.9120938777923584,0.1348104625940323,-1.1358894109725952
1780506533004068400,0.068068359375,2.065136432647705,-0.05221182107925415,-1.4097602367401123
1780506533014060300,0.078060302734375,2.1346275806427,-0.2510887086391449,-1.571988582611084
1780506533024053200,0.08805322265625,2.100846529006958,-0.328999400138855,-1.7054463624954224
1780506533034045200,0.098045166015625,1.953089714050293,-0.400277316570282,-1.8308402299880981
1780506533044037400,0.108037353515625,1.8051345348358154,-0.6727363467216492,-1.906275987625122
1780506533054030300,0.1180302734375,1.710432767868042,-0.8190669417381287,-1.8628382682800293
1780506533064022300,0.128022216796875,1.6214255094528198,-0.4482387900352478,-1.6562047004699707
1780506533074014500,0.138014404296875,1.4792633056640625,0.21407392621040344,-1.2639580965042114
1780506533084007200,0.148007080078125,1.2792142629623413,0.8402440547943115,-0.7416396737098694
1780506533093999400,0.157999267578125,1.0127215385437012,1.286325216293335,-0.13555987179279327
1780506533103991300,0.1679912109375,0.7321257591247559,1.4429066181182861,0.5077989101409912
1780506533113984300,0.177984375,0.6385204195976257,1.0630156993865967,1.1233841180801392
1780506533123976200,0.18797607421875,0.6071237325668335,0.2600487470626831,1.6642074584960938
1780506533133968400,0.197968505859375,0.4884474277496338,-0.8410279750823975,2.113952398300171
1780506533143960300,0.207960205078125,0.23727846145629883,-1.8289227485656738,2.5147156715393066
1780506533153953300,0.217953369140625,-0.1398584395647049,-2.4724695682525635,2.9117074012756348
1780506533163945500,0.227945556640625,-0.6132161617279053,-2.634439468383789,3.3226163387298584
1780506533173937400,0.2379375,-1.1564722061157227,-2.0433013439178467,3.5730297565460205
1780506533183930400,0.247930419921875,-1.7021961212158203,-0.8911764025688171,3.4776251316070557
1780506533193922300,0.25792236328125,-2.123836040496826,-0.3245113790035248,3.2119061946868896
1780506533203914500,0.26791455078125,-2.348644971847534,0.2195187509059906,2.5056824684143066
1780506533213906200,0.27790625,-2.1466445922851562,-0.29824236035346985,1.655371069908142
1780506533223899400,0.2878994140625,-1.7759071588516235,-0.5747250914573669,0.8348806500434875
1780506533233891300,0.297891357421875,-1.440643072128296,-0.4820183217525482,0.2329862415790558
1780506533243883300,0.30788330078125,-1.1444944143295288,-0.43986934423446655,-0.23719267547130585
1780506533253876500,0.31787646484375,-0.8470488786697388,-0.4825528860092163,-0.654414713382721
1780506533263868400,0.327868408203125,-0.5328580141067505,-0.43834033608436584,-0.9783396124839783
1780506533273860000,0.337860107421875,-0.14116671681404114,-0.023154865950345993,-1.0850540399551392
1780506533283853300,0.347853271484375,0.30519187450408936,0.5878002643585205,-0.9254370927810669
1780506533293845500,0.357845458984375,0.6205477118492126,0.912708580493927,-0.6155207753181458
1780506533303837200,0.367837158203125,0.7430158257484436,0.7189680933952332,-0.2862490713596344
1780506533313830400,0.377830322265625,0.6969506144523621,0.4487440884113312,0.056626785546541214
1780506533323822300,0.387822265625,0.5903306603431702,0.1551327109336853,0.34688812494277954
1780506533333814300,0.397814208984375,0.5148963332176208,-0.16193871200084686,0.5298065543174744
1780506533343806200,0.40780615234375,0.5016347169876099,-0.2047327160835266,0.5801354646682739
1780506533353799400,0.41779931640625,0.512162983417511,-0.07111793756484985,0.4633728563785553
1780506533363791000,0.427791015625,0.5066342353820801,0.072526715695858,0.23728500306606293
1780506533373783300,0.437783203125,0.47754591703414917,0.23305940628051758,-0.02272341027855873
1780506533383776500,0.447776611328125,0.42544636130332947,0.564194917678833,-0.3057926297187805
1780506533393768200,0.457768310546875,0.36403971910476685,0.9255139231681824,-0.5857537388801575
1780506533403760400,0.467760498046875,0.21459802985191345,1.0770598649978638,-0.7756040096282959
1780506533413753300,0.47775341796875,0.1749587506055832,0.9160923957824707,-0.7531154751777649
1780506533423745300,0.487745361328125,0.1745527684688568,0.6650347709655762,-0.57283616065979
1780506533433737200,0.4977373046875,0.20472930371761322,0.2703127861022949,-0.29458245635032654
1780506533443729400,0.5077294921875,0.23878194391727448,-0.18735553324222565,0.05385339632630348
1780506533453722000,0.51772216796875,0.23788045346736908,-0.6036542057991028,0.4208012819290161
1780506533463714300,0.52771435546875,0.14208228886127472,-0.6426932215690613,0.7306550741195679
1780506533473706200,0.537706298828125,0.0404888316988945,-0.2103620320558548,0.8402811288833618
1780506533483699200,0.54769921875,-0.019679969176650047,0.11221667379140854,0.6536823511123657
1780506533493691400,0.55769140625,-0.08302964270114899,0.44635099172592163,0.2877081036567688
1780506533503683300,0.567683349609375,-0.05256068333983421,0.802249014377594,-0.12688490748405457
1780506533513676300,0.57767626953125,0.06569725275039673,1.0238189697265625,-0.5496556162834167
1780506533523668200,0.587668212890625,0.11936887353658676,1.1184782981872559,-0.9012975692749023
1780506533533660400,0.597660400390625,0.1423729956150055,1.101225733757019,-1.0748246908187866
1780506533543652400,0.60765234375,0.17895974218845367,0.9135674834251404,-1.1140676736831665
1780506533553645300,0.617645263671875,0.2003454566001892,0.6007696390151978,-1.0862618684768677
1780506533563637200,0.62763720703125,0.2597109377384186,0.2219029664993286,-0.9664385914802551
1780506533573632500,0.637632568359375,0.36297231912612915,-0.09238360822200775,-0.7379220724105835
1780506533583625500,0.64762548828125,0.39598527550697327,-0.11979572474956512,-0.43498000502586365
1780506533593617400,0.657617431640625,0.311574250459671,0.18592558801174164,-0.1353168785572052
1780506533603609600,0.667609619140625,0.1720910519361496,0.49117517471313477,0.03056260384619236
1780506533613602600,0.6776025390625,0.03381175175309181,0.6304569244384766,0.01491093821823597
1780506533623594500,0.687594482421875,-0.04806753993034363,0.6973758339881897,-0.08798158168792725
1780506533633586700,0.697586669921875,-0.04049377888441086,0.6946505904197693,-0.21658003330230713
1780506533643578600,0.70757861328125,0.04364947974681854,0.5807929635047913,-0.36227545142173767
1780506533653571600,0.717571533203125,0.13334552943706512,0.41742104291915894,-0.5073559284210205
1780506533663563500,0.7275634765625,0.1959543079137802,0.21145924925804138,-0.6509607434272766
1780506533673555700,0.7375556640625,0.22067803144454956,0.03320161625742912,-0.7459501028060913
1780506533683548400,0.74754833984375,0.210633784532547,-0.01664656586945057,-0.7604408264160156
1780506533693540600,0.75754052734375,0.16937583684921265,0.11588191986083984,-0.6980759501457214
1780506533703532500,0.767532470703125,0.1252507120370865,0.2843726575374603,-0.5992844104766846
1780506533713525500,0.777525390625,0.08314907550811768,0.42092037200927734,-0.4781896471977234
1780506533723517700,0.787517578125,0.028458012267947197,0.5393136739730835,-0.35875844955444336
1780506533733509600,0.797509521484375,-0.00919695571064949,0.6050553917884827,-0.2589903175830841
1780506533743501300,0.807501220703125,-0.04659467935562134,0.6893473863601685,-0.17074602842330933
1780506533753494500,0.81749462890625,-0.058059319853782654,0.6884812712669373,-0.13639365136623383
1780506533763486700,0.82748681640625,0.06697115302085876,0.11773667484521866,-0.20156942307949066
1780506533773478400,0.837478515625,0.2038230150938034,-0.07117598503828049,-0.16409875452518463
1780506533783471600,0.8474716796875,0.2558264434337616,-0.11479411274194717,-0.1280810534954071
1780506533793463600,0.857463623046875,0.22113370895385742,-0.12427922338247299,-0.13203585147857666
1780506533803455500,0.86745556640625,0.13417883217334747,-0.11609892547130585,-0.1386294960975647
1780506533813448400,0.877448486328125,0.028099000453948975,-0.05154522880911827,-0.07493653893470764
1780506533823440600,0.887440673828125,-0.03036111406981945,-0.04182242602109909,-0.019182607531547546
1780506533833432300,0.897432373046875,-0.013070274144411087,-0.18939165771007538,-0.0506150983273983
1780506533843424500,0.907424560546875,0.08356533944606781,-0.34188950061798096,-0.0844498723745346
1780506533853417700,0.917417724609375,0.1943107545375824,-0.38578879833221436,-0.07950863987207413
1780506533863409400,0.927409423828125,0.2660960257053375,-0.39026451110839844,-0.07070660591125488
1780506533873401600,0.937401611328125,0.2950403094291687,-0.3932027518749237,-0.05181574076414108
1780506533883394600,0.94739453125,0.27592387795448303,-0.3600828945636749,-0.018975038081407547
1780506533893386500,0.957386474609375,0.24310652911663055,-0.2940066456794739,0.006621667183935642
1780506533903378400,0.96737841796875,0.2094084620475769,-0.2329704761505127,0.009135912172496319
1780506533913371600,0.97737158203125,0.1908600777387619,-0.17713704705238342,0.012863271869719028
1780506533923363300,0.98736328125,0.2066335827112198,-0.14969709515571594,0.029750170186161995
1780506533933355500,0.99735546875,0.25636813044548035,-0.16416364908218384,0.05932217836380005
1780506533943347500,1.007347412109375,0.3216676414012909,-0.20934291183948517,0.15123073756694794
1780506533953340400,1.01734033203125,0.3502020835876465,-0.21309025585651398,0.2872042953968048
1780506533963332600,1.02733251953125,0.24674414098262787,-0.40200239419937134,0.3334011733531952
1780506533973324500,1.037324462890625,0.11381112784147263,-0.5613989233970642,0.3674054741859436
1780506533983317500,1.0473173828125,0.1033167839050293,-0.46186310052871704,0.4408203959465027
1780506533993309400,1.057309326171875,0.16064558923244476,-0.40816420316696167,0.45404380559921265
1780506534003301600,1.067301513671875,0.2182413786649704,-0.4313116669654846,0.4019629657268524
1780506534013294300,1.07729443359375,0.22976087033748627,-0.4194667339324951,0.3379160463809967
1780506534023286500,1.08728662109375,0.19747045636177063,-0.36076006293296814,0.27431151270866394
1780506534033278500,1.097278564453125,0.1385733187198639,-0.34746208786964417,0.1886751651763916
1780506534043270700,1.107270751953125,0.08549225330352783,-0.31007876992225647,0.12768211960792542
1780506534053263400,1.117263427734375,0.040273647755384445,-0.2937341630458832,0.09497129917144775
1780506534063255600,1.127255615234375,0.005885052494704723,-0.3540757894515991,0.09732981771230698
1780506534073247500,1.13724755859375,-0.006755109876394272,-0.42563891410827637,0.13443483412265778
1780506534083240400,1.147240478515625,0.01234188862144947,-0.5090516209602356,0.19265860319137573
1780506534093232600,1.157232666015625,0.04603487253189087,-0.6007107496261597,0.2654918134212494
1780506534103224600,1.167224609375,0.0757664144039154,-0.5448780059814453,0.36369767785072327
1780506534113216500,1.177216552734375,0.10684257000684738,-0.4954124391078949,0.40071213245391846
1780506534123209500,1.18720947265625,0.12961523234844208,-0.5436940789222717,0.34245869517326355
1780506534133201700,1.19720166015625,0.12438105046749115,-0.39981332421302795,0.28542017936706543
1780506534143193600,1.207193603515625,0.07375065982341766,-0.21056830883026123,0.22864431142807007
1780506534153186600,1.2171865234375,-0.005652292165905237,-0.15776421129703522,0.16621609032154083
1780506534163178500,1.227178466796875,-0.07924102246761322,-0.19483540952205658,0.11310948431491852
1780506534173170700,1.237170654296875,-0.11542245745658875,-0.24682457745075226,0.09312991797924042
1780506534183163600,1.24716357421875,-0.08940871059894562,-0.25383588671684265,0.12630192935466766
1780506534193155600,1.257155517578125,-0.003926568198949099,-0.1982429176568985,0.18880978226661682
1780506534203147800,1.267147705078125,0.11839812994003296,-0.076068215072155,0.2519197463989258
1780506534213139500,1.277139404296875,0.21823017299175262,-0.011920387856662273,0.2370137721300125
1780506534223132700,1.287132568359375,0.2230486422777176,-0.03250209614634514,0.11080531030893326
1780506534233124600,1.29712451171875,0.15163038671016693,0.055674903094768524,-0.052836623042821884
1780506534243116500,1.307116455078125,0.042991407215595245,0.1317562758922577,-0.2035800814628601
1780506534253109500,1.317109619140625,0.06653562188148499,0.23252522945404053,-0.2517036497592926
1780506534263101700,1.327101806640625,0.1932545304298401,0.2062487006187439,-0.21526950597763062
1780506534273093400,1.33709326171875,0.3197890520095825,-0.04154805466532707,-0.13152453303337097
1780506534283086600,1.347086669921875,0.46179306507110596,-0.3440859615802765,0.00991800706833601
1780506534293078500,1.35707861328125,0.5913124084472656,-0.6148548126220703,0.16018660366535187
1780506534303070500,1.367070556640625,0.6140828728675842,-0.7139233350753784,0.21182700991630554
1780506534313062400,1.3770625,0.46429815888404846,-0.5509346723556519,0.12019135802984238
1780506534323055600,1.3870556640625,0.30958062410354614,-0.35275909304618835,-0.0604398250579834
1780506534333047600,1.397047607421875,0.2756759226322174,-0.2507307231426239,-0.14757712185382843
1780506534343039500,1.40703955078125,0.3840809464454651,-0.6382200121879578,-0.18792785704135895
1780506534353032700,1.41703271484375,0.5767156481742859,-1.1926614046096802,-0.12432864308357239
1780506534363024400,1.4270244140625,0.5705035328865051,-1.7068331241607666,0.08806842565536499
1780506534373016600,1.4370166015625,0.3646097779273987,-2.1593165397644043,0.2975478768348694
1780506534383009500,1.447009521484375,0.2598836421966553,-2.4835987091064453,0.39272341132164
1780506534393001500,1.45700146484375,0.48549574613571167,-2.633486270904541,0.3727843165397644
1780506534402993400,1.466993408203125,0.912601113319397,-2.836758852005005,0.1709495186805725
1780506534412985600,1.476985595703125,1.5012907981872559,-3.077131986618042,-0.0708809569478035
1780506534422978600,1.486978515625,2.27549409866333,-3.367143154144287,-0.1784106343984604
1780506534432970500,1.496970458984375,2.8451647758483887,-3.7559614181518555,-0.15268422663211823
1780506534442962700,1.506962646484375,2.8577041625976562,-4.3458404541015625,-0.09399101883172989
1780506534452955400,1.516955322265625,2.5151686668395996,-5.263129234313965,-0.19466038048267365
1780506534462947600,1.526947509765625,2.8098180294036865,-6.487152576446533,-0.35169506072998047
1780506534472939500,1.536939453125,3.6969895362854004,-7.6798882484436035,-0.2769177556037903
1780506534482932500,1.546932373046875,4.130927562713623,-8.066924095153809,-0.014888613484799862
1780506534492924400,1.55692431640625,3.8397507667541504,-7.420778274536133,0.22150582075119019
1780506534502916600,1.56691650390625,3.3433518409729004,-6.577272891998291,0.3902323544025421
1780506534512909600,1.57690966796875,3.0754127502441406,-6.4631757736206055,0.6100879907608032
1780506534522901500,1.586901611328125,3.147120952606201,-6.73315954208374,0.903526246547699
1780506534532893700,1.596893798828125,3.333919048309326,-6.883077144622803,1.2857730388641357
1780506534542885600,1.6068857421875,3.7316086292266846,-6.3803277015686035,1.647555947303772
1780506534552878600,1.616878662109375,4.461061477661133,-5.659637928009033,1.7538174390792847
1780506534562870500,1.62687060546875,4.9576239585876465,-5.403871536254883,1.4693801403045654
1780506534572859600,1.636859619140625,4.9012298583984375,-5.444469451904297,0.7829700708389282
1780506534582852600,1.6468525390625,4.908147811889648,-5.320352554321289,0.20784758031368256
1780506534592844800,1.6568447265625,5.27430534362793,-4.748959541320801,0.04769226163625717
1780506534602836700,1.666836669921875,5.67110538482666,-3.6710689067840576,0.09384069591760635
1780506534612829700,1.67682958984375,5.713307857513428,-2.674304485321045,0.21899834275245667
1780506534622821600,1.686821533203125,5.477170467376709,-2.2500362396240234,0.4681740403175354
1780506534632813600,1.6968134765625,5.323436260223389,-2.7238731384277344,0.8431356549263
1780506534642805500,1.706805419921875,5.193291187286377,-3.7275774478912354,1.2986187934875488
1780506534652798700,1.716798828125,5.049823760986328,-4.581398963928223,1.707902431488037
1780506534662790700,1.726790771484375,4.859299182891846,-5.044652938842773,2.011138677597046
1780506534672782600,1.736782470703125,4.427021026611328,-4.634366035461426,2.345407009124756
1780506534682775800,1.74677587890625,3.948648691177368,-3.821058988571167,2.710465431213379
1780506534692767700,1.756767822265625,3.6279211044311523,-2.719851493835449,3.0761401653289795
1780506534702759700,1.766759765625,3.131052017211914,-1.8268433809280396,3.3912949562072754
1780506534712752600,1.776752685546875,2.3610877990722656,-1.8827385902404785,3.821906328201294
1780506534722744600,1.78674462890625,1.6586244106292725,-2.1180341243743896,4.2129597663879395
1780506534732736500,1.796736572265625,1.2361880540847778,-1.333027958869934,4.118166446685791
1780506534742729700,1.806729736328125,1.397926926612854,-1.0962891578674316,2.74529767036438
1780506534752721700,1.8167216796875,1.3169265985488892,0.4003741145133972,-1.2930700778961182
1780506534762713600,1.826713623046875,2.108759880065918,2.751953601837158,-2.4227793216705322
1780506534772705500,1.83670556640625,2.332899570465088,2.9360976219177246,-1.3824914693832397
1780506534782698800,1.84669873046875,1.841859221458435,2.752201557159424,-0.19247500598430634
1780506534792690700,1.856690673828125,1.0357816219329834,1.4047925472259521,0.7095386981964111
1780506534802682600,1.8666826171875,0.5889710187911987,0.784930944442749,0.988195538520813
1780506534812675800,1.87667578125,1.0677919387817383,1.272693395614624,0.7129788994789124
1780506534822667500,1.88666748046875,1.7688324451446533,1.4155962467193604,0.23837366700172424
1780506534832659700,1.89665966796875,1.4146687984466553,1.5010164976119995,0.2843233048915863
1780506534842652700,1.906652587890625,1.106033205986023,0.6386940479278564,0.911125659942627
1780506534852644600,1.91664453125,0.9556369781494141,1.8489372730255127,0.9229386448860168
1780506534862636500,1.926636474609375,1.3836544752120972,0.8787440061569214,0.659686267375946
1780506534872628700,1.936628662109375,1.7296359539031982,0.4490549564361572,0.6963353157043457
1780506534882621700,1.94662158203125,1.596186637878418,0.5690315961837769,0.8112453818321228
1780506534892613600,1.956613525390625,1.1595113277435303,0.3830236494541168,0.5203166007995605
1780506534902605800,1.966605712890625,0.6483537554740906,-0.2229517251253128,0.5263206958770752
1780506534912598500,1.9765986328125,0.29124248027801514,-0.03648625314235687,0.5497937202453613
1780506534922590700,1.9865908203125,0.3846374452114105,0.2988191843032837,0.6595162749290466
1780506534932582700,1.996582763671875,0.1770605444908142,0.8177334070205688,1.846291184425354
1780506534942575600,2.00657568359375,0.3101294934749603,1.4961451292037964,3.3553242683410645
1780506534952567600,2.016567626953125,0.3379685878753662,0.7122064232826233,0.5245881080627441
1780506534962559700,2.026559814453125,-0.11213918775320053,1.326086401939392,0.19579960405826569
1780506534972552700,2.036552734375,0.3768552839756012,0.7939808964729309,0.9500877857208252
1780506534982544600,2.046544677734375,0.5961010456085205,1.2666172981262207,0.5210175514221191
1780506534992536800,2.056536865234375,-0.03659941256046295,1.6423304080963135,-0.1956625133752823
1780506535002528800,2.06652880859375,-0.5011495351791382,0.898196816444397,-0.10193947702646255
1780506535012521700,2.076521728515625,-0.5855898261070251,0.4519689679145813,0.12928494811058044
1780506535022513700,2.086513671875,-0.3725702464580536,0.44549188017845154,-0.018963564187288284
1780506535032505900,2.096505859375,-0.05936199426651001,0.3052056133747101,-0.3720502555370331
1780506535042498600,2.10649853515625,-0.09135589003562927,-0.016627125442028046,-0.2683975398540497
1780506535052490800,2.11649072265625,-0.22460982203483582,-0.6535364985466003,-0.1933555006980896
1780506535062482700,2.126482666015625,-0.14688438177108765,-0.9133570194244385,-0.5205382108688354
1780506535072475600,2.1364755859375,0.10804032534360886,-0.8316965103149414,-0.947428822517395
1780506535082467600,2.146467529296875,0.5809621810913086,-0.4634668529033661,-1.0859242677688599
1780506535092459800,2.156459716796875,0.7102993726730347,-0.32371509075164795,-1.0910521745681763
1780506535102451500,2.166451416015625,0.6139804720878601,-1.0086394548416138,-1.5248321294784546
1780506535112444700,2.176444580078125,0.3298470377922058,-2.096386671066284,-1.996561050415039
1780506535122436900,2.186436767578125,0.3160819411277771,-2.87514591217041,-2.088837146759033
1780506535132428500,2.196428466796875,0.7511862516403198,-2.5595388412475586,-2.1108005046844482
1780506535142421800,2.206421875,0.9268779158592224,-2.140583038330078,-2.3635568618774414
1780506535152413700,2.21641357421875,0.29320433735847473,-1.380690097808838,-2.19333815574646
1780506535162405600,2.226405517578125,-0.42736437916755676,-0.9602285623550415,-1.8612881898880005
1780506535172398600,2.236398681640625,-0.7756104469299316,0.2677198350429535,-1.4060626029968262
1780506535182390800,2.246390869140625,-0.4136444330215454,1.0553637742996216,-0.9651061296463013
1780506535192382500,2.256382568359375,-0.27667486667633057,1.3150296211242676,-0.29146698117256165
1780506535202375700,2.266375732421875,-0.17534439265727997,0.5431012511253357,0.23847806453704834
1780506535212368000,2.276367919921875,-0.23496191203594208,0.5361943244934082,0.3259146809577942
1780506535222359600,2.286359619140625,0.08224494010210037,0.4904336929321289,0.38026225566864014
1780506535232351700,2.296351806640625,0.7533572316169739,0.20236381888389587,0.5018446445465088
1780506535242344700,2.3063447265625,1.5248603820800781,-0.36844828724861145,0.7161452174186707
1780506535252336600,2.316336669921875,2.2685201168060303,-0.73856121301651,0.7270857691764832
1780506535262328600,2.32632861328125,3.0873281955718994,-0.7484076619148254,0.4579877257347107
1780506535272321800,2.33632177734375,3.5729472637176514,-0.1816110908985138,0.2944704294204712
1780506535282313500,2.3463134765625,2.0387279987335205,0.12811879813671112,0.2785402834415436
1780506535292305700,2.3563056640625,1.1968815326690674,0.3654139041900635,0.1257489025592804
1780506535302299000,2.366298828125,0.8055537939071655,0.4813477098941803,0.07743249833583832
1780506535312290600,2.37629052734375,0.7480495572090149,0.6225067377090454,-0.1325189471244812
1780506535322282500,2.386282470703125,0.680778980255127,0.2308027744293213,-0.4589557945728302
1780506535332275700,2.396275634765625,0.6128054857254028,-0.7515952587127686,-0.7341612577438354
1780506535342267600,2.406267578125,1.034229040145874,-1.4005107879638672,-1.013954997062683
1780506535352259600,2.416259521484375,1.5704131126403809,-1.6553763151168823,-1.4478342533111572
1780506535362251800,2.426251708984375,2.0635621547698975,-1.7203398942947388,-1.8969398736953735
1780506535372244500,2.436244384765625,2.5816686153411865,-2.0350430011749268,-2.492279052734375
1780506535382236700,2.446236572265625,3.240086078643799,-2.156332492828369,-2.9940924644470215
1780506535392228600,2.456228515625,3.706387758255005,-3.137523889541626,-3.447368621826172
1780506535402221600,2.4662216796875,2.5006096363067627,-3.237116813659668,-3.2678277492523193
1780506535412213500,2.476213623046875,0.25513285398483276,-2.9688968658447266,-3.5308423042297363
1780506535422205700,2.486205810546875,-1.6888809204101562,-3.001565933227539,-3.2428855895996094
1780506535432198700,2.49619873046875,-2.851325273513794,-3.669436454772949,-1.9060708284378052
1780506535442190600,2.506190673828125,-3.132704019546509,-4.552813529968262,-1.0694013833999634
1780506535452182800,2.516182861328125,-2.484238386154175,-3.920020580291748,-0.13516974449157715
1780506535462175500,2.526175537109375,-0.8858476877212524,-2.456202983856201,0.7482230067253113
1780506535472167700,2.536167724609375,0.37941136956214905,-1.5288269519805908,1.3170316219329834
1780506535482159600,2.54615966796875,0.8026807904243469,-0.8223940134048462,1.5880259275436401
1780506535492151800,2.55615185546875,0.7431130409240723,-0.03396383672952652,1.1679378747940063
1780506535502144500,2.56614453125,0.527116060256958,0.057275790721178055,0.6040236353874207
1780506535512136700,2.57613671875,-0.2719745337963104,-0.7265529632568359,0.12945875525474548
1780506535522128600,2.586128662109375,-0.39281943440437317,-0.6834223866462708,0.6469367146492004
1780506535532121600,2.59612158203125,-0.7505373954772949,-1.220845103263855,0.3469531834125519
1780506535542113800,2.60611376953125,-0.2008485496044159,-0.8101504445075989,0.3028629720211029
1780506535552105700,2.616105712890625,0.18042609095573425,-0.5379905700683594,0.31597504019737244
1780506535562098700,2.6260986328125,-0.0027555744163691998,0.0675036609172821,0.06136222928762436
1780506535572090400,2.63609033203125,-0.32765963673591614,0.9776530861854553,-0.21262112259864807
1780506535582082300,2.646082275390625,-0.37779828906059265,1.4928598403930664,-0.0071974280290305614
1780506535592074500,2.656074462890625,-0.45656818151474,2.2043497562408447,-0.05930829793214798
1780506535602067200,2.666067138671875,-0.8959699273109436,4.47637414932251,-0.20716243982315063
1780506535612059400,2.676059326171875,-1.3563921451568604,5.218331813812256,0.20053236186504364
1780506535622051300,2.68605126953125,-1.2544004917144775,4.59236478805542,0.598280131816864
1780506535632044300,2.696044189453125,-0.8221079707145691,3.1253347396850586,0.7619540095329285
1780506535642036200,2.7060361328125,-0.3874039053916931,1.448692798614502,0.7223614454269409
1780506535652028400,2.7160283203125,-0.1255563199520111,-0.11397545039653778,0.39471539855003357
1780506535662021400,2.726021484375,-0.06307937204837799,-0.9444313645362854,-0.06425442546606064
1780506535672013300,2.736013427734375,-0.14912424981594086,-1.041964054107666,-0.3316957354545593
1780506535682005500,2.746005615234375,-0.4737159013748169,-1.212973952293396,-0.4294317364692688
1780506535691998200,2.755998291015625,-1.8206876516342163,-0.9947527050971985,-0.7214870452880859
1780506535701990400,2.765990478515625,-2.3097524642944336,0.649297297000885,-0.44363024830818176
1780506535711982300,2.775982421875,-1.5845667123794556,1.2019165754318237,-0.22562125325202942
1780506535721975300,2.785975341796875,-1.2531496286392212,0.698703944683075,-0.1963881105184555
1780506535731967200,2.79596728515625,-0.5924646258354187,0.47080159187316895,0.05756187438964844
1780506535741959400,2.80595947265625,0.5566179752349854,0.652402937412262,0.19659006595611572
1780506535751951000,2.815951171875,0.08397454768419266,0.6958612203598022,-0.21791604161262512
1780506535761944300,2.8259443359375,0.7950061559677124,0.9232186079025269,-0.5426430106163025
1780506535771936300,2.835936279296875,1.1135852336883545,0.5065258145332336,-0.22063066065311432
1780506535781928200,2.84592822265625,1.3535879850387573,0.18730643391609192,-0.17548733949661255
1780506535791921400,2.85592138671875,1.5187047719955444,-0.36224111914634705,-0.008039229549467564
1780506535801913300,2.865913330078125,1.6750082969665527,-1.348918080329895,0.41506028175354004
1780506535811905300,2.8759052734375,1.9567369222640991,-2.2140841484069824,0.6997807025909424
1780506535821898200,2.885898193359375,2.174412965774536,-1.9054319858551025,0.5387463569641113
1780506535831890400,2.895890380859375,2.133466958999634,-1.426479458808899,0.15318669378757477
1780506535841882000,2.905882080078125,2.107451915740967,-1.5665168762207031,-0.18128706514835358
1780506535851875300,2.915875244140625,1.685920000076294,-2.0876080989837646,-0.5905272960662842
1780506535861867300,2.9258671875,0.9203805923461914,-2.50587797164917,-1.008894681930542
1780506535871859200,2.935859130859375,0.14576561748981476,-2.5300590991973877,-1.3424839973449707
1780506535881852400,2.945852294921875,-0.6977204084396362,-1.6460212469100952,-1.6042611598968506
1780506535891844400,2.95584423828125,-1.0802805423736572,-1.495699167251587,-1.6821980476379395
1780506535901836300,2.965836181640625,-1.27639901638031,-0.8503013849258423,-1.6829917430877686
1780506535911828200,2.975828125,-1.3147104978561401,-0.2097182273864746,-1.58005952835083
1780506535921821400,2.985821533203125,-1.311630368232727,0.19600391387939453,-1.4751085042953491
1780506535931813000,2.995813232421875,-1.3095722198486328,0.4283476769924164,-1.3814738988876343
1780506535941805300,3.005805419921875,-1.2411599159240723,0.5918934941291809,-1.2710001468658447
1780506535951798300,3.01579833984375,-1.1614056825637817,0.8350001573562622,-1.118282675743103
1780506535961790200,3.025790283203125,-1.0383793115615845,1.0275087356567383,-0.9178213477134705
1780506535971782100,3.0357822265625,-0.9324682950973511,1.1746422052383423,-0.6886813640594482
1780506535981775400,3.045775390625,-0.8856349587440491,1.1308938264846802,-0.5072562098503113
1780506535991767300,3.055767333984375,-0.8720096945762634,0.7732746005058289,-0.4832659065723419
1780506536001759200,3.06575927734375,-0.7628695964813232,0.3448348641395569,-0.5400110483169556
1780506536011752400,3.07575244140625,-0.6142787933349609,0.1348603218793869,-0.548423707485199
1780506536021744000,3.085744140625,-0.5075200200080872,0.03781786561012268,-0.4982045590877533
1780506536031736300,3.095736328125,-0.5238121747970581,-0.10600002110004425,-0.3668614625930786
1780506536041729300,3.105729248046875,-0.3721638023853302,-0.35011935234069824,-0.27221015095710754
1780506536051721200,3.11572119140625,-0.15954342484474182,-0.5001559853553772,-0.18993818759918213
1780506536061713200,3.125713134765625,-0.06004760414361954,-0.568922758102417,-0.10787289589643478
1780506536071705300,3.135705322265625,0.10937098413705826,-0.5970550179481506,-0.0942167416214943
1780506536081698300,3.1456982421875,0.24970851838588715,-0.4922691583633423,-0.07068552076816559
1780506536091690200,3.155690185546875,0.36501434445381165,-0.36956772208213806,-0.03809109330177307
1780506536101682200,3.16568212890625,0.4651566743850708,-0.24774104356765747,-0.0001515281619504094
1780506536111675100,3.175675048828125,0.5515791177749634,-0.16474869847297668,0.02106933854520321
1780506536121667300,3.185667236328125,0.6272938847541809,-0.09754874557256699,0.050103507936000824
1780506536131659300,3.1956591796875,0.6907181739807129,-0.013506039045751095,0.07874500751495361
1780506536141652200,3.20565234375,0.743510365486145,0.07271239906549454,0.13441649079322815
1780506536151644200,3.21564404296875,0.8005020022392273,0.12952296435832977,0.2058480679988861
1780506536161636400,3.22563623046875,0.8542249202728271,0.17215536534786224,0.253361314535141
1780506536171629300,3.23562939453125,0.8958567976951599,0.20650188624858856,0.29182055592536926
1780506536181621200,3.245621337890625,0.9309108853340149,0.25778132677078247,0.32448095083236694
1780506536191613200,3.25561328125,0.9658417105674744,0.31587284803390503,0.3682324290275574
1780506536201606400,3.2656064453125,0.9818297624588013,0.36101409792900085,0.4406672716140747
1780506536211598300,3.275598388671875,0.9769766926765442,0.40388086438179016,0.5492427349090576
1780506536221590300,3.28559033203125,0.9495671391487122,0.4042229652404785,0.6566315293312073
1780506536231583200,3.295583251953125,0.8959896564483643,0.40574121475219727,0.749222993850708
1780506536241575200,3.3055751953125,0.8503128290176392,0.4191698729991913,0.7923320531845093
1780506536251567400,3.3155673828125,0.7844228148460388,0.44619137048721313,0.7748737335205078
1780506536261559300,3.325559326171875,0.6708087921142578,0.5194817185401917,0.7115352153778076
1780506536271552300,3.33555224609375,0.5697742700576782,0.5622374415397644,0.6047714352607727
1780506536281544200,3.345544189453125,0.4631848931312561,0.6234527230262756,0.4518517553806305
1780506536291536400,3.355536376953125,0.33913376927375793,0.6501495838165283,0.32506585121154785
1780506536301529300,3.365529296875,0.21682237088680267,0.6297639608383179,0.23925438523292542
1780506536311521300,3.375521240234375,0.11659936606884003,0.6429982781410217,0.187710240483284
1780506536321513200,3.38551318359375,0.06986285746097565,0.6307364702224731,0.17264503240585327
1780506536331506200,3.395506103515625,0.06994807720184326,0.5625419616699219,0.1606762558221817
1780506536341498400,3.405498291015625,0.09456808120012283,0.4465906620025635,0.13033795356750488
1780506536351490300,3.415490234375,0.16134712100028992,0.3137364685535431,0.07732320576906204
1780506536361483300,3.425483154296875,0.20470856130123138,0.159803569316864,0.026639437302947044
1780506536371475200,3.43547509765625,0.2537094056606293,0.004809179808944464,-0.026324179023504257
1780506536381467400,3.44546728515625,0.23434513807296753,-0.1354510486125946,-0.020854204893112183
1780506536391460000,3.455460205078125,0.21153436601161957,-0.14699772000312805,-0.020553532987833023
1780506536401452300,3.465452392578125,0.16440227627754211,-0.07142733037471771,-0.01376404520124197
1780506536411444200,3.4754443359375,0.0022368142381310463,0.02059953100979328,-0.04983123391866684
1780506536421436400,3.4854365234375,-0.12592913210391998,0.1879989057779312,-0.11651301383972168
1780506536431429400,3.495429443359375,-0.39917799830436707,0.29662632942199707,-0.17532439529895782
1780506536441421300,3.50542138671875,-0.5935677289962769,0.4819824695587158,-0.3193747103214264
1780506536451413500,3.51541357421875,-0.7426349520683289,0.756711483001709,-0.4859069585800171
1780506536461406200,3.52540625,-0.8240082263946533,0.9457395672798157,-0.2567494511604309
1780506536471398400,3.5353984375,-0.708072304725647,0.7253067493438721,0.2206418514251709
1780506536481390300,3.545390380859375,-0.42513447999954224,0.40414851903915405,0.5458441972732544
1780506536491383300,3.55538330078125,-0.03783975541591644,-0.011362135410308838,0.5023664832115173
1780506536501375200,3.565375244140625,0.36863237619400024,-0.5124604105949402,0.31020820140838623
1780506536511367400,3.575367431640625,0.5754399299621582,-0.6874790787696838,0.40813156962394714
1780506536521360400,3.5853603515625,0.6553444266319275,-0.7645030617713928,0.5637551546096802
1780506536531352300,3.595352294921875,0.5082599520683289,-0.7670881748199463,0.7170403003692627
1780506536541344500,3.605344482421875,0.20724084973335266,-0.7828295826911926,0.8060497641563416
1780506536551337200,3.615337158203125,-0.10246747732162476,-0.7014524340629578,0.714116096496582
1780506536561329400,3.625329345703125,-0.3273784816265106,-0.39579856395721436,0.3962453305721283
1780506536571321000,3.635321044921875,-0.4423290491104126,-0.1283428817987442,0.047595199197530746
1780506536581314000,3.64531396484375,-0.4290587902069092,-0.14482451975345612,-0.06482619792222977
1780506536591306000,3.655305908203125,-0.3486289381980896,-0.07321558892726898,0.018631944432854652
1780506536601298200,3.665298095703125,-0.26482564210891724,0.17638519406318665,0.20333439111709595
1780506536611291000,3.675290771484375,-0.2216363400220871,0.6005551218986511,0.312863290309906
1780506536621283000,3.685282958984375,-0.21560588479042053,1.148298978805542,0.3062739372253418
1780506536631275000,3.69527490234375,-0.2548867166042328,1.6770669221878052,0.27210476994514465
1780506536641268000,3.70526806640625,-0.24922218918800354,2.009519100189209,0.27063900232315063
1780506536651260200,3.71526025390625,-0.15432043373584747,2.1798341274261475,0.3190659284591675
1780506536661252000,3.725252197265625,-0.0046754032373428345,2.0802626609802246,0.3805791735649109
1780506536671245000,3.7352451171875,0.1530124992132187,1.8091782331466675,0.4253823161125183
1780506536681237000,3.745237060546875,0.2907349169254303,1.50245201587677,0.4632890224456787
1780506536691229200,3.755229248046875,0.38716718554496765,1.242819905281067,0.4971843957901001
1780506536701222000,3.765221923828125,0.4468466639518738,1.0365279912948608,0.5109735131263733
1780506536711214000,3.775214111328125,0.46618199348449707,0.8582932949066162,0.5111317038536072
1780506536721206000,3.7852060546875,0.4552155137062073,0.6772220134735107,0.5111985802650452
1780506536731198000,3.795197998046875,0.42769038677215576,0.4759349524974823,0.5179957747459412
1780506536741191200,3.805191162109375,0.4009723663330078,0.2863351106643677,0.513405978679657
1780506536751183000,3.81518310546875,0.3768260180950165,0.09385222941637039,0.47971540689468384
1780506536761175000,3.825175048828125,0.37166547775268555,-0.06128322333097458,0.4453792870044708
1780506536771168000,3.83516796875,0.3754868507385254,-0.1787824183702469,0.423175185918808
1780506536781160200,3.84516015625,0.37478578090667725,-0.24460676312446594,0.4019209146499634
1780506536791152000,3.855152099609375,0.36270222067832947,-0.2816007435321808,0.35534197092056274
1780506536801145000,3.86514501953125,0.32607507705688477,-0.28253212571144104,0.3169860243797302
1780506536811137000,3.875136962890625,0.25710931420326233,-0.26092562079429626,0.2822299003601074
1780506536821129000,3.88512890625,0.14961281418800354,-0.2675988972187042,0.18775320053100586
1780506536831122200,3.8951220703125,0.04480971395969391,-0.2890315055847168,-0.0028023654595017433
1780506536841114000,3.905114013671875,-0.04249056056141853,-0.34337836503982544,-0.2406449019908905
1780506536851106000,3.91510595703125,-0.08775497227907181,-0.41458994150161743,-0.4967309832572937
1780506536861099000,3.92509912109375,-0.10058008879423141,-0.473773717880249,-0.7133669257164001
1780506536871091200,3.93509130859375,-0.08507436513900757,-0.534001886844635,-0.8205745816230774
1780506536881083100,3.945083251953125,-0.06898807734251022,-0.6323726773262024,-0.8598642945289612
1780506536891076000,3.955076171875,-0.04906656965613365,-0.6367540955543518,-0.9313270449638367
1780506536901068000,3.965068115234375,-0.015071451663970947,-0.5074418783187866,-1.005539894104004
1780506536911060000,3.97506005859375,0.055703651160001755,-0.36169663071632385,-0.9205507040023804
1780506536921053000,3.985052978515625,0.12772978842258453,-0.20967349410057068,-0.71302729845047
1780506536931045000,3.995045166015625,0.17499956488609314,-0.25169312953948975,-0.6170117855072021
1780506536941037000,4.005037109375,0.21804383397102356,-0.3354867696762085,-0.5437344908714294
1780506536951030000,4.015030029296875,0.2506512999534607,-0.3826657235622406,-0.4691436290740967
1780506536961022200,4.025022216796875,0.2595839500427246,-0.36926525831222534,-0.4445474147796631
1780506536971014100,4.03501416015625,0.2366064488887787,-0.3307053744792938,-0.39802464842796326
1780506536981007000,4.045007080078125,0.20660553872585297,-0.2727452218532562,-0.2680259644985199
1780506536990999000,4.0549990234375,0.19350598752498627,-0.20949405431747437,-0.08847591280937195
1780506537000991200,4.0649912109375,0.17391632497310638,-0.2219448834657669,0.06433050334453583
1780506537010984000,4.07498388671875,0.11062256246805191,-0.2750629782676697,0.15635257959365845
1780506537020976000,4.08497607421875,-0.0011545643210411072,-0.35087156295776367,0.13156110048294067
1780506537030968000,4.094968017578125,-0.1425178050994873,-0.42989686131477356,-0.023053253069519997
1780506537040961000,4.1049609375,-0.2360224574804306,-0.6410252451896667,-0.24378174543380737
1780506537050953200,4.114953125,-0.2559104263782501,-0.932778000831604,-0.42092591524124146
1780506537060945200,4.124945068359375,-0.29350772500038147,-1.188258171081543,-0.45949646830558777
1780506537070938000,4.134938232421875,-0.3630883991718292,-1.300033688545227,-0.5129208564758301
1780506537080930000,4.144929931640625,-0.4859345555305481,-1.291365623474121,-0.599886953830719
1780506537090922200,4.154922119140625,-0.6610949039459229,-1.2617967128753662,-0.6775332689285278
1780506537100915000,4.1649150390625,-0.8527324199676514,-1.1795657873153687,-0.7113752961158752
1780506537110907100,4.1749072265625,-0.9602479338645935,-1.1075690984725952,-0.7494134902954102
1780506537120899000,4.184899169921875,-0.9793638586997986,-1.0641348361968994,-0.8345654606819153
1780506537130892000,4.19489208984375,-1.0163370370864868,-0.9492944478988647,-0.9813077449798584
1780506537140884000,4.204884033203125,-1.064624547958374,-0.7556738257408142,-1.1642948389053345
1780506537150876200,4.214876220703125,-1.1296799182891846,-0.5069460272789001,-1.2941830158233643
1780506537160869000,4.224869140625,-1.139015555381775,-0.15972670912742615,-1.3679767847061157
1780506537170861000,4.234861083984375,-1.134149432182312,0.16065236926078796,-1.3297820091247559
1780506537180853200,4.244853271484375,-1.1397552490234375,0.3789912760257721,-1.151394009590149
1780506537190846000,4.254845947265625,-1.1136384010314941,0.4132691025733948,-0.9431475400924683
1780506537200838100,4.264838134765625,-1.059852957725525,0.26523423194885254,-0.7223517298698425
1780506537210830000,4.274830078125,-1.043929934501648,0.16018584370613098,-0.4577469825744629
1780506537220823000,4.284822998046875,-0.975818932056427,-0.037783633917570114,-0.2843788266181946
1780506537230815000,4.29481494140625,-0.9178959727287292,-0.1274980753660202,-0.16711555421352386
1780506537240807200,4.30480712890625,-0.8656696081161499,-0.23132307827472687,-0.06627902388572693
1780506537250800000,4.314800048828125,-0.7514322400093079,-0.46439892053604126,-0.036828454583883286
1780506537260792000,4.3247919921875,-0.6155478358268738,-0.5973342657089233,-0.01919427327811718
1780506537270784300,4.3347841796875,-0.4667833745479584,-0.67662113904953,-0.01836017146706581
1780506537280777000,4.34477685546875,-0.3319709599018097,-0.7024463415145874,-0.01059772726148367
1780506537290769200,4.35476904296875,-0.21964068710803986,-0.7265817523002625,0.030493782833218575
1780506537300761000,4.364760986328125,-0.09319379925727844,-0.7922765016555786,0.05705951899290085
1780506537310754000,4.374754150390625,0.0046291658654809,-0.8288776278495789,0.08071424812078476
1780506537320746000,4.38474609375,0.07563594728708267,-0.8108867406845093,0.10184925049543381
1780506537330738200,4.39473828125,0.11765450239181519,-0.7094264626502991,0.10433264821767807
1780506537340731100,4.404731201171875,0.19578486680984497,-0.5609629154205322,0.06092781201004982
1780506537350723000,4.41472314453125,0.2526891529560089,-0.39119648933410645,0.028869744390249252
1780506537360715300,4.42471533203125,0.30623841285705566,-0.25405967235565186,0.009610855020582676
1780506537370708000,4.4347080078125,0.35801637172698975,-0.16774557530879974,0.0017795630265027285
1780506537380700200,4.4447001953125,0.3972286283969879,-0.1181437149643898,-0.009329899214208126
1780506537390692000,4.454692138671875,0.43028193712234497,-0.08433755487203598,-0.0199082400649786
1780506537400685000,4.46468505859375,0.44961994886398315,-0.04660402610898018,-0.016037575900554657
1780506537410677000,4.474677001953125,0.4721665382385254,-0.004043251741677523,0.0012306255521252751
1780506537420669200,4.484669189453125,0.4863521456718445,0.06360995769500732,0.029570825397968292
1780506537430662100,4.494662109375,0.5108108520507812,0.1404288411140442,0.07427144795656204
1780506537440654000,4.504654052734375,0.5336148738861084,0.20235778391361237,0.1269749402999878
1780506537450646000,4.51464599609375,0.5630377531051636,0.2761223018169403,0.19469192624092102
1780506537460639000,4.524638916015625,0.6011202335357666,0.3479102551937103,0.26746755838394165
1780506537470631200,4.534631103515625,0.6538984775543213,0.41845792531967163,0.34218519926071167
1780506537480623000,4.544623046875,0.7082212567329407,0.5160970687866211,0.4160623252391815
1780506537490616000,4.554615966796875,0.7511996626853943,0.6435732841491699,0.5136541128158569
1780506537500608000,4.56460791015625,0.7880870699882507,0.7864841818809509,0.6352630257606506
1780506537510600200,4.57460009765625,0.8037746548652649,0.8743290901184082,0.7340489625930786
1780506537520593000,4.584593017578125,0.7822933793067932,0.8998890519142151,0.7605985403060913
1780506537530585000,4.594585205078125,0.7377045750617981,0.9117949604988098,0.7114888429641724
1780506537540578000,4.604578125,0.6325689554214478,0.9638583064079285,0.6418037414550781
1780506537550570000,4.614570068359375,0.4910973310470581,1.0599526166915894,0.5932393670082092
1780506537560562200,4.624562255859375,0.3769623935222626,1.1254838705062866,0.5567869544029236
1780506537570554600,4.6345546875,0.31066831946372986,1.0814341306686401,0.5125065445899963
1780506537580546800,4.644546875,0.2523685097694397,0.9656307101249695,0.45411625504493713
1780506537590538800,4.654538818359375,0.1875346601009369,0.8377046585083008,0.3510380685329437
1780506537600531700,4.66453173828125,0.12781792879104614,0.7147367596626282,0.24244271218776703
1780506537610523600,4.674523681640625,0.12523306906223297,0.5800822377204895,0.16556496918201447
1780506537620515800,4.684515869140625,0.18177612125873566,0.43507957458496094,0.12610988318920135
1780506537630508800,4.6945087890625,0.23276552557945251,0.330616295337677,0.13077014684677124
1780506537640500700,4.704500732421875,0.2737559974193573,0.22698277235031128,0.15360556542873383
1780506537650493000,4.714492919921875,0.285887211561203,0.13623875379562378,0.14265598356723785
1780506537660485600,4.724485595703125,0.2758360207080841,0.08663172274827957,0.08806423842906952
1780506537670477800,4.734477783203125,0.24185383319854736,0.09702683985233307,0.0077227940782904625
1780506537680469800,4.7444697265625,0.18028421700000763,0.1723250448703766,-0.05753333866596222
1780506537690462700,4.754462646484375,0.0788358822464943,0.2641755938529968,-0.08194413781166077
1780506537700454700,4.76445458984375,-0.034219980239868164,0.35925722122192383,-0.03977419063448906
1780506537710446800,4.77444677734375,-0.1002165749669075,0.44502565264701843,0.03388138860464096
1780506537720439600,4.784439453125,-0.1100568100810051,0.4738239049911499,0.07876075059175491
1780506537730431700,4.794431640625,-0.0685218870639801,0.44337892532348633,0.0943056270480156
1780506537740423700,4.804423583984375,0.007034794427454472,0.3736088275909424,0.12083999067544937
1780506537750416600,4.814416748046875,0.11638391762971878,0.2735613286495209,0.13336217403411865
1780506537760408800,4.824408935546875,0.1778479367494583,0.14176461100578308,0.22286456823349
1780506537770400800,4.83440087890625,0.3064615726470947,0.15675288438796997,0.24003742635250092
1780506537780393700,4.844393798828125,0.3683912754058838,0.16491200029850006,0.2868198752403259
1780506537790385700,4.8543857421875,0.29684463143348694,0.16199079155921936,0.40484583377838135
1780506537800377900,4.8643779296875,0.17592088878154755,0.18577493727207184,0.5346555113792419
1780506537810370600,4.87437060546875,0.07706621289253235,0.2010967880487442,0.5968329310417175
1780506537820362800,4.88436279296875,-0.02463218942284584,0.21940948069095612,0.6778590679168701
1780506537830354700,4.894354736328125,-0.1858980357646942,0.22663117945194244,0.7698172330856323
1780506537840347600,4.90434765625,-0.35002920031547546,0.20315328240394592,0.846649169921875
1780506537850339800,4.91433984375,-0.38077086210250854,0.18814104795455933,0.8328475952148438
1780506537860331800,4.924331787109375,-0.24832358956336975,-0.04619304835796356,0.655664324760437
1780506537870324700,4.93432470703125,-0.043177634477615356,-0.2781684994697571,0.513627290725708
1780506537880316700,4.944316650390625,0.16168682277202606,-0.5261163711547852,0.4194461405277252
1780506537890308900,4.954308837890625,0.2846529483795166,-0.7837393879890442,0.40786537528038025
1780506537900301600,4.964301513671875,0.27130037546157837,-0.7332448959350586,0.37554988265037537
1780506537910293800,4.974293701171875,0.07852667570114136,-0.5957674980163574,0.32187172770500183
1780506537920285700,4.98428564453125,-0.24243175983428955,-0.6112548112869263,0.35205644369125366
1780506537930278700,4.994278564453125,-0.5220588445663452,-0.561973512172699,0.3914611041545868
1780506537940270800,5.004270751953125,-0.6060732007026672,-0.5520046949386597,0.12247790396213531
1780506537950263800,5.014263916015625,-0.5062440633773804,-0.37577399611473083,-0.38440582156181335
1780506537960255700,5.024255859375,-0.5114024877548218,-0.23271331191062927,-0.8021681904792786
1780506537970247700,5.03424755859375,-0.564661979675293,-0.2927692234516144,-0.8862165212631226
1780506537980241000,5.044240966796875,-0.6002941727638245,-0.11790158599615097,-0.7201069593429565
1780506537990232800,5.05423291015625,-0.5851964354515076,0.10673525184392929,-0.49426397681236267
1780506538000224800,5.064224853515625,-0.5607361197471619,0.5058116912841797,-0.1343144029378891
1780506538010218000,5.074218017578125,-0.5223426818847656,0.9747956395149231,0.30698737502098083
1780506538020209700,5.084209716796875,-0.42296332120895386,1.2014697790145874,0.676592230796814
1780506538030201600,5.09420166015625,-0.2164122760295868,1.2426291704177856,0.9672831296920776
1780506538040194800,5.10419482421875,0.03080950677394867,1.158720850944519,1.1955558061599731
1780506538050186800,5.114186767578125,0.246584951877594,0.9710596203804016,1.302424669265747
1780506538060178700,5.1241787109375,0.42750200629234314,0.6959158182144165,1.286187767982483
1780506538070172000,5.134171875,0.5605835914611816,0.4122031629085541,1.2000595331192017
1780506538080163800,5.144163818359375,0.6358502507209778,0.21590426564216614,1.0411618947982788
1780506538090155800,5.15415576171875,0.6143726706504822,0.15888306498527527,0.8080785870552063
1780506538100148700,5.164148681640625,0.506005585193634,0.148607075214386,0.5536113977432251
1780506538110141000,5.174140869140625,0.3743034899234772,0.132465660572052,0.39832431077957153
1780506538120132600,5.184132568359375,0.2814338803291321,0.12400086224079132,0.31929612159729004
1780506538130125800,5.194125732421875,0.25453194975852966,0.08602578938007355,0.23525048792362213
1780506538140117800,5.20411767578125,0.27804192900657654,0.047163672745227814,0.20345079898834229
1780506538150109700,5.214109619140625,0.3127594292163849,0.07300858944654465,0.21487709879875183
1780506538160103000,5.22410302734375,0.3519004285335541,0.08692959696054459,0.2359209805727005
1780506538170094800,5.2340947265625,0.36677393317222595,0.10518822818994522,0.2829236388206482
1780506538180086800,5.244086669921875,0.3663741648197174,0.12888596951961517,0.3191898465156555
1780506538190079700,5.254079833984375,0.3413654863834381,0.1352171003818512,0.32791274785995483
1780506538200072000,5.264072021484375,0.28289249539375305,0.066146619617939,0.29282161593437195
1780506538210065000,5.27406494140625,0.20225301384925842,-0.03521968051791191,0.18789146840572357
1780506538220056800,5.284056884765625,0.11107171326875687,-0.16100357472896576,0.000968012202065438
1780506538230048800,5.294048828125,0.03825635835528374,-0.30611202120780945,-0.22184163331985474
1780506538240041700,5.304041748046875,0.003071344457566738,-0.4131392240524292,-0.5245320200920105
1780506538250034000,5.314033935546875,-0.028147561475634575,-0.5004557371139526,-0.8221362829208374
1780506538260025900,5.32402587890625,-0.054944153875112534,-0.5915653705596924,-1.010599970817566
1780506538270018800,5.334018798828125,-0.02915356680750847,-0.5806728005409241,-1.0433560609817505
1780506538280010800,5.3440107421875,0.023687679320573807,-0.49453356862068176,-0.9900200963020325
1780506538290003000,5.3540029296875,0.07528988271951675,-0.44743847846984863,-0.8483774662017822
1780506538299996000,5.363995849609375,0.07479213923215866,-0.52440345287323,-0.6051527261734009
1780506538309987800,5.37398779296875,0.08148173987865448,-0.6231456995010376,-0.44694527983665466
1780506538319980000,5.38397998046875,0.06715579330921173,-0.6564909219741821,-0.41632136702537537
1780506538329972700,5.39397265625,0.009605411440134048,-0.5912458300590515,-0.47623130679130554
1780506538339965000,5.40396484375,-0.04714934527873993,-0.4828725755214691,-0.5538856983184814
1780506538349956900,5.413956787109375,-0.07250690460205078,-0.3746882975101471,-0.5355133414268494
1780506538359949800,5.42394970703125,-0.06588122248649597,-0.29814186692237854,-0.3420673608779907
1780506538369941800,5.433941650390625,-0.031724050641059875,-0.3953720033168793,-0.13880905508995056
1780506538379934000,5.443933837890625,0.05132915452122688,-0.4711827039718628,-0.0545465350151062
1780506538389927000,5.453927001953125,0.129863902926445,-0.4372750520706177,-0.08319495618343353
1780506538399918800,5.4639189453125,0.16052182018756866,-0.3939310908317566,-0.1087300181388855
1780506538409910800,5.473910888671875,0.14182829856872559,-0.4340774416923523,-0.10019085556268692
1780506538419903700,5.48390380859375,0.11401809751987457,-0.5738170742988586,-0.06019335240125656
1780506538429896000,5.49389599609375,0.1410079002380371,-0.754616379737854,-0.06492047011852264
1780506538439888000,5.503887939453125,0.19406473636627197,-0.8112415075302124,-0.08211193233728409
1780506538449880800,5.513880859375,0.19956843554973602,-0.7305554151535034,-0.07197780162096024
1780506538459872800,5.523872802734375,0.17456001043319702,-0.6361013650894165,-0.08002947270870209
1780506538469865700,5.53386572265625,0.1547628790140152,-0.5369771718978882,-0.11257649213075638
1780506538479857700,5.543857666015625,0.13127484917640686,-0.3847377896308899,-0.1414598971605301
1780506538489849900,5.553849853515625,0.09911345690488815,-0.20746102929115295,-0.12073835730552673
1780506538499842800,5.5638427734375,0.07116158306598663,-0.13201293349266052,-0.14151689410209656
1780506538509834800,5.573834716796875,0.04273100569844246,-0.14689840376377106,-0.22207111120224
1780506538519827000,5.583826904296875,-0.013300037011504173,-0.1647157520055771,-0.34796327352523804
1780506538529819600,5.593819580078125,-0.1626216173171997,-0.1709267795085907,-0.4561547338962555
1780506538539811800,5.603811767578125,-0.3578317165374756,-0.269699364900589,-0.6865274310112
1780506538549803800,5.6138037109375,-0.5898393988609314,-0.3304409980773926,-0.9753661155700684
1780506538559796700,5.623796630859375,-0.8586138486862183,-0.23040655255317688,-1.1953243017196655
1780506538569789200,5.6337890625,-1.1193397045135498,-0.010600960813462734,-1.2741485834121704
1780506538579781000,5.643781005859375,-1.2986854314804077,-0.0239122211933136,-1.3296964168548584
1780506538589774000,5.653774169921875,-1.364395022392273,-0.22556011378765106,-1.4269849061965942
1780506538599766000,5.66376611328125,-1.376183032989502,-0.4189143478870392,-1.5341793298721313
1780506538609758200,5.67375830078125,-1.3669557571411133,-0.5055685639381409,-1.6292462348937988
1780506538619751000,5.6837509765625,-1.3481965065002441,-0.33105960488319397,-1.6804711818695068
1780506538629743000,5.6937431640625,-1.2438404560089111,0.003961530979722738,-1.602577805519104
1780506538639735000,5.703735107421875,-1.048291802406311,0.15488287806510925,-1.4198271036148071
1780506538649728000,5.71372802734375,-0.9027931690216064,0.18764694035053253,-1.2244515419006348
1780506538659720200,5.72372021484375,-0.8367523550987244,0.17648617923259735,-1.063062071800232
1780506538669712100,5.733712158203125,-0.837669312953949,0.14905881881713867,-0.8453865647315979
1780506538679705000,5.743705078125,-0.8108425736427307,0.08234056830406189,-0.6356126666069031
1780506538689697000,5.753697021484375,-0.8288881778717041,0.20103605091571808,-0.45848265290260315
1780506538699690000,5.76368994140625,-0.8465285897254944,0.17222285270690918,-0.2839546501636505
1780506538709682000,5.773681884765625,-0.8096299171447754,0.04723110422492027,-0.16337469220161438
1780506538719674000,5.783674072265625,-0.7566945552825928,-0.0698373094201088,-0.09809581935405731
1780506538729667000,5.7936669921875,-0.6680395007133484,-0.2198217511177063,-0.07054115831851959
1780506538739659000,5.803658935546875,-0.5501610636711121,-0.3297725021839142,-0.06517323106527328
1780506538749651200,5.813651123046875,-0.4278298616409302,-0.4162338972091675,-0.044653043150901794
1780506538759644000,5.823643798828125,-0.2840614914894104,-0.5070858597755432,-0.019215844571590424
1780506538769636000,5.833635986328125,-0.1178075447678566,-0.6421704292297363,-0.02255944348871708
1780506538779628000,5.8436279296875,0.011712636798620224,-0.7418891787528992,-0.00017854753241408616
1780506538789621000,5.85362109375,0.11612612009048462,-0.7704140543937683,0.013667227700352669
1780506538799613000,5.863613037109375,0.22153417766094208,-0.7369067668914795,0.0058915093541145325
1780506538809605000,5.873605224609375,0.3289770185947418,-0.640044093132019,-0.0037315567024052143
1780506538819598000,5.88359814453125,0.4346063733100891,-0.5038565397262573,-0.005850830115377903
1780506538829590000,5.893590087890625,0.5153238773345947,-0.36109140515327454,0.0024510419461876154
1780506538839582000,5.90358203125,0.5764067769050598,-0.22857138514518738,0.009971044026315212
1780506538849575200,5.9135751953125,0.6188940405845642,-0.10312237590551376,0.04448854178190231
1780506538859567000,5.923567138671875,0.656335175037384,-0.021992096677422523,0.10326282680034637
1780506538869559000,5.93355908203125,0.6784950494766235,0.04985519498586655,0.18047025799751282
1780506538879552000,5.943552001953125,0.7004768252372742,0.12393461912870407,0.26892566680908203
1780506538889544000,5.9535439453125,0.7279039025306702,0.20476500689983368,0.3561335504055023
1780506538899536100,5.9635361328125,0.7474734783172607,0.3023407757282257,0.4280252754688263
1780506538909529000,5.973529052734375,0.7430606484413147,0.41469526290893555,0.48985856771469116
1780506538919521000,5.98352099609375,0.7281115055084229,0.5912929177284241,0.5531687140464783
1780506538929513000,5.993512939453125,0.7111013531684875,0.7825387716293335,0.6169852018356323
1780506538939506200,6.003506103515625,0.7043405175209045,0.9413706064224243,0.641390323638916
1780506538949498000,6.013498046875,0.7168816328048706,1.0478302240371704,0.6750574707984924
1780506538959491000,6.023490966796875,0.7284216284751892,1.0930899381637573,0.7580601572990417
1780506538969483300,6.033483154296875,0.7333551049232483,1.0611697435379028,0.846067488193512
1780506538979475000,6.043474853515625,0.7652410268783569,0.9624384045600891,0.9042854309082031
1780506538989468200,6.05346826171875,0.7763937711715698,0.8179070353507996,0.9154486060142517
1780506538999460000,6.063460205078125,0.7463802695274353,0.7266682982444763,0.8982982635498047
1780506539009452000,6.0734521484375,0.6886202692985535,0.6429060697555542,0.844548761844635
1780506539019445200,6.0834453125,0.6074823141098022,0.6103859543800354,0.7738232612609863
1780506539029437200,6.093437255859375,0.510367751121521,0.6306624412536621,0.721541702747345
1780506539039429000,6.10342919921875,0.4249666631221771,0.6198411583900452,0.6808769702911377
1780506539049422000,6.113422119140625,0.3732092082500458,0.5428787469863892,0.6167610883712769
1780506539059414300,6.123414306640625,0.32017168402671814,0.4463682770729065,0.5229232311248779
1780506539069406000,6.133406005859375,0.26301491260528564,0.34664326906204224,0.3966510593891144
1780506539079399200,6.143399169921875,0.2186201512813568,0.2478359341621399,0.2892557978630066
1780506539089391000,6.15339111328125,0.20845219492912292,0.17680568993091583,0.21657013893127441
1780506539099383000,6.163383056640625,0.22881059348583221,0.1361495405435562,0.18614883720874786
1780506539109376300,6.173376220703125,0.26978227496147156,0.05874582752585411,0.18153011798858643
1780506539119368200,6.1833681640625,0.32160288095474243,-0.01035375241190195,0.15714505314826965
1780506539129360100,6.193360107421875,0.3825386166572571,-0.045240096747875214,0.10658308118581772
1780506539139353000,6.20335302734375,0.3945709466934204,-0.1292479932308197,0.07244984060525894
1780506539149345300,6.21334521484375,0.35258087515830994,-0.1698998063802719,0.0445399135351181
1780506539159337000,6.2233369140625,0.27733245491981506,-0.16730016469955444,0.0359039343893528
1780506539169330200,6.233330078125,0.19203275442123413,-0.14976617693901062,0.07588677108287811
1780506539179322000,6.243322021484375,0.14117223024368286,-0.13458268344402313,0.11173202097415924
1780506539189315000,6.253315185546875,0.14204919338226318,-0.11235088109970093,0.09822765737771988
1780506539199307000,6.26330712890625,0.1500401496887207,-0.045019056648015976,0.055710844695568085
1780506539209299200,6.27329931640625,0.1750245988368988,-0.014271794818341732,-0.008737122640013695
1780506539219292200,6.283292236328125,0.20345744490623474,-0.028824713081121445,-0.01522139459848404
1780506539229284000,6.2932841796875,0.1364816129207611,-0.012355191633105278,0.12618421018123627
1780506539239276300,6.3032763671875,-0.01594921573996544,-0.008741670288145542,0.21676713228225708
1780506539249269000,6.31326904296875,-0.10830497741699219,-0.03998827189207077,0.1826898604631424
1780506539259261200,6.32326123046875,-0.16090720891952515,0.11252669990062714,0.1330954134464264
1780506539269253000,6.333253173828125,-0.28072789311408997,0.31562575697898865,0.45822209119796753
1780506539279246000,6.34324609375,-0.20380261540412903,0.40353554487228394,0.77911376953125
1780506539289238000,6.353238037109375,0.16956885159015656,-0.1109037920832634,0.5401251912117004
1780506539299230200,6.363230224609375,0.3355916440486908,-0.4238603711128235,0.45066720247268677
1780506539309223200,6.37322314453125,0.37463653087615967,0.022281691431999207,0.6142944693565369
1780506539319215000,6.383215087890625,0.40942034125328064,0.2770426273345947,0.5150474905967712
1780506539329207300,6.393207275390625,0.35114583373069763,0.37470099329948425,0.4467826783657074
1780506539339200000,6.403199951171875,0.1934661865234375,0.3173559308052063,0.4250135123729706
1780506539349192200,6.413192138671875,-0.00768103264272213,0.2224845588207245,0.44555073976516724
1780506539359184100,6.42318408203125,-0.18477724492549896,0.07054296135902405,0.3041028082370758
1780506539369177000,6.433177001953125,-0.29381293058395386,-0.05236538499593735,0.17912732064723969
1780506539379169000,6.4431689453125,-0.283794641494751,-0.13480286300182343,0.25654226541519165
1780506539389161200,6.4531611328125,-0.2130190134048462,-0.14881721138954163,0.3571823239326477
1780506539399154200,6.463154296875,-0.15924033522605896,-0.03178080916404724,0.450833261013031
1780506539409146000,6.47314599609375,-0.14260970056056976,0.2766667902469635,0.4785682260990143
1780506539419138300,6.48313818359375,-0.14351609349250793,0.5403298735618591,0.46285197138786316
1780506539429131000,6.493131103515625,-0.13313430547714233,0.8928796648979187,0.4182501435279846
1780506539439123200,6.503123291015625,-0.12850558757781982,1.3289272785186768,0.35592058300971985
1780506539449115100,6.513115234375,-0.1084195002913475,1.640992522239685,0.28953543305397034
1780506539459108000,6.523108154296875,-0.053286999464035034,1.795167088508606,0.25978219509124756
1780506539469100000,6.53310009765625,0.04843243956565857,1.8838233947753906,0.23351062834262848
1780506539479093000,6.543093017578125,0.13900932669639587,1.8127086162567139,0.22915874421596527
1780506539489085200,6.553085205078125,0.22669045627117157,1.6483969688415527,0.2102377861738205
1780506539499077000,6.5630771484375,0.3015391230583191,1.4289913177490234,0.1976538598537445
1780506539509070000,6.573070068359375,0.36516499519348145,1.2101963758468628,0.21003755927085876
1780506539519062000,6.58306201171875,0.3956713378429413,1.0575460195541382,0.21922828257083893
1780506539529054200,6.59305419921875,0.3953999876976013,0.9203320741653442,0.2195926010608673
1780506539539047000,6.603046875,0.3635132908821106,0.8007820248603821,0.2325180172920227
1780506539549039000,6.6130390625,0.3274378478527069,0.6863678097724915,0.24973295629024506
1780506539559031000,6.623031005859375,0.29287853837013245,0.5862286686897278,0.25685054063796997
1780506539569024000,6.63302392578125,0.2703031897544861,0.5019545555114746,0.24648337066173553
1780506539579018800,6.643018798828125,0.2670516073703766,0.40150949358940125,0.22259312868118286
1780506539589010700,6.6530107421875,0.2689778506755829,0.3015266954898834,0.18503856658935547
1780506539599004000,6.66300390625,0.2656257152557373,0.2089158296585083,0.133719339966774
1780506539608995800,6.672995849609375,0.24873170256614685,0.14721918106079102,0.0938883051276207
1780506539618987800,6.68298779296875,0.2267431914806366,0.12225223332643509,0.06382466852664948
1780506539628981000,6.69298095703125,0.19349202513694763,0.09857700020074844,0.03419433906674385
1780506539638972700,6.70297265625,0.17022424936294556,0.09161535650491714,0.001453532138839364
1780506539648964900,6.71296484375,0.14057660102844238,0.09594938904047012,-0.0327177532017231
1780506539658957800,6.722957763671875,0.12074245512485504,0.08355090767145157,-0.027404814958572388
1780506539668949800,6.73294970703125,0.09856417775154114,0.05152825638651848,0.006805351935327053
1780506539678941700,6.742941650390625,0.07782986760139465,-0.010593433864414692,0.0513344444334507
1780506539688935000,6.752934814453125,0.06392523646354675,-0.08362023532390594,0.07361391931772232
1780506539698926800,6.7629267578125,0.05447101965546608,-0.13452363014221191,0.06624740362167358
1780506539708918800,6.772918701171875,0.03884226083755493,-0.1123267263174057,0.043375637382268906
1780506539718912000,6.782912109375,0.03779764100909233,-0.16647019982337952,0.04805824160575867
1780506539728903700,6.792903564453125,0.034040987491607666,-0.19527947902679443,0.02437235228717327
1780506539738897000,6.80289697265625,0.036781907081604004,-0.2019398957490921,-0.01699182204902172
1780506539748888800,6.812888916015625,0.08972421288490295,-0.2730015516281128,-0.018406227231025696
1780506539758880800,6.822880859375,0.1834176778793335,-0.3450230062007904,-0.08011547476053238
1780506539768874000,6.8328740234375,0.24699799716472626,-0.34008070826530457,-0.26333457231521606
1780506539778866000,6.842865966796875,0.23281879723072052,-0.3546713888645172,-0.5083678960800171
1780506539788857900,6.85285791015625,0.14638803899288177,-0.4710371494293213,-0.7246440052986145
1780506539798850800,6.862850830078125,0.009887976571917534,-0.5018401145935059,-0.9020997285842896
1780506539808843000,6.872843017578125,-0.10721094906330109,-0.554141640663147,-1.0172250270843506
1780506539818834700,6.882834716796875,-0.1919194608926773,-0.7187656164169312,-1.0179411172866821
1780506539828828000,6.892827880859375,-0.20824863016605377,-0.8050714731216431,-0.8930420279502869
1780506539838819800,6.90281982421875,-0.19884033501148224,-0.8103641271591187,-0.6291569471359253
1780506539848811800,6.912811767578125,-0.1940503716468811,-0.8148859143257141,-0.3120953440666199
1780506539858805000,6.922804931640625,-0.18454980850219727,-0.802334725856781,-0.08867243677377701
1780506539868797000,6.932796875,-0.15172022581100464,-0.7312341928482056,0.03234826400876045
1780506539878788900,6.942788818359375,-0.12512430548667908,-0.6613962650299072,0.1388528048992157
1780506539888781800,6.95278173828125,-0.08841343224048615,-0.6065332889556885,0.19967994093894958
1780506539898774000,6.96277392578125,-0.058324508368968964,-0.5677924156188965,0.20226436853408813
1780506539908765700,6.972765625,-0.04952782019972801,-0.527572512626648,0.07582574337720871
1780506539918759000,6.982759033203125,-0.10290995240211487,-0.4927031695842743,-0.16795270144939423
1780506539928750800,6.992750732421875,-0.22623321413993835,-0.4823879301548004,-0.4529564678668976
1780506539938742800,7.00274267578125,-0.433299720287323,-0.387545645236969,-0.695119321346283
1780506539948735700,7.01273583984375,-0.6965718269348145,-0.17367783188819885,-0.8246171474456787
1780506539958728000,7.02272802734375,-0.9678823947906494,-0.05972316488623619,-0.9512282013893127
1780506539968719600,7.0327197265625,-1.1824301481246948,-0.14899100363254547,-1.2225325107574463
1780506539978712800,7.042712890625,-1.3366012573242188,-0.3712206780910492,-1.4619978666305542
1780506539988705000,7.052705078125,-1.4377284049987793,-0.5660268664360046,-1.6223089694976807
1780506539998696700,7.06269677734375,-1.4675679206848145,-0.6301556825637817,-1.7985930442810059
1780506540008690000,7.07268994140625,-1.4077891111373901,-0.6411817073822021,-1.933471441268921
1780506540018681900,7.082681884765625,-1.2796071767807007,-0.5410991907119751,-1.9701863527297974
1780506540028673800,7.092673828125,-1.1707755327224731,-0.3349350690841675,-1.9092888832092285
1780506540038666800,7.102666748046875,-1.0655927658081055,-0.23396502435207367,-1.7936038970947266
1780506540048659000,7.112658935546875,-0.9813877940177917,-0.19523148238658905,-1.561508297920227
1780506540058650600,7.122650634765625,-0.9112614989280701,-0.23166976869106293,-1.2669373750686646
1780506540068643800,7.132643798828125,-0.9110271334648132,-0.3227142095565796,-0.9529926776885986
1780506540078636000,7.142635986328125,-0.8904135823249817,-0.4165624678134918,-0.6768237948417664
1780506540088628700,7.152628662109375,-0.8560686707496643,-0.4996911585330963,-0.4827709496021271
1780506540098621000,7.162620849609375,-0.7723339796066284,-0.6129031181335449,-0.37043458223342896
1780506540108612900,7.17261279296875,-0.6686052083969116,-0.696490466594696,-0.22052070498466492
1780506540118605800,7.182605712890625,-0.5519378185272217,-0.782898485660553,-0.0961424708366394
1780506540128597800,7.19259765625,-0.4809270203113556,-0.8219884037971497,-0.031233513727784157
1780506540138590000,7.20258984375,-0.432221919298172,-0.7241754531860352,0.027177684009075165
1780506540148583000,7.2125830078125,-0.40267762541770935,-0.586709201335907,0.0670103132724762
1780506540158574800,7.222574951171875,-0.37469443678855896,-0.4532025456428528,0.0818539708852768
1780506540168567000,7.232567138671875,-0.3488284945487976,-0.3191336691379547,0.10358696430921555
1780506540178559700,7.242559814453125,-0.27256691455841064,-0.2667553722858429,0.11040123552083969
1780506540188552000,7.252552001953125,-0.18325352668762207,-0.25214526057243347,0.1382533609867096
1780506540198544000,7.2625439453125,-0.06680747866630554,-0.21403548121452332,0.17852476239204407
1780506540208536800,7.272536865234375,0.08418309688568115,-0.1896395981311798,0.20110277831554413
1780506540218528800,7.28252880859375,0.22429373860359192,-0.19612367451190948,0.1778469979763031
1780506540228521000,7.29252099609375,0.3513001501560211,-0.26530778408050537,0.10335013270378113
1780506540238514000,7.302513916015625,0.44971874356269836,-0.34778568148612976,0.05663304030895233
1780506540248505900,7.312505859375,0.5312052965164185,-0.42628633975982666,0.057135842740535736
1780506540258497800,7.322497802734375,0.6024888157844543,-0.48797929286956787,0.09797605127096176
1780506540268490800,7.33249072265625,0.6678635478019714,-0.5165259838104248,0.166768416762352
1780506540278483000,7.34248291015625,0.7225711345672607,-0.5022348761558533,0.23965409398078918
1780506540288475000,7.352474853515625,0.761615514755249,-0.44926780462265015,0.3113352060317993
1780506540298467800,7.3624677734375,0.7889994382858276,-0.3480437099933624,0.3818776607513428
1780506540308459800,7.372459716796875,0.7950626611709595,-0.1749962866306305,0.42358142137527466
1780506540318452000,7.382451904296875,0.8040018081665039,0.050659749656915665,0.46195346117019653
1780506540328444700,7.392444580078125,0.8330590724945068,0.2786087691783905,0.4934637248516083
1780506540338436900,7.402436767578125,0.8895742297172546,0.4789828658103943,0.5466829538345337
1780506540348428800,7.4124287109375,0.93911212682724,0.6622330546379089,0.6298561096191406
1780506540358421800,7.422421875,0.9576751589775085,0.8196591734886169,0.7417382001876831
1780506540368414000,7.4324140625,0.9594051241874695,0.978276252746582,0.8763309717178345
1780506540378406000,7.442406005859375,0.9496893882751465,0.989280104637146,0.9261620044708252
1780506540388398800,7.45239892578125,0.8483593463897705,0.9313726425170898,0.8735182285308838
1780506540398390800,7.462390869140625,0.7069113850593567,0.8741394281387329,0.773179829120636
1780506540408383000,7.472383056640625,0.5566654205322266,0.8171582221984863,0.6494277715682983
1780506540418375700,7.482375732421875,0.4034062325954437,0.7487531900405884,0.543886661529541
1780506540428368000,7.492367919921875,0.27016401290893555,0.641409158706665,0.4918842017650604
1780506540438359800,7.50235986328125,0.19257402420043945,0.523699164390564,0.4736389219760895
1780506540448352800,7.512352783203125,0.1556018888950348,0.43361929059028625,0.449251264333725
1780506540458345000,7.522344970703125,0.13589663803577423,0.37071746587753296,0.39660966396331787
1780506540468337000,7.5323369140625,0.1372830718755722,0.2976110279560089,0.34265297651290894
1780506540478329900,7.542329833984375,0.16022460162639618,0.21052908897399902,0.2768554091453552
1780506540488321800,7.55232177734375,0.20030438899993896,0.09540091454982758,0.19990471005439758
1780506540498314800,7.562314697265625,0.23255060613155365,-0.02942017838358879,0.10906205326318741
1780506540508306700,7.572306640625,0.24604244530200958,-0.11087002605199814,0.0056765410117805
1780506540518299000,7.582298828125,0.2397037297487259,-0.15961141884326935,-0.09653379023075104
1780506540528291800,7.592291748046875,0.20788773894309998,-0.12061821669340134,-0.18463514745235443
1780506540538283800,7.60228369140625,0.13220390677452087,-0.17394813895225525,-0.22935041785240173
1780506540548276000,7.61227587890625,0.010626062750816345,-0.24405185878276825,-0.27290934324264526
1780506540558268700,7.6222685546875,-0.017479488626122475,-0.30473828315734863,-0.29271429777145386
1780506540568260900,7.6322607421875,0.04944894462823868,-0.33437979221343994,-0.32243597507476807
1780506540578249700,7.642249755859375,0.05402613431215286,-0.4549148976802826,-0.22347740828990936
1780506540588242700,7.65224267578125,0.06869962066411972,-0.48323148488998413,-0.11603403091430664
1780506540598234600,7.662234619140625,0.09679463505744934,-0.5036579370498657,0.025543121621012688
1780506540608226800,7.672226806640625,0.13677027821540833,-0.5329846739768982,0.18216735124588013
1780506540618219500,7.682219482421875,0.03371807187795639,-0.6356120109558105,0.4019462466239929
1780506540628211700,7.692211669921875,-0.09003796428442001,-0.6602438688278198,0.521403968334198
1780506540638203600,7.70220361328125,-0.2724149525165558,-0.5564665794372559,0.6002892851829529
1780506540648196600,7.712196533203125,-0.6010165214538574,-0.04734797030687332,0.5956284999847412
1780506540658188500,7.7221884765625,-0.8517431616783142,0.7890649437904358,0.697296679019928
1780506540668180700,7.7321806640625,-0.7914004325866699,1.2157846689224243,0.6427109241485596
1780506540678173700,7.742173583984375,-0.604624330997467,1.0279080867767334,0.5397394299507141
1780506540688165600,7.75216552734375,-0.45913609862327576,0.7093750834465027,0.3720942437648773
1780506540698157600,7.762157470703125,-0.2707357108592987,0.22971752285957336,-0.019297955557703972
1780506540708150500,7.772150634765625,-0.1888032853603363,-0.004342916887253523,-0.22737206518650055
1780506540718142700,7.782142822265625,-0.21274510025978088,0.005063634365797043,-0.27053552865982056
1780506540728134700,7.792134765625,-0.24157196283340454,0.009884222410619259,-0.41667115688323975
1780506540738127600,7.802127685546875,-0.26421016454696655,-0.07092926651239395,-0.47767174243927
1780506540748119600,7.81211962890625,-0.23440033197402954,-0.2388535588979721,-0.3820000886917114
1780506540758111700,7.82211181640625,-0.09988326579332352,-0.3460093140602112,-0.1380675584077835
1780506540768104400,7.8321044921875,0.017267588526010513,-0.3866659104824066,0.28706827759742737
1780506540778096600,7.8420966796875,0.09430790692567825,-0.46969255805015564,0.6961274147033691
1780506540788088600,7.852088623046875,0.12138400226831436,-0.4390488862991333,1.0291824340820312
1780506540798081500,7.86208154296875,0.1318940371274948,-0.28798142075538635,1.2956340312957764
1780506540808073700,7.87207373046875,0.14895370602607727,-0.06549082696437836,1.4848712682724
1780506540818065700,7.882065673828125,0.15931060910224915,0.1181873306632042,1.5255084037780762
1780506540828058600,7.89205859375,0.11378839612007141,0.2591167390346527,1.4388779401779175
1780506540838050600,7.902050537109375,0.04530427232384682,0.3993441164493561,1.3073753118515015
1780506540848042800,7.912042724609375,0.026530850678682327,0.4854355752468109,1.1655691862106323
1780506540858035500,7.922035400390625,0.05430535227060318,0.4612923860549927,1.0914379358291626
1780506540868027600,7.932027587890625,0.09885391592979431,0.4124492108821869,1.0780457258224487
1780506540878019600,7.94201953125,0.1336505264043808,0.30951690673828125,1.0473732948303223
1780506540888012500,7.952012451171875,0.16712619364261627,0.18448445200920105,0.9692304730415344
1780506540898004700,7.962004638671875,0.21477946639060974,0.05177435278892517,0.8620897531509399
1780506540907996700,7.97199658203125,0.25507494807243347,-0.03492485731840134,0.7577157020568848
1780506540917989600,7.98198974609375,0.2782789468765259,0.04044480249285698,0.59886634349823
1780506540927981600,7.991981689453125,0.2135217785835266,0.17388808727264404,0.48923760652542114
1780506540937973800,8.001973876953125,0.14347225427627563,0.37413841485977173,0.387037068605423
1780506540947966500,8.011966552734375,0.0903983861207962,0.49779564142227173,0.2779425382614136
1780506540957958700,8.021958740234375,0.0743645578622818,0.49482500553131104,0.16882950067520142
1780506540967950600,8.03195068359375,0.079281285405159,0.47113966941833496,0.07447263598442078
1780506540977943600,8.041943603515625,0.08322716504335403,0.4325770139694214,0.023031562566757202
1780506540987935700,8.051935791015625,0.09336128830909729,0.3411669433116913,-0.014387981034815311
1780506540997927700,8.061927734375,0.11426336318254471,0.21937459707260132,-0.0757482573390007
1780506541007920600,8.071920654296875,0.139504536986351,0.12138013541698456,-0.14531029760837555
1780506541017912600,8.08191259765625,0.16564039885997772,0.024585744366049767,-0.20112769305706024
1780506541027904800,8.09190478515625,0.1695571094751358,-0.053707994520664215,-0.24316516518592834
1780506541037897500,8.1018974609375,0.14564353227615356,-0.12484795600175858,-0.2660142481327057
1780506541047889700,8.1118896484375,0.10291683673858643,-0.19540148973464966,-0.3159613013267517
1780506541057881600,8.121881591796875,0.03411606699228287,-0.2675648331642151,-0.40212857723236084
1780506541067874600,8.13187451171875,-0.03417403995990753,-0.3134785294532776,-0.5315041542053223
1780506541077866500,8.141866455078125,-0.07409828156232834,-0.3812851309776306,-0.6253540515899658
1780506541087858700,8.151858642578125,-0.07792790979146957,-0.42035555839538574,-0.6929799318313599
1780506541097851600,8.1618515625,-0.0661839097738266,-0.4327434003353119,-0.7102143168449402
1780506541107843600,8.171843505859375,-0.06170713156461716,-0.4377850294113159,-0.6811538934707642
1780506541117835800,8.181835693359375,-0.04637691378593445,-0.37067320942878723,-0.5710057020187378
1780506541127828500,8.191828369140625,-0.03255244344472885,-0.31837061047554016,-0.4573395550251007
1780506541137820700,8.201820556640625,-0.018135681748390198,-0.2717323899269104,-0.3920639753341675
1780506541147813600,8.211813720703125,-0.014316976070404053,-0.27056699991226196,-0.41371333599090576
1780506541157805600,8.2218056640625,0.020389076322317123,-0.2657305598258972,-0.44595658779144287
1780506541167797500,8.231797607421875,0.08794654905796051,-0.27361351251602173,-0.4155091941356659
1780506541177790700,8.241790771484375,0.1424671709537506,-0.22640042006969452,-0.37451648712158203
1780506541187782700,8.25178271484375,0.1571262776851654,-0.13820931315422058,-0.37642011046409607
1780506541197774600,8.261774658203125,0.13929735124111176,-0.08512936532497406,-0.4003913104534149
1780506541207766800,8.271766845703125,0.12586888670921326,-0.061755869537591934,-0.41209855675697327
1780506541217759500,8.281759521484375,0.11379439383745193,-0.04536132514476776,-0.35841166973114014
1780506541227751700,8.291751708984375,0.10967981070280075,-0.07188507914543152,-0.3017885982990265
1780506541237744600,8.30174462890625,0.1136283352971077,-0.14713740348815918,-0.24766787886619568
1780506541247736600,8.311736572265625,0.1267060488462448,-0.20188774168491364,-0.22303470969200134
1780506541257728500,8.321728515625,0.11097943037748337,-0.18081781268119812,-0.19248653948307037
1780506541267721700,8.3317216796875,0.07430610060691833,-0.12243519723415375,-0.15383954346179962
1780506541277713700,8.341713623046875,0.054867688566446304,-0.13022734224796295,-0.08586899936199188
1780506541287705600,8.35170556640625,0.07675407826900482,-0.19365984201431274,-0.021846601739525795
1780506541297698800,8.36169873046875,0.10087326169013977,-0.2646469473838806,0.01305971760302782
1780506541307690500,8.3716904296875,0.08463650196790695,-0.33815017342567444,-0.03060227632522583
1780506541317682700,8.3816826171875,0.023275677114725113,-0.3823714256286621,-0.12559457123279572
1780506541327675600,8.391675537109375,-0.055418867617845535,-0.43746185302734375,-0.29633861780166626
1780506541337667600,8.40166748046875,-0.16116473078727722,-0.5017383098602295,-0.46953704953193665
1780506541347659500,8.411659423828125,-0.2773398160934448,-0.5075028538703918,-0.6450603008270264
1780506541357652700,8.42165283203125,-0.4324337840080261,-0.4677169620990753,-0.8498018980026245
1780506541367644700,8.431644775390625,-0.6148978471755981,-0.38899630308151245,-1.1033196449279785
1780506541377636600,8.44163671875,-0.8030483722686768,-0.22095218300819397,-1.380035161972046
1780506541387629800,8.4516298828125,-1.005062222480774,-0.16132107377052307,-1.5518263578414917
1780506541397621500,8.46162158203125,-1.169756293296814,-0.039327532052993774,-1.6857895851135254
1780506541407613700,8.47161376953125,-1.2505435943603516,-0.018417727202177048,-1.7903554439544678
1780506541417606700,8.481606689453125,-1.2790855169296265,-0.12017817795276642,-1.8221274614334106
1780506541427598600,8.4915986328125,-1.2574454545974731,-0.0035865791141986847,-1.7891818284988403
1780506541437590500,8.501590576171875,-1.2158288955688477,0.06886612623929977,-1.59929358959198
1780506541447583700,8.511583740234375,-1.1483808755874634,0.10793682932853699,-1.3989602327346802
1780506541457575700,8.52157568359375,-1.082919955253601,-0.02669137343764305,-1.2517918348312378
1780506541467567600,8.531567626953125,-0.9424775838851929,-0.08958378434181213,-1.0992834568023682
1780506541477560800,8.541560791015625,-0.8123462200164795,0.06199110671877861,-0.7655054330825806
1780506541487552800,8.551552734375,-0.6816439032554626,0.08209770917892456,-0.4509487748146057
1780506541497544700,8.561544677734375,-0.5703009963035583,-0.045353002846241,-0.2998252809047699
1780506541507537700,8.57153759765625,-0.5086075067520142,-0.16829782724380493,-0.21862363815307617
1780506541517529600,8.581529541015625,-0.44591113924980164,-0.28807294368743896,-0.1781381219625473
1780506541527521500,8.591521484375,-0.3681047558784485,-0.3610859215259552,-0.14713998138904572
1780506541537514800,8.6015146484375,-0.2806076407432556,-0.464132696390152,-0.12153604626655579
1780506541547506700,8.611506591796875,-0.15163636207580566,-0.5221946835517883,-0.11060989648103714
1780506541557498600,8.62149853515625,-0.003750756848603487,-0.5409847497940063,-0.10014301538467407
1780506541567491800,8.631491943359375,0.12881740927696228,-0.5628402233123779,-0.07990645617246628
1780506541577484300,8.641484375,0.23554690182209015,-0.5666447281837463,-0.03819894790649414
1780506541587476200,8.651476318359375,0.310250461101532,-0.5570405721664429,0.006055865902453661
1780506541597469400,8.661469482421875,0.3865164518356323,-0.48809120059013367,0.03787931427359581
1780506541607461000,8.671461181640625,0.4796661138534546,-0.39448082447052,0.07151316851377487
1780506541617453300,8.681453369140625,0.575404167175293,-0.29544684290885925,0.11423321068286896
1780506541627446300,8.6914462890625,0.6630008816719055,-0.1879185438156128,0.14639008045196533
1780506541637438200,8.701438232421875,0.7362710237503052,-0.0975884348154068,0.17660175263881683
1780506541647430100,8.71143017578125,0.7804827094078064,-0.042692434042692184,0.22186297178268433
1780506541657423400,8.72142333984375,0.8070584535598755,-0.032773420214653015,0.2659625709056854
1780506541667415300,8.731415283203125,0.8230203986167908,-0.04694489762187004,0.3116285800933838
1780506541677407200,8.7414072265625,0.8257779479026794,-0.04330562427639961,0.35548505187034607
1780506541687400400,8.751400390625,0.8148952126502991,0.00003492558607831597,0.4091368317604065
1780506541697392000,8.76139208984375,0.7936989665031433,0.08373215049505234,0.46877747774124146
1780506541707384300,8.77138427734375,0.766812264919281,0.22149373590946198,0.5312288403511047
1780506541717377300,8.781377197265625,0.7478971481323242,0.38135823607444763,0.5903390049934387
1780506541727369200,8.791369140625,0.7391082048416138,0.5250317454338074,0.6299583315849304
1780506541737361200,8.801361083984375,0.723217248916626,0.6961789727210999,0.6992294788360596
1780506541747354400,8.811354248046875,0.6985348463058472,0.8294656276702881,0.7900614142417908
1780506541757346300,8.82134619140625,0.6611096858978271,0.9029763340950012,0.8853699564933777
1780506541767338200,8.831338134765625,0.5824609398841858,0.9411556720733643,0.9705855250358582
1780506541777331500,8.84133154296875,0.46543189883232117,0.9352370500564575,1.0280821323394775
1780506541787323100,8.8513232421875,0.33023306727409363,0.9009429812431335,1.0327082872390747
1780506541797315300,8.8613154296875,0.21192851662635803,0.9255859851837158,0.977491021156311
1780506541807307300,8.871307373046875,0.14798203110694885,0.9460678100585938,0.8762201070785522
1780506541817300200,8.88130029296875,0.11911191046237946,0.8795220255851746,0.7641992568969727
1780506541827292200,8.891292236328125,0.11522956192493439,0.7213800549507141,0.6515052318572998
1780506541837285400,8.901285400390625,0.1182771548628807,0.5025117993354797,0.5185245871543884
1780506541847277300,8.91127734375,0.13116925954818726,0.270595520734787,0.3766438961029053
1780506541857269200,8.921269287109375,0.15280994772911072,0.09942370653152466,0.2520473897457123
1780506541867261400,8.931261474609375,0.16805334389209747,-0.008277193643152714,0.18362385034561157
1780506541877254100,8.941254150390625,0.1785944253206253,-0.09422699362039566,0.15780647099018097
1780506541887246300,8.951246337890625,0.18540039658546448,-0.14928944408893585,0.13293173909187317
1780506541897238300,8.96123828125,0.1798250526189804,-0.098920539021492,0.09373173117637634
1780506541907231200,8.971231201171875,0.17307312786579132,0.056378502398729324,0.02311827801167965
1780506541917223200,8.98122314453125,0.13091345131397247,0.18523114919662476,-0.07332650572061539
1780506541927215400,8.99121533203125,0.09125711768865585,0.3088577389717102,-0.17711521685123444
1780506541937208000,9.0012080078125,0.03472686558961868,0.3995356559753418,-0.24308256804943085
1780506541947200300,9.0112001953125,-0.021423757076263428,0.48773929476737976,-0.28894752264022827
1780506541957192200,9.021192138671875,-0.08399792015552521,0.5634745359420776,-0.3619748651981354
1780506541967185200,9.03118505859375,-0.15194900333881378,0.5927512049674988,-0.4064589738845825
1780506541977177300,9.04117724609375,-0.3480701744556427,0.603068470954895,-0.31293952465057373
1780506541987169300,9.051169189453125,-0.5706161856651306,0.5070873498916626,-0.17493878304958344
1780506541997162200,9.061162353515625,-0.7782511115074158,0.5195912718772888,-0.18647193908691406
1780506542007154200,9.071154296875,-0.901432454586029,0.8041268587112427,0.11532440036535263
1780506542017146400,9.081146484375,-0.7161154747009277,1.2664275169372559,0.5602195262908936
1780506542027139000,9.09113916015625,-0.29187336564064026,1.2934095859527588,0.38978222012519836
1780506542037131300,9.10113134765625,-0.18888388574123383,0.6673548817634583,-0.20332811772823334
1780506542047123200,9.111123291015625,-0.22029027342796326,0.2703571617603302,-0.38393330574035645
1780506542057116200,9.1211162109375,-0.1217784658074379,0.0927644670009613,-0.20753055810928345
1780506542067108400,9.1311083984375,-0.13658377528190613,0.05878758803009987,-0.03542136773467064
1780506542077100300,9.141100341796875,-0.22028973698616028,0.020965181291103363,-0.038430485874414444
1780506542087093200,9.15109326171875,-0.3250800669193268,-0.21308831870555878,-0.2774728834629059
1780506542097085200,9.161085205078125,-0.4253675043582916,-0.551670491695404,-0.4579060971736908
1780506542107077400,9.171077392578125,-0.40796056389808655,-0.9005499482154846,-0.24947912991046906
1780506542117070000,9.181070068359375,-0.231350377202034,-1.1718032360076904,0.20236791670322418
1780506542127062300,9.191062255859375,-0.04165340214967728,-1.362899899482727,0.6359169483184814
1780506542137054200,9.20105419921875,0.04997144266963005,-1.2957335710525513,0.9401044249534607
1780506542147047200,9.211047119140625,0.09781646728515625,-0.9527381062507629,1.120099425315857
1780506542157039400,9.221039306640625,0.11360541731119156,-0.4359841048717499,1.2016510963439941
1780506542167031300,9.23103125,0.14448529481887817,0.038753900676965714,1.1557912826538086
1780506542177024300,9.241024169921875,0.15350475907325745,0.4123876094818115,1.028544545173645
1780506542187016200,9.25101611328125,0.10906486213207245,0.8233746290206909,0.9498343467712402
1780506542197008400,9.26100830078125,0.11272073537111282,1.1486752033233643,0.8919997811317444
1780506542207001000,9.2710009765625,0.13212266564369202,1.2654156684875488,0.8777852058410645
1780506542216993300,9.2809931640625,0.13950146734714508,1.2359247207641602,0.8765029311180115
1780506542226985200,9.290985107421875,0.14692822098731995,1.111828088760376,0.839331328868866
1780506542236978200,9.300978271484375,0.1597830355167389,0.9145119190216064,0.8064744472503662
1780506542246970000,9.31097021484375,0.19677141308784485,0.6568332314491272,0.7798638343811035
1780506542256962300,9.32096240234375,0.22091098129749298,0.4540642201900482,0.7600303888320923
1780506542266955300,9.330955322265625,0.2486528605222702,0.3566993176937103,0.7191410064697266
1780506542276947200,9.340947265625,0.2813350260257721,0.3034788966178894,0.6821029782295227
1780506542286939400,9.350939453125,0.33266425132751465,0.2486337572336197,0.6776469349861145
1780506542296932000,9.36093212890625,0.3942263126373291,0.1839609444141388,0.691412627696991
1780506542306924300,9.37092431640625,0.4659721255302429,0.09192796796560287,0.6965362429618835
1780506542316916200,9.380916259765625,0.5303720235824585,-0.012738985009491444,0.6683732867240906
1780506542326909200,9.3909091796875,0.5618553757667542,-0.10665003210306168,0.6075333952903748
1780506542336901000,9.400901123046875,0.5514284372329712,-0.18769341707229614,0.5162136554718018
1780506542346893300,9.410893310546875,0.5170779228210449,-0.23328061401844025,0.4014577567577362
1780506542356886300,9.42088623046875,0.4744328558444977,-0.28256621956825256,0.26877737045288086
1780506542366878200,9.430878173828125,0.42761659622192383,-0.3172738552093506,0.15572963654994965
1780506542376870400,9.440870361328125,0.35946139693260193,-0.3140889108181,0.08485853672027588
1780506542386863000,9.450863037109375,0.2910682260990143,-0.3067340552806854,0.029339881613850594
1780506542396855300,9.460855224609375,0.22436894476413727,-0.28365305066108704,-0.015173632651567459
1780506542406847200,9.47084716796875,0.16844229400157928,-0.273724228143692,-0.14202718436717987
1780506542416840200,9.480840087890625,0.11985812336206436,-0.29956069588661194,-0.3241172134876251
1780506542426832100,9.49083203125,0.07956742495298386,-0.31258463859558105,-0.46188467741012573
1780506542436824300,9.50082421875,0.0419585257768631,-0.3568767011165619,-0.540566623210907
1780506542446817300,9.5108173828125,0.0029216455295681953,-0.43088409304618835,-0.606831431388855
1780506542456809200,9.520809326171875,-0.017956342548131943,-0.45611244440078735,-0.6625532507896423
1780506542466801400,9.530801513671875,-0.04491712152957916,-0.539827287197113,-0.6984207034111023
1780506542476794400,9.54079443359375,-0.07075350731611252,-0.6365724802017212,-0.6810510158538818
1780506542486786300,9.550786376953125,-0.08953464776277542,-0.6897443532943726,-0.671334445476532
1780506542496778200,9.5607783203125,-0.11122342944145203,-0.7554365396499634,-0.6682302355766296
1780506542506770400,9.5707705078125,-0.13229967653751373,-0.7008243203163147,-0.6441974639892578
1780506542516763100,9.58076318359375,-0.1520097553730011,-0.5675671696662903,-0.5149530172348022
1780506542526755300,9.59075537109375,-0.1732061207294464,-0.4927254319190979,-0.30298060178756714
1780506542536747300,9.600747314453125,-0.1795939803123474,-0.44321927428245544,-0.1478467732667923
1780506542546740200,9.610740234375,-0.1501636505126953,-0.4017040431499481,-0.08338416367769241
1780506542556732200,9.620732177734375,-0.08173851668834686,-0.3471386730670929,-0.03901364654302597
1780506542566724400,9.630724365234375,-0.02119341492652893,-0.26583021879196167,-0.036270588636398315
1780506542576716800,9.640716796875,0.005292261019349098,-0.21563351154327393,-0.06368125230073929
1780506542586709000,9.650708984375,-0.0006127655506134033,-0.17304690182209015,-0.09525196254253387
1780506542596701000,9.660700927734375,-0.008459237404167652,-0.13331173360347748,-0.1212414801120758
1780506542606694000,9.67069384765625,-0.013314979150891304,-0.0616426095366478,-0.1238441914319992
1780506542616685800,9.680685791015625,-0.011354372836649418,0.04540048912167549,-0.11749051511287689
1780506542626678000,9.690677978515625,0.00037046056240797043,0.10970117896795273,-0.12447571754455566
1780506542636670700,9.700670654296875,0.0011144224554300308,0.1428365558385849,-0.12772758305072784
1780506542646663000,9.710662841796875,0.026547346264123917,0.08608672767877579,-0.1409701406955719
1780506542656654800,9.72065478515625,0.06385689228773117,-0.004479785915464163,-0.16976922750473022
1780506542666647800,9.730647705078125,0.08012081682682037,-0.08942797034978867,-0.17877097427845
1780506542676640000,9.740639892578125,0.08140700310468674,-0.1694795936346054,-0.21617601811885834
1780506542686632000,9.7506318359375,0.04069605469703674,-0.23412464559078217,-0.29805222153663635
1780506542696625000,9.760625,-0.05182695761322975,-0.319827139377594,-0.3760329484939575
1780506542706616800,9.770616943359375,-0.21332983672618866,-0.3764859139919281,-0.45629528164863586
1780506542716609000,9.780609130859375,-0.42294377088546753,-0.374176949262619,-0.5707147121429443
1780506542726601700,9.790601806640625,-0.6079064607620239,-0.45923912525177,-0.8063656091690063
1780506542736594000,9.800593994140625,-0.7824020385742188,-0.5278912782669067,-1.048447608947754
1780506542746585900,9.8105859375,-0.9687303900718689,-0.5057188868522644,-1.13864004611969
1780506542756578800,9.820578857421875,-1.1159098148345947,-0.5165165662765503,-1.1486908197402954
1780506542766570800,9.83057080078125,-1.1436066627502441,-0.5654768943786621,-1.1994757652282715
1780506542776563000,9.84056298828125,-1.0982078313827515,-0.6410049796104431,-1.229769229888916
1780506542786556000,9.850555908203125,-1.0201785564422607,-0.5912331342697144,-1.2545403242111206
1780506542796547800,9.8605478515625,-0.9267224073410034,-0.41408607363700867,-1.2293835878372192
1780506542806540000,9.8705400390625,-0.8234074711799622,-0.21179236471652985,-1.0876381397247314
1780506542816532000,9.880531982421875,-0.6963657140731812,-0.15085704624652863,-0.9384294152259827
1780506542826525000,9.89052490234375,-0.6011571884155273,-0.18428796529769897,-0.8556128740310669
1780506542836516900,9.900516845703125,-0.5422095656394958,-0.11153513938188553,-0.6976247429847717
1780506542846509000,9.910509033203125,-0.44115886092185974,-0.13053439557552338,-0.5599145293235779
1780506542856501800,9.920501708984375,-0.37281522154808044,-0.08577238768339157,-0.43897223472595215
1780506542866494000,9.930493896484375,-0.35799312591552734,0.04367109388113022,-0.29980793595314026
1780506542876486000,9.94048583984375,-0.3380770981311798,0.09536617994308472,-0.20410464704036713
1780506542886478800,9.950478759765625,-0.3022988438606262,0.20125319063663483,-0.1849740892648697
1780506542896471000,9.960470947265625,-0.27141082286834717,0.28916820883750916,-0.18613630533218384
1780506542906463000,9.970462890625,-0.27455204725265503,0.41910624504089355,-0.151790052652359
1780506542916456000,9.9804560546875,-0.27978968620300293,0.5022932887077332,-0.11649491637945175
1780506542926447900,9.99044775390625,-0.2528785467147827,0.5043374300003052,-0.06433282047510147
1780506542936440000,10.000440185546875,-0.1818213015794754,0.4282962679862976,-0.014828425832092762
1780506542946432800,10.010432861328125,-0.10721178352832794,0.35261401534080505,0.049263209104537964
1780506542956425000,10.020425048828125,-0.01797751896083355,0.18821309506893158,0.10576396435499191
1780506542966417000,10.0304169921875,0.07028363645076752,0.004510912112891674,0.14170731604099274
1780506542976409900,10.040409912109375,0.1734486222267151,-0.15231971442699432,0.14743918180465698
1780506542986402000,10.050402099609375,0.2697727680206299,-0.2599220871925354,0.17891588807106018
1780506542996394000,10.06039404296875,0.41134509444236755,-0.3257931172847748,0.18077926337718964
1780506543006387000,10.070386962890625,0.529921293258667,-0.33003711700439453,0.18820442259311676
1780506543016379000,10.08037890625,0.6316267251968384,-0.3256095349788666,0.19855353236198425
1780506543026371000,10.09037109375,0.694323718547821,-0.3289821743965149,0.21900634467601776
1780506543036363800,10.10036376953125,0.7398551106452942,-0.325885534286499,0.25411030650138855
1780506543046356000,10.11035595703125,0.7726258039474487,-0.31481024622917175,0.301747590303421
1780506543056348000,10.120347900390625,0.828860342502594,-0.29731085896492004,0.3445388972759247
1780506543066340000,10.130340087890625,0.8682644367218018,-0.24519598484039307,0.3808434009552002
1780506543076332800,10.140332763671875,0.8657876253128052,-0.16891847550868988,0.435502290725708
1780506543086325000,10.150324951171875,0.8376113772392273,-0.09938972443342209,0.49682608246803284
1780506543096317000,10.16031689453125,0.8314282894134521,-0.09957268089056015,0.5523207187652588
1780506543106310000,10.170309814453125,0.8218947052955627,-0.046655669808387756,0.6157244443893433
1780506543116302000,10.180302001953125,0.7741305828094482,0.10272622853517532,0.7692168951034546
1780506543126294000,10.1902939453125,0.7508588433265686,0.14641326665878296,0.9281730055809021
1780506543136287000,10.200286865234375,0.721243679523468,0.14272770285606384,0.9814491868019104
1780506543146279000,10.21027880859375,0.680153489112854,0.09835758060216904,0.9415259957313538
1780506543156271000,10.22027099609375,0.6027488708496094,0.08454010635614395,0.8607960343360901
1780506543166263800,10.230263916015625,0.44271817803382874,0.11045079678297043,0.7303906083106995
1780506543176256000,10.240256103515625,0.1713312864303589,0.2850251793861389,0.5420486927032471
1780506543186248000,10.250248046875,0.07740612328052521,0.4653070867061615,0.3674986958503723
1780506543196241000,10.260240966796875,0.0271657332777977,0.558859646320343,0.2524666488170624
1780506543206233000,10.270233154296875,0.01375219039618969,0.5787513256072998,0.1766296774148941
1780506543216225000,10.28022509765625,0.03272947296500206,0.573607861995697,0.1125643327832222
1780506543226218000,10.290218017578125,0.059063877910375595,0.5805315971374512,0.015324330888688564
1780506543236210000,10.3002099609375,0.07273375242948532,0.5936784744262695,-0.11323506385087967
1780506543246202000,10.3102021484375,0.06991186738014221,0.5647482872009277,-0.25012046098709106
1780506543256194800,10.32019482421875,0.06389150768518448,0.4658774733543396,-0.35849136114120483
1780506543266187000,10.33018701171875,0.06352745741605759,0.3347418010234833,-0.4014875590801239
1780506543276179000,10.340178955078125,0.0862446129322052,0.18702687323093414,-0.3972737491130829
1780506543286171000,10.3501708984375,0.12767992913722992,-0.0005291844718158245,-0.34763985872268677
1780506543296164000,10.3601640625,0.12624315917491913,-0.20417246222496033,-0.2349347472190857
1780506543306156000,10.370156005859375,0.004846695810556412,-0.3398703634738922,-0.28815722465515137
1780506543316147700,10.380147705078125,-0.2914623022079468,-0.5077868700027466,-0.4449373483657837
1780506543326141000,10.390140869140625,-0.6378205418586731,-0.3487410247325897,-0.2690001428127289
1780506543336133000,10.400133056640625,-0.7644748687744141,0.19826772809028625,0.13138535618782043
1780506543346124800,10.410124755859375,-0.5422234535217285,0.43218794465065,0.23148934543132782
1780506543356118000,10.420117919921875,-0.19643676280975342,-0.07697075605392456,-0.06366898864507675
1780506543366110000,10.43010986328125,-0.08451181650161743,-0.5886577367782593,-0.10165844857692719
1780506543376102000,10.440101806640625,0.015041419304907322,-0.4465935528278351,0.19328249990940094
1780506543386094800,10.4500947265625,0.05162686109542847,-0.2543759047985077,0.3669072687625885
1780506543396087000,10.460087158203125,-0.044799141585826874,-0.11963347345590591,0.5356716513633728
1780506543406078700,10.47007861328125,-0.19658148288726807,-0.04584793373942375,0.49111026525497437
1780506543416072000,10.480072021484375,-0.30608081817626953,-0.040920816361904144,0.28966209292411804
1780506543426064100,10.490064208984375,-0.37236398458480835,-0.13960477709770203,0.07293348759412766
1780506543436055800,10.500055908203125,-0.38129764795303345,-0.33997735381126404,0.02425464801490307
1780506543446048000,10.510048095703125,-0.33211439847946167,-0.5965644121170044,0.01620311476290226
1780506543456041000,10.520041015625,-0.27265265583992004,-0.7268937826156616,0.09645548462867737
1780506543466033000,10.530032958984375,-0.21827492117881775,-0.6930801272392273,0.2962160110473633
1780506543476024800,10.54002490234375,-0.19346025586128235,-0.47020599246025085,0.53202885389328
1780506543486018000,10.55001806640625,-0.1813492625951767,-0.17044831812381744,0.7072994709014893
1780506543496009700,10.560009765625,-0.14001713693141937,0.13194583356380463,0.8189564347267151
1780506543506002000,10.570001953125,-0.09002506732940674,0.44689151644706726,0.8687605261802673
1780506543515995100,10.5799951171875,-0.05563901364803314,0.7066568732261658,0.847363293170929
1780506543525986800,10.58998681640625,-0.006613947916775942,0.8938935995101929,0.8255850076675415
1780506543535979000,10.59997900390625,0.037064965814352036,1.0025320053100586,0.7937873005867004
1780506543545972000,10.609971923828125,0.08921471983194351,1.0409287214279175,0.7504855990409851
1780506543555964000,10.6199638671875,0.1252916306257248,0.9891968965530396,0.7180815935134888
1780506543565955800,10.629955810546875,0.12771829962730408,0.8987131118774414,0.6961925029754639
1780506543575949300,10.63994921875,0.14008335769176483,0.7792761921882629,0.6871835589408875
1780506543585941000,10.64994091796875,0.15657871961593628,0.6784209609031677,0.6611950993537903
1780506543595933200,10.65993310546875,0.1695898473262787,0.5907614231109619,0.6236173510551453
1780506543605926400,10.669926513671875,0.19471757113933563,0.5239121317863464,0.5820829272270203
1780506543615918000,10.67991796875,0.24648383259773254,0.4449557363986969,0.5553544163703918
1780506543625910300,10.68991015625,0.2942233979701996,0.39927905797958374,0.5422356724739075
1780506543635902200,10.699902099609375,0.34041979908943176,0.28964316844940186,0.5235887765884399
1780506543645895200,10.709895263671875,0.36875662207603455,0.17794887721538544,0.4873008131980896
1780506543655887000,10.71988720703125,0.358826607465744,0.08397065103054047,0.43981656432151794
1780506543665879300,10.72987939453125,0.32469525933265686,0.034198567271232605,0.3836824297904968
1780506543675872000,10.7398720703125,0.27215951681137085,-0.024864288046956062,0.3192165791988373
1780506543685864200,10.7498642578125,0.2192225158214569,-0.07371091842651367,0.2449950873851776
1780506543695856000,10.759856201171875,0.18220774829387665,-0.09931135922670364,0.1505044400691986
1780506543705849000,10.76984912109375,0.14793792366981506,-0.12047549337148666,0.03875047713518143
1780506543715841000,10.779841064453125,0.11203187704086304,-0.10858887434005737,-0.02791144698858261
1780506543725833200,10.789833251953125,0.08824905008077621,-0.08919946849346161,-0.07275481522083282
1780506543735826200,10.799826171875,0.07545707374811172,-0.08493147790431976,-0.09454061836004257
1780506543745818000,10.809818115234375,0.050848931074142456,-0.10573635995388031,-0.10877947509288788
1780506543755810300,10.819810302734375,0.009435858577489853,-0.13747066259384155,-0.14165139198303223
1780506543765803000,10.829802978515625,-0.035384878516197205,-0.20030741393566132,-0.2470441311597824
1780506543775795200,10.839795166015625,-0.053458813577890396,-0.28119033575057983,-0.39288392663002014
1780506543785787100,10.849787109375,-0.039195988327264786,-0.35549119114875793,-0.5432688593864441
1780506543795779300,10.859779296875,-0.03947976231575012,-0.3658050298690796,-0.617904007434845
1780506543805772000,10.86977197265625,-0.07651074975728989,-0.35385194420814514,-0.6586306691169739
1780506543815764200,10.87976416015625,-0.11233451217412949,-0.315228134393692,-0.688771665096283
1780506543825756200,10.889756103515625,-0.13120460510253906,-0.2252601534128189,-0.6390270590782166
1780506543835749000,10.8997490234375,-0.10185324400663376,-0.15736627578735352,-0.5749419927597046
1780506543845741300,10.9097412109375,-0.05835423991084099,-0.12799853086471558,-0.5490150451660156
1780506543855733200,10.919733154296875,0.019433770328760147,-0.06630267947912216,-0.5182717442512512
1780506543865726200,10.929726318359375,0.09287230670452118,-0.02187209390103817,-0.4823116660118103
1780506543875718100,10.93971826171875,0.13566954433918,0.0035983819980174303,-0.4404851794242859
1780506543885710300,10.94971044921875,0.1681193709373474,0.05689116567373276,-0.3954649865627289
1780506543895703000,10.959703125,0.18867804110050201,0.09282273054122925,-0.3186604976654053
1780506543905695200,10.9696953125,0.19769364595413208,0.08383243530988693,-0.24242115020751953
1780506543915687200,10.979687255859375,0.21273596584796906,0.019571688026189804,-0.1822262555360794
1780506543925680000,10.98968017578125,0.23190513253211975,-0.030503196641802788,-0.13636663556098938
1780506543935672300,10.99967236328125,0.22523657977581024,-0.06769397854804993,-0.11781404167413712
1780506543945664300,11.009664306640625,0.20448309183120728,-0.1734427809715271,-0.0913776382803917
1780506543955656000,11.019656005859375,0.1602059006690979,-0.2877601683139801,-0.042508311569690704
1780506543965649200,11.029649169921875,0.11356355994939804,-0.3789161741733551,0.018934274092316628
1780506543975641300,11.039641357421875,0.07151482254266739,-0.4782137870788574,0.03772462531924248
1780506543985633000,11.049633056640625,0.05374540761113167,-0.5674786567687988,0.019599951803684235
1780506543995626200,11.059626220703125,0.0415106825530529,-0.6274256110191345,-0.010465136729180813
1780506544005618200,11.0696181640625,0.03227430582046509,-0.7025086283683777,-0.10089143365621567
1780506544015610000,11.079610107421875,0.03404533118009567,-0.7855122685432434,-0.2214311808347702
1780506544025603000,11.08960302734375,0.040561288595199585,-0.8185924887657166,-0.31440797448158264
1780506544035595300,11.09959521484375,0.023394810035824776,-0.7041500806808472,-0.3282785713672638
1780506544045587000,11.1095869140625,0.010792998597025871,-0.5689690709114075,-0.40110111236572266
1780506544055580200,11.119580078125,-0.038743000477552414,-0.43528684973716736,-0.481703519821167
1780506544065572400,11.129572265625,-0.13873565196990967,-0.2787238657474518,-0.4893481135368347
1780506544075564000,11.13956396484375,-0.2642189860343933,-0.05874914675951004,-0.5308313369750977
1780506544085556200,11.14955615234375,-0.4299706816673279,0.11150780320167542,-0.6782311797142029
1780506544095549200,11.159549072265625,-0.5963132977485657,0.2187301218509674,-0.9080032706260681
1780506544105541000,11.169541015625,-0.7528743743896484,0.3166079521179199,-1.0974854230880737
1780506544115533000,11.179532958984375,-0.8925697207450867,0.3145538568496704,-1.1987004280090332
1780506544125526300,11.1895263671875,-0.9961373805999756,0.24301868677139282,-1.2507673501968384
1780506544135518000,11.19951806640625,-1.0736958980560303,0.14750860631465912,-1.329684853553772
1780506544145510100,11.20951025390625,-1.111234188079834,-0.03998831287026405,-1.404338002204895
1780506544155503400,11.21950341796875,-1.1151483058929443,-0.19224907457828522,-1.3798177242279053
1780506544165495000,11.2294951171875,-1.0530210733413696,-0.13561215996742249,-1.3635280132293701
1780506544175487200,11.2394873046875,-0.9927491545677185,-0.13286885619163513,-1.2840232849121094
1780506544185480200,11.249480224609375,-0.9513628482818604,-0.15627510845661163,-1.1286706924438477
1780506544195472100,11.25947216796875,-0.9050393104553223,-0.30089259147644043,-0.9200918078422546
1780506544205464000,11.269464111328125,-0.8308362364768982,-0.37294283509254456,-0.7185003757476807
1780506544215457300,11.279457275390625,-0.7825746536254883,-0.48582717776298523,-0.5753236413002014
1780506544225449000,11.289448974609375,-0.7537952065467834,-0.48672494292259216,-0.5034443736076355
1780506544235441200,11.299441162109375,-0.7038568258285522,-0.3834385573863983,-0.37873393297195435
1780506544245433000,11.30943310546875,-0.6186801195144653,-0.33267924189567566,-0.24790801107883453
1780506544255426000,11.319426025390625,-0.5532225370407104,-0.33158519864082336,-0.1796080768108368
1780506544265418000,11.32941796875,-0.49871137738227844,-0.2628825902938843,-0.15728706121444702
1780506544275410200,11.33941015625,-0.4382834732532501,-0.15800848603248596,-0.14521217346191406
1780506544285403100,11.349403076171875,-0.3730147182941437,-0.07473304122686386,-0.13945548236370087
1780506544295395000,11.35939501953125,-0.3048399090766907,-0.061185941100120544,-0.11669966578483582
1780506544305387300,11.36938720703125,-0.22766923904418945,-0.048798512667417526,-0.08289828896522522
1780506544315380200,11.379380126953125,-0.1428757905960083,-0.056367747485637665,-0.07384835928678513
1780506544325372200,11.3893720703125,-0.05961419269442558,-0.041145917028188705,-0.06100073829293251
1780506544335364000,11.399364013671875,0.004743225872516632,-0.00781299639493227,-0.02953389286994934
1780506544345357000,11.409357177734375,0.048982586711645126,0.044364187866449356,0.008271252736449242
1780506544355349000,11.419348876953125,0.09599828720092773,0.07151125371456146,0.04148150235414505
1780506544365341200,11.429341064453125,0.16500185430049896,0.04600110277533531,0.07024044543504715
1780506544375333000,11.4393330078125,0.24170781672000885,-0.003422374837100506,0.0895499587059021
1780506544385326000,11.449326171875,0.350085973739624,-0.04085949435830116,0.0894618108868599
1780506544395318300,11.459318359375,0.4508928954601288,-0.047119587659835815,0.1286340057849884
1780506544405310200,11.469310302734375,0.5455331206321716,-0.08414525538682938,0.20626169443130493
1780506544415303200,11.47930322265625,0.635499894618988,-0.13208673894405365,0.2639424800872803
1780506544425295000,11.489295166015625,0.7153443694114685,-0.11958400160074234,0.32053545117378235
1780506544435287300,11.499287353515625,0.7755692005157471,-0.07272202521562576,0.3727298378944397
1780506544445280000,11.509280029296875,0.8313379287719727,0.029829654842615128,0.42080122232437134
1780506544455272200,11.519272216796875,0.8766772150993347,0.16874971985816956,0.4767521023750305
1780506544465264000,11.52926416015625,0.8919371366500854,0.3051821291446686,0.5349573493003845
1780506544475256300,11.53925634765625,0.8987206220626831,0.4306064248085022,0.5989356637001038
1780506544485249300,11.549249267578125,0.9068222045898438,0.5463372468948364,0.6959743499755859
1780506544495241200,11.5592412109375,0.9003390073776245,0.627058744430542,0.8034431338310242
1780506544505233200,11.569233154296874,0.8679054379463196,0.7009028792381287,0.8983185291290283
1780506544515226000,11.57922607421875,0.8363580107688904,0.7109057903289795,0.9935644268989563
1780506544525218300,11.58921826171875,0.7892197966575623,0.6208121180534363,1.0689371824264526
1780506544535210200,11.599210205078125,0.702470064163208,0.4780166745185852,1.0868260860443115
1780506544545203200,11.609203125,0.5921148061752319,0.3060840666294098,1.0439907312393188
1780506544555195100,11.619195068359375,0.4202520251274109,0.20023034512996674,0.9709862470626831
1780506544565187300,11.629187255859375,0.25160467624664307,0.1609860062599182,0.8886423707008362
1780506544575180000,11.639179931640625,0.15319912135601044,0.1531972736120224,0.78655606508255
1780506544585172000,11.649171875,0.13328027725219727,0.15385213494300842,0.6738377809524536
1780506544595164200,11.6591640625,0.15386705100536346,0.15915901958942413,0.5689940452575684
1780506544605155800,11.66915576171875,0.18082836270332336,0.17091846466064453,0.4694852828979492
1780506544615149000,11.679149169921875,0.189560204744339,0.20134848356246948,0.3827473819255829
1780506544625141200,11.689141357421875,0.17152847349643707,0.27336832880973816,0.31543171405792236
1780506544635133000,11.6991328125,0.15080507099628448,0.29448309540748596,0.22338572144508362
1780506544645126100,11.709126220703125,0.14680767059326172,0.24645137786865234,0.10704978555440903
1780506544655118000,11.7191181640625,0.13695544004440308,0.2352728247642517,0.014642978087067604
1780506544665110000,11.729110107421874,0.10283154994249344,0.2029777318239212,-0.02468258887529373
1780506544675103000,11.73910302734375,0.07033568620681763,0.13092684745788574,-0.03198420628905296
1780506544685095200,11.74909521484375,0.09219544380903244,0.0421634167432785,-0.03419889137148857
1780506544695086800,11.7590869140625,0.1207844689488411,-0.06585359573364258,0.04957108199596405
1780506544705079000,11.7690791015625,0.11076939105987549,-0.08418306708335876,0.1380612701177597
1780506544715072300,11.779072265625,-0.006872164085507393,-0.12401710450649261,0.2454129159450531
1780506544725064000,11.78906396484375,-0.21073901653289795,0.00825891550630331,0.18806228041648865
1780506544735056000,11.799055908203124,-0.3837844431400299,0.2457803189754486,0.27833878993988037
1780506544745049000,11.809049072265625,-0.4207906723022461,0.5094974637031555,0.5559943318367004
1780506544755041000,11.819041015625,-0.244908407330513,0.6494535207748413,0.5043482184410095
1780506544765033000,11.829032958984374,-0.016707995906472206,0.705963134765625,0.24350860714912415
1780506544775026200,11.839026123046875,-0.009000825695693493,0.5281341671943665,0.23992429673671722
1780506544785017900,11.849017822265624,-0.0828835666179657,0.6745041608810425,0.42267999053001404
1780506544795010000,11.859010009765624,-0.16935016214847565,0.83590167760849,0.4332098960876465
1780506544805002000,11.869001953125,-0.2684192359447479,0.8332099914550781,0.48523685336112976
1780506544814995000,11.878994873046874,-0.36923250555992126,0.6902755498886108,0.48829904198646545
1780506544824987000,11.88898681640625,-0.3654625415802002,0.38248497247695923,0.3535689413547516
1780506544834979000,11.89897900390625,-0.2301783561706543,0.02637380361557007,0.2036341279745102
1780506544844972000,11.908971923828124,-0.05511732026934624,-0.22419396042823792,0.21047073602676392
1780506544854964000,11.9189638671875,0.0693054348230362,-0.5605286359786987,0.31381914019584656
1780506544864956200,11.9289560546875,0.11890919506549835,-0.8806270360946655,0.473941445350647
1780506544874948900,11.938948974609374,0.172617569565773,-0.95241379737854,0.6656172275543213
1780506544884941000,11.948941162109374,0.24398016929626465,-0.898998498916626,0.9089646339416504
1780506544894933000,11.95893310546875,0.3045923709869385,-0.7008072733879089,1.0513240098953247
1780506544904925200,11.96892529296875,0.30394017696380615,-0.4414132535457611,1.0014933347702026
1780506544914918000,11.97891796875,0.2320244461297989,-0.13818146288394928,0.9597691297531128
1780506544924910000,11.98891015625,0.12576697766780853,0.2517745792865753,0.916202187538147
1780506544934902000,11.998902099609374,0.024833817034959793,0.5146695375442505,0.8682429790496826
1780506544944895000,12.00889501953125,-0.04558495432138443,0.6525227427482605,0.7879979014396667
1780506544954887200,12.01888720703125,-0.0846409946680069,0.7680773138999939,0.6888030171394348
1780506544964879000,12.028879150390624,-0.06556716561317444,0.7892739176750183,0.6209483742713928
1780506544974872000,12.0388720703125,-0.022386815398931503,0.7358593940734863,0.5825393199920654
1780506544984864000,12.048864013671874,0.030156822875142097,0.6697940826416016,0.5210556983947754
1780506544994856200,12.058856201171874,0.08447574079036713,0.6256933212280273,0.44541046023368835
1780506545004848000,12.06884814453125,0.14386102557182312,0.6303122639656067,0.36688369512557983
1780506545014841000,12.078841064453124,0.18504413962364197,0.6654906272888184,0.3041974604129791
1780506545024833000,12.0888330078125,0.2022862434387207,0.7220678925514221,0.2314004898071289
1780506545034825000,12.098824951171874,0.20215387642383575,0.7705531716346741,0.17828957736492157
1780506545044818000,12.10881787109375,0.19904570281505585,0.7882448434829712,0.1623963564634323
1780506545054810000,12.11881005859375,0.20792177319526672,0.7825812101364136,0.16086499392986298
1780506545064802000,12.128802001953124,0.20869994163513184,0.7401024699211121,0.17102815210819244
1780506545074795000,12.138794921875,0.20787422358989716,0.6737972497940063,0.16396330296993256
1780506545084787200,12.148787109375,0.21836280822753906,0.6099985837936401,0.12641219794750214
1780506545094779100,12.158779052734374,0.24598725140094757,0.5283302068710327,0.06713224947452545
1780506545104771000,12.16877099609375,0.27587592601776123,0.4375036060810089,-0.01947747729718685
1780506545114764000,12.178763916015624,0.2792087197303772,0.3677690923213959,-0.1210562214255333
1780506545124756200,12.188756103515624,0.24874749779701233,0.3019123077392578,-0.21389320492744446
1780506545134748000,12.198747802734376,0.20391397178173065,0.21159611642360687,-0.31642401218414307
1780506545144741000,12.2087412109375,0.1662912219762802,0.09992844611406326,-0.40114501118659973
1780506545154733000,12.218733154296874,0.1231839656829834,0.003912703134119511,-0.43840131163597107
1780506545164725000,12.22872509765625,0.054731935262680054,-0.06653217226266861,-0.489699125289917
1780506545174717000,12.238717041015626,-0.03418129310011864,-0.1342693269252777,-0.5969448685646057
1780506545184710100,12.248710205078124,-0.11328037828207016,-0.19543494284152985,-0.7442855834960938
1780506545194702000,12.2587021484375,-0.1664734184741974,-0.21167537569999695,-0.9191388487815857
1780506545204694000,12.268694091796876,-0.22936983406543732,-0.14959922432899475,-1.0339107513427734
1780506545214687200,12.278687255859374,-0.2699837386608124,-0.05417383834719658,-1.0914809703826904
1780506545224679000,12.288678955078124,-0.25570037961006165,0.026298368349671364,-1.0570356845855713
1780506545234671000,12.298671142578126,-0.19123044610023499,0.05994747579097748,-0.9313189387321472
1780506545244664000,12.3086640625,-0.09122101962566376,0.036512456834316254,-0.7591791152954102
1780506545254656000,12.318656005859374,-0.0003150627017021179,-0.05388374999165535,-0.6676398515701294
1780506545264648000,12.32864794921875,0.08805420994758606,-0.1379144787788391,-0.6161060333251953
1780506545274640100,12.33864013671875,0.18268296122550964,-0.1769466996192932,-0.42664048075675964
1780506545284633000,12.348633056640624,0.21861353516578674,-0.2139795422554016,-0.1392126977443695
1780506545294625000,12.358625,0.21443890035152435,-0.3100719153881073,0.057541701942682266
1780506545304617000,12.368616943359376,0.20026235282421112,-0.4346367418766022,0.12699347734451294
1780506545314610000,12.37860986328125,0.17191646993160248,-0.5220345854759216,0.07601302117109299
1780506545324602000,12.38860205078125,0.10266230255365372,-0.6053875684738159,-0.0640663206577301
1780506545334594000,12.398593994140626,-0.011490901000797749,-0.6903136372566223,-0.19521847367286682
1780506545344587000,12.4085869140625,-0.11055038869380951,-0.7419836521148682,-0.2353341281414032
1780506545354579000,12.418578857421876,-0.14754581451416016,-0.7558474540710449,-0.21072909235954285
1780506545364571100,12.428571044921876,-0.13134101033210754,-0.7625336050987244,-0.20967288315296173
