time,seconds_elapsed,z,y,x
1779910287755032300,0.1050322265625,-2.0557265281677246,-0.7796996831893921,0.06918847560882568
1779910287771378700,0.121378662109375,-2.0960302352905273,0.1092538833618164,0.27499496936798096
1779910287836698000,0.186697998046875,1.1455192565917969,-1.0820796489715576,0.7386226654052734
1779910287853032000,0.203031982421875,1.3709468841552734,-1.9745845794677734,0.6179093718528748
1779910287869381000,0.219381103515625,-1.0849294662475586,-2.1923251152038574,0.9547384977340698
1779910287885710800,0.2357109375,-2.758103370666504,-1.6011013984680176,0.6423114538192749
1779910287902044000,0.2520439453125,-2.71565580368042,-0.5683116912841797,0.22901546955108643
1779910287918376000,0.2683759765625,-0.7665047645568848,0.4030332565307617,0.1362617015838623
1779910287934708700,0.284708740234375,0.0849151611328125,0.5893521308898926,-0.05806148052215576
1779910287951041800,0.301041748046875,0.3178997039794922,0.5534939765930176,-2.8370678424835205
1779910287967371300,0.317371337890625,-0.37156105041503906,-0.4119577407836914,-1.206045389175415
1779910287983710200,0.333710205078125,-2.5652785301208496,-1.3655064105987549,0.9615011215209961
1779910288000059000,0.350058837890625,-2.654834747314453,-0.7737603187561035,1.2352181673049927
1779910288016382500,0.366382568359375,-2.430589199066162,-1.1298599243164062,1.0728825330734253
1779910288032707000,0.38270703125,-2.258085250854492,-0.9695465564727783,-0.6527456045150757
1779910288049037800,0.399037841796875,-2.734088897705078,-1.0443925857543945,-1.4721057415008545
1779910288065370600,0.41537060546875,-4.584667205810547,-1.9825023412704468,-1.6987683773040771
1779910288081700400,0.431700439453125,-7.3712615966796875,-3.0637404918670654,-1.6627113819122314
1779910288098026500,0.448026611328125,-7.689414978027344,-3.2767460346221924,-3.2566049098968506
1779910288120480800,0.470480712890625,-8.218929290771484,-4.983201503753662,-3.5606064796447754
1779910288136840700,0.4868408203125,-6.638233661651611,-6.552136421203613,-3.824981212615967
1779910288153157400,0.503157470703125,-5.492076873779297,-7.433715343475342,-4.256519317626953
1779910288169504500,0.51950439453125,-5.226840972900391,-8.141334533691406,-4.144620895385742
1779910288185840600,0.535840576171875,-3.918679714202881,-8.89225959777832,-2.8574399948120117
1779910288202153000,0.552153076171875,-1.622084617614746,-9.280780792236328,-0.9354653358459473
1779910288218488800,0.56848876953125,-0.11583209037780762,-8.706153869628906,2.00714111328125
1779910288234824400,0.584824462890625,2.062366008758545,-6.53997802734375,5.1056718826293945
1779910288251168300,0.601168212890625,3.9012556076049805,-5.096683979034424,9.056039810180664
1779910288267489500,0.617489501953125,2.465357780456543,-1.1435723304748535,10.992270469665527
1779910288283824400,0.633824462890625,1.8543879985809326,0.6494607925415039,11.677778244018555
1779910288300156200,0.65015625,1.670464277267456,0.42526352405548096,12.697412490844727
1779910288316477000,0.666476806640625,1.0605976581573486,1.6579228639602661,13.356287002563477
1779910288332820700,0.68282080078125,-1.1351127624511719,4.323921203613281,12.740233421325684
1779910288349140000,0.699139892578125,-0.9180827140808105,5.497828483581543,13.14682674407959
1779910288365486000,0.715486083984375,-0.7968720197677612,6.09871768951416,12.614712715148926
1779910288381818600,0.731818603515625,-1.6773625612258911,6.985860824584961,11.289984703063965
1779910288398151000,0.74815087890625,-4.269885540008545,9.622482299804688,9.677800178527832
1779910288414484000,0.76448388671875,-14.049690246582031,7.377976417541504,7.267656326293945
1779910288430816800,0.780816650390625,-10.980091094970703,2.75797700881958,3.3180418014526367
1779910288447151000,0.797151123046875,-8.67335319519043,-0.5978460311889648,3.117483139038086
1779910288463479000,0.81347900390625,-3.695594310760498,-3.32230806350708,7.151975631713867
1779910288479813400,0.8298134765625,2.8691649436950684,-3.0852370262145996,7.941117286682129
1779910288496147500,0.8461474609375,1.6322622299194336,0.48302698135375977,4.508988380432129
1779910288512479200,0.862479248046875,-2.2197656631469727,2.227294683456421,1.9338006973266602
1779910288528813800,0.878813720703125,-4.524001598358154,3.5090889930725098,-0.6972970962524414
1779910288545145600,0.8951455078125,-4.136989593505859,0.7717108726501465,-0.7184295654296875
1779910288561478400,0.911478515625,-2.490220546722412,-1.4120287895202637,0.643549919128418
1779910288577812500,0.9278125,4.226574897766113,-4.791701316833496,2.8200416564941406
1779910288594157300,0.9441572265625,-2.310076951980591,1.795271396636963,-2.2688283920288086
1779910288610490400,0.960490478515625,0.9250576496124268,-1.5500106811523438,1.2413206100463867
1779910288626815200,0.976815185546875,-0.9588425755500793,1.351503849029541,-0.2389359474182129
1779910288643155700,0.99315576171875,3.91139554977417,-2.977997303009033,1.3095006942749023
1779910288659473000,1.009472900390625,9.490253448486328,-2.500575065612793,2.6948299407958984
1779910288675807500,1.025807373046875,2.3537299633026123,1.1254620552062988,-0.35693979263305664
1779910288692140500,1.042140625,0.6968998908996582,1.9384644031524658,-1.1882081031799316
1779910288708472800,1.058472900390625,-3.396780252456665,1.8686728477478027,-1.1651806831359863
1779910288724805600,1.0748056640625,-2.740098476409912,2.8744635581970215,-3.160053253173828
1779910288741138200,1.09113818359375,-2.618934392929077,3.9464352130889893,-3.6350224018096924
1779910288757486600,1.107486572265625,0.08609700202941895,1.5119879245758057,-1.0966815948486328
1779910288773817600,1.123817626953125,-1.8174270391464233,2.8977580070495605,-1.6278886795043945
1779910288790147600,1.140147705078125,0.08589720726013184,3.0582499504089355,-2.520325183868408
1779910288806485000,1.156485107421875,1.2928085327148438,4.451808929443359,-2.5620498657226562
1779910288822798600,1.172798583984375,0.10659337043762207,5.388427257537842,-2.953860282897949
1779910288839136500,1.189136474609375,-3.6692230701446533,3.628222703933716,-1.172119140625
1779910288855453000,1.205452880859375,-2.7033767700195312,2.0981311798095703,0.8564610481262207
1779910288871787000,1.221787109375,1.6063787937164307,1.3065295219421387,2.2226638793945312
1779910288888134100,1.238134033203125,1.1747677326202393,1.488696575164795,4.653641223907471
1779910288904458500,1.25445849609375,-3.0130386352539062,-1.184399127960205,3.8493666648864746
1779910288920798500,1.270798583984375,-2.9021453857421875,-1.5897207260131836,2.016860008239746
1779910288937141200,1.287141357421875,-2.557408571243286,-1.3534870147705078,1.56892728805542
1779910288953463300,1.30346337890625,-1.0243793725967407,-1.880049705505371,1.0173988342285156
1779910288969796000,1.319796142578125,0.9443914890289307,-0.4391918182373047,-0.9899296760559082
1779910288986129200,1.336129150390625,1.5933687686920166,0.6612706184387207,-1.2687878608703613
1779910289002461700,1.352461669921875,1.4375516176223755,1.1924748420715332,-1.8231353759765625
1779910289018794500,1.36879443359375,0.01437675952911377,1.1618409156799316,-2.018852710723877
1779910289035127300,1.385127197265625,-2.197924852371216,3.0669374465942383,-1.4825477600097656
1779910289051459800,1.4014599609375,-2.6360034942626953,4.345760345458984,-1.0208673477172852
1779910289067792400,1.41779248046875,-1.967553973197937,4.639556407928467,-0.31317996978759766
1779910289084122400,1.434122314453125,-1.3213496208190918,5.262816429138184,-0.10106229782104492
1779910289100473300,1.450473388671875,-0.8851847052574158,6.152006149291992,0.014449596405029297
1779910289116790000,1.4667900390625,0.9342284202575684,3.4997823238372803,1.263397216796875
1779910289133134300,1.48313427734375,4.563876152038574,0.9792513847351074,0.34476757049560547
1779910289149419300,1.499419189453125,5.921271800994873,0.5583486557006836,-0.8943557739257812
1779910289165768000,1.515767822265625,1.5494600534439087,0.7708148956298828,-0.6527090072631836
1779910289182114000,1.532114013671875,-1.920470952987671,1.885188102722168,-0.09552192687988281
1779910289198434000,1.54843408203125,-0.19899851083755493,-1.694216251373291,1.7966527938842773
1779910289214766800,1.564766845703125,-0.4072074294090271,-1.5970559120178223,2.199978828430176
1779910289247436300,1.597436279296875,-2.7311642169952393,-3.1157350540161133,0.2848358154296875
1779910289263770400,1.613770263671875,2.244480609893799,-2.1655564308166504,-1.4675683975219727
1779910289280105200,1.630105224609375,2.1143555641174316,-2.0690805912017822,1.3691883087158203
1779910289296439600,1.646439453125,0.955121636390686,-2.9796299934387207,2.52078914642334
1779910289312770800,1.662770751953125,0.718026340007782,-3.1403520107269287,3.7804765701293945
1779910289329103600,1.679103515625,0.7114710807800293,-3.5716705322265625,4.175558090209961
1779910289345436000,1.695435791015625,0.5434482097625732,-3.747434616088867,1.444936752319336
1779910289361768000,1.711767822265625,0.12649691104888916,-1.3886568546295166,-0.9088172912597656
1779910289378101000,1.72810107421875,-0.0983656644821167,-1.1567926406860352,0.09762001037597656
1779910289394435000,1.74443505859375,0.06066662073135376,-1.0222764015197754,1.797663688659668
1779910289410767400,1.760767333984375,0.3323248326778412,-3.308032512664795,-0.048793792724609375
1779910289427099600,1.777099609375,0.5298031568527222,-4.462949275970459,-0.7769403457641602
1779910289443422700,1.793422607421875,-1.0693172216415405,-7.279062747955322,3.9191884994506836
1779910289459764500,1.809764404296875,2.219641923904419,-4.182878494262695,2.448324203491211
1779910289476098300,1.826098388671875,0.23116803169250488,-3.049530506134033,0.2989225387573242
1779910289492428800,1.8424287109375,4.455963134765625,-4.245819091796875,2.369076728820801
1779910289508763400,1.858763427734375,-2.5989596843719482,-3.884341239929199,-0.03677034378051758
1779910289525095000,1.875094970703125,1.7164223194122314,-0.3325786590576172,-0.6464419364929199
1779910289541428000,1.891427978515625,0.9310920238494873,-0.3562626838684082,1.3487577438354492
1779910289557760800,1.9077607421875,2.3027713298797607,1.511286735534668,1.9880456924438477
1779910289574107600,1.924107666015625,-3.332623243331909,3.5936715602874756,-0.1288914680480957
1779910289590424300,1.94042431640625,-5.301320552825928,0.8774318695068359,-3.2809810638427734
1779910289606773500,1.9567734375,-5.822648525238037,0.019758224487304688,-7.8185272216796875
1779910289657813800,2.007813720703125,-1.3021607398986816,4.1642165184021,-2.548168659210205
1779910289674160000,2.02416015625,-2.8074331283569336,9.340585708618164,0.21935272216796875
1779910289690489900,2.04048974609375,-2.4707727432250977,11.056830406188965,-0.5495147705078125
1779910289706802200,2.05680224609375,-3.221111297607422,5.7212653160095215,-1.5379571914672852
1779910289723142100,2.07314208984375,-5.864012718200684,4.479434013366699,-4.821262359619141
1779910289739466200,2.08946630859375,-3.724384069442749,3.7575697898864746,-5.3852972984313965
1779910289755802600,2.105802734375,4.252542972564697,2.6569933891296387,-2.741564989089966
1779910289772142800,2.122142822265625,1.6610345840454102,-1.0660481452941895,2.4388298988342285
1779910289788468700,2.13846875,-0.06609612703323364,2.3416576385498047,4.655754089355469
1779910289804807700,2.1548076171875,1.0391770601272583,2.3013763427734375,3.695186138153076
1779910289821134000,2.171134033203125,-2.1487326622009277,5.926802635192871,-0.9587602615356445
1779910289837459700,2.187459716796875,-6.952593803405762,2.4257216453552246,-2.8201065063476562
1779910289853802500,2.203802490234375,-4.246255397796631,-1.8316354751586914,-3.6340086460113525
1779910289870119700,2.22011962890625,-2.6603758335113525,-3.7887187004089355,5.629112720489502
1779910289886470100,2.23647021484375,1.1089913845062256,-3.3733930587768555,7.977736473083496
1779910289902813700,2.252813720703125,2.750460624694824,-3.031926155090332,4.070464611053467
1779910289919139800,2.269139892578125,-0.8870699405670166,-2.7425060272216797,2.8306589126586914
1779910289935459600,2.28545947265625,1.172318935394287,-5.416155815124512,2.697732925415039
1779910289951799000,2.301799072265625,0.2948462963104248,-4.15773868560791,1.3562893867492676
1779910289968131300,2.31813134765625,-1.2338201999664307,-3.028390884399414,-0.5522739887237549
1779910289984464000,2.3344638671875,-6.505037784576416,-4.817119598388672,0.2836747169494629
1779910290000797000,2.350796875,-1.4913973808288574,-4.330492973327637,0.5363383293151855
1779910290017129500,2.36712939453125,-0.2767753601074219,-4.867026329040527,1.256589412689209
1779910290033462300,2.383462158203125,-2.840200424194336,-2.4451189041137695,-1.0471649169921875
1779910290049794800,2.399794921875,1.7671875953674316,-0.5454044342041016,-2.2405805587768555
1779910290066125800,2.416125732421875,1.8117605447769165,-0.24961376190185547,-1.143723487854004
1779910290082461700,2.432461669921875,-1.2871241569519043,-1.901071548461914,-0.8040647506713867
1779910290098789600,2.44878955078125,0.7023054361343384,-0.49112892150878906,-2.2801709175109863
1779910290115128800,2.46512890625,2.3318581581115723,2.719520092010498,-3.628237247467041
1779910290131469600,2.481469482421875,3.280400037765503,6.546417236328125,-1.8394415378570557
1779910290147785200,2.49778515625,4.083282947540283,9.373567581176758,1.3776419162750244
1779910290164137500,2.514137451171875,3.131002902984619,7.0230841636657715,0.674602746963501
1779910290180465700,2.530465576171875,7.003201484680176,6.023932933807373,-7.733860015869141
1779910290196807200,2.54680712890625,-10.828027725219727,6.04960823059082,1.618337631225586
1779910290213152800,2.56315283203125,-2.2200465202331543,2.396151542663574,2.1110000610351562
1779910290229442800,2.57944287109375,0.024890661239624023,3.777036190032959,2.2186226844787598
1779910290245787100,2.595787109375,-0.03288769721984863,6.7292585372924805,3.07784366607666
1779910290262119400,2.612119384765625,3.2356338500976562,4.3776421546936035,-2.5366759300231934
1779910290278452500,2.628452392578125,2.250851631164551,3.3584094047546387,3.770153045654297
1779910290294785000,2.644784912109375,-10.269068717956543,2.6047215461730957,2.5246448516845703
1779910290311117300,2.661117431640625,-4.1697845458984375,2.417165756225586,-4.937954425811768
1779910290327450400,2.677450439453125,-4.86453914642334,5.578647613525391,-5.458139419555664
1779910290343783200,2.693783203125,-0.20839965343475342,7.352505207061768,-3.657123565673828
1779910290360115500,2.710115478515625,3.4449715614318848,7.890542030334473,-2.259091854095459
1779910290376445200,2.726445068359375,3.39593768119812,8.152929306030273,-1.7360024452209473
1779910290392784100,2.7427841796875,0.9406280517578125,8.485233306884766,-2.8521595001220703
1779910290409113600,2.759113525390625,-2.3877458572387695,-25.69472312927246,8.688323020935059
1779910290425438700,2.775438720703125,0.25915002822875977,9.732616424560547,-1.7014966011047363
1779910290441779200,2.791779296875,13.368122100830078,0.7746753692626953,-3.0565452575683594
1779910290458102300,2.808102294921875,20.094030380249023,-5.281508445739746,-7.703397750854492
1779910290474444500,2.824444580078125,-15.64390754699707,-6.975406646728516,1.9135448932647705
1779910290490776800,2.84077685546875,-1.655396819114685,-72.77257537841797,8.707490921020508
1779910290507109600,2.857109619140625,-11.905570030212402,-19.24123764038086,2.620296001434326
1779910290523427000,2.873427001953125,-0.6177154779434204,3.702633857727051,-0.9408903121948242
1779910290539771600,2.889771728515625,-1.164036750793457,11.434996604919434,0.8120938539505005
1779910290556107500,2.906107421875,-0.18072736263275146,9.296833992004395,-0.09163022041320801
1779910290572440300,2.9224404296875,4.726667404174805,4.604938983917236,0.6737961769104004
1779910290588772900,2.93877294921875,3.063915967941284,1.357041358947754,0.8678091764450073
1779910290605105700,2.955105712890625,3.2336597442626953,1.0194501876831055,0.506077766418457
1779910290621436000,2.971435791015625,3.137157440185547,1.9305787086486816,-0.48372483253479004
1779910290637773600,2.987773681640625,0.9332225918769836,1.5456867218017578,-0.5589199066162109
1779910290654103600,3.004103515625,-1.672922968864441,0.6320381164550781,0.03814387321472168
1779910290670436400,3.020436279296875,-4.98739767074585,1.4704780578613281,-0.11726272106170654
1779910290686769000,3.036768798828125,-5.439920425415039,2.9063944816589355,-0.7398569583892822
1779910290703102200,3.053102294921875,-1.6037256717681885,4.327622413635254,-0.1580674648284912
1779910290719447800,3.06944775390625,-0.7309839725494385,6.403949737548828,-0.07982468605041504
1779910290735768000,3.08576806640625,-0.48031389713287354,7.272748947143555,-0.4719349145889282
1779910290752109600,3.102109619140625,-0.4727957248687744,6.050966739654541,0.196632981300354
1779910290768439300,3.118439208984375,0.08635520935058594,2.5758614540100098,1.7344732284545898
1779910290784775200,3.134775146484375,1.292104721069336,-0.06272602081298828,3.267930269241333
1779910290801095400,3.151095458984375,0.322918176651001,-1.0441694259643555,4.457963466644287
1779910290817430300,3.16743017578125,-7.736605644226074,2.1582183837890625,4.351861953735352
1779910290833768000,3.183767822265625,-2.2197647094726562,1.98646879196167,3.444972515106201
1779910290850096000,3.20009619140625,0.6773066520690918,-1.1139764785766602,2.08439564704895
1779910290866415400,3.216415283203125,-2.103148937225342,-6.763628959655762,1.0739949941635132
1779910290882761000,3.232760986328125,-3.2324461936950684,-9.083283424377441,-0.16999369859695435
1779910290899093500,3.249093505859375,-1.210766077041626,-8.75808334350586,-1.6444470882415771
1779910290915426600,3.265426513671875,1.2083537578582764,-6.697061538696289,-3.4052021503448486
1779910290931760600,3.2817607421875,-0.7775578498840332,-3.8598031997680664,-3.873617649078369
1779910290948089900,3.29808984375,-0.6503996849060059,-3.253668785095215,-2.391467571258545
1779910290964427800,3.314427734375,2.151538848876953,-2.9786243438720703,-2.0896732807159424
1779910290980771000,3.33077099609375,2.4199185371398926,-3.741726875305176,-2.4368011951446533
1779910290997086000,3.3470859375,1.645409345626831,-3.894359588623047,-1.8183574676513672
1779910291013419300,3.363419189453125,1.6927404403686523,-2.4699296951293945,-0.7003262042999268
1779910291029758500,3.379758544921875,1.2706108093261719,-0.843231201171875,-0.06852969527244568
1779910291046087700,3.396087646484375,0.7296109199523926,0.6526765823364258,0.009614884853363037
1779910291062420500,3.41242041015625,1.5125246047973633,1.7797441482543945,-0.24519172310829163
1779910291078753000,3.4287529296875,2.9373412132263184,2.4860315322875977,-0.6444977521896362
1779910291095103000,3.44510302734375,4.082367420196533,3.100736618041992,-1.182795524597168
1779910291111430100,3.46143017578125,4.146053791046143,3.7320151329040527,-1.3118749856948853
1779910291127767800,3.477767822265625,3.8525469303131104,4.0900444984436035,-1.1364500522613525
1779910291144080600,3.49408056640625,3.235539674758911,4.085119247436523,-0.9497216939926147
1779910291160430300,3.510430419921875,2.1310980319976807,3.8676652908325195,-0.6199862957000732
1779910291176763100,3.52676318359375,1.1810286045074463,3.003167152404785,-0.31234806776046753
1779910291193078500,3.54307861328125,-0.4555397033691406,1.7033076286315918,0.3849426507949829
1779910291209410800,3.559410888671875,-1.7528438568115234,2.761129379272461,0.5782836675643921
1779910291225747500,3.57574755859375,-1.4152402877807617,4.31931209564209,0.84632408618927
1779910291242067500,3.5920673828125,-1.4166233539581299,2.3851542472839355,1.859924077987671
1779910291258412300,3.608412353515625,-0.6589360237121582,0.15042495727539062,1.8992886543273926
1779910291274744800,3.624744873046875,-0.5256644487380981,0.1248617172241211,0.40518826246261597
1779910291291077400,3.641077392578125,-5.041959762573242,0.8402299880981445,-0.6446882486343384
1779910291307410200,3.65741015625,-9.639812469482422,1.6818146705627441,-0.5652955770492554
1779910291323742000,3.673741943359375,-6.679318428039551,1.9302525520324707,-0.9976140856742859
1779910291340062200,3.690062255859375,-3.337916851043701,1.585585594177246,-1.5767089128494263
1779910291356394500,3.70639453125,4.036904335021973,-0.9445314407348633,-1.0958515405654907
1779910291372728000,3.72272802734375,14.28809642791748,-5.843817710876465,-0.1348346471786499
1779910291389060600,3.739060546875,10.943473815917969,-6.982251167297363,0.3897285461425781
1779910291405393000,3.755392822265625,-0.10909581184387207,-6.608719825744629,-1.839444637298584
1779910291421726700,3.771726806640625,-17.69343376159668,-2.934678077697754,-5.78358268737793
1779910291438060300,3.788060302734375,0.045346856117248535,-0.05477619171142578,-0.6732156276702881
1779910291454391000,3.80439111328125,11.620683670043945,1.6322026252746582,1.4239412546157837
1779910291470723300,3.820723388671875,-0.7031893730163574,-6.35491943359375,5.10312557220459
1779910291487065000,3.837065185546875,-10.036985397338867,-15.502912521362305,3.1285417079925537
1779910291503391200,3.85339111328125,-3.8804454803466797,-9.336047172546387,1.3378474712371826
1779910291519721500,3.869721435546875,5.339845180511475,-2.484196662902832,-0.7753301858901978
1779910291536055600,3.8860556640625,2.6619515419006348,1.2771673202514648,-1.2163113355636597
1779910291552387600,3.9023876953125,-0.6589986085891724,3.8741226196289062,0.05631685256958008
1779910291568719000,3.918718994140625,1.005845069885254,4.700672626495361,0.8282918930053711
1779910291585053400,3.935053466796875,4.223207950592041,4.140445232391357,0.9060736894607544
1779910291601392400,3.951392333984375,2.9429612159729004,2.1822524070739746,1.286977767944336
1779910291617740300,3.967740234375,-0.6854064464569092,0.7434587478637695,-0.40352630615234375
1779910291634050000,3.984050048828125,-1.9264413118362427,0.1450366973876953,-1.1772289276123047
1779910291650395600,4.000395751953125,-0.6021078824996948,2.5349020957946777,-0.6292481422424316
1779910291666728700,4.016728759765625,-0.4000513553619385,3.4352664947509766,0.13783890008926392
1779910291683064300,4.033064208984375,-1.6075321435928345,2.96494197845459,0.7915968894958496
1779910291699390500,4.049390380859375,-2.429830551147461,3.0674285888671875,1.005108118057251
1779910291715726800,4.065726806640625,-2.284827709197998,3.0130133628845215,0.6790626645088196
1779910291732073500,4.082073486328125,-1.7110737562179565,3.3489818572998047,0.5425249338150024
1779910291748388000,4.09838818359375,-0.43096768856048584,3.865602970123291,1.1525342464447021
1779910291764739600,4.114739501953125,0.2888760566711426,3.085005760192871,1.9708106517791748
1779910291781054000,4.131053955078125,0.2606555223464966,1.7685575485229492,2.806536912918091
1779910291797389600,4.1473896484375,-0.3965718746185303,0.7214841842651367,3.4379260540008545
1779910291813722400,4.163722412109375,-0.4953814744949341,0.23197174072265625,3.6502485275268555
1779910291830055000,4.180054931640625,-0.17991089820861816,0.18923664093017578,3.1200082302093506
1779910291846386400,4.196386474609375,-0.5291388034820557,-0.3926544189453125,2.2017996311187744
1779910291862717000,4.212717041015625,-2.9113450050354004,-3.479604721069336,0.5297160744667053
1779910291879056600,4.229056640625,-3.529473066329956,-6.88063907623291,0.0730733871459961
1779910291895385600,4.245385498046875,-2.843798875808716,-8.53216552734375,-0.6204953193664551
1779910291911715000,4.261715087890625,-0.21465158462524414,-8.237915992736816,-1.955754280090332
1779910291928054000,4.278053955078125,0.9257605075836182,-4.732377052307129,-2.81315541267395
1779910291944383700,4.2943837890625,1.8275094032287598,-1.664982795715332,-2.8647396564483643
1779910291960716300,4.31071630859375,2.399257183074951,-0.35160350799560547,-2.6006650924682617
1779910291977066200,4.327066162109375,2.1911137104034424,-0.6256065368652344,-2.440929412841797
1779910291993397500,4.3433974609375,2.2008705139160156,-1.8989109992980957,-1.8388400077819824
1779910292009722000,4.35972216796875,1.955542802810669,-1.8208203315734863,-0.8067140579223633
1779910292026065200,4.376065185546875,2.3494620323181152,-0.4489617347717285,-0.10005947947502136
1779910292042393000,4.39239306640625,2.7590065002441406,1.1657123565673828,-0.34409958124160767
1779910292058695200,4.408695068359375,2.51574969291687,2.739175796508789,-0.9276008009910583
1779910292075031300,4.42503125,2.510331630706787,3.790195941925049,-1.6277422904968262
1779910292091375900,4.4413759765625,2.8685903549194336,3.564615249633789,-1.9672377109527588
1779910292107715000,4.457715087890625,3.266052722930908,2.9644789695739746,-1.8394498825073242
1779910292124042500,4.47404248046875,3.068145751953125,2.548750400543213,-1.3485568761825562
1779910292140375000,4.490375,2.9075841903686523,2.6754355430603027,-0.7895283102989197
1779910292156707800,4.506707763671875,2.4132895469665527,3.3194289207458496,-0.3780274987220764
1779910292173058000,4.52305810546875,1.260941982269287,3.3507938385009766,-0.15298661589622498
1779910292189369900,4.539369873046875,-0.5980544090270996,1.4112353324890137,0.13718560338020325
1779910292205700000,4.5557001953125,-3.401851177215576,1.2684783935546875,0.9085102677345276
1779910292222056000,4.572055908203125,-4.401328086853027,1.4120454788208008,2.0984599590301514
1779910292238385200,4.58838525390625,-2.343381643295288,0.11583518981933594,3.261798858642578
1779910292254700800,4.60470068359375,-0.712335467338562,-0.18872451782226562,3.6110572814941406
1779910292271032800,4.62103271484375,-0.8899357318878174,1.398468017578125,0.9146777987480164
1779910292287356000,4.63735595703125,-2.0494132041931152,1.966578483581543,-0.8652541637420654
1779910292303701800,4.65370166015625,-4.375478744506836,2.3109335899353027,-1.6926193237304688
1779910292320034300,4.670034423828125,-3.7707717418670654,1.5713090896606445,-1.9805576801300049
1779910292336371000,4.686370849609375,-5.651710510253906,-2.046231269836426,-2.551331043243408
1779910292352699400,4.702699462890625,-1.29170823097229,-7.440577507019043,-2.8971035480499268
1779910292369032000,4.719031982421875,10.503262519836426,-4.558879852294922,-0.5936343669891357
1779910292385351400,4.735351318359375,7.483398914337158,-3.202977180480957,0.7534208297729492
1779910292401697500,4.751697509765625,-1.7396587133407593,-0.7613945007324219,-0.9138922095298767
1779910292418030000,4.768030029296875,-6.214817523956299,-0.716766357421875,-2.1525373458862305
1779910292434362400,4.7843623046875,0.7234906554222107,0.23911762237548828,1.9247899055480957
1779910292450695200,4.800695068359375,1.2465147972106934,-6.0117645263671875,3.547302722930908
1779910292467024600,4.817024658203125,-5.276123046875,-15.365287780761719,3.3828792572021484
1779910292483387100,4.83338720703125,-5.471016883850098,-8.772439956665039,0.1648479700088501
1779910292499700500,4.849700439453125,5.182876110076904,-2.721957206726074,-2.590752124786377
1779910292516022300,4.866022216796875,3.8600447177886963,2.0113377571105957,-2.9317073822021484
1779910292532358700,4.882358642578125,0.1285405158996582,5.817445755004883,-1.5524686574935913
1779910292548690700,4.898690673828125,1.9732686281204224,6.783437728881836,-0.005780398845672607
1779910292565024000,4.91502392578125,3.889329433441162,5.3711981773376465,0.729760468006134
1779910292581353000,4.93135302734375,2.5071210861206055,1.466130256652832,1.161057949066162
1779910292597692200,4.947692138671875,-0.8991714715957642,-1.4571590423583984,-0.10625725984573364
1779910292614021600,4.964021728515625,-2.318561553955078,-0.9453296661376953,-0.28073635697364807
1779910292630354400,4.9803544921875,-1.203285813331604,2.4004507064819336,1.2234247922897339
1779910292646686700,4.996686767578125,-1.411737084388733,4.075066089630127,1.8438199758529663
1779910292663019800,5.013019775390625,-1.7662862539291382,4.721133708953857,1.3986071348190308
1779910292679352300,5.029352294921875,-0.8538711071014404,5.136951446533203,0.0679699182510376
1779910292695673300,5.04567333984375,-1.4766215085983276,5.751816272735596,-0.401702344417572
1779910292712020200,5.062020263671875,-2.5770959854125977,4.5483927726745605,0.4628439247608185
1779910292728359000,5.07835888671875,-1.7235726118087769,1.1148900985717773,1.169332504272461
1779910292744696300,5.0946962890625,-0.3631554841995239,-1.5556354522705078,2.4182634353637695
1779910292761012700,5.1110126953125,1.1005654335021973,-1.7385520935058594,3.8693747520446777
1779910292777333200,5.127333251953125,1.4940210580825806,0.04346656799316406,3.5198111534118652
1779910292793669400,5.14366943359375,-0.43967628479003906,-0.5549955368041992,1.400594711303711
1779910292810002000,5.160001953125,-5.249855041503906,-5.04692268371582,-0.6179516315460205
1779910292826332700,5.176332763671875,-5.442757606506348,-8.602644920349121,0.7899113893508911
1779910292842666000,5.192666015625,-0.7964706420898438,-7.452457427978516,0.46552640199661255
1779910292858997800,5.208997802734375,1.9150705337524414,-6.190548896789551,-2.01407527923584
1779910292875332400,5.225332275390625,0.17018842697143555,-3.9728403091430664,-2.7708325386047363
1779910292891664100,5.2416640625,0.9300689697265625,-2.689345359802246,-2.510774612426758
1779910292907994600,5.25799462890625,2.4229369163513184,-2.2950477600097656,-2.1651461124420166
1779910292924331800,5.274331787109375,1.8528001308441162,-2.397650718688965,-1.757322072982788
1779910292940662800,5.290662841796875,1.27128267288208,-1.9445409774780273,-0.9062274098396301
1779910292956994000,5.306994140625,1.7975740432739258,-0.13246774673461914,-0.3557366728782654
1779910292973330700,5.32333056640625,2.5637834072113037,1.1606254577636719,-0.5122169256210327
1779910292989672000,5.339671875,2.865161895751953,1.6794075965881348,-1.8183926343917847
1779910293006005000,5.3560048828125,2.6496355533599854,1.9963431358337402,-2.0897555351257324
1779910293022338000,5.372338134765625,2.4617185592651367,2.5574111938476562,-2.093831777572632
1779910293038670000,5.388670166015625,2.6367299556732178,2.984825611114502,-2.0884315967559814
1779910293054989800,5.40498974609375,2.6818954944610596,3.543919563293457,-1.80487060546875
1779910293071335700,5.421335693359375,2.452746629714966,4.161001205444336,-1.4514094591140747
1779910293087667700,5.437667724609375,1.407820701599121,4.542850494384766,-0.8340637683868408
1779910293104000500,5.45400048828125,0.2212209701538086,3.8135833740234375,-0.07176926732063293
1779910293120333300,5.470333251953125,-0.3269772529602051,0.15515708923339844,0.9554304480552673
1779910293136665900,5.486665771484375,0.23264122009277344,0.30590343475341797,2.087237596511841
1779910293152998700,5.50299853515625,2.7506330013275146,1.861191749572754,2.512049674987793
1779910293169331000,5.5193310546875,0.9518787860870361,0.6593341827392578,1.9672235250473022
1779910293185654000,5.535654052734375,-1.1575998067855835,1.5223960876464844,-1.563049554824829
1779910293202011100,5.55201123046875,-3.6186609268188477,1.6843252182006836,-2.9039430618286133
1779910293218343000,5.568343017578125,-4.540966987609863,1.535567283630371,-2.2881743907928467
1779910293234658800,5.584658935546875,-4.836056709289551,2.833024501800537,-0.9266247749328613
1779910293250990600,5.600990478515625,-4.877341270446777,3.6412529945373535,-1.2665183544158936
1779910293267326700,5.61732666015625,-5.926969528198242,1.151458740234375,-1.2519385814666748
1779910293283646200,5.633646240234375,-0.48902392387390137,-5.843410491943359,-2.188372850418091
1779910293299989000,5.649989013671875,11.151277542114258,-3.1247119903564453,0.10779160261154175
1779910293316328000,5.666327880859375,8.816301345825195,-4.301213264465332,2.199367046356201
1779910293332657400,5.682657470703125,1.6105719804763794,-4.510446548461914,0.37759315967559814
1779910293348989700,5.69898974609375,-8.784533500671387,-5.551821708679199,-2.628507375717163
1779910293365309700,5.715309814453125,-2.022421360015869,-2.391831398010254,0.7025949954986572
1779910293381658400,5.731658447265625,4.231667518615723,-0.6645498275756836,3.226585865020752
1779910293397984500,5.747984619140625,-0.7020994424819946,-5.8193817138671875,3.7061920166015625
1779910293414320400,5.7643203125,-4.906639575958252,-8.171018600463867,2.5964927673339844
1779910293430653000,5.78065283203125,-1.5767133235931396,-4.42890739440918,1.0969204902648926
1779910293446988000,5.796988037109375,0.5593786239624023,-1.9029254913330078,-0.21684956550598145
1779910293463323600,5.81332373046875,1.2056289911270142,0.619232177734375,-0.5393231511116028
1779910293479658800,5.82965869140625,1.6795032024383545,2.217841148376465,-0.5924453139305115
1779910293495984000,5.845984130859375,2.069610118865967,2.435479164123535,-0.6932191848754883
1779910293512314600,5.862314697265625,1.4424216747283936,2.2232956886291504,-0.6832829713821411
1779910293528650500,5.878650390625,-0.7556028366088867,1.2587928771972656,-0.3636912703514099
1779910293544981800,5.894981689453125,-3.1215693950653076,0.6499557495117188,-0.08941841125488281
1779910293561311000,5.91131103515625,-2.969688892364502,0.6146144866943359,0.8605627417564392
1779910293577646600,5.927646484375,-2.098267078399658,1.9216599464416504,1.6891279220581055
1779910293593982200,5.943982177734375,-1.4843941926956177,3.5311899185180664,1.808892011642456
1779910293610289400,5.960289306640625,-0.9288462400436401,4.56711483001709,1.4592876434326172
1779910293626644700,5.976644775390625,-1.527662754058838,5.031922340393066,1.1109135150909424
1779910293642978300,5.992978271484375,-2.5096757411956787,4.54326057434082,1.0201117992401123
1779910293659326200,6.009326171875,-2.2663722038269043,3.338101387023926,1.0845118761062622
1779910293675640300,6.025640380859375,-1.2020056247711182,1.8940763473510742,1.6061910390853882
1779910293691976700,6.041976806640625,-0.10387489199638367,0.33121395111083984,2.662219524383545
1779910293708321500,6.058321533203125,0.7806646823883057,-0.10391521453857422,3.729320764541626
1779910293724654600,6.074654541015625,1.399057149887085,1.1069231033325195,4.097723960876465
1779910293740970000,6.090969970703125,0.14116805791854858,0.6926193237304688,4.104135036468506
1779910293757304800,6.107304931640625,-3.3398876190185547,-2.8154640197753906,2.686575174331665
1779910293773638100,6.12363818359375,-4.939005374908447,-6.23935604095459,1.7275454998016357
1779910293789970400,6.139970458984375,-4.551837921142578,-7.701450347900391,-1.0568907260894775
1779910293806303500,6.156303466796875,-2.453648567199707,-7.704338073730469,-2.5228285789489746
1779910293822631400,6.17263134765625,-0.1022634506225586,-7.645220756530762,-3.1544511318206787
1779910293838973400,6.188973388671875,2.7797892093658447,-6.9003448486328125,-3.778225898742676
1779910293855304000,6.205303955078125,2.687730550765991,-4.860849380493164,-3.080343008041382
1779910293871630800,6.221630859375,0.9659388065338135,-3.6496105194091797,-1.8409063816070557
1779910293887969500,6.237969482421875,-0.5789551734924316,-4.823348045349121,-0.43915051221847534
1779910293904297700,6.254297607421875,-1.3791227340698242,-6.081917762756348,1.3230677843093872
1779910293920633000,6.270633056640625,0.3178861141204834,-4.184342384338379,2.066702127456665
1779910293936964000,6.286964111328125,2.055095911026001,-2.1268768310546875,0.6033819317817688
1779910293953290500,6.30329052734375,2.682610511779785,-0.4593982696533203,-1.2342473268508911
1779910293969647900,6.31964794921875,2.251188278198242,0.4958372116088867,-1.8337243795394897
1779910293985976600,6.3359765625,2.6439316272735596,1.746938705444336,-1.8350839614868164
1779910294002308000,6.35230810546875,3.6141295433044434,3.3383798599243164,-1.6977863311767578
1779910294018641400,6.368641357421875,4.255412578582764,4.903048515319824,-1.2866120338439941
1779910294034956800,6.384956787109375,4.62026309967041,5.928757667541504,-1.4060112237930298
1779910294051292200,6.401292236328125,4.143916606903076,6.585582733154297,-1.8169312477111816
1779910294067625500,6.41762548828125,3.2733302116394043,6.47419548034668,-1.9031723737716675
1779910294083958300,6.433958251953125,2.5471980571746826,5.648934364318848,-1.9319486618041992
1779910294100290000,6.4502900390625,1.6242077350616455,4.433138370513916,-2.050729751586914
1779910294116623000,6.466623046875,0.1393451690673828,2.972294330596924,-1.700926661491394
1779910294132972800,6.482972900390625,-2.2142937183380127,-0.09420490264892578,-0.5677507519721985
1779910294149284900,6.499284912109375,-5.0691423416137695,-6.157980918884277,0.8350650072097778
1779910294165607700,6.515607666015625,-5.734635353088379,-7.4638776779174805,2.3929407596588135
1779910294181951000,6.531950927734375,-5.734238147735596,-3.8474063873291016,2.185059070587158
1779910294198295000,6.548294921875,-6.143041610717773,-1.165410041809082,1.2276337146759033
1779910294214618600,6.56461865234375,-4.339935302734375,0.9931182861328125,0.8173384070396423
1779910294230951200,6.580951171875,-0.8965308666229248,2.4882125854492188,0.8945391774177551
1779910294247284000,6.597283935546875,2.3296585083007812,2.9562454223632812,0.7124893069267273
1779910294263603500,6.613603515625,2.7548439502716064,1.3254666328430176,0.688348650932312
1779910294279931100,6.62993115234375,0.5979199409484863,-0.5323562622070312,0.006421566009521484
1779910294296281600,6.646281494140625,1.019965410232544,-4.013957977294922,-0.7823591828346252
1779910294312614100,6.6626142578125,0.42685723304748535,-11.611710548400879,-1.9127963781356812
1779910294328946700,6.67894677734375,-6.1360392570495605,-14.164285659790039,-3.2307233810424805
1779910294345270000,6.69527001953125,-5.219409942626953,-4.069486618041992,-3.3959784507751465
1779910294361595600,6.711595703125,2.647200107574463,2.796172618865967,-2.0851807594299316
1779910294377948200,6.7279482421875,4.036841869354248,5.586470603942871,-1.613276481628418
1779910294394277600,6.744277587890625,5.213943958282471,6.044383525848389,-1.5316405296325684
1779910294410610000,6.76060986328125,6.1800713539123535,4.020022869110107,-1.4120373725891113
1779910294426954000,6.7769541015625,6.424023628234863,2.1526150703430176,-1.2494475841522217
1779910294443257300,6.79325732421875,5.008262634277344,0.2986574172973633,-0.26325711607933044
1779910294459591400,6.80959130859375,4.074418067932129,-1.116520881652832,0.6229477524757385
1779910294475958000,6.8259580078125,-2.718844413757324,-3.3797101974487305,2.006391763687134
1779910294492288000,6.8422880859375,-2.028352737426758,-1.916102409362793,3.1099460124969482
1779910294508603600,6.858603759765625,1.6829628944396973,-0.00099945068359375,2.6696395874023438
1779910294524935200,6.87493505859375,1.5153234004974365,0.3912076950073242,0.8582462072372437
1779910294541264400,6.891264404296875,0.9962576031684875,0.7408723831176758,-0.7266057729721069
1779910294557606700,6.907606689453125,0.9727952480316162,0.9775428771972656,-1.5299766063690186
1779910294573935900,6.923935791015625,2.205796241760254,1.2935895919799805,-1.4151628017425537
1779910294590269000,6.94026904296875,1.846640706062317,0.7268552780151367,-0.3028016984462738
1779910294606588000,6.956587890625,0.50748211145401,0.7176141738891602,0.14648061990737915
1779910294622934000,6.97293408203125,-0.6763235330581665,0.6308221817016602,0.14614826440811157
1779910294639283700,6.98928369140625,-1.8223750591278076,0.5326166152954102,0.09694129228591919
1779910294655578600,7.00557861328125,-2.5776515007019043,0.6423158645629883,0.07582202553749084
1779910294671950600,7.02195068359375,-1.9688706398010254,0.5959243774414062,0.7728759050369263
1779910294688278300,7.0382783203125,-1.6228317022323608,0.3953695297241211,1.7203274965286255
1779910294704611000,7.054611083984375,-2.118675470352173,0.09500885009765625,2.564317464828491
1779910294720926000,7.070926025390625,-2.813307285308838,-0.32541465759277344,2.9887490272521973
1779910294737262300,7.087262451171875,-3.496673822402954,-0.5019617080688477,2.885559558868408
1779910294753595000,7.103594970703125,-3.191953182220459,-0.07895851135253906,2.285285234451294
1779910294769927700,7.119927734375,-2.082897424697876,0.09350872039794922,1.700040340423584
1779910294786246700,7.13624658203125,-1.33186936378479,0.05002403259277344,0.9951640367507935
1779910294802592800,7.1525927734375,-0.913576602935791,0.14869308471679688,0.869314432144165
1779910294818925600,7.168925537109375,-0.38678428530693054,0.7020988464355469,1.9036461114883423
1779910294835257600,7.185257568359375,0.2608233094215393,0.6169500350952148,3.1032912731170654
1779910294851587300,7.20158740234375,0.780768096446991,-0.6669721603393555,2.6429409980773926
1779910294867913000,7.217912841796875,0.47175300121307373,-3.9184341430664062,1.5794092416763306
1779910294884241000,7.234240966796875,0.13020476698875427,-6.026446342468262,0.3295252323150635
1779910294900572700,7.25057275390625,-0.4958079159259796,-6.192360877990723,-1.3972337245941162
1779910294916908500,7.266908447265625,-2.214796781539917,-4.387304306030273,-2.220902919769287
1779910294933241300,7.283241455078125,-2.6856236457824707,-1.2758474349975586,-2.0307223796844482
1779910294949573600,7.29957373046875,-2.2887539863586426,-0.006762504577636719,-1.969986915588379
1779910294965906200,7.31590625,-0.9814127683639526,-0.22226238250732422,-2.079559326171875
1779910294982238500,7.332238525390625,1.0369527339935303,-1.102858543395996,-2.699906826019287
1779910294998571800,7.34857177734375,3.313588857650757,-1.3764638900756836,-3.425076723098755
1779910295014904800,7.36490478515625,4.275115966796875,-1.6067705154418945,-3.957190752029419
1779910295031235800,7.38123583984375,3.6497600078582764,-1.8679304122924805,-2.927299976348877
1779910295047585300,7.397585205078125,2.696413040161133,-2.1315412521362305,-0.48815426230430603
1779910295063914200,7.413914306640625,1.6737544536590576,-2.1725244522094727,2.5315279960632324
1779910295080246800,7.430246826171875,2.6126832962036133,-1.607069969177246,2.6551623344421387
1779910295096578000,7.446578125,0.1960773468017578,-1.1810016632080078,1.7838668823242188
1779910295112912400,7.462912353515625,-0.531888484954834,-0.5665454864501953,1.374754548072815
1779910295129244400,7.479244384765625,1.6187870502471924,0.5763301849365234,0.5812036991119385
1779910295145574100,7.49557421875,3.5374269485473633,1.56831693649292,-0.05887451767921448
1779910295161902600,7.511902587890625,4.205121994018555,2.369943141937256,-0.3417093753814697
1779910295178243000,7.5282431640625,3.2941315174102783,3.2076501846313477,-0.512047529220581
1779910295194561800,7.544561767578125,2.7030091285705566,3.9651970863342285,-0.4908401668071747
1779910295210907600,7.56090771484375,2.8924124240875244,4.402257919311523,-0.42018336057662964
1779910295227240200,7.577240234375,3.156510353088379,4.276791572570801,-0.3644411563873291
1779910295243572700,7.59357275390625,3.5020852088928223,4.0137858390808105,-0.4018559157848358
1779910295259889400,7.609889404296875,3.6485280990600586,3.7205753326416016,-0.26042672991752625
1779910295276227800,7.626227783203125,3.0958478450775146,3.625413417816162,-0.0316275954246521
1779910295292570000,7.642570068359375,1.8102161884307861,3.301133632659912,0.17163942754268646
1779910295308903400,7.6589033203125,0.005032539367675781,2.521549701690674,0.5203744173049927
1779910295325235700,7.675235595703125,-0.31435513496398926,1.6840591430664062,1.0398736000061035
1779910295341565000,7.69156494140625,1.1874022483825684,1.0867605209350586,1.3805400133132935
1779910295357893400,7.707893310546875,2.430997133255005,1.4213857650756836,1.827163815498352
1779910295374233600,7.724233642578125,3.324537992477417,1.4224462509155273,1.4616338014602661
1779910295390562800,7.740562744140625,2.245366334915161,1.2478694915771484,-0.09514088928699493
1779910295406904600,7.756904541015625,-0.6768498420715332,0.9038858413696289,-1.6328295469284058
1779910295423215400,7.77321533203125,-1.743314266204834,1.3880138397216797,-2.1670327186584473
1779910295439564000,7.78956396484375,-1.6886627674102783,1.2210931777954102,-1.4860419034957886
1779910295455906600,7.805906494140625,-3.0748915672302246,1.1667652130126953,-1.409874677658081
1779910295472242700,7.82224267578125,-7.239524841308594,1.0732126235961914,-2.017329454421997
1779910295488571000,7.83857080078125,-3.6898629665374756,2.1834921836853027,-2.616053342819214
1779910295504907500,7.854907470703125,-1.1585348844528198,3.059297561645508,-2.278189182281494
1779910295521245700,7.87124560546875,-0.09208595752716064,1.732201099395752,-1.995383858680725
1779910295537569500,7.887569580078125,2.235963821411133,-4.331758499145508,-2.2719528675079346
1779910295553906000,7.903906005859375,3.1629011631011963,-9.265496253967285,-2.6450841426849365
1779910295570233000,7.920233154296875,-0.32479965686798096,-8.706426620483398,-3.053013801574707
1779910295586559700,7.936559814453125,1.0324584245681763,-2.9367141723632812,-1.862311601638794
1779910295602890000,7.952889892578125,3.2607150077819824,-3.24615478515625,1.5733062028884888
1779910295619222800,7.969222900390625,1.404235601425171,-3.8584299087524414,3.656940460205078
1779910295635548700,7.985548583984375,-4.154282569885254,-7.658198356628418,6.016674041748047
1779910295651887600,8.0018876953125,-4.101263999938965,-5.135492324829102,4.312647342681885
1779910295668220400,8.018220458984375,1.627052903175354,-1.8618717193603516,1.2910144329071045
1779910295684570400,8.0345703125,3.9678537845611572,-1.9099159240722656,-0.43643105030059814
1779910295700882200,8.050882080078125,3.32181715965271,0.4018869400024414,-0.9918800592422485
1779910295717217800,8.0672177734375,2.1824235916137695,1.867459774017334,-0.8742923736572266
1779910295733546200,8.083546142578125,1.4425959587097168,1.2202739715576172,0.21823111176490784
1779910295749888000,8.099887939453126,0.9264813661575317,0.2452220916748047,-0.7796757221221924
1779910295766216200,8.11621630859375,-0.8554250001907349,-0.4939565658569336,-1.7621986865997314
1779910295782548500,8.132548583984375,-3.0137786865234375,-1.0320405960083008,-0.5586235523223877
1779910295798880800,8.148880859375,-1.79402494430542,-0.008831024169921875,1.6506659984588623
1779910295815213600,8.165213623046874,-0.6090171337127686,1.3740348815917969,3.039870262145996
1779910295831543000,8.18154296875,-1.2325689792633057,2.469876289367676,2.637983798980713
1779910295847882200,8.19788232421875,-2.2211754322052,3.2428159713745117,1.8759983777999878
1779910295864229000,8.21422900390625,-2.175395965576172,3.3082361221313477,1.460435390472412
1779910295880540400,8.23054052734375,-0.5375584363937378,3.6009273529052734,0.8326923847198486
1779910295896876500,8.24687646484375,0.4379352331161499,4.3824262619018555,0.4674989879131317
1779910295913209000,8.263208984375,0.093994140625,4.349560260772705,0.09612122178077698
1779910295929542000,8.2795419921875,0.44131314754486084,3.6689090728759766,0.22945435345172882
1779910295945874400,8.29587451171875,0.6275932788848877,2.6368613243103027,0.7144988775253296
1779910295962207200,8.312207275390625,0.26526403427124023,1.4290542602539062,1.3428821563720703
1779910295978539300,8.328539306640625,0.0005207061767578125,0.8422060012817383,2.0713396072387695
1779910295994872000,8.3448720703125,-0.44797444343566895,0.6364068984985352,2.3046140670776367
1779910296011202000,8.3612021484375,-0.11368131637573242,0.4624643325805664,1.9907327890396118
1779910296027554600,8.377554443359376,-1.0520472526550293,-0.7459268569946289,1.3524279594421387
1779910296043884000,8.393884033203125,-2.6573050022125244,-3.793966293334961,0.5296682715415955
1779910296060199000,8.410198974609376,-4.4721856117248535,-6.283182144165039,-0.1323944330215454
1779910296076532000,8.426531982421874,-1.8781166076660156,-7.517436981201172,-0.7412614822387695
1779910296092870700,8.44287060546875,0.43130970001220703,-6.81041145324707,-1.01167893409729
1779910296109187000,8.45918701171875,0.13194847106933594,-4.065593719482422,-0.138117253780365
1779910296125516500,8.4755166015625,0.8322434425354004,-2.4474973678588867,-0.3684033155441284
1779910296141868500,8.49186865234375,1.0773987770080566,-1.8519277572631836,-2.070033311843872
1779910296158198300,8.5081982421875,0.8420515060424805,-1.915109634399414,-2.9022490978240967
1779910296174529500,8.524529541015625,0.24244213104248047,-1.555394172668457,-2.372030258178711
1779910296190857500,8.540857421875,0.37058210372924805,-0.033208370208740234,-2.131221055984497
1779910296207196000,8.55719580078125,0.48708343505859375,0.8355293273925781,-1.3180580139160156
1779910296223528700,8.57352880859375,1.050969123840332,1.3505587577819824,-0.5541993975639343
1779910296239860700,8.58986083984375,1.9913012981414795,1.9829745292663574,-0.7795230150222778
1779910296256193500,8.606193603515624,2.62024188041687,2.621049404144287,-1.2472599744796753
1779910296272514300,8.622514404296876,3.084306001663208,3.100055694580078,-1.1974191665649414
1779910296288843000,8.638843017578125,3.3616342544555664,3.2832865715026855,-0.8053687810897827
1779910296305178400,8.655178466796874,3.236097574234009,3.2772111892700195,-0.5280339121818542
1779910296321511700,8.67151171875,2.5734446048736572,3.2365880012512207,-0.39828139543533325
1779910296337844500,8.687844482421875,1.396641492843628,3.344344139099121,-0.24079585075378418
1779910296354175700,8.70417578125,0.3906536102294922,3.35581636428833,0.1625438630580902
1779910296370509800,8.720509765625,-0.20944452285766602,2.5565481185913086,0.5123021602630615
1779910296386841900,8.736841796875,-0.2264409065246582,1.2578229904174805,1.0165530443191528
1779910296403174100,8.753174072265624,0.3858208656311035,2.3301949501037598,1.9420783519744873
1779910296419510300,8.76951025390625,0.8033421039581299,1.771601676940918,2.664029359817505
1779910296435839500,8.785839599609375,0.520978569984436,0.8194293975830078,2.749330759048462
1779910296452171800,8.802171875,-1.062035083770752,0.5816469192504883,1.4583463668823242
1779910296468504800,8.8185048828125,-1.948965072631836,0.8082485198974609,-1.3800685405731201
1779910296484837600,8.834837646484376,-3.145542621612549,0.48966121673583984,-2.2416274547576904
1779910296501171500,8.85117138671875,-4.0916852951049805,1.3435602188110352,-2.6557114124298096
1779910296517503700,8.867503662109375,-3.359067440032959,1.5826215744018555,-3.117621660232544
1779910296533835000,8.8838349609375,-2.215632438659668,-1.9492931365966797,-3.801577568054199
1779910296550168000,8.90016796875,3.2000863552093506,-3.872356414794922,-1.7176833152770996
1779910296566516200,8.91651611328125,9.292352676391602,-3.861577033996582,0.9010022878646851
1779910296582844000,8.932843994140624,3.4401254653930664,-4.706591606140137,-0.017463326454162598
1779910296599178200,8.94917822265625,-5.839053153991699,-2.754056930541992,-3.7040600776672363
1779910296615494400,8.965494384765625,-6.519059181213379,-4.672940254211426,-2.3527626991271973
1779910296631840000,8.981840087890625,-2.1862754821777344,-7.198911666870117,2.1704792976379395
1779910296648179200,8.99817919921875,-1.5059150457382202,-11.958654403686523,7.388986587524414
1779910296664511700,9.01451171875,-4.0444536209106445,-5.024503707885742,5.847324371337891
1779910296680837400,9.03083740234375,2.850313186645508,0.5010986328125,1.4673274755477905
1779910296697173200,9.04717333984375,4.818838596343994,0.3583059310913086,0.4444003701210022
1779910296713505500,9.063505615234375,3.74619197845459,2.457418441772461,0.4574028253555298
1779910296729838800,9.0798388671875,3.1491270065307617,4.4492011070251465,0.3971083164215088
1779910296746171100,9.096171142578125,3.5470499992370605,3.556760787963867,0.5183719396591187
1779910296762504000,9.11250390625,1.7414381504058838,-0.4825286865234375,-0.1512487530708313
1779910296778836000,9.1288359375,-2.848026990890503,-3.1035499572753906,-1.782565712928772
1779910296795169000,9.1451689453125,-3.254305839538574,-1.2748966217041016,-1.6529009342193604
1779910296811498800,9.161498779296876,0.2794891595840454,1.761643409729004,-0.0024400949478149414
1779910296827836700,9.177836669921875,-0.4867110252380371,1.908839225769043,0.7198153734207153
1779910296844170200,9.194170166015626,-0.8324267864227295,1.4665374755859375,0.7790179252624512
1779910296860512300,9.21051220703125,-2.176440954208374,1.9350175857543945,1.073540449142456
1779910296876845600,9.226845458984375,-2.209660768508911,2.609396457672119,0.5780303478240967
1779910296893161200,9.2431611328125,-1.6597681045532227,3.2046103477478027,0.3001183867454529
1779910296909496600,9.25949658203125,-0.22961580753326416,3.851687431335449,0.6181138157844543
1779910296925829600,9.27582958984375,0.20649588108062744,3.82454776763916,0.7118982672691345
1779910296942162200,9.292162109375,-0.4127243757247925,3.1856532096862793,0.6797425746917725
1779910296958494500,9.308494384765625,-0.4289085865020752,2.389458179473877,0.7623865604400635
1779910296974827000,9.324826904296875,-0.10029363632202148,1.292790412902832,1.1013600826263428
1779910296991176400,9.341176513671876,0.368762731552124,0.29441261291503906,2.3215713500976562
1779910297007467300,9.35746728515625,1.240806221961975,-0.127960205078125,3.3469676971435547
1779910297023825200,9.3738251953125,-0.3218841552734375,-0.700495719909668,3.3768539428710938
1779910297040157700,9.39015771484375,-1.871389627456665,-2.662806510925293,2.8728699684143066
1779910297056477000,9.406476806640624,-3.375473976135254,-5.2524919509887695,2.4933860301971436
1779910297072822500,9.422822509765625,-3.7878787517547607,-7.2552900314331055,0.9423653483390808
1779910297089154800,9.43915478515625,-2.5394864082336426,-7.261438369750977,-0.42563390731811523
1779910297105494500,9.45549462890625,0.4376678466796875,-5.554394721984863,-2.1458373069763184
1779910297121820700,9.471820556640624,1.058882474899292,-3.028961181640625,-2.6653945446014404
1779910297138152700,9.488152587890625,1.2425928115844727,-1.4827938079833984,-2.331169843673706
1779910297154485200,9.5044853515625,1.765153408050537,-0.7047262191772461,-3.0597290992736816
1779910297170805200,9.52080517578125,0.7603869438171387,-1.1710338592529297,-3.555866241455078
1779910297187150800,9.53715087890625,0.3621039390563965,-2.2051897048950195,-2.642777919769287
1779910297203479000,9.55347900390625,0.7250938415527344,-1.3255128860473633,-1.7085990905761719
1779910297219820000,9.569820068359375,0.3211073875427246,-0.28739070892333984,-1.0427095890045166
1779910297236148200,9.586148193359374,0.1714458465576172,0.21384477615356445,-0.7917883396148682
1779910297252476400,9.602476318359376,1.3489689826965332,0.6593046188354492,-0.9399367570877075
1779910297268803300,9.61880322265625,2.743802785873413,1.3902053833007812,-1.0560334920883179
1779910297285146000,9.63514599609375,3.9144017696380615,2.7111053466796875,-0.9126752614974976
1779910297301476400,9.651476318359375,4.440427780151367,3.990696907043457,-0.6698811650276184
1779910297317821200,9.6678212890625,4.139588832855225,4.556683540344238,-0.8388363122940063
1779910297334142000,9.684141845703126,3.4567856788635254,4.562492370605469,-0.9207376837730408
1779910297350490400,9.700490478515626,2.7358920574188232,4.376877784729004,-0.8832037448883057
1779910297366818800,9.71681884765625,2.045527458190918,4.138895034790039,-0.7194578647613525
1779910297383156000,9.733156005859374,1.539297342300415,3.768002986907959,-0.36966976523399353
1779910297399474200,9.74947412109375,0.6643064022064209,2.4837794303894043,0.0044820308685302734
1779910297415807000,9.765806884765626,-0.6749165058135986,0.8989076614379883,0.777685821056366
1779910297432127000,9.782126953125,-1.0270814895629883,3.1388988494873047,1.935823678970337
1779910297448471800,9.798471923828124,-0.5881383419036865,3.4007787704467773,3.00711989402771
1779910297464804600,9.8148046875,-0.4430961608886719,1.5976581573486328,3.349130868911743
1779910297481136000,9.83113623046875,-1.325095772743225,0.36297130584716797,2.378650188446045
1779910297497470500,9.847470458984375,-1.8034887313842773,0.7924575805664062,-0.8687223792076111
1779910297513802200,9.86380224609375,-4.055658340454102,0.36111927032470703,-2.124661684036255
1779910297530131700,9.880131591796875,-8.06043529510498,-0.28144073486328125,-2.2415215969085693
1779910297546472200,9.89647216796875,-11.751431465148926,-5.918339729309082,-2.872140884399414
1779910297562796000,9.912796142578125,0.44286394119262695,-6.051858901977539,-1.8099066019058228
1779910297579152100,9.929152099609375,17.49921417236328,-4.053983688354492,0.4581950902938843
1779910297595480600,9.94548046875,8.731932640075684,-5.289935111999512,0.7850379347801208
1779910297611806700,9.961806640625,-3.3381495475769043,-4.791589736938477,-3.923098564147949
1779910297628148000,9.97814794921875,-9.280304908752441,-1.926375389099121,-5.250176906585693
1779910297644477200,9.994477294921875,0.9426321387290955,-0.2849102020263672,1.098069667816162
1779910297660791800,10.010791748046875,2.5707058906555176,-6.073521614074707,4.329758167266846
1779910297677127700,10.027127685546875,-4.012078762054443,-13.798954963684082,5.075520992279053
1779910297693460700,10.043460693359375,0.13084900379180908,-6.144073486328125,2.0719101428985596
1779910297709792800,10.059792724609375,1.9003593921661377,-1.8949575424194336,-0.20769113302230835
1779910297726125800,10.076125732421875,0.6893507242202759,0.7202548980712891,-0.405288428068161
1779910297742458400,10.092458251953126,0.24444568157196045,2.5161080360412598,1.2003923654556274
1779910297758791000,10.108791015625,0.983907163143158,2.574408531188965,1.8263431787490845
1779910297775123200,10.125123291015624,2.097261905670166,2.3955788612365723,0.7801371812820435
1779910297791457800,10.141457763671875,1.3631523847579956,2.4983372688293457,-0.29747286438941956
1779910297807786200,10.1577861328125,-0.5680043697357178,1.790842056274414,-1.064959168434143
1779910297824120800,10.174120849609375,-1.2450804710388184,1.3845767974853516,-1.030990719795227
1779910297840470800,10.190470703125,0.5211315155029297,1.7731361389160156,-0.30271151661872864
1779910297856800300,10.20680029296875,0.9557227492332458,2.210458755493164,0.5640387535095215
1779910297873151700,10.22315185546875,-0.5950395464897156,2.5441179275512695,1.4994423389434814
1779910297889448000,10.239447998046876,-2.524472951889038,3.1720447540283203,2.0133931636810303
1779910297905773800,10.25577392578125,-3.590599775314331,3.593193531036377,2.233945846557617
1779910297922104600,10.2721044921875,-2.3388710021972656,3.5640344619750977,1.9785841703414917
1779910297938449000,10.288448974609375,-1.7902165651321411,3.9114160537719727,1.4569615125656128
1779910297954781200,10.30478125,-1.790938377380371,3.7937440872192383,0.9020488262176514
1779910297971113700,10.32111376953125,-1.6299456357955933,3.478346824645996,0.8639862537384033
1779910297987449900,10.337449951171875,-0.1299365758895874,2.3163414001464844,1.5505013465881348
1779910298003792600,10.353792724609375,0.7519569993019104,1.1984214782714844,2.282010793685913
1779910298020125700,10.370125732421876,0.18351030349731445,1.0462589263916016,3.104896306991577
1779910298036446200,10.3864462890625,-0.11997091770172119,1.2076444625854492,3.5704355239868164
1779910298052790000,10.4027900390625,0.2482750415802002,0.9235830307006836,2.8170628547668457
1779910298069106400,10.4191064453125,-2.5883820056915283,-0.6584148406982422,1.3927801847457886
1779910298085462300,10.435462158203125,-3.694467782974243,-4.5060224533081055,0.14030861854553223
1779910298101784800,10.451784912109375,-4.197298049926758,-8.365903854370117,-0.6893960237503052
1779910298118108000,10.46810791015625,-2.4899659156799316,-8.720136642456055,-1.312403678894043
1779910298134439400,10.484439453125,0.5155234336853027,-7.428635597229004,-2.5930163860321045
1779910298150772000,10.50077197265625,0.48410463333129883,-4.55191707611084,-3.1082141399383545
1779910298167094800,10.5170947265625,0.7654190063476562,-2.699014663696289,-1.897648811340332
1779910298183437800,10.533437744140626,1.7317519187927246,-1.1430091857910156,-0.6771749258041382
1779910298199767000,10.54976708984375,2.2667737007141113,-1.2010002136230469,-0.6499689817428589
1779910298216105700,10.566105712890625,1.300896167755127,-2.8290939331054688,-1.7563941478729248
1779910298232435000,10.58243505859375,0.8480682373046875,-3.1371421813964844,-1.9188154935836792
1779910298248768000,10.59876806640625,1.3516631126403809,-2.175204277038574,-0.9319511651992798
1779910298265100300,10.615100341796875,1.4945201873779297,0.24772357940673828,-0.3327537477016449
1779910298281427700,10.631427734375,1.6720223426818848,2.321960926055908,-0.29471462965011597
1779910298297770800,10.647770751953125,2.7918336391448975,3.47141170501709,-0.20089182257652283
1779910298314097700,10.66409765625,3.677950859069824,3.9539785385131836,-0.5305654406547546
1779910298330430200,10.68043017578125,3.9576902389526367,4.4899373054504395,-0.7297528982162476
1779910298346763300,10.69676318359375,4.095783233642578,5.0414557456970215,-0.579582929611206
1779910298363111700,10.713111572265625,3.8004631996154785,5.272465705871582,-0.25143998861312866
1779910298379443200,10.729443115234375,2.939004898071289,5.301797866821289,-0.17548003792762756
1779910298395741400,10.745741455078125,1.7594835758209229,4.826323986053467,-0.26663532853126526
1779910298412096500,10.762096435546875,0.1835165023803711,3.146029472351074,-0.351603239774704
1779910298428425700,10.77842578125,-0.6114065647125244,-1.4418659210205078,-0.13196954131126404
1779910298444744200,10.794744140625,-0.4438774585723877,-0.17783260345458984,0.6954680681228638
1779910298461079000,10.8110791015625,-0.9464647769927979,-1.6302366256713867,0.8131395578384399
1779910298477410800,10.827410888671874,-0.27293503284454346,-4.130426406860352,0.07741513848304749
1779910298493743900,10.843743896484375,-0.7643377780914307,-1.4016799926757812,-4.267032623291016
1779910298510076000,10.860075927734375,-5.406988143920898,0.8034076690673828,-3.0831973552703857
1779910298526408700,10.87640869140625,-6.949347972869873,1.824343204498291,-0.0555679053068161
1779910298542741500,10.892741455078125,-6.674005508422852,2.7538442611694336,-1.0476853847503662
1779910298559074600,10.909074462890626,-8.146333694458008,1.4766206741333008,-2.1235549449920654
1779910298575406000,10.925406005859376,4.887414932250977,-3.7746505737304688,-0.8597697019577026
1779910298591739000,10.94173876953125,18.11351776123047,-4.040724754333496,2.1575403213500977
1779910298608086800,10.958086669921874,10.992737770080566,-2.270660400390625,3.433002233505249
1779910298624416500,10.97441650390625,1.5033130645751953,-2.8326683044433594,-0.4490293264389038
1779910298640749000,10.9907490234375,-23.180885314941406,-8.606955528259277,-3.9553298950195312
1779910298657081900,11.007081787109374,1.7745652198791504,-5.12812614440918,2.0249481201171875
1779910298673414400,11.023414306640625,9.409140586853027,-3.5616750717163086,2.3571181297302246
1779910298689733600,11.039733642578126,-5.239287376403809,-5.511720657348633,2.28776478767395
1779910298706079500,11.05607958984375,-7.427817344665527,-5.653007507324219,-0.6526829600334167
1779910298722412300,11.072412353515626,1.2985103130340576,-3.46004581451416,-1.3644120693206787
1779910298738744000,11.088744140625,4.918756484985352,0.690638542175293,-0.29880431294441223
1779910298755077000,11.1050771484375,2.1151154041290283,2.2205400466918945,1.283935785293579
1779910298771409700,11.12140966796875,0.11731231212615967,2.147646427154541,1.8454315662384033
1779910298787741700,11.13774169921875,0.08944368362426758,2.2383623123168945,1.9508397579193115
1779910298804074500,11.154074462890625,1.1506075859069824,2.5884437561035156,0.7916842699050903
1779910298820411100,11.1704111328125,0.6080309152603149,2.3197708129882812,-0.05779445171356201
1779910298836736500,11.186736572265625,-1.6557061672210693,1.7355108261108398,0.427381694316864
1779910298853069300,11.2030693359375,-1.1720850467681885,2.9354782104492188,0.9371931552886963
1779910298869404700,11.21940478515625,-0.4179210662841797,4.069067001342773,0.6858975887298584
1779910298885724700,11.235724609375,-0.9323872327804565,5.062255382537842,-0.060591548681259155
1779910298902070000,11.252070068359375,-0.7593110799789429,5.478509902954102,-0.4524356722831726
1779910298918402800,11.26840283203125,-1.411543369293213,5.213875770568848,0.029662251472473145
1779910298934735400,11.2847353515625,-1.5400018692016602,4.197004795074463,0.8794480562210083
1779910298951067400,11.3010673828125,-0.5079692602157593,1.9737071990966797,2.0226855278015137
1779910298967397000,11.317397216796875,0.32854676246643066,-0.4916706085205078,3.3752739429473877
1779910298983731500,11.3337314453125,0.8296529650688171,-1.4344511032104492,4.328730583190918
1779910299000093400,11.350093505859375,1.5105562210083008,0.20481014251708984,4.219724178314209
1779910299016411100,11.3664111328125,1.1937851905822754,0.6047515869140625,3.558138132095337
1779910299032744000,11.382743896484374,-2.2867345809936523,-1.4149065017700195,2.077857732772827
1779910299049076200,11.399076171875,-4.521389007568359,-5.481044769287109,0.9969320297241211
1779910299065374500,11.41537451171875,-5.353390693664551,-8.477428436279297,0.34666961431503296
1779910299081738000,11.431738037109374,-3.272731065750122,-8.406781196594238,-1.1140235662460327
1779910299098073000,11.448072998046875,-0.1225433349609375,-7.243969917297363,-2.8491976261138916
1779910299114433000,11.46443310546875,-0.0323185920715332,-4.165408134460449,-3.0040128231048584
1779910299130721800,11.4807216796875,1.4606101512908936,-1.8798065185546875,-1.5165373086929321
1779910299147050200,11.49705029296875,2.6617414951324463,-0.8907251358032227,-1.1132861375808716
1779910299163390700,11.513390625,2.721322536468506,-1.2485733032226562,-2.2838642597198486
1779910299179723500,11.5297236328125,1.886155366897583,-1.641160011291504,-2.3035106658935547
1779910299196056000,11.54605615234375,2.2822587490081787,-1.1960067749023438,-2.029360771179199
1779910299212384800,11.562384765625,2.183838367462158,-1.0104966163635254,-1.204665184020996
1779910299228719000,11.578718994140624,2.044173002243042,0.11953067779541016,-0.49495795369148254
1779910299245054000,11.595053955078125,2.2000679969787598,1.6504082679748535,-0.23186030983924866
1779910299261381400,11.61138134765625,2.594027280807495,2.7844629287719727,-0.528701901435852
1779910299277724000,11.627723876953125,3.046751022338867,3.1113333702087402,-0.9421773552894592
1779910299294051600,11.644051513671876,3.167827606201172,3.2340502738952637,-0.892073929309845
1779910299310374700,11.660374755859374,3.096229076385498,3.2445549964904785,-0.6887226700782776
1779910299326734600,11.676734619140625,2.8632311820983887,3.0127415657043457,-0.5989477634429932
1779910299343043000,11.69304296875,1.9966719150543213,2.6926889419555664,-0.6258026361465454
1779910299359401000,11.70940087890625,0.38501882553100586,1.436739444732666,-0.4942004978656769
1779910299375706000,11.7257060546875,-1.5115551948547363,0.040950775146484375,0.06149566173553467
1779910299392043300,11.742043212890625,-1.7999017238616943,2.0774316787719727,0.5909327268600464
1779910299408379000,11.75837890625,-0.3529167175292969,3.5190834999084473,1.3757431507110596
1779910299424712000,11.7747119140625,2.3888585567474365,2.786778450012207,2.1553897857666016
1779910299441044200,11.791044189453125,1.181762933731079,-0.042357444763183594,1.680472493171692
1779910299457376800,11.807376708984375,-0.29587507247924805,-0.6693439483642578,-1.5424683094024658
1779910299473709600,11.82370947265625,-3.1306862831115723,-1.3349199295043945,-3.45110821723938
1779910299490041900,11.840041748046875,-4.853329658508301,0.07904529571533203,-2.045545816421509
1779910299506375200,11.856375244140626,-4.093697547912598,1.524003028869629,-0.6698951125144958
1779910299522707200,11.872707275390624,-2.9356613159179688,2.281139850616455,-0.28919604420661926
1779910299539057400,11.889057373046874,-1.9952490329742432,2.0296316146850586,-0.17571228742599487
1779910299555369500,11.905369384765624,-2.013813018798828,-1.0108728408813477,-1.0005320310592651
1779910299571714300,11.92171435546875,2.68489933013916,-4.169914245605469,-0.48135673999786377
1779910299588055300,11.93805517578125,7.257391929626465,-3.944913864135742,0.4040595293045044
1779910299604383500,11.954383544921875,3.6200315952301025,-3.504134178161621,0.11780151724815369
1779910299620699000,11.970698974609375,-3.2320127487182617,-1.7496891021728516,-2.2331809997558594
1779910299637034800,11.98703466796875,-5.240654468536377,-2.03507137298584,-3.1095948219299316
1779910299653367600,12.003367431640624,0.6471465826034546,0.28676700592041016,0.04170316457748413
1779910299669687800,12.019687744140626,-2.6548757553100586,-8.515493392944336,2.2609033584594727
1779910299686032600,12.03603271484375,-7.767531871795654,-13.125276565551758,2.661139726638794
1779910299702365200,12.052365234375,2.7669637203216553,-1.5321722030639648,1.6111135482788086
1779910299718697000,12.068697021484375,5.184811115264893,1.1109771728515625,1.7751201391220093
1779910299735030300,12.0850302734375,2.552786111831665,0.48622989654541016,0.9339420795440674
1779910299751361500,12.101361572265626,-0.32639026641845703,1.2556991577148438,0.8637790679931641
1779910299767696400,12.1176962890625,-0.1476672887802124,0.12503910064697266,2.1784191131591797
1779910299784027600,12.134027587890625,0.5490046143531799,-1.9132156372070312,1.9047751426696777
1779910299800344800,12.1503447265625,0.010422468185424805,-1.5235881805419922,1.3248493671417236
1779910299816680400,12.166680419921875,-1.1871213912963867,0.04568290710449219,0.5383154153823853
1779910299833012000,12.183011962890625,-0.30046629905700684,1.2183189392089844,0.2716650366783142
1779910299849337900,12.199337890625,0.7112926244735718,1.5439720153808594,0.37816229462623596
1779910299865677300,12.21567724609375,0.1802104115486145,2.052760601043701,0.7940570712089539
1779910299882010600,12.2320107421875,-0.41788196563720703,2.4640350341796875,1.2309767007827759
1779910299898343400,12.248343505859374,-1.8805865049362183,2.5729899406433105,1.6231180429458618
1779910299914679300,12.26467919921875,-1.7899112701416016,3.103569984436035,1.8638650178909302
1779910299931004700,12.281004638671876,-0.4987417459487915,3.3767642974853516,1.7728261947631836
1779910299947341300,12.29734130859375,-0.15418291091918945,3.2525100708007812,0.2728652060031891
1779910299963672600,12.313672607421875,-0.17945337295532227,3.043201446533203,-0.8934398889541626
1779910299980006000,12.330005859375,-1.1237080097198486,2.397975444793701,-0.9938564896583557
1779910299996338400,12.34633837890625,-0.07014715671539307,1.312814712524414,-0.6978944540023804
1779910300012670500,12.36267041015625,0.9329946041107178,1.3263301849365234,0.29428958892822266
1779910300029019400,12.379019287109376,1.1994765996932983,1.208857536315918,1.4237686395645142
1779910300045335600,12.39533544921875,-0.14781486988067627,1.6963443756103516,1.5677413940429688
1779910300061683000,12.411682861328124,-2.5793209075927734,1.9643406867980957,1.4878381490707397
1779910300078001200,12.428001220703125,-1.540860652923584,1.2792387008666992,2.012908935546875
1779910300094346200,12.44434619140625,-1.7587335109710693,-0.05757331848144531,2.0984368324279785
1779910300110673700,12.460673583984375,-2.741342067718506,-3.0739402770996094,1.4519258737564087
1779910300127016000,12.477015869140626,-1.947899341583252,-5.056840896606445,1.0912718772888184
1779910300143343400,12.49334326171875,-2.80387020111084,-5.252439498901367,0.05547669529914856
1779910300159676200,12.50967626953125,-1.6118640899658203,-5.747331619262695,-1.3266377449035645
1779910300175994400,12.525994384765625,-1.228792667388916,-5.568316459655762,-1.0501821041107178
1779910300192342500,12.542342529296874,0.807429313659668,-3.4502925872802734,-0.800977349281311
1779910300208673800,12.558673828125,3.4140777587890625,-2.226010322570801,-1.74627685546875
1779910300225006000,12.575006103515625,2.478529691696167,-1.011911392211914,-1.3506768941879272
1779910300241325600,12.59132568359375,2.761647939682007,0.7517080307006836,-0.4436328411102295
1779910300257660000,12.607659912109375,3.2910666465759277,1.665271282196045,-0.788567066192627
1779910300290323700,12.64032373046875,0.19115161895751953,-0.25676918029785156,-1.788917899131775
1779910300306656800,12.65665673828125,-1.3724489212036133,-2.2164840698242188,-1.269002914428711
1779910300322989000,12.672989013671875,-1.1422324180603027,-2.625924587249756,-0.5916479825973511
1779910300339321600,12.689321533203126,0.2545509338378906,-1.4430952072143555,-1.091052770614624
1779910300355655200,12.7056552734375,0.9051146507263184,0.2526230812072754,-1.2559385299682617
1779910300371986400,12.721986328125,1.1676592826843262,0.9733085632324219,-1.0067600011825562
1779910300388319200,12.7383193359375,2.254758834838867,1.9752750396728516,-1.1269056797027588
1779910300404654800,12.75465478515625,3.1376922130584717,3.2766823768615723,-1.0872323513031006
1779910300420996600,12.77099658203125,2.539645195007324,4.62447452545166,-0.5948659181594849
1779910300437325800,12.787325927734376,1.8154675960540771,5.660828590393066,-0.42385315895080566
1779910300453668000,12.803668212890624,1.3109474182128906,5.884347438812256,-0.15684747695922852
1779910300469991200,12.8199912109375,1.1223983764648438,5.575115203857422,0.38235557079315186
1779910300486326500,12.836326416015625,0.8097336292266846,3.950247287750244,0.7518289685249329
1779910300502659600,12.85265966796875,-0.03946685791015625,1.4856019020080566,0.979984700679779
1779910300519008800,12.8690087890625,-1.998243808746338,1.225240707397461,1.4100074768066406
1779910300535344400,12.885344482421875,-4.223487854003906,0.5208616256713867,1.8038175106048584
1779910300551667000,12.9016669921875,-5.2011613845825195,-1.1863031387329102,1.8672783374786377
1779910300568007000,12.9180068359375,-3.6451401710510254,-1.3609981536865234,-0.09579131007194519
1779910300584336100,12.934336181640624,-2.7798852920532227,-0.8042383193969727,-1.2250488996505737
1779910300600668200,12.950668212890625,-3.808755874633789,1.1292648315429688,-1.2901514768600464
1779910300616983600,12.966983642578125,-5.535648345947266,2.7703075408935547,-0.6728922128677368
1779910300633319400,12.9833193359375,-5.49918270111084,3.546558380126953,-0.7807769775390625
1779910300649652000,12.99965185546875,-2.9651403427124023,2.7155003547668457,-0.5419490933418274
1779910300665984800,13.01598486328125,-0.3727562427520752,-1.4328584671020508,-0.378296434879303
1779910300682316500,13.032316650390625,3.0034539699554443,-7.226742744445801,-0.15781641006469727
1779910300698650600,13.048650634765625,3.4388813972473145,-7.9155378341674805,0.23839697241783142
1779910300714982700,13.064982666015625,4.597517490386963,-7.243792533874512,-0.36619824171066284
1779910300731307800,13.081307861328124,4.233096122741699,-3.4022216796875,-1.6493449211120605
1779910300747650600,13.097650634765625,3.469092607498169,-0.2680225372314453,-2.5888051986694336
1779910300763979800,13.113979736328124,-1.9027063846588135,0.5159921646118164,-1.4121249914169312
1779910300780312600,13.1303125,3.344515800476074,-4.896510124206543,2.9124574661254883
1779910300796631600,13.146631591796876,3.040842294692993,-8.435062408447266,6.236660957336426
1779910300812977000,13.162976806640625,-6.261861324310303,-7.329022407531738,4.269931316375732
1779910300829318100,13.179318115234375,-5.487222671508789,-4.000969886779785,1.107537031173706
1779910300845629200,13.195629150390625,2.61696720123291,-4.2861480712890625,-1.3231042623519897
1779910300861964300,13.21196435546875,6.108188629150391,-2.2877941131591797,-3.813621759414673
1779910300878307300,13.228307373046874,7.563872814178467,-0.01218414306640625,-4.557539463043213
1779910300894643000,13.244642822265625,0.7470002174377441,0.48149585723876953,-4.113623142242432
1779910300910986000,13.260986083984376,-7.510796546936035,1.2524986267089844,-1.7876441478729248
1779910300927314700,13.277314697265625,-0.7810618877410889,2.2978310585021973,1.5225512981414795
1779910300943655000,13.293655029296875,2.7900123596191406,2.4585022926330566,3.0377724170684814
1779910300959966700,13.309966796875,0.4146804213523865,2.2746543884277344,1.7589671611785889
1779910300976316000,13.32631591796875,-2.2230210304260254,2.2198305130004883,0.6884669065475464
1779910300992667100,13.342667236328126,-2.9553370475769043,2.722702980041504,0.855938196182251
1779910301008981500,13.3589814453125,-2.6422879695892334,3.113807201385498,1.3114598989486694
1779910301025281000,13.375281005859375,-1.9550700187683105,2.7220993041992188,1.790018916130066
1779910301041647900,13.39164794921875,-0.6829313039779663,2.1995482444763184,2.496601104736328
1779910301057967000,13.407967041015626,-0.625353991985321,1.664494514465332,2.632725477218628
1779910301074311400,13.4243115234375,-2.2857232093811035,-0.03444671630859375,1.8875144720077515
1779910301090641000,13.440640869140625,-2.3452978134155273,-1.1364870071411133,1.6712380647659302
1779910301106974700,13.456974609375,-2.522331714630127,-0.8638372421264648,2.2736077308654785
1779910301123279400,13.473279296875,-3.4922378063201904,-0.6277303695678711,2.8306896686553955
1779910301139609900,13.48960986328125,-3.0850958824157715,-0.7848138809204102,2.504734516143799
1779910301155959800,13.505959716796875,-2.668893814086914,-1.0472402572631836,2.484416961669922
1779910301172292900,13.52229296875,-2.2450194358825684,-2.3908605575561523,1.7565808296203613
1779910301188612600,13.538612548828125,-1.7592494487762451,-3.6488304138183594,2.034205913543701
1779910301204957700,13.554957763671876,-1.0171840190887451,-3.8443775177001953,2.5593276023864746
1779910301221290500,13.57129052734375,-0.9297345876693726,-3.137676239013672,2.5567727088928223
1779910301237622800,13.587622802734375,-1.3628530502319336,-2.219967842102051,1.4987480640411377
1779910301253952300,13.6039521484375,-2.5475411415100098,-1.2864513397216797,-1.6566693782806396
1779910301270291500,13.62029150390625,-1.63680100440979,-2.522979736328125,-3.852719783782959
1779910301286616600,13.636616455078125,1.7793796062469482,-5.450057029724121,-4.559728145599365
1779910301302955800,13.652955810546874,4.46781587600708,-7.522687911987305,-4.750548839569092
1779910301319285200,13.66928515625,5.259775161743164,-5.580142974853516,-3.7380728721618652
1779910301335617500,13.685617431640624,3.838665008544922,-3.258028030395508,-2.1807515621185303
1779910301351950000,13.7019501953125,-0.8237969875335693,-1.126692771911621,-0.3923935294151306
1779910301368283000,13.718282958984375,-1.3001713752746582,-0.3222770690917969,2.108247995376587
1779910301384614400,13.734614501953125,1.191850185394287,-1.1204118728637695,3.2510809898376465
1779910301400948700,13.75094873046875,2.466153144836426,-0.28538990020751953,1.7470935583114624
1779910301417280500,13.767280517578126,2.44787335395813,-0.38594913482666016,1.0830919742584229
1779910301433633300,13.78363330078125,2.363325834274292,-0.19992542266845703,0.7483452558517456
1779910301449955800,13.799955810546875,2.8748891353607178,0.1637439727783203,0.6240331530570984
1779910301466291500,13.81629150390625,4.061821937561035,1.1752700805664062,0.1278398036956787
1779910301482624300,13.832624267578124,5.5437445640563965,3.346039295196533,-0.27398866415023804
1779910301498957300,13.848957275390624,5.857383728027344,5.072710990905762,-0.5869489908218384
1779910301515289300,13.865289306640625,4.785060405731201,5.896492004394531,-1.1249197721481323
1779910301531621600,13.88162158203125,3.734837532043457,6.324314117431641,-1.911758542060852
1779910301547915500,13.89791552734375,2.513904333114624,6.51669979095459,-2.4983904361724854
1779910301564276000,13.91427587890625,2.0312511920928955,5.995728015899658,-2.1004843711853027
1779910301580619300,13.930619384765626,0.9841756820678711,4.889768600463867,-1.866336703300476
1779910301596951300,13.946951416015626,-0.4546775817871094,2.621694564819336,-1.5689305067062378
1779910301613283800,13.963283935546874,-1.0700671672821045,-2.2205734252929688,-0.46267810463905334
1779910301629617700,13.97961767578125,-2.58803391456604,-10.411344528198242,1.3779237270355225
1779910301645948400,13.995948486328125,-6.844644546508789,-10.674965858459473,2.6491200923919678
1779910301662265600,14.012265625,-7.0911359786987305,-2.1797657012939453,1.5710208415985107
1779910301678609400,14.028609375,-3.34735369682312,3.1797752380371094,0.5794856548309326
1779910301694946800,14.04494677734375,2.209132671356201,6.43961238861084,0.5640503168106079
1779910301711275300,14.061275146484375,6.628396987915039,5.914964199066162,0.10583105683326721
1779910301727597300,14.077597412109375,6.974081516265869,-0.8348808288574219,-0.2900885343551636
1779910301743927300,14.09392724609375,8.115521430969238,-9.605657577514648,0.0995909571647644
1779910301760253400,14.11025341796875,-7.601534843444824,-19.419281005859375,-2.3198835849761963
1779910301776595500,14.126595458984376,-2.713252305984497,-4.674617767333984,-0.5583465099334717
1779910301792927700,14.142927734375,1.1120965480804443,1.1457490921020508,-2.421778678894043
1779910301809260300,14.15926025390625,-1.4048388004302979,2.504146099090576,-3.4214489459991455
1779910301825592600,14.175592529296875,1.022727370262146,3.4349656105041504,-3.841099500656128
1779910301841912000,14.191912109375,6.491780757904053,4.50850248336792,-2.9404656887054443
1779910301858257700,14.208257568359375,8.841262817382812,2.7515015602111816,-0.6441394686698914
1779910301874588700,14.224588623046875,7.796156406402588,0.719029426574707,1.4322518110275269
1779910301890924000,14.240924072265624,-0.9475822448730469,-2.8458290100097656,1.5258188247680664
1779910301907253800,14.257253662109376,-4.688968658447266,-3.1017074584960938,3.7603955268859863
1779910301923571700,14.27357177734375,0.5837875604629517,-0.33138465881347656,3.5295822620391846
1779910301939924000,14.289924072265626,-1.444258213043213,-0.5313234329223633,1.4471548795700073
1779910301956249600,14.30624951171875,-0.7772048711776733,0.11023426055908203,-1.434474229812622
1779910301972588300,14.32258837890625,0.6359288096427917,1.103250503540039,-1.5477659702301025
1779910301988904400,14.338904541015625,1.3147975206375122,2.0569381713867188,-0.22441643476486206
1779910302005256200,14.355256103515625,0.8040549159049988,2.7481727600097656,0.613904595375061
1779910302021581800,14.371581787109376,-0.01142740249633789,1.8642816543579102,0.5273022055625916
1779910302037928700,14.3879287109375,-0.15272772312164307,0.25690174102783203,0.18397647142410278
1779910302054258000,14.4042578125,-0.4005110263824463,0.22804546356201172,-0.22236627340316772
1779910302070594000,14.420593994140624,-0.757675290107727,0.9406518936157227,-0.11064735054969788
1779910302086910700,14.43691064453125,-0.5642968416213989,1.403162956237793,0.09629157185554504
1779910302103259000,14.4532587890625,-0.4906855821609497,1.6689472198486328,0.3749794661998749
1779910302119587300,14.46958740234375,-0.4589061737060547,2.1383328437805176,0.3797970116138458
1779910302135911000,14.485910888671874,-1.2487475872039795,3.178976535797119,0.3893277645111084
1779910302152242700,14.50224267578125,-1.731623649597168,3.7958736419677734,0.2895807921886444
1779910302168575000,14.518574951171875,-0.8946812152862549,4.042408466339111,0.2724584937095642
1779910302184907500,14.534907470703125,-0.8596863746643066,4.368607521057129,0.26211899518966675
1779910302201240000,14.551239990234375,-0.10360324382781982,3.5952467918395996,0.10980668663978577
1779910302217570000,14.567570068359375,0.5138214826583862,2.766244411468506,-0.24201026558876038
1779910302233904400,14.583904296875,0.20079100131988525,2.5611891746520996,-0.5828752517700195
1779910302250241000,14.600240966796875,-0.17790794372558594,2.4725570678710938,0.2589578330516815
1779910302266569700,14.61656982421875,0.3927736282348633,2.434718132019043,2.041757822036743
1779910302282902500,14.632902587890625,0.1419205665588379,2.1965155601501465,3.2437827587127686
1779910302299234800,14.64923486328125,-0.4206361770629883,1.8685593605041504,3.8458521366119385
1779910302315567400,14.6655673828125,-0.7394394874572754,1.0496206283569336,3.8131234645843506
1779910302331900000,14.68189990234375,-1.4337146282196045,-1.2343721389770508,2.94221568107605
1779910302348232400,14.698232421875,-2.8938686847686768,-5.128969192504883,2.563547134399414
1779910302364564500,14.714564453125,-3.7518973350524902,-7.843132019042969,1.8327943086624146
1779910302380894700,14.730894775390626,-2.7390971183776855,-9.397403717041016,0.6008259057998657
1779910302397231900,14.74723193359375,-1.3869762420654297,-9.135037422180176,-0.6513738036155701
1779910302413562400,14.763562255859375,-0.274569034576416,-6.316807746887207,-1.7354609966278076
1779910302429912000,14.779912109375,1.1515135765075684,-4.842498779296875,-3.6950247287750244
1779910302446241300,14.7962412109375,1.3865351676940918,-3.739896774291992,-4.436419486999512
1779910302462572800,14.81257275390625,2.495237112045288,-1.8515634536743164,-3.3697991371154785
1779910302478908200,14.828908203125,3.244302272796631,0.33881473541259766,-1.9141325950622559
1779910302495236000,14.845236083984375,2.8944153785705566,1.5402936935424805,-1.577614665031433
1779910302511553800,14.8615537109375,2.169142007827759,1.4804506301879883,-2.040193796157837
1779910302527877000,14.877877197265626,1.900930404663086,0.9566006660461426,-1.939825177192688
1779910302544221700,14.8942216796875,1.8814001083374023,1.1398425102233887,-1.5738298892974854
1779910302560554000,14.910553955078125,2.4600164890289307,1.8924765586853027,-1.290452003479004
1779910302576885800,14.9268857421875,3.2040610313415527,3.096867084503174,-0.8874539136886597
1779910302593219600,14.943219482421876,3.6909375190734863,3.8974642753601074,-0.5724682211875916
1779910302609542000,14.9595419921875,3.7108187675476074,4.118828296661377,-0.5605885982513428
1779910302625897700,14.975897705078125,2.8229451179504395,4.244883060455322,-0.40249359607696533
1779910302642230300,14.992230224609376,1.759319543838501,4.224025726318359,-0.23310258984565735
1779910302658584000,15.008583984375,0.534799337387085,3.178649425506592,-0.06993049383163452
1779910302674895600,15.0248955078125,-0.8249285221099854,0.3134317398071289,0.23329094052314758
1779910302691228200,15.041228271484375,-0.32544898986816406,1.7597732543945312,1.1853832006454468
1779910302707543300,15.057543212890625,2.0572397708892822,2.388263702392578,2.1176037788391113
1779910302723876000,15.0738759765625,1.9145452976226807,-1.2960338592529297,2.2574105262756348
1779910302740214000,15.090214111328125,-0.8267067670822144,-1.4487695693969727,1.376691460609436
1779910302756539000,15.106538818359375,-2.106311798095703,0.5445280075073242,-1.763163685798645
1779910302772881700,15.122881591796874,-4.832233428955078,0.13950157165527344,-2.503366708755493
1779910302789195800,15.13919580078125,-8.749573707580566,-0.26393604278564453,-2.59612774848938
1779910302805541400,15.155541259765625,-6.621532440185547,-0.13933086395263672,-3.6940386295318604
1779910302821873700,15.171873779296876,-6.579045295715332,-3.693317413330078,-4.534550666809082
1779910302838206200,15.188206298828124,4.116615295410156,-6.0995988845825195,-2.198152542114258
1779910302854539000,15.2045390625,11.657750129699707,-2.990549087524414,2.160137176513672
1779910302870870800,15.220870849609375,8.553293228149414,-2.6806955337524414,3.089864492416382
1779910302887191600,15.237191650390624,-2.842040777206421,-0.7038640975952148,-1.292914628982544
1779910302903535900,15.253535888671875,-5.9494476318359375,0.6612586975097656,-1.9767649173736572
1779910302919869400,15.269869384765625,-1.5584113597869873,-1.9474258422851562,1.8124182224273682
1779910302936215300,15.28621533203125,-2.333188533782959,-16.169097900390625,6.775119781494141
1779910302952547600,15.302547607421875,-5.312198638916016,-12.245394706726074,5.8543195724487305
1779910302968879600,15.318879638671875,4.210605144500732,-0.6875715255737305,1.751591444015503
1779910302985212400,15.33521240234375,3.4639039039611816,1.2993011474609375,-0.17707711458206177
1779910303001531600,15.35153173828125,1.6515400409698486,3.968125343322754,-0.10800588130950928
1779910303017877200,15.367877197265624,1.7307395935058594,5.4894514083862305,1.2440524101257324
1779910303034206500,15.38420654296875,2.702448606491089,2.8257813453674316,2.221466064453125
1779910303050546000,15.4005458984375,1.4262365102767944,-1.8865461349487305,0.6018058657646179
1779910303066875400,15.41687548828125,-0.8244948387145996,-1.3989849090576172,-1.4692171812057495
1779910303083185700,15.433185546875,-1.7180564403533936,0.29818058013916016,-1.289439082145691
1779910303099521500,15.449521484375,0.5989032983779907,1.2916393280029297,-0.4461591839790344
1779910303115858200,15.465858154296875,1.3341926336288452,1.612640380859375,-0.6588404178619385
1779910303132189200,15.482189208984375,0.23927384614944458,2.097275733947754,0.04483678936958313
1779910303148524500,15.498524658203126,-2.9815690517425537,1.9246692657470703,1.135870337486267
1779910303164852200,15.514852294921875,-4.0368194580078125,2.7730584144592285,0.35938000679016113
1779910303181191400,15.53119140625,-0.9087833166122437,4.126795291900635,0.011751681566238403
1779910303197520400,15.547520263671874,-0.41320550441741943,4.127246379852295,-0.11996744573116302
1779910303213851100,15.56385107421875,-0.9407585859298706,4.2581353187561035,-0.7281113862991333
1779910303230187500,15.5801875,-1.1244386434555054,3.258543014526367,0.23986482620239258
1779910303246517500,15.596517578125,-0.06278681755065918,2.491760730743408,1.4812722206115723
1779910303262850300,15.612850341796875,0.07804715633392334,1.6703763008117676,2.772977113723755
1779910303279182600,15.6291826171875,-0.20698118209838867,1.0517864227294922,3.5327816009521484
1779910303295509200,15.64550927734375,0.09847784042358398,1.088449478149414,3.86959171295166
1779910303311853300,15.661853271484375,0.45439422130584717,1.1739835739135742,3.8722496032714844
1779910303328182000,15.67818212890625,-2.262880563735962,0.24384784698486328,2.7539780139923096
1779910303344512500,15.694512451171875,-2.569744825363159,-3.4416332244873047,1.9544572830200195
1779910303360831700,15.710831787109376,-2.7531018257141113,-7.11678409576416,2.053649663925171
1779910303377177300,15.72717724609375,-1.9481110572814941,-8.08912181854248,1.476797342300415
1779910303393509600,15.743509521484375,0.7534921169281006,-7.421530723571777,-0.5410851836204529
1779910303409842200,15.75984228515625,0.059302330017089844,-5.086817741394043,-1.3743209838867188
1779910303426192100,15.776192138671876,0.7722573280334473,-2.8009958267211914,-1.7462959289550781
1779910303442521300,15.792521240234375,3.019930124282837,-1.5750770568847656,-2.5709056854248047
1779910303458853600,15.808853515625,2.2531545162200928,-0.9353132247924805,-3.751030445098877
1779910303475185400,15.825185302734376,1.5498547554016113,-1.5771584510803223,-2.9781033992767334
1779910303491518500,15.8415185546875,1.4060325622558594,-0.35552215576171875,-1.8967915773391724
1779910303507818500,15.857818603515625,1.012617588043213,0.7277569770812988,-1.1472663879394531
1779910303524155000,15.87415478515625,0.9910998344421387,0.8540000915527344,-1.0803146362304688
1779910303540491800,15.89049169921875,1.1250619888305664,0.7020955085754395,-0.9117083549499512
1779910303556834000,15.906833984375,1.5956945419311523,0.8105082511901855,-1.212375283241272
1779910303573166300,15.923166259765624,2.4395248889923096,1.2385153770446777,-1.421055793762207
1779910303589485800,15.93948583984375,3.619957447052002,2.009347438812256,-1.1391537189483643
1779910303605835000,15.9558349609375,4.225588798522949,2.827850818634033,-0.7626296281814575
1779910303622176300,15.97217626953125,4.067156791687012,3.3464508056640625,-0.7077221870422363
1779910303638495000,15.988494873046875,3.4116928577423096,3.6846938133239746,-0.7043110132217407
1779910303654825200,16.0048251953125,2.335573196411133,3.92952823638916,-0.7456099987030029
1779910303671148000,16.02114794921875,1.0201051235198975,3.9527816772460938,-0.6760742664337158
1779910303687489300,16.0374892578125,-1.2471749782562256,1.492128849029541,-0.5548781752586365
1779910303703824000,16.053823974609376,-2.4843714237213135,-1.1808538436889648,0.20603126287460327
1779910303720160800,16.070160888671875,-1.660468339920044,0.7778263092041016,1.857285499572754
1779910303736478000,16.08647802734375,-0.26792359352111816,-0.20429611206054688,3.2258925437927246
1779910303752810200,16.102810302734376,-1.2765799760818481,-1.6441545486450195,3.0092215538024902
1779910303769152300,16.11915234375,-2.794970989227295,0.6436271667480469,-0.8812415599822998
1779910303785491700,16.13549169921875,-5.1001505851745605,1.4111862182617188,-1.5849664211273193
1779910303801804300,16.15180419921875,-5.090944766998291,1.6988458633422852,-1.1057970523834229
1779910303818140700,16.168140625,-2.1081409454345703,1.813127040863037,-0.6273471117019653
1779910303834473500,16.184473388671876,-0.3050788640975952,1.992443561553955,0.23236697912216187
1779910303850806000,16.200805908203126,-1.3389811515808105,1.0475549697875977,0.680391788482666
1779910303867137300,16.21713720703125,3.541375160217285,-3.125093460083008,0.9649815559387207
1779910303883471400,16.233471435546875,6.827485084533691,-3.520784378051758,0.3603760004043579
1779910303899802000,16.249802001953125,2.824784755706787,-2.283771514892578,-0.9334800839424133
1779910303916134400,16.266134521484375,-5.280717372894287,-3.566838264465332,-3.127774953842163
1779910303932468500,16.282468505859374,-10.815652847290039,-4.9700212478637695,-4.333562850952148
1779910303948800000,16.298800048828124,3.7184548377990723,-8.504383087158203,-2.2683753967285156
1779910303965130200,16.315130126953125,3.408477783203125,-14.068767547607422,6.605492115020752
1779910303981468400,16.331468505859377,-6.179853439331055,-2.9465513229370117,5.765735626220703
1779910303997797600,16.347797607421874,-3.843453884124756,0.7874898910522461,-0.6696904301643372
1779910304014130700,16.364130615234377,1.9612116813659668,-1.3534049987792969,-1.4007642269134521
1779910304030462200,16.380462158203127,4.158270835876465,0.8199014663696289,-0.15992388129234314
1779910304046795000,16.396794921875,4.844641208648682,1.2123022079467773,1.3503005504608154
1779910304063128300,16.41312841796875,4.372978210449219,1.0240631103515625,1.9301851987838745
1779910304079459600,16.42945947265625,2.263759136199951,0.028156280517578125,1.5482479333877563
1779910304095791400,16.445791259765624,-1.1894785165786743,-0.9969110488891602,-0.40837544202804565
1779910304112123400,16.462123291015626,-3.904958486557007,-1.3058958053588867,-1.5488914251327515
1779910304128458200,16.478458251953125,-1.8103959560394287,0.3325967788696289,-0.6654811501502991
1779910304144788000,16.4947880859375,-1.4420392513275146,1.354116439819336,0.0022126436233520508
1779910304161121300,16.511121337890625,-0.9563900232315063,2.361876964569092,0.16329990327358246
1779910304177453600,16.52745361328125,-1.48508882522583,2.950481414794922,0.46071237325668335
1779910304193785600,16.54378564453125,-0.9231679439544678,3.6181631088256836,1.388643503189087
1779910304210121000,16.560120849609376,-0.39708584547042847,4.343377590179443,2.535245418548584
1779910304226468000,16.576468017578126,-1.209756851196289,4.7247395515441895,1.9059559106826782
1779910304242795800,16.592795654296875,-1.3063549995422363,4.798376083374023,1.4754960536956787
1779910304259129000,16.609129150390626,-0.4925299882888794,4.473912715911865,1.3671175241470337
1779910304275460900,16.6254609375,0.14382129907608032,3.8635969161987305,1.5478882789611816
1779910304291783000,16.641782958984376,-0.0795983076095581,3.1471986770629883,1.571414828300476
1779910304308127500,16.65812744140625,-0.369543194770813,2.1543664932250977,1.8127164840698242
1779910304324458500,16.67445849609375,-0.7968355417251587,1.5626897811889648,2.3271172046661377
1779910304340790500,16.69079052734375,-0.9354763031005859,1.059300422668457,2.4673662185668945
1779910304357123000,16.707123046875,-0.29487133026123047,1.019491195678711,1.6665656566619873
1779910304373455600,16.72345556640625,-1.6465952396392822,-1.0931053161621094,0.3503243327140808
1779910304389788000,16.739787841796876,-1.1650426387786865,-5.802075386047363,-0.03380069136619568
1779910304406120200,16.7561201171875,0.2275073528289795,-7.7327070236206055,1.1277283430099487
1779910304422440000,16.77243994140625,-1.1477627754211426,-7.3125104904174805,0.44275733828544617
1779910304438785000,16.788784912109374,-1.410679817199707,-6.63448429107666,-1.495377540588379
1779910304455117800,16.805117919921877,-2.162379264831543,-5.600118637084961,-2.692373752593994
1779910304471449900,16.821449951171875,-0.36925363540649414,-3.7302770614624023,-2.1773252487182617
1779910304487781600,16.83778173828125,3.5359864234924316,-1.9700851440429688,-2.112421989440918
1779910304504114700,16.85411474609375,3.470306873321533,-1.109933853149414,-2.030273675918579
1779910304520447500,16.870447509765626,2.710928440093994,-1.5443954467773438,-2.8647918701171875
1779910304536779500,16.886779541015624,1.6924567222595215,-1.504737377166748,-2.666591167449951
1779910304553112000,16.903112060546874,0.8247227668762207,-0.7648191452026367,-1.7902858257293701
1779910304569447700,16.91944775390625,0.9993562698364258,0.21290016174316406,-0.9205605983734131
1779910304585791200,16.935791259765626,1.2583508491516113,1.4073214530944824,-0.7147146463394165
1779910304602121500,16.95212158203125,1.5405621528625488,2.4138264656066895,-0.7442440986633301
1779910304618455600,16.96845556640625,2.484783887863159,2.9659647941589355,-0.9504797458648682
1779910304634783200,16.984783203125,3.465693950653076,3.1809473037719727,-1.104512095451355
1779910304651106300,17.001106201171876,3.902094841003418,3.0462985038757324,-1.1900179386138916
1779910304667446500,17.017446533203124,3.832214593887329,2.8136963844299316,-0.9287806749343872
1779910304683768300,17.033768310546876,3.3891732692718506,2.836251735687256,-0.6354584097862244
1779910304700107300,17.050107177734375,2.3986077308654785,3.1113452911376953,-0.5071617364883423
1779910304716435700,17.066435791015625,0.45999622344970703,3.3521299362182617,-0.3684538006782532
1779910304732755200,17.082755126953124,-1.7355544567108154,0.6377096176147461,-0.15066313743591309
1779910304749101000,17.09910107421875,-3.930687665939331,0.2729654312133789,0.6416199803352356
1779910304765433000,17.11543310546875,-3.9712424278259277,1.087000846862793,1.9390606880187988
1779910304781766700,17.1317666015625,-2.196214199066162,0.2941474914550781,4.051388740539551
1779910304798100500,17.1481005859375,-0.7507005929946899,0.22818660736083984,4.804820537567139
1779910304814443800,17.16444384765625,-0.23896193504333496,2.294811248779297,1.4350390434265137
1779910304830776000,17.180776123046876,-0.6416832208633423,3.221235752105713,-0.5391883254051208
1779910304847102200,17.197102294921876,-2.828704357147217,4.001282215118408,-1.2267752885818481
1779910304863433700,17.213433837890626,-4.101408004760742,3.6424989700317383,-1.9501261711120605
1779910304879757800,17.2297578125,-2.0335702896118164,0.22169208526611328,-2.444164514541626
1779910304896089600,17.246089599609373,5.186021327972412,-3.1632699966430664,-1.2067363262176514
1779910304912424700,17.2624248046875,9.009998321533203,-5.434597969055176,0.5836743116378784
1779910304928757500,17.278757568359374,-0.49658989906311035,-7.856222152709961,-2.012031316757202
1779910304945089500,17.295089599609376,-10.351017951965332,-5.875739097595215,-3.952998638153076
1779910304961463300,17.31146337890625,4.135193347930908,0.4685688018798828,1.0433158874511719
1779910304977749200,17.327749267578124,0.006076812744140625,-7.020772933959961,4.655883312225342
1779910304994096000,17.34409619140625,-8.4380521774292,-16.201040267944336,4.2737298011779785
1779910305010430200,17.36043017578125,-1.1964209079742432,-5.062366485595703,3.4764044284820557
1779910305026775300,17.376775390625,3.81429386138916,-0.6666774749755859,1.1653611660003662
1779910305043097900,17.393097900390625,2.80837082862854,-0.1165933609008789,0.4194045066833496
1779910305059427300,17.40942724609375,1.3335347175598145,1.9547934532165527,0.6901248693466187
1779910305075765800,17.425765869140626,1.7370989322662354,2.676433563232422,1.195181131362915
1779910305092087300,17.44208740234375,2.43119478225708,1.5628719329833984,1.7699135541915894
1779910305108430600,17.4584306640625,3.037292003631592,0.35518836975097656,1.0433894395828247
1779910305124752600,17.474752685546875,-0.5964072942733765,-1.1326770782470703,-0.90080326795578
1779910305141096700,17.4910966796875,-3.521652936935425,0.00629425048828125,-1.6430174112319946
1779910305157425200,17.507425048828125,-1.1357624530792236,2.115541934967041,-0.4371708631515503
1779910305173740000,17.523739990234375,-0.2715170979499817,2.9405698776245117,0.24385583400726318
1779910305190076000,17.540075927734375,-1.7425506114959717,3.172053337097168,0.5759453773498535
1779910305206407400,17.556407470703125,-3.0866141319274902,3.5371503829956055,0.7197242379188538
1779910305222738200,17.57273828125,-2.3405163288116455,4.325082778930664,1.264356255531311
1779910305239075000,17.589074951171874,0.035911381244659424,5.352011680603027,2.034520387649536
1779910305255405000,17.605405029296875,-0.03266274929046631,5.96598482131958,1.7785463333129883
1779910305271737900,17.62173779296875,-1.688494086265564,5.57000207901001,1.109968900680542
1779910305288057000,17.63805712890625,-2.210191488265991,4.442674160003662,-0.007462024688720703
1779910305304402200,17.654402099609374,-0.3273754119873047,1.8604254722595215,0.5281563997268677
1779910305320734500,17.670734375,1.2964060306549072,0.4531688690185547,1.5303781032562256
1779910305337082600,17.68708251953125,1.1253209114074707,0.07785797119140625,2.037776231765747
1779910305353396000,17.70339599609375,-0.7630116939544678,0.5307502746582031,1.6758930683135986
1779910305369731600,17.719731689453123,-1.9837043285369873,-1.5477323532104492,0.7174105644226074
1779910305386064400,17.736064453125,-2.0977120399475098,-5.875774383544922,0.2360745668411255
1779910305402398500,17.7523984375,-3.411858081817627,-10.03984260559082,0.0856793075799942
1779910305418726400,17.768726318359374,-1.5565905570983887,-10.622077941894531,0.5398104786872864
1779910305435061500,17.7850615234375,-0.6007370948791504,-7.405821800231934,-0.45163264870643616
1779910305451393500,17.8013935546875,0.22043561935424805,-4.805368423461914,-1.969951868057251
1779910305467713500,17.817713623046874,1.0479340553283691,-3.2290477752685547,-1.9212634563446045
1779910305484058400,17.834058349609375,2.1442506313323975,-2.0637545585632324,-1.4764583110809326
1779910305500390700,17.850390625,2.099912643432617,-0.7872843742370605,-1.5150527954101562
1779910305516723500,17.866723388671875,1.9393458366394043,-0.5488228797912598,-1.5742676258087158
1779910305533055700,17.8830556640625,2.1649560928344727,-0.6364340782165527,-1.6096175909042358
1779910305549405000,17.899405029296876,2.0155704021453857,-0.18888568878173828,-1.4198663234710693
1779910305565727000,17.91572705078125,1.7435526847839355,0.9717669486999512,-1.0764189958572388
1779910305582069000,17.932069091796876,1.1425485610961914,2.027705192565918,-0.682296872138977
1779910305598372900,17.948372802734376,0.9757156372070312,2.7842206954956055,-0.5073465704917908
1779910305614731800,17.964731689453124,1.5334477424621582,3.2406773567199707,-0.5034947395324707
1779910305631062800,17.981062744140626,2.633086919784546,3.8546018600463867,-0.40915894508361816
1779910305647395600,17.9973955078125,3.388571262359619,4.524716377258301,-0.17924082279205322
1779910305663733200,18.013733154296876,2.888380527496338,5.04207706451416,0.09521573781967163
1779910305680046800,18.030046875,1.9986796379089355,3.4730238914489746,0.45596760511398315
1779910305696379400,18.04637939453125,0.842538595199585,1.7473783493041992,1.2119556665420532
1779910305712711400,18.06271142578125,-0.49230241775512695,2.1717920303344727,2.3543577194213867
1779910305729044200,18.079044189453125,-0.4449307918548584,0.7584981918334961,2.5627248287200928
1779910305745376300,18.095376220703123,0.5897626876831055,0.9324302673339844,1.1622843742370605
1779910305761687300,18.111687255859376,-0.5771902799606323,1.906501293182373,-0.8391357064247131
1779910305778031400,18.12803125,-3.7591958045959473,2.078042984008789,-1.432154893875122
1779910305794392800,18.144392822265626,-6.267796039581299,2.550501823425293,-0.80063396692276
1779910305810715000,18.16071484375,-3.777024745941162,3.3067378997802734,-0.20093560218811035
1779910305827052300,18.17705224609375,-2.896423578262329,3.881399631500244,-0.2514268159866333
1779910305843383800,18.1933837890625,-2.231144905090332,3.307403564453125,-1.2442636489868164
1779910305859680000,18.209679931640625,1.5349547863006592,-0.1454906463623047,-2.5447535514831543
1779910305876035600,18.22603564453125,6.392157554626465,-5.008212089538574,-1.0707290172576904
1779910305892368000,18.242367919921875,6.50079345703125,-8.558347702026367,-0.7198072671890259
1779910305908688100,18.258688232421875,-5.694415092468262,-8.820905685424805,-1.8439133167266846
1779910305925032000,18.275031982421876,-6.275638580322266,-2.925168037414551,0.04690349102020264
1779910305941364500,18.291364501953126,3.0947182178497314,-2.8951025009155273,2.776259660720825
1779910305957690000,18.307690185546875,3.068118095397949,-1.1654386520385742,3.6609528064727783
1779910305974039600,18.32403955078125,-0.5517157316207886,-0.4480323791503906,4.299254417419434
1779910305990370800,18.340370849609375,-4.312647342681885,-8.484832763671875,4.246418476104736
1779910306006717200,18.35671728515625,-4.493196964263916,-10.881086349487305,2.2485623359680176
1779910306023040500,18.37304052734375,0.7330598831176758,-4.662980079650879,0.1345454454421997
1779910306039355600,18.389355712890627,2.188201904296875,-1.5931854248046875,-0.45091360807418823
1779910306055691300,18.405691162109374,0.8994817137718201,0.19518661499023438,0.18202030658721924
1779910306072023600,18.4220234375,0.9609233736991882,1.2112293243408203,0.2795535922050476
1779910306088355800,18.43835595703125,2.5858101844787598,2.082953929901123,-0.057691991329193115
1779910306104688400,18.4546884765625,1.793461561203003,2.0174522399902344,-0.4718816876411438
1779910306121021000,18.47102099609375,-1.9907147884368896,0.8019113540649414,-1.5137027502059937
1779910306137356500,18.4873564453125,-1.4822487831115723,0.9207448959350586,-1.330430507659912
1779910306153694500,18.503694580078125,-0.26904720067977905,2.3172268867492676,-0.42673981189727783
1779910306170019600,18.52001953125,-0.366089403629303,3.099609375,0.1693742573261261
1779910306186350800,18.536350830078124,-1.1054332256317139,3.867866039276123,0.7678873538970947
1779910306202683000,18.552682861328126,-1.3090095520019531,4.981133937835693,1.488197684288025
1779910306219014700,18.5690146484375,-0.7992262244224548,5.737564563751221,2.138611078262329
1779910306235347500,18.585347412109375,-1.2852158546447754,6.494890213012695,2.361375331878662
1779910306251679700,18.6016796875,-2.307796001434326,6.554973602294922,1.757672905921936
1779910306268011000,18.618010986328127,-2.268576145172119,4.80254602432251,1.1681760549545288
1779910306284358400,18.6343583984375,-2.3222315311431885,3.377798080444336,0.8216295838356018
1779910306300690400,18.6506904296875,-2.2671310901641846,1.3508739471435547,1.212021827697754
1779910306317022700,18.667022705078125,-0.6538508534431458,0.5224924087524414,2.3182904720306396
1779910306333339400,18.68333935546875,-0.1266995668411255,0.990178108215332,2.870976209640503
1779910306349673700,18.699673828125,-1.6598955392837524,-0.6713933944702148,2.4458703994750977
1779910306366005800,18.716005859375,-3.470116138458252,-3.496304512023926,2.050635576248169
1779910306382338800,18.7323388671875,-4.042644500732422,-5.226405143737793,1.0187925100326538
1779910306398670300,18.74867041015625,-1.9641306400299072,-6.249645233154297,-0.23804062604904175
1779910306414999800,18.764999755859375,0.056006669998168945,-7.311638832092285,-2.1834771633148193
1779910306431331600,18.78133154296875,-1.7420592308044434,-6.578089714050293,-2.77272629737854
1779910306447651600,18.797651611328124,-2.326737403869629,-4.231688499450684,-1.6180524826049805
1779910306464013300,18.814013427734373,-0.5894374847412109,-4.350240707397461,-0.6046363711357117
1779910306480350700,18.830350830078125,-2.0655813217163086,-7.286133766174316,0.9586043357849121
1779910306496645000,18.84664501953125,-2.564438819885254,-5.22885799407959,1.2349779605865479
1779910306513000200,18.863000244140625,-1.311795711517334,-2.0643749237060547,1.2066144943237305
1779910306529316400,18.87931640625,0.03790283203125,0.341766357421875,0.6930297017097473
1779910306545659000,18.895658935546876,1.667703628540039,1.155590534210205,-0.4347166121006012
1779910306561996800,18.911996826171876,2.739065170288086,2.17739200592041,-1.1730399131774902
1779910306578326500,18.928326416015626,3.5096354484558105,4.124602794647217,-1.5913742780685425
1779910306594662000,18.944661865234377,3.93472957611084,5.968672752380371,-2.0387799739837646
1779910306610990300,18.960990234375,3.4920895099639893,7.073609352111816,-2.5728869438171387
1779910306627344000,18.97734375,3.8974242210388184,7.338889122009277,-2.8738577365875244
1779910306643669200,18.993669189453126,2.947894334793091,6.405074596405029,-2.187349557876587
1779910306659989000,19.009989013671873,2.1793646812438965,6.18044900894165,-1.8102136850357056
1779910306676320300,19.0263203125,1.2923494577407837,6.1323957443237305,-1.7223745584487915
1779910306692629800,19.042629638671876,0.9101415872573853,5.134622097015381,-1.4652040004730225
1779910306708973800,19.058973876953125,0.913219690322876,0.7481422424316406,0.1327412724494934
1779910306725316400,19.07531640625,0.3638467788696289,-2.854839324951172,1.7567417621612549
1779910306741650700,19.091650634765625,-1.5827703475952148,-6.15572452545166,0.6607638597488403
1779910306757969000,19.107968994140624,-11.20770263671875,-9.449688911437988,-1.868657112121582
1779910306774303700,19.1243037109375,-15.380500793457031,-1.4483671188354492,0.37336936593055725
1779910306790647000,19.14064697265625,-16.76894760131836,2.4687790870666504,-0.8057156205177307
1779910306806995000,19.156994873046877,-6.649655342102051,5.5381011962890625,-3.553366184234619
1779910306823320600,19.173320556640626,-1.9962379932403564,0.5014219284057617,-0.5294307470321655
1779910306839661000,19.1896611328125,18.08944320678711,-4.971165657043457,6.471817493438721
1779910306855972900,19.205972900390623,22.047027587890625,-12.700028419494629,6.947136402130127
1779910306872305200,19.22230517578125,15.813359260559082,-11.396087646484375,1.4579271078109741
1779910306888641000,19.23864111328125,6.731594085693359,-3.975099563598633,-2.9876933097839355
1779910306904973000,19.25497314453125,2.1109511852264404,-1.3767318725585938,-5.910921096801758
1779910306921305300,19.271305419921877,-2.2467164993286133,0.6414642333984375,-6.714881420135498
1779910306937637600,19.2876376953125,-4.613004684448242,-3.1261777877807617,-5.1385602951049805
1779910306953972700,19.30397265625,-3.240312099456787,-7.819287300109863,-2.6308388710021973
1779910306970316500,19.320316650390627,1.4985142946243286,-6.800321578979492,-0.08468808233737946
1779910306986635300,19.33663525390625,6.693643093109131,-5.035910606384277,2.284101963043213
1779910307002982100,19.352982177734376,3.31270694732666,-1.6792173385620117,3.5292720794677734
1779910307019313400,19.3693134765625,-0.03971284627914429,-1.686676025390625,0.5205265879631042
1779910307035645200,19.385645263671876,0.6020107269287109,-1.5401010513305664,-1.535588026046753
1779910307051978000,19.40197802734375,1.6642473936080933,-0.2776813507080078,-0.9134292602539062
1779910307068317200,19.418317138671874,-0.7998496294021606,2.4284534454345703,0.012207642197608948
1779910307084629000,19.43462890625,-2.3456673622131348,3.862894058227539,1.4447433948516846
1779910307100960800,19.450960693359374,-1.486063003540039,4.07831335067749,2.8149611949920654
1779910307117293600,19.46729345703125,-1.5601422786712646,4.222916603088379,2.0340702533721924
1779910307133622500,19.48362255859375,-3.755791187286377,3.916013717651367,1.6775140762329102
1779910307149948700,19.49994873046875,-4.719719886779785,2.93048095703125,2.266793727874756
1779910307166290400,19.51629052734375,-3.0614776611328125,2.3822875022888184,3.275937080383301
1779910307182622500,19.53262255859375,-0.9678826332092285,1.5251827239990234,4.248151779174805
1779910307198955300,19.548955322265623,-0.44257229566574097,0.18866348266601562,4.573970794677734
1779910307215287000,19.565287109375,-2.7338483333587646,-0.5236883163452148,4.102952480316162
1779910307231619800,19.581619873046876,-3.660470962524414,-0.33680248260498047,3.5727028846740723
1779910307247933700,19.59793359375,-3.0755233764648438,0.0820770263671875,3.9714860916137695
1779910307264297700,19.614297607421875,-3.669231414794922,-0.15498065948486328,5.401928424835205
1779910307280630500,19.630630615234374,-4.224806785583496,-0.8729944229125977,6.43320894241333
1779910307296931000,19.64693115234375,-2.736013889312744,-1.3831329345703125,6.788946151733398
1779910307313284000,19.6632841796875,-1.227900505065918,-1.4464635848999023,5.3971357345581055
1779910307329592300,19.67959228515625,-0.4774499535560608,-3.2535762786865234,2.882460832595825
1779910307345949000,19.695948974609376,-0.49597418308258057,-5.500011444091797,1.3521147966384888
1779910307362264000,19.71226416015625,-0.4970243573188782,-5.071619987487793,0.5541059970855713
1779910307378597600,19.72859765625,-0.29558736085891724,-4.179104804992676,-0.18930615484714508
1779910307394930000,19.744929931640623,-1.6227843761444092,-3.357574462890625,-1.4406625032424927
1779910307411264000,19.761263916015626,-2.8172099590301514,-3.947272300720215,-3.70383358001709
1779910307427594000,19.777593994140624,-1.002703309059143,-5.568227767944336,-4.98237419128418
1779910307443927300,19.79392724609375,2.627924680709839,-6.348208427429199,-5.1172943115234375
1779910307460259800,19.810259765625,4.439844131469727,-5.6766862869262695,-4.604478359222412
1779910307476591600,19.826591552734374,3.1916234493255615,-3.9871158599853516,-3.925078868865967
1779910307492924200,19.842924072265625,1.5252009630203247,-2.4250917434692383,-3.031142473220825
1779910307509256200,19.859256103515627,-1.6506268978118896,-0.25466251373291016,-1.472139835357666
1779910307525591800,19.875591796875,-1.6478815078735352,0.553126335144043,0.7324662208557129
1779910307541920800,19.891920654296875,1.330094575881958,-0.08755874633789062,2.5773439407348633
1779910307558252800,19.908252685546874,4.515453338623047,-0.717799186706543,2.776853322982788
1779910307574590000,19.92458984375,3.680274486541748,-0.9795637130737305,2.1749777793884277
1779910307590912800,19.940912841796877,2.530893325805664,0.6307640075683594,1.7659358978271484
1779910307607266300,19.957266357421876,2.785552978515625,1.8084602355957031,1.2028106451034546
1779910307623596500,19.973596435546874,4.12211275100708,2.612053871154785,0.9958846569061279
1779910307639926500,19.989926513671875,5.960259914398193,4.449787616729736,0.6268291473388672
1779910307656259600,20.006259521484374,6.561892509460449,5.981063365936279,0.5798883438110352
1779910307672592000,20.022591796875,5.637387275695801,6.488160610198975,0.44904181361198425
1779910307688907300,20.0389072265625,4.800131797790527,6.324682235717773,-0.2829618453979492
1779910307705257000,20.055257080078125,4.556451797485352,6.042709827423096,-0.9412854313850403
1779910307721586000,20.0715859375,4.384222507476807,6.048774719238281,-0.8920304775238037
1779910307737906200,20.08790625,3.4650492668151855,5.425891876220703,-0.7789077162742615
1779910307754255000,20.104255126953124,1.433535099029541,4.215027332305908,-0.7255265712738037
1779910307770600200,20.12060009765625,-2.1705446243286133,1.6758232116699219,-1.097089409828186
1779910307786927900,20.136927978515626,-8.105907440185547,-4.604552268981934,-1.3219436407089233
1779910307803268600,20.1532685546875,-10.07708740234375,-13.949174880981445,0.03022480010986328
1779910307819597000,20.16959716796875,-6.261710166931152,-13.956819534301758,0.7853475213050842
1779910307835928300,20.18592822265625,-3.9218149185180664,-4.341396331787109,-0.9597840309143066
1779910307852246800,20.202246826171876,-3.0694074630737305,1.7224946022033691,-1.803269386291504
1779910307868563200,20.218563232421875,-1.3374872207641602,4.271464824676514,-1.4704927206039429
1779910307884909800,20.234909912109377,-1.5583744049072266,5.892339706420898,-0.6811903715133667
1779910307901247000,20.2512470703125,-2.6518168449401855,6.180627822875977,-1.4978207349777222
1779910307917576700,20.26757666015625,0.1365523338317871,4.119408130645752,0.8687984347343445
1779910307933906000,20.283906005859375,5.645360946655273,-0.5380792617797852,0.5302650928497314
1779910307950244600,20.30024462890625,11.774670600891113,-8.590027809143066,-1.1271990537643433
1779910307966577400,20.316577392578125,5.654377460479736,-23.48563003540039,-3.7027382850646973
1779910307982909400,20.332909423828124,-14.345239639282227,-14.861836433410645,-5.272548198699951
1779910307999252200,20.349252197265624,6.14775276184082,2.6757822036743164,-4.548398017883301
1779910308015584800,20.365584716796874,6.280735969543457,7.969122886657715,-0.5822827219963074
1779910308031917000,20.3819169921875,6.94739294052124,8.261218070983887,0.8195866346359253
1779910308048248000,20.398248046875,9.28256607055664,7.039206504821777,0.9023256897926331
1779910308064585700,20.414585693359374,9.412758827209473,4.916186809539795,1.5201276540756226
1779910308080914000,20.430913818359375,7.015280723571777,1.2099609375,1.520585298538208
1779910308097246200,20.44724609375,5.513947486877441,-5.914783477783203,0.3934140205383301
1779910308113578500,20.46357861328125,-5.347800254821777,-11.40707778930664,3.6221652030944824
1779910308129894000,20.479893798828126,-4.1773786544799805,-3.4195070266723633,4.12575626373291
1779910308146229200,20.496229248046873,1.0454093217849731,2.326904296875,2.3760271072387695
1779910308162562600,20.5125625,3.5451292991638184,3.2771615982055664,-0.24597620964050293
1779910308178892800,20.528892822265625,3.130819797515869,3.0206212997436523,-1.7353577613830566
1779910308195225900,20.545225830078124,2.6456432342529297,2.0631608963012695,-2.273550271987915
1779910308211558400,20.561558349609374,1.6978678703308105,1.8452157974243164,-1.8823779821395874
1779910308227876000,20.5778759765625,-0.15748316049575806,1.0527801513671875,-0.6897923946380615
1779910308244240600,20.59424072265625,-0.746111273765564,0.5044584274291992,0.36607250571250916
1779910308260569300,20.6105693359375,-1.105879306793213,0.5281696319580078,1.1131856441497803
1779910308276899300,20.6268994140625,-1.6658949851989746,0.44034862518310547,1.1823807954788208
1779910308293233400,20.6432333984375,-1.2187223434448242,0.3297996520996094,0.900825023651123
1779910308309565400,20.6595654296875,-1.4539306163787842,0.594843864440918,1.1011180877685547
1779910308325885000,20.675885009765626,-1.138378381729126,1.0616741180419922,1.4736762046813965
1779910308342227000,20.69222705078125,-0.707091212272644,1.1090278625488281,1.8604108095169067
1779910308358562800,20.708562744140625,-1.3836344480514526,0.8883380889892578,2.156452178955078
1779910308374888700,20.724888671875,-2.1952736377716064,0.9261436462402344,2.0234131813049316
1779910308391216600,20.741216552734375,-2.131953239440918,0.6724109649658203,1.5264643430709839
1779910308407545600,20.757545654296877,-1.521281123161316,-0.14087677001953125,1.1982649564743042
1779910308423875300,20.773875244140626,-1.1070654392242432,-0.9293947219848633,1.3359403610229492
1779910308440226800,20.790226806640625,-0.7435083389282227,-0.8040409088134766,2.941455841064453
1779910308456542700,20.806542724609375,-1.4473655223846436,0.13456058502197266,4.895009994506836
