time,seconds_elapsed,z,y,x
1779959020469211000,0.1692109375,-1.3507957458496094,-0.5233614444732666,2.768444776535034
1779959020485541400,0.185541259765625,-4.391502857208252,-2.6509275436401367,2.6386289596557617
1779959020501894000,0.201893798828125,-7.064027309417725,-5.007720947265625,-2.0783629417419434
1779959020518229000,0.21822900390625,-11.032291412353516,-1.826734185218811,-3.2808070182800293
1779959020534558700,0.234558837890625,-11.140344619750977,3.906641960144043,-8.093332290649414
1779959020550893800,0.250893798828125,-8.942814826965332,-1.5350979566574097,-4.430693626403809
1779959020567225300,0.267225341796875,-10.609518051147461,-8.409855842590332,-4.552145481109619
1779959020583561500,0.2835615234375,-8.54360580444336,-7.441547393798828,-5.713510036468506
1779959020599903500,0.299903564453125,-8.44363784790039,-10.291522979736328,-4.656208515167236
1779959020616226000,0.31622607421875,-3.5980582237243652,-12.06086540222168,-5.064266204833984
1779959020632566300,0.332566162109375,-3.314262866973877,-11.808623313903809,-5.055105209350586
1779959020648888300,0.348888427734375,-2.3286824226379395,-11.634980201721191,-3.565211772918701
1779959020665244200,0.365244140625,-1.0467993021011353,-10.81273078918457,1.2496957778930664
1779959020681545500,0.38154541015625,4.295645236968994,-10.559357643127441,8.288783073425293
1779959020697912600,0.39791259765625,4.257506847381592,-6.58767032623291,17.409564971923828
1779959020714249200,0.414249267578125,3.697963237762451,0.09746766090393066,21.664897918701172
1779959020730582300,0.430582275390625,5.677008628845215,2.9412999153137207,25.78093910217285
1779959020746930200,0.44693017578125,1.6929173469543457,6.110674858093262,25.152114868164062
1779959020763237000,0.463237060546875,-3.241546630859375,4.05104398727417,23.54979705810547
1779959020779584300,0.479584228515625,-2.477098226547241,3.0039420127868652,22.053123474121094
1779959020795915800,0.495915771484375,-2.055567741394043,6.698949813842773,22.643896102905273
1779959020812262000,0.512261962890625,-8.562618255615234,17.58255386352539,25.857437133789062
1779959020828584400,0.52858447265625,-13.7293119430542,9.997434616088867,19.353801727294922
1779959020844908800,0.54490869140625,-8.158767700195312,0.6004271507263184,14.21504020690918
1779959020861237200,0.5612373046875,-5.948750019073486,1.2161908149719238,9.521256446838379
1779959020877593900,0.57759375,-2.449151039123535,-1.2872800827026367,6.18629264831543
1779959020893927400,0.593927490234375,7.202300548553467,1.6729397773742676,3.8073525428771973
1779959020910236200,0.610236083984375,-2.7085208892822266,-4.1428446769714355,2.5545425415039062
1779959020926591700,0.626591796875,7.795242786407471,-2.3443827629089355,1.3299250602722168
1779959020942913800,0.642913818359375,4.99577522277832,0.025028705596923828,-3.5393710136413574
1779959020959237600,0.659237548828125,-0.1485040783882141,-2.5317816734313965,-0.8929595947265625
1779959020975579000,0.675578857421875,7.054051876068115,-0.06133699417114258,-6.562280178070068
1779959020991918300,0.69191845703125,-4.690768241882324,-0.5306496620178223,-5.618246078491211
1779959021008249600,0.70824951171875,3.8162922859191895,1.4930810928344727,-6.808876991271973
1779959021024586200,0.724586181640625,-12.582036018371582,5.649309158325195,-11.815372467041016
1779959021040905200,0.7409052734375,-1.8781729936599731,5.993658542633057,-11.087322235107422
1779959021057251000,0.7572509765625,0.12948715686798096,7.251210689544678,-8.416036605834961
1779959021073583400,0.773583251953125,5.652148246765137,13.122888565063477,0.4986586570739746
1779959021089913300,0.789913330078125,-3.5921683311462402,11.814603805541992,0.320803165435791
1779959021106237700,0.80623779296875,-1.3646135330200195,4.252401828765869,3.736724853515625
1779959021122594300,0.82259423828125,-5.776725769042969,2.919816493988037,0.053189754486083984
1779959021138925300,0.83892529296875,1.9289472103118896,0.7847871780395508,-6.915159702301025
1779959021155255600,0.855255615234375,6.573935031890869,2.517612934112549,-1.8750169277191162
1779959021171593000,0.871593017578125,-0.12810766696929932,1.4458370208740234,5.273005962371826
1779959021187925800,0.88792578125,1.990857720375061,3.071444034576416,6.673175811767578
1779959021204260600,0.904260498046875,2.9384117126464844,3.4611806869506836,3.3683924674987793
1779959021220593000,0.920593017578125,-0.1637374609708786,4.422723770141602,1.161177635192871
1779959021236932600,0.9369326171875,-2.777134895324707,5.989989280700684,-1.9628028869628906
1779959021253267000,0.953266845703125,-2.955617904663086,7.8384599685668945,-3.6316308975219727
1779959021269628000,0.9696279296875,-3.6153454780578613,7.692406177520752,-0.6833758354187012
1779959021285923600,0.985923583984375,-5.655220031738281,5.254551887512207,4.094098091125488
1779959021302285000,1.00228515625,-2.5693087577819824,2.608470916748047,6.960736274719238
1779959021318612700,1.01861279296875,-2.6208977699279785,10.063217163085938,6.179259777069092
1779959021334947000,1.034947021484375,0.6295995116233826,2.6654601097106934,9.037671089172363
1779959021351282700,1.05128271484375,0.6722198724746704,-1.3742961883544922,9.545400619506836
1779959021367619600,1.06761962890625,1.6679999828338623,0.3570566177368164,7.334007263183594
1779959021383945500,1.083945556640625,5.213407039642334,-2.162644386291504,2.233299732208252
1779959021400285000,1.100284912109375,-0.44128692150115967,-4.0533342361450195,-6.451959609985352
1779959021416599300,1.116599365234375,-2.3951001167297363,-4.269121170043945,-11.159568786621094
1779959021432936200,1.132936279296875,-1.2781254053115845,-2.6574859619140625,-7.063607215881348
1779959021449274600,1.149274658203125,2.995657444000244,-3.0107507705688477,-3.453660011291504
1779959021465605400,1.16560546875,4.893616199493408,-1.1294612884521484,-4.570258140563965
1779959021481943800,1.18194384765625,-1.1161811351776123,-5.537040710449219,-4.590289115905762
1779959021498276900,1.19827685546875,0.3689391314983368,-6.891003608703613,-1.5868847370147705
1779959021514612700,1.21461279296875,-0.831473171710968,-4.887317657470703,12.676118850708008
1779959021530940000,1.23093994140625,3.9916865825653076,-3.6692638397216797,24.924131393432617
1779959021547278300,1.2472783203125,-10.210953712463379,-7.594378471374512,11.495820999145508
1779959021563617300,1.2636171875,-1.8747837543487549,-1.2838315963745117,1.6163086891174316
1779959021579935200,1.279935302734375,2.7474379539489746,0.2674541473388672,1.138505458831787
1779959021596280000,1.296280029296875,2.917109489440918,4.0051960945129395,-1.5452296733856201
1779959021612617000,1.312616943359375,0.6599123477935791,4.666990280151367,-0.7181347608566284
1779959021628949500,1.328949462890625,-0.6118626594543457,2.7452712059020996,3.2036993503570557
1779959021645285000,1.34528515625,-0.6001503467559814,2.2156667709350586,5.829250812530518
1779959021661636400,1.36163623046875,-1.4158751964569092,5.157995700836182,8.470405578613281
1779959021677961200,1.377961181640625,-2.931222438812256,10.648335456848145,11.63794994354248
1779959021694305300,1.39430517578125,-0.05557680130004883,8.136323928833008,9.236918449401855
1779959021710634500,1.410634521484375,-2.3906638622283936,4.0781073570251465,5.711889743804932
1779959021726985000,1.42698486328125,3.5402514934539795,0.7702236175537109,2.093183994293213
1779959021743265300,1.443265380859375,1.6621503829956055,-0.18478107452392578,-1.0375621318817139
1779959021759602400,1.4596025390625,4.010834693908691,5.634781360626221,-4.410958290100098
1779959021775957800,1.475957763671875,0.839898943901062,5.964320182800293,-4.965011119842529
1779959021792295700,1.492295654296875,-2.3521385192871094,6.038198471069336,-5.770453453063965
1779959021808626200,1.508626220703125,-3.9546937942504883,6.5385026931762695,-4.810800552368164
1779959021824963600,1.524963623046875,-2.1708121299743652,7.505049705505371,-2.0263195037841797
1779959021841294800,1.541294921875,0.3990234136581421,7.3423566818237305,-0.12234248965978622
1779959021857642000,1.55764208984375,-2.331298828125,-7.889315605163574,9.567830085754395
1779959021873965800,1.5739658203125,3.2352659702301025,-3.1125659942626953,7.835897922515869
1779959021890298600,1.590298583984375,0.09669387340545654,2.69645357131958,3.4575374126434326
1779959021906619100,1.606619140625,-5.988195419311523,-1.020289421081543,3.313730239868164
1779959021922967800,1.6229677734375,-6.156290531158447,-3.7525997161865234,3.7625725269317627
1779959021939301400,1.63930126953125,-4.7831220626831055,-6.104257583618164,4.443030834197998
1779959021955635200,1.65563525390625,-3.245654344558716,-5.490298271179199,2.202903985977173
1779959021971970800,1.671970703125,-3.9802262783050537,-5.408145904541016,1.1907988786697388
1779959021988303600,1.6883037109375,-2.507351875305176,-10.01684856414795,2.509086847305298
1779959022004635600,1.7046357421875,-1.7054328918457031,-22.24237823486328,1.9031856060028076
1779959022020979700,1.720979736328125,3.104802131652832,-11.023030281066895,-2.2933945655822754
1779959022037292800,1.737292724609375,0.7874000072479248,-2.8127336502075195,-3.6900463104248047
1779959022053639700,1.7536396484375,-0.6900725364685059,-1.5407371520996094,-0.0453454852104187
1779959022069963000,1.769962890625,0.4586048126220703,1.0733866691589355,0.27882105112075806
1779959022086307600,1.7863076171875,0.8506686687469482,2.158210277557373,0.11188840866088867
1779959022102644500,1.80264453125,1.8345696926116943,3.2876453399658203,-0.1367870569229126
1779959022118975000,1.81897509765625,3.0550429821014404,4.545265197753906,-0.3656991124153137
1779959022135312600,1.835312744140625,3.7072677612304688,4.093262672424316,-0.319080650806427
1779959022151645200,1.851645263671875,3.5754709243774414,3.494718551635742,-0.356529176235199
1779959022167991600,1.867991455078125,3.5256428718566895,4.344875812530518,-0.2630009055137634
1779959022184314400,1.884314453125,2.7237160205841064,5.045870304107666,0.06856393814086914
1779959022200670500,1.90067041015625,1.7418558597564697,5.4668779373168945,0.2632896900177002
1779959022216981800,1.916981689453125,-0.48934340476989746,6.358641147613525,1.0801796913146973
1779959022233329400,1.933329345703125,-3.544278860092163,5.2361836433410645,2.419987678527832
1779959022249664000,1.9496640625,-3.434081792831421,2.979154586791992,3.9595046043395996
1779959022265993200,1.9659931640625,-2.619690418243408,1.0646963119506836,4.975979328155518
1779959022282306600,1.982306640625,0.32187962532043457,-1.1994552612304688,5.09287166595459
1779959022298662000,1.998661865234375,0.7660922408103943,-1.2667455673217773,4.11138391494751
1779959022315004400,2.01500439453125,-3.192363739013672,-0.36151790618896484,0.8828186988830566
1779959022331335000,2.0313349609375,-7.38541316986084,0.2781810760498047,-0.9818322658538818
1779959022347654100,2.047654052734375,-6.69866943359375,1.2986392974853516,-1.3778271675109863
1779959022364002800,2.0640029296875,-5.966552734375,-0.7808046340942383,-1.549296498298645
1779959022380341200,2.08034130859375,-2.2134361267089844,-5.185256004333496,-0.5277140140533447
1779959022396670200,2.096670166015625,9.757793426513672,-3.526310920715332,0.8197794556617737
1779959022412989700,2.11298974609375,5.899041175842285,-2.6783218383789062,1.3241674900054932
1779959022429324000,2.129323974609375,-1.12389075756073,-0.6131458282470703,0.09383973479270935
1779959022445649700,2.145649658203125,-3.251457452774048,1.197509765625,-0.5678359866142273
1779959022461982000,2.16198193359375,-6.62551736831665,-7.600767135620117,4.755072593688965
1779959022478320600,2.178320556640625,-12.174676895141602,-19.129619598388672,7.280645370483398
1779959022494665000,2.1946650390625,3.1274545192718506,-9.235984802246094,4.445620536804199
1779959022510997500,2.21099755859375,0.7156751155853271,-2.997063636779785,2.1147263050079346
1779959022527330800,2.227330810546875,0.8255637288093567,1.3855476379394531,0.7023563385009766
1779959022543666400,2.24366650390625,0.4108070135116577,5.235461235046387,1.9530611038208008
1779959022559988000,2.259988037109375,2.174572706222534,6.332320213317871,2.714932441711426
1779959022576331300,2.276331298828125,3.312852382659912,2.8961963653564453,3.4362025260925293
1779959022592671500,2.29267138671875,1.3189029693603516,-1.9158563613891602,2.8183369636535645
1779959022609000400,2.30900048828125,-2.274989366531372,-1.7910480499267578,0.030008792877197266
1779959022625341000,2.3253408203125,-2.5850014686584473,0.09640884399414062,0.1421000361442566
1779959022641671700,2.341671630859375,-0.5713297128677368,1.1864004135131836,0.13294285535812378
1779959022658016500,2.3580166015625,-0.7746021747589111,2.4388017654418945,0.9325593709945679
1779959022674326000,2.374325927734375,-1.1277563571929932,2.7256851196289062,2.8544692993164062
1779959022690677500,2.390677490234375,-1.6013036966323853,3.3404369354248047,3.1349244117736816
1779959022707007500,2.407007568359375,-1.9576869010925293,3.8870835304260254,3.238102912902832
1779959022723342300,2.42334228515625,-1.394773244857788,4.347380638122559,3.4502756595611572
1779959022739664400,2.439664306640625,-2.4635815620422363,4.585114479064941,3.2158150672912598
1779959022756008000,2.456008056640625,-2.4725193977355957,3.8101911544799805,2.0638017654418945
1779959022772348400,2.472348388671875,-1.0987920761108398,2.174417018890381,2.6059627532958984
1779959022788691700,2.488691650390625,0.43186211585998535,1.3138160705566406,3.0783848762512207
1779959022805028900,2.50502880859375,0.21963870525360107,1.3650531768798828,3.0777206420898438
1779959022821329700,2.52132958984375,-2.838535785675049,1.4834156036376953,2.0026707649230957
1779959022837701400,2.537701416015625,-6.444281578063965,-1.5794258117675781,1.2586016654968262
1779959022854025000,2.55402490234375,-5.6897125244140625,-7.116349220275879,3.7301759719848633
1779959022870366200,2.5703662109375,-1.524216651916504,-9.23037052154541,6.423876762390137
1779959022886680000,2.58668017578125,1.1458163261413574,-7.545254707336426,5.332362174987793
1779959022903020800,2.603020751953125,-0.9704790115356445,-7.108943939208984,2.233438730239868
1779959022919352600,2.6193525390625,-0.19450044631958008,-5.742998123168945,-0.14577937126159668
1779959022935687400,2.6356875,1.445270299911499,-2.5744285583496094,-1.4786882400512695
1779959022951999000,2.6519990234375,1.6617391109466553,-0.15096473693847656,-2.361229419708252
1779959022968342800,2.6683427734375,0.6748042106628418,0.4440498352050781,-1.6423780918121338
1779959022984678700,2.6846787109375,-0.6301360130310059,1.4224133491516113,-0.08461213111877441
1779959023001011500,2.701011474609375,0.37765932083129883,2.409501075744629,0.797877311706543
1779959023017346000,2.717345947265625,1.4229154586791992,3.028262138366699,0.5485780239105225
1779959023033680600,2.7336806640625,1.8659887313842773,2.67952299118042,0.1435234546661377
1779959023050016300,2.750016357421875,2.43912672996521,2.9926328659057617,-0.2418355941772461
1779959023066348800,2.766348876953125,2.039669990539551,3.5744104385375977,-0.8231620788574219
1779959023082683000,2.782682861328125,1.9204888343811035,3.3202757835388184,-0.7756404876708984
1779959023099032800,2.79903271484375,2.8771591186523438,2.822723388671875,-0.06575894355773926
1779959023115364000,2.815364013671875,3.816920042037964,3.2295689582824707,0.5613480806350708
1779959023131698000,2.831697998046875,3.4154820442199707,4.497494220733643,1.4291377067565918
1779959023148031000,2.848031005859375,1.7858614921569824,5.649401664733887,2.131345510482788
1779959023164366300,2.864366455078125,0.4808788299560547,5.327759742736816,3.4579081535339355
1779959023180701000,2.880700927734375,0.6625111103057861,3.0427918434143066,4.641253471374512
1779959023197054500,2.897054443359375,1.5927906036376953,2.1870880126953125,5.36234188079834
1779959023213379000,2.913379150390625,0.7006645202636719,1.5489997863769531,5.39277458190918
1779959023229699000,2.929698974609375,-1.8774762153625488,-0.14770793914794922,3.6636266708374023
1779959023246049000,2.946049072265625,-5.360827445983887,-1.4710159301757812,-0.8764562010765076
1779959023262372000,2.9623720703125,-8.6525297164917,-3.2687511444091797,-1.8777093887329102
1779959023278701000,2.978701171875,-9.98165512084961,-4.775503158569336,-1.8980154991149902
1779959023295040300,2.995040283203125,-6.01597261428833,-4.98380184173584,-3.802804946899414
1779959023311374300,3.011374267578125,-0.12309418618679047,-6.369609832763672,-4.063747406005859
1779959023327707400,3.027707275390625,11.431621551513672,-4.418057441711426,-1.411102056503296
1779959023344042500,3.04404248046875,12.619731903076172,-2.0987796783447266,0.48915010690689087
1779959023360381000,3.060380859375,0.9039513468742371,-1.3410024642944336,-2.068241834640503
1779959023376721200,3.07672119140625,-8.905610084533691,-0.40497875213623047,-1.927027940750122
1779959023393047800,3.0930478515625,-4.803099632263184,-9.662672996520996,5.530500888824463
1779959023409380000,3.109380126953125,-7.914377689361572,-12.485532760620117,10.76536750793457
1779959023425712000,3.125712158203125,4.280580520629883,-3.4902095794677734,7.303243637084961
1779959023442050300,3.14205029296875,1.8273271322250366,-1.7397575378417969,3.0906031131744385
1779959023458380500,3.158380615234375,1.0757737159729004,-0.21914291381835938,0.9175533652305603
1779959023474727000,3.174726806640625,1.0326718091964722,3.438821315765381,1.311166763305664
1779959023491040500,3.19104052734375,1.9900141954421997,5.143895626068115,1.8091483116149902
1779959023507383600,3.207383544921875,1.9769530296325684,3.715195655822754,1.8511353731155396
1779959023523719200,3.22371923828125,-2.561001777648926,0.5380029678344727,-0.3318718671798706
1779959023540065000,3.24006494140625,-3.6181726455688477,0.6088171005249023,-1.4611948728561401
1779959023556383000,3.256383056640625,-0.21147048473358154,2.10325288772583,-0.22353732585906982
1779959023572724700,3.272724853515625,-0.12056708335876465,3.0230326652526855,1.4486565589904785
1779959023589056500,3.289056396484375,-0.11627316474914551,4.170897483825684,2.033224582672119
1779959023605402600,3.305402587890625,-2.019906759262085,4.471004962921143,3.1602230072021484
1779959023621724400,3.321724365234375,-3.6178231239318848,4.064662456512451,4.347718238830566
1779959023638057500,3.338057373046875,-3.742640495300293,3.706968307495117,4.587452411651611
1779959023654377000,3.354376953125,-2.9062938690185547,3.812849521636963,3.6217939853668213
1779959023670713900,3.3707138671875,-2.8879494667053223,3.1647706031799316,2.8843917846679688
1779959023687063000,3.38706298828125,-2.7681796550750732,1.9543261528015137,2.202338457107544
1779959023703395600,3.4033955078125,-0.8004209995269775,0.44019126892089844,1.7362332344055176
1779959023719730400,3.41973046875,0.21437954902648926,-0.6983804702758789,1.5224289894104004
1779959023736063700,3.436063720703125,-0.6016011238098145,-2.552340507507324,1.672358512878418
1779959023752398000,3.452398193359375,-3.0999879837036133,-3.808953285217285,3.5715103149414062
1779959023768729000,3.46872900390625,-4.539541244506836,-6.634564399719238,3.9422686100006104
1779959023785085000,3.4850849609375,-3.0712103843688965,-9.657819747924805,3.4051499366760254
1779959023801416000,3.501416015625,-0.16002607345581055,-9.262871742248535,2.273768901824951
1779959023817747700,3.517747802734375,1.8257169723510742,-5.415737152099609,0.37490296363830566
1779959023834083000,3.5340830078125,1.5966081619262695,-1.920156478881836,0.8146569728851318
1779959023850418700,3.550418701171875,1.4376277923583984,-0.09541797637939453,0.8865985870361328
1779959023866750500,3.56675048828125,0.032721519470214844,0.19110393524169922,-0.5094993114471436
1779959023883068700,3.583068603515625,-1.1651716232299805,-0.31502628326416016,-1.3540921211242676
1779959023899406600,3.599406494140625,-0.6388454437255859,-0.5527114868164062,-1.2147979736328125
1779959023915741000,3.615740966796875,0.7436137199401855,0.7496194839477539,-0.48852109909057617
1779959023932087300,3.63208740234375,2.2947654724121094,1.5050921440124512,-0.45772480964660645
1779959023948394800,3.648394775390625,3.419285774230957,2.375568389892578,-0.25786924362182617
1779959023964745000,3.664744873046875,3.9753284454345703,3.212244987487793,-0.1370406150817871
1779959023981056800,3.681056884765625,3.746724843978882,3.8306937217712402,0.03677058219909668
1779959023997399300,3.6973994140625,2.7971978187561035,4.495356559753418,0.4642336368560791
1779959024013733600,3.713733642578125,1.8330204486846924,5.184021949768066,1.2363691329956055
1779959024030067000,3.73006689453125,1.3755497932434082,5.225686550140381,2.0406012535095215
1779959024046401500,3.746401611328125,0.5606415271759033,3.9015517234802246,2.2291111946105957
1779959024062736400,3.762736328125,-0.6797068119049072,3.4818882942199707,3.3610739707946777
1779959024079069400,3.7790693359375,-0.49440300464630127,4.02335786819458,4.595651149749756
1779959024095404800,3.79540478515625,-2.06026029586792,1.491694450378418,5.832964897155762
1779959024111738400,3.81173828125,0.9467993974685669,-0.628474235534668,2.8821167945861816
1779959024128073500,3.828073486328125,1.3674776554107666,-0.7932615280151367,0.5163314342498779
1779959024144405800,3.84440576171875,-5.249526500701904,-1.147871971130371,-2.0100796222686768
1779959024160744400,3.860744384765625,-12.961681365966797,-0.5944499969482422,-2.142143964767456
1779959024177086200,3.877086181640625,-8.046148300170898,-1.6198196411132812,-4.087589740753174
1779959024193422000,3.893422119140625,-2.5514233112335205,-5.972878456115723,-5.8454461097717285
1779959024209757000,3.9097568359375,14.328447341918945,-3.0521240234375,-2.747082471847534
1779959024226093600,3.926093505859375,11.571022033691406,-3.382338523864746,2.3902502059936523
1779959024242421800,3.942421875,0.6782824993133545,-2.766571044921875,1.4468973875045776
1779959024258759000,3.958759033203125,-8.969762802124023,-4.679842948913574,-0.3258171081542969
1779959024275094500,3.975094482421875,-3.269834518432617,-7.736427307128906,6.413705825805664
1779959024291441200,3.991441162109375,-0.7884858846664429,-10.017071723937988,7.567286968231201
1779959024307758300,4.00775830078125,-2.3546559810638428,-6.625360488891602,5.14282751083374
1779959024324109000,4.024109130859375,-1.7099453210830688,-3.479617118835449,1.3673291206359863
1779959024340453600,4.04045361328125,1.0648192167282104,-0.9075965881347656,0.5129808783531189
1779959024356776400,4.0567763671875,1.4576458930969238,2.478682041168213,1.8645689487457275
1779959024373094400,4.073094482421875,1.7496272325515747,4.303508281707764,3.0043694972991943
1779959024389431000,4.08943115234375,2.975187301635742,2.4367098808288574,2.686929941177368
1779959024405767700,4.105767578125,1.9719784259796143,0.4865255355834961,0.7641761898994446
1779959024422102300,4.122102294921875,-1.503139853477478,-0.9137735366821289,-0.38804394006729126
1779959024438434300,4.138434326171875,-4.287267208099365,-0.3756885528564453,0.12014734745025635
1779959024454784800,4.15478466796875,-3.435274600982666,0.8769998550415039,0.26567739248275757
1779959024471106000,4.17110595703125,-2.058340072631836,2.5448288917541504,-0.05015748739242554
1779959024487433200,4.18743310546875,-1.5844082832336426,3.461696147918701,0.8448385000228882
1779959024503772700,4.203772705078125,-0.7862333059310913,4.647151470184326,1.8027608394622803
1779959024520093000,4.220093017578125,-0.4611119031906128,5.684273719787598,1.6476829051971436
1779959024536439600,4.236439453125,-0.7093513607978821,5.048028469085693,1.8581993579864502
1779959024552772400,4.2527724609375,-1.7578357458114624,3.8288207054138184,2.7249011993408203
1779959024569111600,4.269111572265625,-1.7531938552856445,2.161284923553467,3.117083787918091
1779959024585443000,4.285443115234375,0.08800941705703735,0.5269927978515625,3.6993589401245117
1779959024601777700,4.301777587890625,1.1446222066879272,-0.16760540008544922,4.428491592407227
1779959024618110200,4.318110107421875,-0.07720732688903809,0.27068328857421875,4.6687798500061035
1779959024634445300,4.3344453125,-1.4955706596374512,0.5650615692138672,4.478246688842773
1779959024650780400,4.350780517578125,-2.8771109580993652,1.2358760833740234,3.6528472900390625
1779959024667112700,4.36711279296875,-3.3058900833129883,0.30896472930908203,2.531524419784546
1779959024683465700,4.3834658203125,-3.9251604080200195,-3.2647294998168945,1.168255090713501
1779959024699791400,4.399791259765625,-3.278799533843994,-6.40827751159668,0.9475778341293335
1779959024716127500,4.41612744140625,-3.0907528400421143,-7.841824531555176,1.2600250244140625
1779959024732451300,4.432451416015625,-1.4957146644592285,-6.659109115600586,0.4449126720428467
1779959024748793600,4.448793701171875,-0.4395294189453125,-4.8784990310668945,0.370463490486145
1779959024765142300,4.465142333984375,1.7388813495635986,-3.2848873138427734,0.15661120414733887
1779959024781447200,4.481447265625,2.3563380241394043,-1.5933036804199219,-0.12237286567687988
1779959024797800200,4.49780029296875,1.4772858619689941,-1.1904172897338867,0.3736288547515869
1779959024814135800,4.5141357421875,0.4201188087463379,-1.809706687927246,0.39957189559936523
1779959024830452000,4.530451904296875,1.0370392799377441,-2.529208183288574,-0.07259559631347656
1779959024846799000,4.546799072265625,0.9616336822509766,-0.849550724029541,-0.6801333427429199
1779959024863125500,4.56312548828125,0.7937788963317871,2.255915641784668,0.07830142974853516
1779959024879459800,4.5794599609375,1.2330865859985352,3.211738109588623,0.5966761112213135
1779959024895791000,4.595791015625,1.9424474239349365,3.1788172721862793,0.189666748046875
1779959024912129000,4.61212890625,2.841766357421875,3.421841621398926,-0.01250314712524414
1779959024928460500,4.62846044921875,3.1380741596221924,3.7181835174560547,0.2732582092285156
1779959024944796000,4.6447958984375,3.00201678276062,4.407536506652832,0.8722574710845947
1779959024961133600,4.661133544921875,2.6284737586975098,5.5163421630859375,1.3346458673477173
1779959024977471700,4.6774716796875,1.6470370292663574,5.920139312744141,1.6283400058746338
1779959024993798100,4.693798095703125,0.5012052059173584,4.951165199279785,1.8845605850219727
1779959025010133000,4.710133056640625,0.348818302154541,0.4143486022949219,2.5647168159484863
1779959025026466000,4.726466064453125,-0.39719653129577637,-1.3254776000976562,3.511582374572754
1779959025042800600,4.742800537109375,-0.1584315299987793,1.4103279113769531,3.853818893432617
1779959025059145500,4.7591455078125,-0.49050724506378174,2.0419249534606934,2.93595814704895
1779959025075469800,4.7754697265625,-1.9484590291976929,0.32062244415283203,0.7283090949058533
1779959025091803600,4.7918037109375,-3.610106945037842,-0.36758995056152344,-1.1766256093978882
1779959025108137000,4.808136962890625,-4.496886253356934,0.20282840728759766,-2.008026361465454
1779959025124471600,4.824471435546875,-5.560219764709473,1.5867528915405273,-1.9966222047805786
1779959025140797200,4.840797119140625,-3.895770788192749,3.036771297454834,-2.3486578464508057
1779959025157139500,4.857139404296875,-4.185759544372559,0.49562931060791016,-2.8941266536712646
1779959025173474800,4.873474853515625,0.9540767073631287,-4.516765594482422,-1.962510585784912
1779959025189824500,4.889824462890625,8.75943660736084,-2.3494348526000977,1.7274386882781982
1779959025206153000,4.906153076171875,7.872899055480957,-1.8545045852661133,3.1839141845703125
1779959025222494700,4.92249462890625,-1.555817723274231,-4.605843544006348,2.2835099697113037
1779959025238825200,4.9388251953125,-3.6399874687194824,-6.532530784606934,2.916360378265381
1779959025255159300,4.9551591796875,1.4641423225402832,-3.5582809448242188,3.9591784477233887
1779959025271494400,4.971494384765625,-3.2702295780181885,-13.068968772888184,3.7582623958587646
1779959025287811600,4.9878115234375,-7.263741970062256,-15.145182609558105,3.6004996299743652
1779959025304181200,5.00418115234375,-0.6465100646018982,-1.3426933288574219,1.7516570091247559
1779959025320499200,5.020499267578125,-0.25788161158561707,2.6376519203186035,1.290286660194397
1779959025336843500,5.036843505859375,-1.6756572723388672,4.4034552574157715,1.2977705001831055
1779959025353137200,5.05313720703125,2.3014824390411377,5.509817123413086,2.3532299995422363
1779959025369486000,5.069486083984375,6.776823997497559,5.751021385192871,3.5043344497680664
1779959025385816800,5.08581689453125,2.076565742492676,-0.7254915237426758,3.3048672676086426
1779959025402156800,5.10215673828125,-4.087389945983887,-1.5647964477539062,0.8323065042495728
1779959025418486800,5.11848681640625,0.32009443640708923,0.5485754013061523,2.291691780090332
1779959025434822000,5.13482177734375,-0.05740460753440857,1.1707611083984375,2.5137457847595215
1779959025451160000,5.15116015625,-2.9929940700531006,0.7955350875854492,2.071536064147949
1779959025467503400,5.16750341796875,-4.4193115234375,1.445176124572754,1.7422268390655518
1779959025483821000,5.183821044921875,-3.439556837081909,2.4927902221679688,2.6398110389709473
1779959025500159700,5.20015966796875,-1.2732319831848145,2.8863258361816406,4.456912994384766
1779959025516480800,5.216480712890625,-0.7317778468132019,2.8951282501220703,5.8319525718688965
1779959025532828200,5.232828125,-2.5045058727264404,2.0384483337402344,6.795966148376465
1779959025549162200,5.249162353515625,-4.274723529815674,0.7918109893798828,5.9860711097717285
1779959025565496300,5.265496337890625,-5.469103813171387,0.41300106048583984,4.236252784729004
1779959025581831000,5.281830810546875,-3.7055087089538574,-0.43607234954833984,4.3111371994018555
1779959025598163500,5.29816357421875,-0.7870416641235352,0.26708030700683594,4.419905185699463
1779959025614499800,5.314499755859375,-0.5096690058708191,0.6722316741943359,4.6207380294799805
1779959025630832000,5.33083203125,-3.552013874053955,1.4103851318359375,4.779720306396484
1779959025647166200,5.347166259765625,-5.631665229797363,-1.934865951538086,5.677306175231934
1779959025663506700,5.363506591796875,-1.0002039670944214,-4.828990936279297,5.612028121948242
1779959025679830000,5.379830078125,0.913537323474884,-6.236228942871094,2.5316078662872314
1779959025696184000,5.39618408203125,-0.0028708577156066895,-6.58818244934082,-0.6830672025680542
1779959025712517400,5.412517333984375,-0.286726713180542,-5.826240539550781,-1.0168179273605347
1779959025728836000,5.428836181640625,1.166193962097168,-6.340720176696777,0.13169771432876587
1779959025745186600,5.4451865234375,1.7742775678634644,-8.84961223602295,0.4916582703590393
1779959025761518800,5.461518798828125,1.213524580001831,-10.34748363494873,-0.3659878075122833
1779959025777857500,5.477857421875,-1.948685884475708,-8.59686279296875,-0.7334558963775635
1779959025794167300,5.494167236328125,-3.254931688308716,-3.6661624908447266,0.0006420165300369263
1779959025810526000,5.51052587890625,0.3542451858520508,-1.1919212341308594,1.1369423866271973
1779959025826852000,5.52685205078125,3.33901047706604,-0.8037891387939453,1.6610976457595825
1779959025843178500,5.543178466796875,2.1429662704467773,-1.150406837463379,1.5554860830307007
1779959025859512600,5.5595126953125,4.408581733703613,-0.9833135604858398,0.7506375908851624
1779959025875848200,5.57584814453125,4.962828159332275,0.7441291809082031,0.14124363660812378
1779959025892182500,5.5921826171875,6.137312889099121,2.849491596221924,0.36676114797592163
1779959025908513000,5.608512939453125,4.202739715576172,4.441888332366943,1.0376641750335693
1779959025924853500,5.624853515625,4.489831447601318,6.066941261291504,0.5140737891197205
1779959025941168000,5.641168212890625,4.808280944824219,7.684452056884766,-0.5492070317268372
1779959025957504300,5.657504150390625,4.853569984436035,9.433045387268066,-0.6684756875038147
1779959025973841200,5.673841064453125,2.97021484375,10.407564163208008,-1.486847996711731
1779959025990173400,5.69017333984375,1.326312780380249,9.343362808227539,-2.0742926597595215
1779959026006508500,5.706508544921875,-0.4191019535064697,6.52614688873291,-1.5663628578186035
1779959026022861300,5.722861328125,-3.4753620624542236,0.9898586273193359,0.26176589727401733
1779959026039188700,5.739188720703125,-9.770111083984375,-17.101455688476562,-0.7054852247238159
1779959026055520800,5.755520751953125,-16.074430465698242,-28.293434143066406,-3.0374717712402344
1779959026071859500,5.771859375,-6.387113571166992,-4.448728561401367,-2.873781204223633
1779959026088189700,5.788189697265625,-2.396277904510498,4.925018310546875,-2.022737979888916
1779959026104524800,5.80452490234375,3.010185718536377,9.661102294921875,-2.4867329597473145
1779959026120857000,5.820857177734375,2.686342477798462,5.364398956298828,0.3546595573425293
1779959026137192700,5.837192626953125,5.490427017211914,-1.338094711303711,6.248915672302246
1779959026153527300,5.85352734375,7.684910297393799,-12.248004913330078,3.2852282524108887
1779959026169852700,5.869852783203125,-2.886859893798828,-11.744382858276367,0.2020249366760254
1779959026186211800,5.8862119140625,-1.1447980403900146,-1.7592191696166992,-0.7648136019706726
1779959026202524000,5.90252392578125,0.8627431392669678,2.5505709648132324,-1.2129261493682861
1779959026218888000,5.918887939453125,4.042083740234375,4.791679859161377,-0.48906224966049194
1779959026235199000,5.935198974609375,6.473969459533691,4.910693645477295,0.6626173257827759
1779959026251533000,5.951532958984375,6.252633571624756,3.409796714782715,0.8502922654151917
1779959026267866000,5.9678662109375,5.799316883087158,0.2999763488769531,0.9730717539787292
1779959026284204300,5.984204345703125,3.3220934867858887,-4.698348045349121,2.04610538482666
1779959026300535300,6.000535400390625,-5.537308216094971,-5.2720842361450195,4.413632392883301
1779959026316885800,6.0168857421875,-3.0082833766937256,-0.31342506408691406,5.626733779907227
1779959026333201200,6.033201171875,1.340977668762207,2.271998405456543,4.826834678649902
1779959026349538600,6.04953857421875,1.7625913619995117,3.25425386428833,2.856649398803711
1779959026365868300,6.065868408203125,0.7958524227142334,2.0874547958374023,0.8364042639732361
1779959026382209300,6.082209228515625,2.665540933609009,1.507176399230957,-0.6741909980773926
1779959026398545000,6.098544921875,0.9057648181915283,0.5803899765014648,-0.3241531252861023
1779959026414874400,6.114874267578125,-1.6572107076644897,0.3894815444946289,-0.6104931235313416
1779959026431201300,6.131201171875,-4.316674709320068,1.4554357528686523,-0.8978289365768433
1779959026447556000,6.14755615234375,-3.7619969844818115,1.4734830856323242,-0.6092685461044312
1779959026463874300,6.163874267578125,-1.793234944343567,0.69866943359375,0.657499372959137
1779959026480208600,6.180208740234375,-0.5207569003105164,0.41129016876220703,2.748318672180176
1779959026496533200,6.196533203125,-0.14366793632507324,0.7236690521240234,3.4548990726470947
1779959026512867300,6.212867431640625,-1.46126389503479,0.4769096374511719,3.0293643474578857
1779959026529202400,6.229202392578125,-2.3486485481262207,0.25374603271484375,2.219250202178955
1779959026545536800,6.245536865234375,-1.9876524209976196,0.07671451568603516,1.7468981742858887
1779959026561870000,6.2618701171875,-1.6300867795944214,-0.45942115783691406,1.3793761730194092
1779959026578205200,6.278205078125,-1.2951111793518066,-1.1414299011230469,1.7901039123535156
1779959026594541600,6.29454150390625,-1.2194446325302124,-1.750147819519043,2.9364206790924072
1779959026610884900,6.310884765625,-1.1485826969146729,-1.775827407836914,4.516051292419434
1779959026627218400,6.327218505859375,-1.765533447265625,-1.377767562866211,5.738309860229492
1779959026643554000,6.343553955078125,-2.538114070892334,-1.2050743103027344,5.697094917297363
1779959026659901200,6.359901123046875,-2.5130221843719482,-1.2233009338378906,4.850271701812744
1779959026676215600,6.376215576171875,-2.864262104034424,-1.601008415222168,4.658492088317871
1779959026692563000,6.39256298828125,-3.4023568630218506,-2.2408199310302734,5.6596150398254395
1779959026708905200,6.4089052734375,-2.9104695320129395,-2.5316476821899414,6.071425437927246
1779959026725227000,6.42522705078125,-1.8710029125213623,-3.017422676086426,5.254921913146973
1779959026741574400,6.441574462890625,-0.9545560479164124,-4.140166282653809,5.978125095367432
1779959026757901300,6.4579013671875,-0.07187271118164062,-3.0772085189819336,4.890588283538818
1779959026774245400,6.474245361328125,-0.939048171043396,-2.467977523803711,3.296873092651367
1779959026790574800,6.490574951171875,-1.0467911958694458,-1.5411691665649414,1.123990535736084
1779959026806884000,6.506884033203125,-1.538892149925232,-2.9925928115844727,-2.2227931022644043
1779959026823227600,6.5232275390625,-0.5652123689651489,-5.297209739685059,-3.7661285400390625
1779959026839565000,6.53956494140625,1.815292477607727,-5.718644142150879,-4.3141279220581055
1779959026855883500,6.555883544921875,3.0089282989501953,-5.489258766174316,-4.275820255279541
1779959026872235800,6.57223583984375,3.072573661804199,-4.194470405578613,-4.056535720825195
1779959026888566300,6.588566162109375,2.206554651260376,-1.747776985168457,-3.3610997200012207
1779959026904901400,6.6049013671875,0.15599918365478516,0.867588996887207,-1.9469672441482544
1779959026921235000,6.62123486328125,-2.319429874420166,1.7692060470581055,0.5610213279724121
1779959026937568500,6.637568603515625,-2.146961212158203,1.1242923736572266,2.2557332515716553
1779959026953902800,6.65390283203125,0.4129467010498047,0.7595796585083008,3.518819570541382
1779959026970238500,6.670238525390625,4.126437187194824,0.31757259368896484,3.922924041748047
1779959026986574600,6.68657470703125,3.9029414653778076,-0.03324317932128906,3.7314610481262207
1779959027002905000,6.702905029296875,2.9918441772460938,0.5042190551757812,2.548008918762207
1779959027019241700,6.71924169921875,3.107832908630371,1.9676532745361328,1.2949132919311523
1779959027035571700,6.73557177734375,4.46577262878418,2.7368288040161133,0.7260886430740356
1779959027051911000,6.751910888671875,4.644989013671875,3.691897392272949,0.49136948585510254
1779959027068242400,6.768242431640625,4.284879207611084,4.665345191955566,-0.3517714738845825
1779959027084579600,6.78457958984375,3.815392017364502,5.026787757873535,-1.1199562549591064
1779959027100908800,6.80090869140625,4.003012180328369,5.2315168380737305,-1.4776182174682617
1779959027117245200,6.8172451171875,4.675679683685303,5.128033638000488,-1.0727070569992065
1779959027133580300,6.833580322265625,3.9919934272766113,5.19960880279541,-0.730678915977478
1779959027149900300,6.849900390625,2.5899219512939453,5.318290710449219,-0.5524685382843018
1779959027166250000,6.86625,0.6175923347473145,5.039300918579102,-0.09186327457427979
1779959027182583800,6.882583740234375,-1.8846511840820312,3.635110378265381,0.2977496385574341
1779959027198932700,6.8989326171875,-7.059114933013916,-1.0210294723510742,0.013584434986114502
1779959027215265000,6.91526513671875,-13.30317497253418,-10.453728675842285,1.152778148651123
1779959027231600000,6.93160009765625,-5.159859657287598,-14.6289701461792,2.751504421234131
1779959027247932000,6.947931884765625,-2.610407590866089,-7.485062599182129,1.3073961734771729
1779959027264274200,6.964274169921875,-6.224656105041504,-0.1970996856689453,-1.9217092990875244
1779959027280601300,6.980601318359375,-3.543593645095825,5.168687343597412,-3.001086473464966
1779959027296935400,6.996935302734375,-0.9679470062255859,6.03877067565918,-3.4872238636016846
1779959027313239600,7.013239501953125,-0.5473494529724121,4.007358074188232,-0.8046212196350098
1779959027329590300,7.02959033203125,4.928918361663818,1.2481284141540527,1.1072698831558228
1779959027345922600,7.045922607421875,9.16346549987793,-5.643288612365723,-0.2987788915634155
1779959027362262000,7.062261962890625,-0.03452587127685547,-16.51388168334961,-3.2357592582702637
1779959027378592800,7.0785927734375,-5.765286445617676,-13.54747486114502,-1.7001845836639404
1779959027394926300,7.09492626953125,7.557307243347168,-0.8996658325195312,-2.186863899230957
1779959027411265300,7.111265380859375,6.837897300720215,4.0789642333984375,-0.920777440071106
1779959027427594000,7.127593994140625,6.122400283813477,3.854844093322754,1.780311942100525
1779959027443913500,7.14391357421875,8.028398513793945,3.2993674278259277,2.862616539001465
1779959027460251600,7.160251708984375,6.951483249664307,1.4505677223205566,2.872415065765381
1779959027476586000,7.1765859375,6.367819786071777,-2.6136045455932617,2.620256185531616
1779959027492920800,7.1929208984375,2.341491460800171,-6.459651947021484,3.2562594413757324
1779959027509257200,7.20925732421875,-3.634518623352051,-3.647078514099121,4.11300802230835
1779959027525589000,7.225589111328125,-2.311764717102051,0.1058807373046875,0.5354877710342407
1779959027541923600,7.241923583984375,0.5575641989707947,0.8986778259277344,-1.8102443218231201
1779959027558257400,7.25825732421875,-0.03979086875915527,0.42388057708740234,-2.478019952774048
1779959027574592300,7.27459228515625,0.6847078800201416,1.1048698425292969,-2.708376884460449
1779959027590928600,7.2909287109375,0.2714419960975647,2.0330004692077637,-0.7305694818496704
1779959027607271200,7.307271240234375,0.15242725610733032,2.281247615814209,1.233253836631775
1779959027623606800,7.323606689453125,-0.17788410186767578,2.1124210357666016,2.4402377605438232
1779959027639932000,7.339931884765625,-0.9254764914512634,1.2374296188354492,2.275883436203003
1779959027656275700,7.356275634765625,-1.303191900253296,0.5291938781738281,1.540107250213623
1779959027672609300,7.372609375,-1.2914972305297852,1.189326286315918,1.4740883111953735
1779959027688943400,7.388943359375,-1.0901347398757935,2.945117950439453,1.4395475387573242
1779959027705294600,7.405294677734375,-1.2020998001098633,4.256412982940674,1.3702727556228638
1779959027721625600,7.42162548828125,-1.7482562065124512,4.33900260925293,1.6588857173919678
1779959027737964500,7.437964599609375,-1.0519648790359497,3.719144344329834,2.0354342460632324
1779959027754294000,7.4542939453125,-0.5946903228759766,3.5429954528808594,2.211021900177002
1779959027770627600,7.470627685546875,-0.9497871994972229,3.9803152084350586,2.036616802215576
1779959027786961000,7.4869609375,-0.8247754573822021,3.806713104248047,1.8419318199157715
1779959027803281700,7.50328173828125,-0.9511541128158569,3.782632350921631,1.747022032737732
1779959027819601700,7.5196015625,-2.1684699058532715,3.4185824394226074,0.8286435008049011
1779959027835948300,7.5359482421875,-0.9628397226333618,2.058084011077881,0.1545811891555786
1779959027852288500,7.55228857421875,1.5628516674041748,0.31554508209228516,1.6544044017791748
1779959027868619000,7.568618896484375,2.2437937259674072,0.24697113037109375,3.299482822418213
1779959027884955100,7.584955078125,-0.06955182552337646,1.2874212265014648,4.710069179534912
1779959027901278700,7.60127880859375,-2.483029842376709,2.086392879486084,5.293865203857422
1779959027917634600,7.617634521484375,-4.676146984100342,1.116286277770996,5.058649063110352
1779959027933968600,7.63396875,-3.4317333698272705,0.5665912628173828,4.0190348625183105
1779959027950303200,7.65030322265625,-0.6787419319152832,0.7476844787597656,3.451841115951538
1779959027966614300,7.6666142578125,0.3060281276702881,0.9418849945068359,2.405165910720825
1779959027982960400,7.68296044921875,-0.9677472114562988,0.5987100601196289,0.756979763507843
1779959027999294200,7.699294189453125,-3.8960912227630615,-2.271707534790039,-0.735665500164032
1779959028015628300,7.715628173828125,-4.242652416229248,-6.9784040451049805,0.43913036584854126
1779959028031958300,7.731958251953125,-0.8083791732788086,-9.200794219970703,1.5779259204864502
1779959028048298800,7.748298828125,1.4232490062713623,-11.36156940460205,-0.04301881790161133
1779959028064630300,7.76463037109375,-0.40129566192626953,-13.528660774230957,-2.6521708965301514
1779959028080966000,7.7809658203125,-1.5855226516723633,-8.724137306213379,-2.847524642944336
1779959028097297400,7.79729736328125,-0.25159168243408203,-2.6293106079101562,-0.9110035300254822
1779959028113633300,7.81363330078125,-0.1186361312866211,-0.6948833465576172,0.5904276967048645
1779959028129955000,7.829955078125,0.12951040267944336,-0.8176984786987305,1.7214895486831665
1779959028146300400,7.846300537109375,1.3081951141357422,-0.6494741439819336,1.6907591819763184
1779959028162635500,7.862635498046875,1.3618559837341309,0.6255679130554199,-0.6162914633750916
1779959028178972700,7.87897265625,0.6285886764526367,0.6266417503356934,-2.603001832962036
1779959028195301400,7.89530126953125,0.5652666091918945,0.494870662689209,-3.415034532546997
1779959028211657700,7.91165771484375,2.6066579818725586,1.6099634170532227,-2.3050436973571777
1779959028227985400,7.9279853515625,2.950275182723999,2.922205924987793,-0.30275338888168335
1779959028244319200,7.9443193359375,3.901803493499756,4.148223400115967,0.22091001272201538
1779959028260654800,7.96065478515625,4.47908353805542,4.743700981140137,0.7968953847885132
1779959028276977700,7.976977783203125,4.9340105056762695,5.207523345947266,1.179932951927185
1779959028293304800,7.993304931640625,5.482562065124512,5.957825660705566,0.732162594795227
1779959028309635000,8.009635009765624,5.008413791656494,6.8795061111450195,0.4087982773780823
1779959028325979400,8.0259794921875,3.8214619159698486,7.838377952575684,0.5991176962852478
1779959028342298400,8.04229833984375,1.7688190937042236,8.78709602355957,0.8905831575393677
1779959028358644500,8.05864453125,-1.510671854019165,9.253375053405762,0.8026397824287415
1779959028374988500,8.074988525390625,-1.4505906105041504,6.186229705810547,1.9150298833847046
1779959028391318000,8.091318115234374,-1.01167631149292,2.2134785652160645,3.6026735305786133
1779959028407661600,8.10766162109375,0.6582136750221252,0.5606613159179688,4.72946310043335
1779959028423995100,8.1239951171875,2.0025923252105713,-2.1120738983154297,4.19960880279541
1779959028440329700,8.140329833984374,-4.903641700744629,-1.980708122253418,1.6502856016159058
1779959028456648400,8.1566484375,-17.66497802734375,-6.487866401672363,-1.380728006362915
1779959028472986400,8.172986328125,-7.441009521484375,-9.246809005737305,-4.894063949584961
1779959028489320400,8.189320556640626,11.031265258789062,-6.8093461990356445,-5.323153972625732
1779959028505654500,8.205654541015624,15.629035949707031,-12.902424812316895,-5.227648735046387
1779959028521988400,8.22198828125,5.786553859710693,-6.446839332580566,-5.635959148406982
1779959028538321200,8.238321044921875,-14.615050315856934,-0.8702335357666016,-6.23369026184082
1779959028554673400,8.25467333984375,-6.398519039154053,-5.796759605407715,3.287782669067383
1779959028571004000,8.27100390625,4.801214218139648,-3.716202735900879,9.841753005981445
1779959028587337000,8.2873369140625,-2.627793312072754,-1.9978132247924805,10.897008895874023
1779959028603677400,8.303677490234374,-5.388131618499756,-7.356864929199219,6.779842853546143
1779959028619972900,8.319972900390624,0.8173084259033203,-5.609397888183594,1.4062767028808594
1779959028636326100,8.336326171875,1.1731610298156738,-0.6782808303833008,-1.2919888496398926
1779959028652661800,8.352661865234374,0.4858752489089966,2.956362724304199,-0.6871984601020813
1779959028668996000,8.36899609375,0.26618409156799316,3.5431551933288574,1.1300017833709717
1779959028685330400,8.385330322265625,1.103803277015686,3.6913199424743652,2.0344929695129395
1779959028701664800,8.401664794921874,-0.050811767578125,3.2042770385742188,2.1785311698913574
1779959028718017000,8.41801708984375,-1.4747775793075562,1.7132530212402344,1.556137204170227
1779959028734323000,8.434322998046875,-1.3185282945632935,2.071174144744873,1.0868077278137207
1779959028750663000,8.450662841796875,-1.252314567565918,3.382493019104004,1.0153549909591675
1779959028767005200,8.467005126953126,-1.9464032649993896,3.8712902069091797,0.4090782403945923
1779959028783335700,8.483335693359376,-2.199158191680908,3.8816943168640137,-0.49022793769836426
1779959028799657200,8.4996572265625,-0.8112132549285889,4.417934417724609,-0.36887896060943604
1779959028816004000,8.516004150390625,-0.5516217947006226,5.384403705596924,0.2379104495048523
1779959028832337700,8.532337646484375,-2.824289321899414,5.967967987060547,-0.32967352867126465
1779959028848673000,8.548673095703125,-2.1723413467407227,1.9318280220031738,0.8830528259277344
1779959028865006800,8.5650068359375,-0.4832417964935303,-0.905949592590332,3.135218381881714
1779959028881354500,8.5813544921875,-0.6837470531463623,-1.9553823471069336,4.92961311340332
1779959028897677000,8.597677001953125,-0.42115092277526855,-2.487790107727051,5.0044779777526855
1779959028914022400,8.6140224609375,-0.9285168647766113,-3.4040794372558594,4.147363662719727
1779959028930355200,8.630355224609374,-3.55619215965271,-5.668352127075195,2.602978229522705
1779959028946676500,8.646676513671874,-4.071688652038574,-9.013140678405762,1.2017323970794678
1779959028963011600,8.663011474609375,-1.43287992477417,-9.268704414367676,0.25539714097976685
1779959028979343400,8.67934326171875,1.3380892276763916,-6.297935485839844,0.04137164354324341
1779959028995683600,8.69568359375,2.881584405899048,-3.744403839111328,-0.15341150760650635
1779959029012014600,8.7120146484375,3.617332935333252,-1.6553478240966797,-1.0048315525054932
1779959029028355600,8.72835546875,2.8156275749206543,0.24802732467651367,-1.4331244230270386
1779959029044685800,8.744685791015625,1.463376522064209,0.3872952461242676,-1.0936565399169922
1779959029061016300,8.761016357421875,1.4645695686340332,0.21048831939697266,-0.4046984910964966
1779959029077363700,8.77736376953125,1.3489761352539062,1.2568697929382324,-0.013162732124328613
1779959029093699000,8.793698974609375,1.7446584701538086,2.6245932579040527,0.23298311233520508
1779959029110014200,8.81001416015625,2.6472558975219727,3.644989490509033,0.0459979772567749
1779959029126353000,8.826352783203125,3.1896820068359375,4.016782283782959,0.13895750045776367
1779959029142685400,8.842685546875,3.1168577671051025,4.626354217529297,0.4669432044029236
1779959029159012600,8.8590126953125,2.913133382797241,5.530282974243164,0.5271082520484924
1779959029175357000,8.87535693359375,2.436283588409424,6.432369232177734,0.46978116035461426
1779959029191690800,8.891690673828125,0.9305906295776367,6.844479560852051,0.6264840960502625
1779959029208023800,8.90802392578125,0.09897398948669434,4.0729451179504395,0.6679380536079407
1779959029224359200,8.924359130859376,-0.3858358860015869,-0.15116214752197266,1.1767069101333618
1779959029240694000,8.940694091796875,0.0960235595703125,0.5007266998291016,2.808535575866699
1779959029257056000,8.957055908203126,-0.3838233947753906,-0.7075433731079102,4.170224666595459
1779959029273336000,8.973336181640626,-1.6614910364151,-2.2207412719726562,3.200277805328369
1779959029289707300,8.989707275390625,-2.1251144409179688,1.1246404647827148,-1.6753549575805664
1779959029306030600,9.006030517578125,-3.118363618850708,2.0663156509399414,-2.1817758083343506
1779959029322364400,9.022364501953126,-4.725587844848633,0.8560304641723633,-2.6544506549835205
1779959029338697700,9.03869775390625,-6.980241298675537,-5.931177139282227,-4.727299213409424
1779959029355020000,9.05502001953125,0.9471570253372192,-6.945765495300293,-5.275138854980469
1779959029371370200,9.071370361328125,10.736625671386719,-3.6199750900268555,-3.413024663925171
1779959029387714000,9.087714111328125,7.725894927978516,-1.639744758605957,-1.2215099334716797
1779959029404047600,9.104047607421874,-5.370826721191406,-2.2875070571899414,-2.7670857906341553
1779959029420370700,9.12037060546875,-3.671839714050293,-1.8920669555664062,1.2800331115722656
1779959029436712700,9.136712646484375,0.2885556221008301,-4.756319999694824,7.453295707702637
1779959029453038000,9.1530380859375,-5.387246131896973,-10.782771110534668,7.72177267074585
1779959029469357000,9.169357177734375,-2.228855609893799,-6.307941436767578,4.2909650802612305
1779959029485692200,9.185692138671875,1.7842928171157837,-3.913055419921875,0.6807684302330017
1779959029502034200,9.2020341796875,0.4577242136001587,-0.09751129150390625,0.6820204257965088
1779959029518381800,9.2183818359375,1.8949427604675293,2.2672009468078613,2.2687854766845703
1779959029534709800,9.234709716796875,1.5514566898345947,2.361684799194336,3.3221452236175537
1779959029551043000,9.25104296875,-0.14641177654266357,1.0463733673095703,1.9238615036010742
1779959029567379700,9.267379638671875,-1.0424169301986694,0.722625732421875,0.01193341612815857
1779959029583735300,9.2837353515625,-1.1553179025650024,1.5669536590576172,0.4523501396179199
1779959029600040400,9.30004052734375,-3.032440185546875,2.634272575378418,1.051602840423584
1779959029616379600,9.316379638671876,-1.67324960231781,2.602066993713379,0.6162264347076416
1779959029632714000,9.3327138671875,-0.31119346618652344,3.1538634300231934,0.3970949947834015
1779959029649049000,9.349049072265625,-0.57506263256073,3.258005142211914,0.34230491518974304
1779959029665383200,9.365383056640624,-1.316482424736023,3.567610263824463,0.2834724187850952
1779959029681717200,9.38171728515625,-2.944974899291992,4.969161033630371,-0.3037986159324646
1779959029698050000,9.398050048828125,-3.0410327911376953,4.575780868530273,-0.23029661178588867
1779959029714402000,9.414402099609376,-0.6831653118133545,2.8304920196533203,1.4467899799346924
1779959029730718000,9.430718017578124,0.24074721336364746,1.6247873306274414,2.8273258209228516
1779959029747069000,9.44706884765625,1.2054598331451416,0.6931180953979492,3.9343326091766357
1779959029763384300,9.46338427734375,1.9971082210540771,0.07704448699951172,3.955329179763794
1779959029779722500,9.479722412109375,-0.16180682182312012,-0.10512733459472656,2.5508759021759033
1779959029796056600,9.496056640625,-3.819563627243042,-4.227107048034668,1.4213879108428955
1779959029812390700,9.512390625,-5.3668742179870605,-9.734907150268555,1.8566198348999023
1779959029828725000,9.52872509765625,-1.790945053100586,-11.574581146240234,2.440786600112915
1779959029845059000,9.54505908203125,0.5137090682983398,-7.3058977127075195,1.2316362857818604
1779959029861397000,9.56139697265625,3.0182721614837646,-4.254772663116455,0.49248796701431274
1779959029877739500,9.577739501953126,2.304058790206909,-1.3650751113891602,-0.5369768142700195
1779959029894063900,9.59406396484375,2.3795080184936523,1.113440990447998,-3.069227695465088
1779959029910412300,9.610412353515626,-0.12370109558105469,1.039599895477295,-3.0589003562927246
1779959029926757400,9.62675732421875,-0.6623597145080566,0.9738264083862305,-1.6854374408721924
1779959029943043300,9.643043212890625,0.37003040313720703,1.7055959701538086,-0.6601309776306152
1779959029959403000,9.659403076171875,1.661238670349121,2.6571526527404785,-0.5928682088851929
1779959029975729400,9.6757294921875,2.544548511505127,3.096766948699951,-0.7281090021133423
1779959029992071200,9.6920712890625,3.5302700996398926,3.4021430015563965,-0.6917158365249634
1779959030008399600,9.708399658203126,4.003583908081055,3.649871826171875,-0.8818442821502686
1779959030024720000,9.724719970703125,3.9632997512817383,3.832108974456787,-0.5817495584487915
1779959030041056300,9.74105615234375,3.441943645477295,4.3190789222717285,0.3558509349822998
1779959030057390800,9.757390869140625,2.1874706745147705,4.618491172790527,1.2254010438919067
1779959030073725400,9.773725341796874,0.11767458915710449,1.475104808807373,1.6413991451263428
1779959030090060000,9.79006005859375,-3.3128275871276855,-0.3523721694946289,2.548600196838379
1779959030106393900,9.806393798828125,-4.991926193237305,0.7708024978637695,3.9020333290100098
1779959030122727400,9.8227275390625,-2.722815990447998,0.8905735015869141,4.963820457458496
1779959030139078400,9.839078369140625,1.1990952491760254,-1.7873306274414062,3.8562171459198
1779959030155409200,9.8554091796875,2.63836932182312,1.4343996047973633,-0.930974543094635
1779959030171743200,9.8717431640625,-2.3337886333465576,2.2751388549804688,-2.1002705097198486
1779959030188076000,9.888075927734375,-9.807040214538574,0.5451383590698242,-1.7396609783172607
1779959030204411100,9.9044111328125,-12.3997163772583,-5.1575164794921875,-4.085291862487793
1779959030220746800,9.920746826171875,3.71767258644104,-4.116350173950195,-4.426185607910156
1779959030237097200,9.93709716796875,19.877361297607422,-0.9750471115112305,-2.215362310409546
1779959030253410600,9.95341064453125,11.862142562866211,-2.8851232528686523,-2.7477617263793945
1779959030269749000,9.9697490234375,-13.90992259979248,-0.07577800750732422,-6.7408270835876465
1779959030286082000,9.98608203125,-1.9682044982910156,-2.7450733184814453,0.9603527188301086
1779959030302415400,10.002415283203124,6.880727767944336,-0.9911403656005859,6.000779628753662
1779959030318784000,10.018783935546875,0.5581907629966736,-6.8124237060546875,8.008392333984375
1779959030335085300,10.035085205078126,-6.614103317260742,-15.62454891204834,6.743878364562988
1779959030351422700,10.051422607421875,-1.847548007965088,-8.589459419250488,3.943905830383301
1779959030367766300,10.067766357421876,1.1417557001113892,-3.64483642578125,0.24003922939300537
1779959030384108800,10.08410888671875,0.9419620037078857,1.0450725555419922,-0.16911381483078003
1779959030400435200,10.100435302734375,-0.30333423614501953,4.167024612426758,0.8314121961593628
1779959030416769500,10.11676953125,0.30685967206954956,5.283368110656738,1.617830753326416
1779959030433087000,10.1330869140625,0.40593603253364563,3.7877650260925293,1.5702855587005615
1779959030449425200,10.149425048828125,-0.953679621219635,-0.4323415756225586,0.5841962099075317
1779959030465754600,10.165754638671874,-2.567537307739258,-1.5556259155273438,-0.35466453433036804
1779959030482098700,10.1820986328125,-2.5309348106384277,0.9914188385009766,0.7680200338363647
1779959030498424800,10.1984248046875,-1.6889216899871826,2.835843563079834,1.7182559967041016
1779959030514758700,10.214758544921875,-0.6756382584571838,4.084492206573486,1.7732634544372559
1779959030531116500,10.231116455078125,-2.110719680786133,4.794469356536865,1.2814960479736328
1779959030547442200,10.247442138671875,-2.9371094703674316,4.581278324127197,1.4055306911468506
1779959030563761200,10.26376123046875,-1.662096619606018,3.6587157249450684,2.3857264518737793
1779959030580098000,10.28009814453125,-0.5991151332855225,2.7518715858459473,3.3669166564941406
1779959030596431600,10.296431640625,-0.897693395614624,1.6248302459716797,4.414416313171387
1779959030612766700,10.3127666015625,-3.1850297451019287,-0.0929107666015625,4.689750671386719
1779959030629101600,10.3291015625,-2.732750177383423,0.2750892639160156,4.46791934967041
1779959030645435100,10.34543505859375,-0.2364051342010498,1.621978759765625,3.4198813438415527
1779959030661770800,10.361770751953125,-2.1636266708374023,2.27042293548584,1.7929788827896118
1779959030678101800,10.378101806640625,-3.4867730140686035,0.5731916427612305,0.21511313319206238
1779959030694438000,10.39443798828125,-2.901780128479004,-1.816878318786621,-1.3510829210281372
1779959030710751500,10.41075146484375,-1.3540780544281006,-4.103655815124512,-1.2509772777557373
1779959030727114800,10.42711474609375,0.07976770401000977,-4.5662994384765625,1.1339664459228516
1779959030743426300,10.44342626953125,1.7195186614990234,-5.564671516418457,1.2528467178344727
1779959030759772700,10.459772705078125,0.6941170692443848,-5.780569076538086,-0.9432435035705566
1779959030776109000,10.476109130859374,1.7110130786895752,-4.064784049987793,-1.1111793518066406
1779959030792442600,10.492442626953125,3.2107093334198,-2.327519416809082,-0.046515822410583496
1779959030808778000,10.508778076171875,1.8715195655822754,-0.7150335311889648,0.6131945252418518
1779959030825111000,10.525111083984376,1.5756621360778809,-0.22644615173339844,0.6228769421577454
1779959030841449500,10.541449462890625,2.9947941303253174,-0.2871379852294922,-2.1438939571380615
1779959030857791700,10.557791748046874,1.3867404460906982,-0.2468862533569336,-1.7025346755981445
1779959030874127600,10.574127685546875,-0.7420997619628906,1.6019763946533203,-0.034352242946624756
1779959030890460700,10.590460693359375,-1.4441447257995605,3.284736156463623,0.4316065013408661
1779959030906801400,10.606801513671876,-0.9840044975280762,4.695080280303955,0.31790921092033386
1779959030923110700,10.623110595703125,1.099189281463623,5.820284366607666,0.03851318359375
1779959030939451600,10.63945166015625,3.0094408988952637,6.08784294128418,0.49523159861564636
1779959030955780900,10.65578076171875,4.121997833251953,6.342911720275879,0.7725057601928711
1779959030972108000,10.67210791015625,3.7354867458343506,6.210030555725098,1.4265834093093872
1779959030988440800,10.68844091796875,1.9506444931030273,2.116941452026367,1.8898909091949463
1779959031004776000,10.70477587890625,1.1277228593826294,0.036690711975097656,2.347468852996826
1779959031021109200,10.721109130859375,-0.652468204498291,-0.3762083053588867,2.3274967670440674
1779959031037443300,10.737443359375,-3.7135303020477295,-6.605481147766113,-2.938589096069336
1779959031053778000,10.75377783203125,-16.57994842529297,-10.619638442993164,-6.387596130371094
1779959031070112300,10.7701123046875,-9.111515998840332,-0.3897838592529297,-3.686650514602661
1779959031086447600,10.786447509765624,-8.222171783447266,3.871377944946289,-1.0725215673446655
1779959031102782200,10.8027822265625,-5.614596366882324,4.557751178741455,-0.8176008462905884
1779959031119127600,10.81912744140625,-5.524810791015625,1.7657008171081543,-2.302877187728882
1779959031135458800,10.835458740234374,6.860901832580566,-4.514585494995117,3.6889259815216064
1779959031151798300,10.85179833984375,8.516111373901367,-7.249813079833984,7.827234268188477
1779959031168128800,10.868128662109376,15.109281539916992,-4.658777236938477,5.250454425811768
1779959031184464100,10.884464111328125,13.24300765991211,-1.45550537109375,2.222221851348877
1779959031200789200,10.900789306640625,6.298907279968262,-1.1194610595703125,1.0959957838058472
1779959031217135000,10.917135009765625,5.271340370178223,-1.3695783615112305,2.1462318897247314
1779959031233463300,10.93346337890625,2.4038565158843994,-10.01467514038086,1.7876124382019043
1779959031249789200,10.9497890625,-11.46436595916748,-19.16581153869629,0.9173368215560913
1779959031266134000,10.966134033203126,-16.907901763916016,-12.311123847961426,-2.0322515964508057
1779959031282455800,10.982455810546876,8.154245376586914,-1.445235252380371,-4.783318042755127
1779959031298809000,10.99880908203125,8.917750358581543,1.4916353225708008,-4.315148830413818
1779959031315137800,11.0151376953125,4.995793342590332,1.0846452713012695,-3.009732246398926
1779959031331475500,11.031475341796876,-4.449361801147461,3.211185932159424,-4.266088962554932
1779959031347818200,11.047818359375,-3.972827672958374,4.2239861488342285,-0.8820903897285461
1779959031364180000,11.064179931640625,-0.40732836723327637,2.805668830871582,3.355349063873291
1779959031380487400,11.0804873046875,2.3340659141540527,1.5099029541015625,4.313238620758057
1779959031396824000,11.096823974609375,0.42487871646881104,0.5954341888427734,3.016876220703125
1779959031413153300,11.1131533203125,-4.000274658203125,0.13458824157714844,1.6629929542541504
1779959031429477600,11.1294775390625,-5.214034557342529,1.6209230422973633,0.9767601490020752
1779959031445813800,11.145813720703124,-4.916810989379883,3.0966386795043945,1.769075870513916
1779959031462143200,11.162143310546876,-3.8887314796447754,2.5810842514038086,3.3633902072906494
1779959031478478600,11.178478515625,-2.464064359664917,1.8070216178894043,4.857827663421631
1779959031494812200,11.194812255859375,-3.081061601638794,1.1531047821044922,5.598305702209473
1779959031511148300,11.211148193359374,-3.897189140319824,0.4289588928222656,4.83421516418457
1779959031527498200,11.227498291015625,-3.893749952316284,0.5921144485473633,5.238776683807373
1779959031543831600,11.24383154296875,-2.7596163749694824,0.3032388687133789,5.35205078125
1779959031560149200,11.260149169921876,-3.7534022331237793,-0.7092361450195312,4.251336574554443
1779959031576496400,11.276496337890626,-3.7964982986450195,-2.767289161682129,4.90657901763916
1779959031592834600,11.29283447265625,-1.354811668395996,-3.5169734954833984,5.751014709472656
1779959031609165800,11.309165771484375,-1.3714473247528076,-3.618046760559082,5.39188289642334
1779959031625484300,11.325484375,-0.9219131469726562,-4.280241012573242,2.4943699836730957
1779959031641821400,11.341821533203126,-0.9810373783111572,-4.817238807678223,0.8612972497940063
1779959031658154800,11.35815478515625,-1.3097538948059082,-5.350737571716309,-0.6272709369659424
1779959031674490000,11.374489990234375,-1.8844811916351318,-4.8415727615356445,-2.7527968883514404
1779959031690824200,11.39082421875,-0.315629243850708,-5.565372467041016,-3.706679105758667
1779959031707158000,11.407157958984374,2.6153998374938965,-7.561153411865234,-4.200494289398193
1779959031723492400,11.423492431640625,5.095848560333252,-7.96009635925293,-3.59675931930542
1779959031739822300,11.439822265625,5.810761451721191,-6.371854782104492,-2.7352609634399414
1779959031756162800,11.456162841796875,2.92171049118042,-3.560495376586914,-1.59320867061615
1779959031772495400,11.472495361328125,-1.797898530960083,-2.331695556640625,-0.9347375631332397
1779959031788830500,11.48883056640625,-1.8236677646636963,-1.0625905990600586,0.8334409594535828
1779959031805164000,11.5051640625,2.123164653778076,-0.08950996398925781,2.4828813076019287
1779959031821501200,11.521501220703126,4.566006183624268,0.16936111450195312,3.4939322471618652
1779959031837844700,11.5378447265625,3.665071964263916,-0.5107107162475586,3.5470378398895264
1779959031854179800,11.554179931640626,3.379168748855591,0.47074413299560547,1.912297010421753
1779959031870498600,11.57049853515625,4.2578630447387695,3.4912033081054688,0.10996314883232117
1779959031886848800,11.586848876953125,6.830039978027344,5.33165168762207,-0.5906331539154053
1779959031903180000,11.603179931640625,6.7402544021606445,6.409933090209961,-1.3367427587509155
1779959031919504100,11.619504150390625,6.235133647918701,7.297656059265137,-1.5728033781051636
1779959031935834600,11.635834716796875,5.3817291259765625,7.52415657043457,-1.696943759918213
1779959031952175000,11.652175048828125,5.470963478088379,7.149810791015625,-2.421128511428833
1779959031968504800,11.6685048828125,4.812464237213135,6.268558025360107,-3.1342830657958984
1779959031984841000,11.684841064453124,3.627612590789795,6.322392463684082,-2.8581948280334473
1779959032001174500,11.701174560546875,1.8878474235534668,5.947333335876465,-2.2533721923828125
1779959032017524000,11.71752392578125,-0.6379189491271973,4.032747745513916,-0.8809739351272583
1779959032033874400,11.73387451171875,-3.1654746532440186,-0.6847457885742188,0.29063093662261963
1779959032050186500,11.7501865234375,-7.04714298248291,-9.704477310180664,1.4672538042068481
1779959032066526000,11.76652587890625,-6.980083465576172,-19.51089859008789,3.8499834537506104
1779959032082855700,11.782855712890624,-7.369657516479492,-8.40871810913086,2.0879812240600586
1779959032099196000,11.79919580078125,-11.621088027954102,-6.250444412231445,-2.0265121459960938
1779959032115513000,11.81551318359375,2.118853807449341,-6.523972511291504,3.682192802429199
1779959032131850000,11.83185009765625,12.33474349975586,-5.766127586364746,3.6448583602905273
1779959032148181200,11.84818115234375,10.252848625183105,0.6711664199829102,-0.7690558433532715
1779959032164516400,11.864516357421875,2.2190587520599365,3.8874759674072266,-2.594064474105835
1779959032180855000,11.88085498046875,-7.501794815063477,4.419581413269043,-4.6860175132751465
1779959032197183700,11.897183837890625,-0.39119529724121094,4.070436000823975,-4.168883800506592
1779959032213519000,11.91351904296875,8.08385944366455,1.8684072494506836,-2.1403326988220215
1779959032229843200,11.92984326171875,7.286677360534668,-1.688776969909668,0.21541555225849152
1779959032246186200,11.946186279296874,6.434168815612793,-3.543534278869629,2.232973575592041
1779959032262522400,11.9625224609375,5.492856979370117,-3.1660070419311523,3.5358967781066895
1779959032278857000,11.97885693359375,-1.1240415573120117,-2.344672203063965,4.174144268035889
1779959032295190300,11.995190185546875,-3.0557267665863037,1.2657747268676758,3.460500717163086
1779959032311564300,12.011564208984375,1.0303688049316406,1.899644374847412,1.4918183088302612
1779959032327873000,12.027873046875,-1.0847796201705933,0.9206161499023438,0.894355058670044
1779959032344206300,12.044206298828126,-1.2653005123138428,-0.0958251953125,-0.38458776473999023
1779959032360535800,12.060535888671875,0.3545870780944824,-0.330810546875,-1.0079795122146606
1779959032376862700,12.07686279296875,-0.17843127250671387,0.8815746307373047,-0.493749737739563
1779959032393209300,12.093209228515626,-1.023179292678833,2.0251173973083496,-0.09780991077423096
1779959032409525500,12.109525390625,-1.2507966756820679,2.0866928100585938,0.012592010200023651
1779959032425861000,12.125861083984375,-1.1036622524261475,1.294011116027832,0.05452845245599747
1779959032442202400,12.142202392578126,-1.1092488765716553,0.6949224472045898,0.08412199467420578
1779959032458517800,12.158517822265624,-0.6669479608535767,1.0078983306884766,0.03217196464538574
1779959032474865400,12.174865478515626,0.18108677864074707,2.1900219917297363,0.11993396282196045
1779959032491187500,12.1911875,0.9485659003257751,3.7085824012756348,0.15083712339401245
1779959032507550200,12.20755029296875,-0.15591657161712646,4.759756565093994,0.788612961769104
1779959032523882500,12.223882568359375,-2.2513952255249023,4.567027568817139,1.3819923400878906
1779959032540204000,12.2402041015625,-2.8032894134521484,3.7725424766540527,1.7328240871429443
1779959032556546600,12.256546630859376,-1.0865609645843506,3.445620059967041,1.8584905862808228
1779959032572884700,12.272884765625,0.906356155872345,3.78371524810791,1.6662386655807495
1779959032589218300,12.28921826171875,1.3998222351074219,4.520111083984375,1.45726478099823
1779959032605548500,12.305548583984375,-0.030306339263916016,5.510280609130859,0.08577978610992432
1779959032621875700,12.321875732421875,-1.3406891822814941,3.7354822158813477,-0.2560250759124756
1779959032638206500,12.33820654296875,-1.107020616531372,0.4942636489868164,1.505768895149231
1779959032654558700,12.354558837890625,-0.2983253002166748,-0.4262962341308594,3.2698941230773926
1779959032670874000,12.3708740234375,-0.029357194900512695,0.38112354278564453,4.2455363273620605
1779959032687194400,12.3871943359375,-0.026403188705444336,0.5584774017333984,3.507333278656006
1779959032703548200,12.403548095703124,-3.4017858505249023,-1.1631536483764648,2.1356637477874756
1779959032719869200,12.419869140625,-6.979978561401367,-9.074020385742188,1.4412992000579834
1779959032736208600,12.436208740234376,-1.2827644348144531,-14.078042984008789,1.3101646900177002
1779959032752550400,12.45255029296875,4.051985740661621,-9.813589096069336,0.44644758105278015
1779959032768882000,12.4688818359375,5.151288986206055,-4.3597211837768555,-2.366807699203491
1779959032785216000,12.485216064453125,2.2930541038513184,-1.6898069381713867,-3.703249931335449
1779959032801587500,12.50158740234375,1.125622272491455,-0.5753335952758789,-2.9112839698791504
1779959032817880800,12.517880859375,1.608665943145752,-0.4190864562988281,-1.5001925230026245
1779959032834232800,12.53423291015625,2.6923091411590576,0.6991167068481445,-1.064602017402649
1779959032850566400,12.55056640625,3.152892589569092,2.555056095123291,-0.691482663154602
1779959032866898400,12.5668984375,2.9044790267944336,3.919877767562866,-0.005790591239929199
1779959032883218400,12.583218505859374,2.4091615676879883,4.063857555389404,0.3567504286766052
1779959032899553000,12.599552978515625,1.7694637775421143,4.249535083770752,0.05460631847381592
1779959032915886000,12.615885986328125,0.9660866260528564,4.7588934898376465,-0.35789644718170166
1779959032932226600,12.6322265625,-0.07790470123291016,5.428147315979004,-0.33431243896484375
1779959032948555500,12.648555419921875,-0.9635634422302246,4.602960586547852,0.3454357385635376
1779959032964895000,12.66489501953125,-1.061891794204712,1.3584632873535156,1.3830668926239014
1779959032981211000,12.6812109375,-0.2719724178314209,0.42949867248535156,3.1258535385131836
1779959032997548500,12.697548583984375,-0.1607506275177002,-1.0915346145629883,4.3924784660339355
1779959033013885000,12.713885009765624,-0.9327679872512817,-1.0230073928833008,5.405445575714111
1779959033030217500,12.730217529296874,-0.7224551439285278,1.565744400024414,1.8982367515563965
1779959033046550000,12.746550048828125,-3.696338176727295,0.3033123016357422,-0.7039317488670349
1779959033062897700,12.762897705078124,-7.397368431091309,-4.403935432434082,-2.13034725189209
1779959033079234800,12.77923486328125,-3.339324951171875,-5.406429290771484,-3.006507158279419
1779959033095562800,12.795562744140625,8.965444564819336,-4.281155586242676,-1.9958362579345703
1779959033111892200,12.811892333984375,10.258928298950195,-6.526083946228027,-3.007535696029663
1779959033128232200,12.828232177734375,-13.353151321411133,-8.853143692016602,-8.217144012451172
1779959033144569900,12.84456982421875,-0.3897559642791748,-2.2603025436401367,-3.2165300846099854
1779959033160900400,12.860900390625,8.11106014251709,1.858508586883545,4.590915679931641
1779959033177235700,12.877235595703125,3.608658790588379,-0.5096807479858398,4.8704986572265625
1779959033193570800,12.89357080078125,-2.264115333557129,-9.691102027893066,3.404170513153076
1779959033209899500,12.9098994140625,-4.581748008728027,-11.012003898620605,1.5815951824188232
1779959033226239200,12.9262392578125,1.0342684984207153,-1.480093002319336,1.0885248184204102
1779959033242574000,12.942573974609376,1.6153321266174316,1.8549718856811523,1.0246206521987915
1779959033258892300,12.958892333984375,-0.5841302871704102,3.462210178375244,0.7375836372375488
1779959033275229000,12.97522900390625,-2.366560459136963,4.092946529388428,1.2295433282852173
1779959033291579600,12.99157958984375,0.09436094760894775,4.577829360961914,1.6489043235778809
1779959033307909400,13.007909423828124,0.3948327302932739,4.670042037963867,1.1569609642028809
1779959033324244500,13.024244384765625,-1.1233952045440674,3.352635383605957,-0.026586711406707764
1779959033340579300,13.040579345703126,-2.886761426925659,2.1658358573913574,-0.7129617929458618
1779959033356909800,13.056909912109376,-1.5590064525604248,0.9973974227905273,0.055505216121673584
1779959033373267000,13.073266845703126,-0.20590949058532715,1.6407546997070312,0.9906724691390991
1779959033389575400,13.089575439453125,-1.3198573589324951,1.8968310356140137,0.6551789045333862
1779959033405911000,13.1059111328125,-1.985748529434204,1.3422317504882812,0.1752036213874817
1779959033422253300,13.12225341796875,-0.13798165321350098,1.348191261291504,0.49261051416397095
1779959033438583300,13.138583251953126,0.9886074066162109,1.9004483222961426,1.3173408508300781
1779959033454919000,13.1549189453125,1.2490334510803223,2.3181166648864746,2.0038938522338867
1779959033471250400,13.17125048828125,-0.43463563919067383,1.4770030975341797,2.511070728302002
1779959033487577900,13.187577880859376,-0.5908088684082031,-1.382089614868164,2.69586443901062
1779959033503919600,13.203919677734374,0.7957034111022949,-4.1077470779418945,2.844986915588379
1779959033520255700,13.220255859375,1.4047536849975586,-4.554326057434082,3.996694326400757
1779959033536588300,13.23658837890625,4.597262382507324,-4.305766582489014,1.4924180507659912
1779959033552925000,13.252925048828125,3.6605050563812256,-2.874566078186035,-0.7145220041275024
1779959033569239300,13.2692392578125,1.3126821517944336,-1.3127779960632324,-1.5198497772216797
1779959033585579800,13.285579833984375,1.0821070671081543,-0.4919443130493164,-2.7180073261260986
1779959033601914400,13.301914306640626,0.9146542549133301,-0.08382463455200195,-3.1590802669525146
1779959033618248400,13.31824853515625,0.2286834716796875,1.2520837783813477,-1.6305580139160156
1779959033634582500,13.33458251953125,-0.7701592445373535,2.4522008895874023,-0.056649088859558105
1779959033650910500,13.350910400390624,-2.1057262420654297,2.518620491027832,0.6455105543136597
1779959033667265300,13.367265380859376,-2.462353229522705,1.9924516677856445,0.43613243103027344
1779959033683596800,13.3835966796875,-1.6718406677246094,1.777611255645752,-0.7512670755386353
1779959033699921700,13.399921630859374,0.41080737113952637,1.5125665664672852,-1.6603641510009766
1779959033716266500,13.4162666015625,2.872877597808838,1.5360417366027832,-0.45659661293029785
1779959033732602600,13.4326025390625,3.9888694286346436,2.3962674140930176,0.8974791765213013
1779959033748930000,13.448929931640626,3.5612730979919434,-0.834808349609375,1.5148050785064697
1779959033765268200,13.465268310546875,1.203129529953003,-1.0114450454711914,1.6782900094985962
1779959033781619500,13.481619384765626,-0.6659082174301147,-0.6674365997314453,1.7453259229660034
1779959033797971000,13.497970947265625,-1.0065821409225464,0.4047966003417969,1.4572298526763916
1779959033814267400,13.514267333984375,-2.957706928253174,1.7019634246826172,0.11614731699228287
1779959033830617600,13.53061767578125,-6.5051727294921875,2.0769248008728027,-1.8172039985656738
1779959033846952700,13.54695263671875,-9.145926475524902,2.6726112365722656,-3.26481556892395
1779959033863271700,13.563271728515625,-9.668935775756836,2.1991467475891113,-4.052912712097168
1779959033879619800,13.579619873046875,7.144631385803223,-1.329996109008789,-2.5726630687713623
1779959033895934000,13.595933837890625,14.423018455505371,-1.3320245742797852,1.8266125917434692
1779959033912278800,13.61227880859375,10.472079277038574,-2.27907657623291,3.2825303077697754
1779959033928610600,13.628610595703124,-3.3848752975463867,-4.584176063537598,0.049052461981773376
1779959033944943400,13.644943359375,-9.62771224975586,-7.226612091064453,-1.8230390548706055
1779959033961278700,13.66127880859375,1.0526502132415771,-1.8549909591674805,2.380680799484253
1779959033977611300,13.677611328125,1.6459107398986816,-2.5760936737060547,3.138396978378296
1779959033993962000,13.6939619140625,-8.149484634399414,-11.120935440063477,1.907026767730713
1779959034010294000,13.7102939453125,-2.1681809425354004,-8.91614055633545,-2.0064918994903564
1779959034026609400,13.726609375,4.562408447265625,-1.344686508178711,-0.9987190365791321
1779959034042966300,13.74296630859375,2.6160473823547363,2.4086155891418457,0.9051722288131714
1779959034059285500,13.759285400390626,1.2365742921829224,4.973907470703125,2.0433273315429688
1779959034075633000,13.7756328125,-1.6956382989883423,6.457776069641113,2.850839376449585
1779959034091968300,13.79196826171875,-1.934800624847412,4.210058689117432,2.5226244926452637
1779959034108298800,13.808298828125,-0.6221612691879272,0.6040658950805664,2.308396339416504
1779959034124634600,13.824634521484375,1.6393784284591675,-1.447035789489746,3.039268732070923
1779959034140939000,13.84093896484375,-1.0692452192306519,0.43840599060058594,2.2583017349243164
1779959034157287700,13.85728759765625,-2.8415210247039795,2.2916107177734375,0.5460478067398071
1779959034173623000,13.873623046875,-1.707417368888855,3.634535789489746,-0.6130656599998474
1779959034189945000,13.889945068359374,-0.8987491130828857,3.701402187347412,-0.8179706931114197
1779959034206290200,13.906290283203125,-1.3748441934585571,3.0582199096679688,0.21014957129955292
1779959034222626000,13.9226259765625,-1.7165560722351074,2.455084800720215,0.8714208602905273
1779959034238962000,13.9389619140625,-0.567805290222168,1.404372215270996,2.343611240386963
1779959034255294200,13.955294189453125,0.77089524269104,0.8021669387817383,2.6986982822418213
1779959034271626500,13.97162646484375,0.4178807735443115,0.3227663040161133,2.0012176036834717
1779959034287978200,13.987978271484375,-0.9043154716491699,-2.4726181030273438,1.7837826013565063
1779959034304310000,14.00431005859375,-2.1247124671936035,-6.622720718383789,1.762606143951416
1779959034320644000,14.02064404296875,-1.858902931213379,-8.844625473022461,2.5659210681915283
1779959034336977400,14.036977294921876,0.12766790390014648,-8.628296852111816,1.214972972869873
1779959034353313000,14.05331298828125,1.6306326389312744,-6.030524253845215,-1.9245834350585938
1779959034369616000,14.069615966796874,1.4478974342346191,-3.5332741737365723,-2.80234694480896
1779959034385966300,14.08596630859375,3.055614709854126,-0.898228645324707,-2.186391592025757
1779959034402288400,14.102288330078125,3.2211532592773438,1.5981817245483398,-1.3152005672454834
1779959034418645000,14.11864501953125,1.8343591690063477,2.8396148681640625,-1.362410545349121
1779959034434971600,14.1349716796875,0.18752384185791016,1.6357359886169434,-1.205588936805725
1779959034451304700,14.1513046875,0.4779691696166992,1.104753017425537,-0.7911611795425415
1779959034467622700,14.16762255859375,0.8883442878723145,1.585371971130371,-0.6198900938034058
1779959034483960300,14.183960205078124,1.0676007270812988,1.8184361457824707,-0.3994588851928711
1779959034500294700,14.200294677734375,0.9954710006713867,1.653304100036621,-0.18911826610565186
1779959034516629000,14.21662890625,1.909069538116455,1.713033676147461,-0.33383381366729736
1779959034532962600,14.232962646484374,3.502955436706543,1.9997968673706055,-0.45023244619369507
1779959034549297400,14.24929736328125,4.492001056671143,2.889293670654297,0.14377951622009277
1779959034565631000,14.265630859375,4.042344570159912,4.513608455657959,0.7451560497283936
1779959034581965800,14.2819658203125,2.8694052696228027,4.120811462402344,1.2431700229644775
1779959034598300400,14.298300537109375,2.036879062652588,1.8796896934509277,1.9258265495300293
1779959034614634500,14.314634521484376,0.4445195198059082,2.403952121734619,2.916304111480713
1779959034630967800,14.3309677734375,-0.14668035507202148,2.5685157775878906,2.975097179412842
1779959034647316700,14.347316650390624,0.10304832458496094,0.40270233154296875,0.4394850730895996
1779959034663649300,14.363649169921874,-0.6060769557952881,-1.8845558166503906,-2.756986379623413
1779959034679970600,14.379970458984374,-4.040019989013672,-2.189242362976074,-3.393522262573242
1779959034696316400,14.39631640625,-8.966081619262695,-1.7359857559204102,-1.9172279834747314
1779959034712652000,14.412652099609375,-8.750922203063965,-3.264881134033203,-3.0179381370544434
1779959034728989200,14.4289892578125,-6.836729526519775,-4.006791114807129,-3.334411382675171
1779959034745320200,14.4453203125,4.439640045166016,-4.094888687133789,-1.985656499862671
1779959034761654500,14.461654541015625,12.286530494689941,0.19772052764892578,0.11313676834106445
1779959034777996800,14.477996826171875,10.285215377807617,0.7626914978027344,2.9191408157348633
1779959034794340000,14.494340087890626,5.5300374031066895,-2.690892219543457,3.7241125106811523
1779959034810669600,14.510669677734375,-4.541595458984375,-2.357121467590332,1.1480538845062256
1779959034827016200,14.52701611328125,-9.334546089172363,-1.4866085052490234,3.2933168411254883
1779959034843326500,14.543326416015624,-9.227916717529297,-10.044589042663574,2.431396722793579
1779959034859674600,14.559674560546876,3.1783981323242188,-10.7857084274292,0.17469653487205505
1779959034875990000,14.575989990234374,2.2001748085021973,-3.425539016723633,-0.6927980780601501
1779959034892327400,14.592327392578126,1.3984181880950928,-0.6924219131469727,-1.2058464288711548
1779959034908666000,14.608666015625,1.5134670734405518,3.2881875038146973,-0.24172000586986542
1779959034924996600,14.62499658203125,1.2337491512298584,4.979701995849609,1.5946733951568604
1779959034941330200,14.641330078125,0.41491174697875977,4.5551581382751465,2.8422842025756836
1779959034957651500,14.6576513671875,1.2969276905059814,1.9164314270019531,2.8020315170288086
1779959034974005500,14.674005615234375,0.28465020656585693,1.3692550659179688,1.9853124618530273
1779959034990342700,14.6903427734375,-3.2375593185424805,0.8730907440185547,0.7912654876708984
1779959035006698800,14.70669873046875,-3.44563364982605,1.3314266204833984,0.6503886580467224
1779959035022996200,14.722996337890624,-0.90850830078125,2.4625706672668457,1.2284355163574219
1779959035039348000,14.739347900390625,-0.394320011138916,2.8279781341552734,1.7921990156173706
1779959035055688400,14.7556884765625,-0.6315536499023438,3.3474411964416504,1.733062505722046
1779959035072003000,14.772003173828125,-1.0256316661834717,4.012302875518799,1.1961084604263306
1779959035088349400,14.788349365234374,-0.5399324893951416,3.05684757232666,1.595874309539795
1779959035104686600,14.8046865234375,0.08852672576904297,2.1142215728759766,2.4363276958465576
1779959035121025800,14.82102587890625,-0.17218613624572754,1.1278820037841797,3.2484045028686523
1779959035137352000,14.83735205078125,-0.6828572750091553,0.08040523529052734,2.993624448776245
1779959035153658000,14.853658203125,-0.8131165504455566,-1.6865053176879883,1.7629735469818115
1779959035169996500,14.86999658203125,-1.1872920989990234,-3.4236278533935547,1.5365495681762695
1779959035186342100,14.886342041015626,-1.1261916160583496,-5.132533073425293,1.5220320224761963
1779959035202677500,14.902677490234375,-2.5884475708007812,-6.750517845153809,1.4944498538970947
1779959035219012600,14.9190126953125,-1.7862286567687988,-6.45035457611084,0.70264732837677
1779959035235346000,14.935345947265626,1.1353535652160645,-3.508711814880371,-0.37715208530426025
1779959035251681000,14.951680908203125,3.93601655960083,-0.8068380355834961,-1.858669638633728
1779959035268026600,14.968026611328124,3.5528879165649414,0.1567535400390625,-3.74306058883667
1779959035284362000,14.984362060546875,1.573091983795166,-0.9439101219177246,-4.175209999084473
1779959035300695800,15.00069580078125,-0.20104026794433594,-1.8276309967041016,-2.368298053741455
1779959035317029400,15.017029296875,0.4290590286254883,-1.5012993812561035,-0.7145857810974121
1779959035333365500,15.033365478515625,1.111623764038086,-0.1571345329284668,0.17419874668121338
1779959035349682700,15.0496826171875,1.7126736640930176,1.7076091766357422,0.5178641080856323
1779959035366029600,15.066029541015626,2.3002028465270996,3.256134510040283,0.3039515018463135
1779959035382353700,15.082353759765626,3.711791515350342,3.4451966285705566,-0.7840194702148438
1779959035398696200,15.0986962890625,3.9098567962646484,2.8966541290283203,-0.9749875068664551
1779959035415010800,15.1150107421875,3.5794811248779297,2.5214195251464844,-0.5651841163635254
1779959035431356200,15.131356201171876,3.086845636367798,2.4630064964294434,-0.12114155292510986
1779959035447689500,15.147689453125,1.8461591005325317,2.4108309745788574,0.2473868727684021
1779959035464024600,15.164024658203125,-0.6178817749023438,2.4081521034240723,0.7444313764572144
1779959035480375300,15.180375244140626,-2.6080334186553955,2.847578525543213,1.7162761688232422
1779959035496702500,15.196702392578125,-2.782039165496826,2.7228169441223145,3.1989057064056396
1779959035513044000,15.2130439453125,-0.9090437889099121,2.500387191772461,4.208714962005615
1779959035529373400,15.22937353515625,0.2826465368270874,0.6465530395507812,4.466106414794922
1779959035545707800,15.245707763671875,1.2802116870880127,1.6858892440795898,0.7409308552742004
1779959035562044000,15.2620439453125,-1.149993896484375,2.1626458168029785,-0.7954744696617126
1779959035578363400,15.27836328125,-2.334733009338379,2.715275764465332,-0.6267886757850647
1779959035594712300,15.29471240234375,-5.869231224060059,1.7899127006530762,-0.8605340719223022
1779959035611046400,15.31104638671875,-3.5141515731811523,-4.870316505432129,-3.431769371032715
1779959035627379200,15.327379150390625,9.602307319641113,-2.9126319885253906,-3.9642419815063477
1779959035643697400,15.343697509765626,14.861795425415039,-6.114850997924805,-4.396473407745361
1779959035660022300,15.360022216796875,3.632394313812256,-8.50786018371582,-6.27745246887207
1779959035676363500,15.376363525390625,-20.757713317871094,-8.398567199707031,-7.611961364746094
1779959035692703500,15.392703369140625,1.5361695289611816,-4.988202095031738,3.9308791160583496
1779959035709038000,15.4090380859375,5.533505439758301,-1.3057498931884766,7.272562026977539
1779959035725372200,15.4253720703125,-4.688760280609131,-2.99493408203125,4.367610931396484
1779959035741706200,15.441706298828125,-7.473650932312012,-7.273523330688477,2.1013379096984863
1779959035758057200,15.45805712890625,0.33314013481140137,-2.265915870666504,2.3131425380706787
1779959035774387700,15.4743876953125,2.749077320098877,1.2863054275512695,3.1392269134521484
1779959035790690600,15.490690673828125,1.7772327661514282,2.4085593223571777,2.6077613830566406
1779959035807057700,15.5070576171875,0.3961610794067383,3.0254440307617188,1.7182374000549316
1779959035823384800,15.523384765625,0.5149184465408325,3.383347511291504,1.9349098205566406
1779959035839711200,15.539711181640625,-0.1895735263824463,2.233403205871582,1.4049937725067139
1779959035856060000,15.556059814453125,-2.6548330783843994,-0.288970947265625,0.8975871801376343
1779959035872378000,15.572378173828126,-2.0375185012817383,-1.7883491516113281,1.2004972696304321
1779959035888714500,15.588714599609375,0.44652676582336426,-0.004601478576660156,2.2529420852661133
1779959035905048300,15.60504833984375,0.11038863658905029,1.8412551879882812,2.8280839920043945
1779959035921382400,15.62138232421875,-0.46273279190063477,2.561896800994873,2.1632373332977295
1779959035937715200,15.637715087890625,-1.2851102352142334,2.6419730186462402,0.8013565540313721
1779959035954038800,15.654038818359375,-1.9022659063339233,1.9319181442260742,0.47712284326553345
1779959035970401000,15.670401123046876,-0.5140260457992554,1.3070135116577148,1.601597547531128
1779959035986732000,15.68673193359375,0.38195693492889404,1.2246265411376953,3.031397819519043
1779959036003067400,15.7030673828125,0.27621543407440186,0.5309925079345703,4.603250503540039
1779959036019400400,15.719400390625,-0.8204376697540283,0.7140769958496094,5.847617149353027
1779959036035735000,15.735735107421876,-1.7421798706054688,0.2491769790649414,6.206066608428955
1779959036052071200,15.7520712890625,-2.486813545227051,-0.7045278549194336,6.6061015129089355
1779959036068401400,15.7684013671875,-0.33461761474609375,-1.3142318725585938,5.818567276000977
1779959036084737800,15.78473779296875,0.2649737596511841,-2.8194360733032227,5.062202453613281
1779959036101074200,15.80107421875,0.11903238296508789,-4.458150863647461,3.9505748748779297
1779959036117398300,15.817398193359375,-0.2499990463256836,-5.354287147521973,2.645249843597412
1779959036133714000,15.8337138671875,-0.5979809761047363,-6.075985908508301,1.4391827583312988
1779959036150048300,15.85004833984375,-0.46169281005859375,-7.154035568237305,0.36905980110168457
1779959036166393900,15.866393798828126,-0.1854848861694336,-7.193020820617676,0.11135143041610718
1779959036182722000,15.88272216796875,1.0712876319885254,-5.499314308166504,0.5594149827957153
1779959036199064300,15.899064208984376,1.8405883312225342,-4.09034538269043,2.130218744277954
1779959036215398000,15.91539794921875,3.0279970169067383,-2.3761587142944336,3.371697187423706
1779959036231731700,15.931731689453125,2.525653839111328,-1.5001859664916992,5.010185718536377
1779959036248068000,15.948068115234374,2.863980293273926,-1.4937620162963867,6.323820114135742
1779959036264414500,15.96441455078125,2.8829360008239746,-2.824295997619629,6.843283653259277
1779959036280727300,15.980727294921875,4.1979780197143555,-4.595625877380371,6.361135482788086
1779959036297081900,15.997081787109375,5.74293327331543,-5.120061874389648,5.044687747955322
1779959036313398500,16.0133984375,5.928714752197266,-3.9186391830444336,4.024845123291016
1779959036329735200,16.029735107421875,5.296734809875488,-2.3894519805908203,3.648010730743408
1779959036346088400,16.04608837890625,5.338795185089111,-1.661177635192871,3.6702158451080322
1779959036362400500,16.062400390625,5.696722507476807,-1.3437433242797852,3.6985342502593994
1779959036378744300,16.078744384765624,5.429861545562744,-1.4027624130249023,3.975829839706421
1779959036395073800,16.09507373046875,5.155318737030029,-1.704498291015625,4.492288589477539
1779959036411397600,16.111397705078126,5.653334617614746,-2.3832969665527344,4.832080841064453
1779959036427741000,16.127740966796875,5.6650824546813965,-3.2810163497924805,4.2474236488342285
1779959036444076300,16.144076171875,5.705205917358398,-4.1290130615234375,3.5164380073547363
1779959036460394800,16.160394775390625,5.625518798828125,-4.8434247970581055,2.7104978561401367
1779959036476744000,16.176743896484375,5.697024345397949,-4.804931640625,1.4951562881469727
1779959036493067800,16.19306787109375,5.318233013153076,-3.8340587615966797,-0.4354056119918823
1779959036509400800,16.20940087890625,4.5989670753479,-3.3563928604125977,-2.0811123847961426
1779959036525736200,16.225736083984376,4.059902667999268,-2.502115249633789,-3.493716239929199
1779959036542069500,16.242069580078127,2.262633800506592,-1.5956525802612305,-3.4675650596618652
1779959036558417400,16.25841748046875,2.1967434883117676,-1.1324291229248047,-1.5197038650512695
1779959036574744000,16.274744140625,2.549877882003784,-0.8245038986206055,0.28578197956085205
1779959036591086600,16.291086669921874,3.4441332817077637,-0.9922695159912109,1.5975898504257202
1779959036607414500,16.30741455078125,3.7387704849243164,-1.3719005584716797,1.9115992784500122
1779959036623752400,16.32375244140625,3.4033985137939453,-1.9829020500183105,1.6561310291290283
1779959036640087000,16.340087158203126,2.7392404079437256,-2.8300929069519043,1.5229305028915405
1779959036656417000,16.3564169921875,2.303844928741455,-3.320488929748535,1.0965418815612793
1779959036672757800,16.3727578125,1.916621208190918,-2.2336935997009277,-0.10449552536010742
1779959036689089500,16.389089599609374,2.092193603515625,-0.6128888130187988,-1.1713471412658691
1779959036705423600,16.405423583984376,2.9167678356170654,-0.585965633392334,-1.6806857585906982
1779959036721758500,16.421758544921875,3.4748570919036865,-0.5053195953369141,-1.90824294090271
1779959036738079700,16.438079833984375,3.5352344512939453,0.35726165771484375,-2.1721088886260986
1779959036754402600,16.454402587890623,3.1750192642211914,0.6862959861755371,-1.8114111423492432
1779959036770778600,16.470778564453123,2.423647403717041,1.4922866821289062,-1.6390869617462158
1779959036787091000,16.487091064453125,2.0603580474853516,2.037186622619629,-1.4256107807159424
1779959036803438800,16.50343896484375,1.9303903579711914,2.7289340496063232,-1.0142500400543213
1779959036819786000,16.519785888671876,1.4502391815185547,3.152162551879883,-0.38196516036987305
1779959036836112100,16.536112060546873,0.9087820053100586,3.3391902446746826,0.4021652936935425
1779959036852431400,16.552431396484376,-0.07358407974243164,3.241407632827759,1.0381903648376465
1779959036868772400,16.5687724609375,-1.0633563995361328,2.4803380966186523,1.344964623451233
1779959036885098800,16.5850986328125,-1.0845308303833008,2.4864768981933594,1.225447654724121
1779959036901434000,16.60143408203125,-0.28305721282958984,2.960622787475586,0.6190274953842163
1779959036917768000,16.617767822265623,-0.6434640884399414,0.8422431945800781,-0.4306374788284302
1779959036934101000,16.63410107421875,-4.126072883605957,-6.17025089263916,-2.134641647338867
1779959036950440200,16.650440185546874,-6.99185848236084,-15.147246360778809,-5.434378147125244
1779959036966795800,16.666795654296877,-0.9454097747802734,-5.657166481018066,-0.9366762638092041
1779959036983107800,16.68310791015625,3.5919580459594727,1.5540657043457031,-0.6014449596405029
1779959036999450400,16.699450439453123,3.3755528926849365,4.571646690368652,-0.5928647518157959
1779959037015786500,16.715786376953126,3.4652066230773926,4.035317897796631,-0.3666609525680542
1779959037032118500,16.732118408203124,2.5530762672424316,1.637704849243164,-0.9515872001647949
1779959037048458200,16.748458251953124,1.0925021171569824,-1.3230104446411133,-1.1377837657928467
1779959037064789800,16.764789794921874,-1.0164942741394043,-6.023828506469727,-0.4786410927772522
1779959037081108000,16.78110791015625,-1.4812946319580078,-6.671648979187012,0.34774670004844666
1779959037097443000,16.797443115234376,-0.1531515121459961,-3.330634117126465,0.2930476665496826
1779959037113762000,16.813761962890624,1.3315708637237549,-0.6467494964599609,-0.7114097476005554
1779959037130099700,16.830099609375,1.684421181678772,0.6207637786865234,-1.5572898387908936
1779959037146434300,16.846434326171874,1.7991057634353638,0.5165386199951172,-0.4455678462982178
1779959037162768600,16.8627685546875,0.7443995475769043,0.04836750030517578,1.4803144931793213
1779959037179102500,16.8791025390625,0.29638099670410156,-0.9105777740478516,3.015380859375
1779959037195453000,16.895452880859374,0.07285904884338379,-1.7666378021240234,3.400974988937378
1779959037211783200,16.911783203125,-0.22275424003601074,-1.7408475875854492,3.353663921356201
1779959037228116700,16.92811669921875,-0.1497182846069336,-1.215505599975586,2.7677130699157715
1779959037244451300,16.944451416015625,-0.6549023389816284,0.08501911163330078,1.0839173793792725
1779959037260786400,16.960786376953124,-1.5248724222183228,1.7657766342163086,-0.30511945486068726
1779959037277119200,16.977119140625,-1.4149662256240845,3.240020751953125,-1.2576453685760498
1779959037293457400,16.99345751953125,-2.065541982650757,5.23410701751709,-1.6263313293457031
1779959037309802000,17.009802001953126,-2.073725938796997,6.210909843444824,-1.150997519493103
1779959037326122000,17.0261220703125,-2.1690053939819336,4.006763935089111,0.6906173825263977
1779959037342468600,17.042468505859375,-2.0740914344787598,0.7304296493530273,2.4876561164855957
1779959037358791200,17.058791259765623,-2.0807785987854004,-0.7871322631835938,3.866121292114258
1779959037375125500,17.07512548828125,-0.6762644052505493,0.09463310241699219,4.287737846374512
1779959037391459300,17.091459228515625,1.6055352687835693,1.2138681411743164,3.673570156097412
1779959037407785500,17.107785400390625,2.246635675430298,-0.09106731414794922,1.7335240840911865
1779959037424128000,17.1241279296875,2.028809070587158,-2.868867874145508,-0.424776554107666
1779959037440463600,17.140463623046877,0.5544021129608154,-5.567590713500977,-2.251798152923584
1779959037456811800,17.156811767578127,-0.5175691246986389,-5.988380432128906,-3.604653835296631
1779959037473145300,17.173145263671874,-2.624311685562134,-6.888711929321289,-4.155878067016602
1779959037489472300,17.18947216796875,-2.8564453125,-7.865565299987793,-3.9236929416656494
1779959037505809400,17.205809326171874,-0.7657928466796875,-6.958956718444824,-1.3765687942504883
1779959037522155000,17.222155029296875,-0.2855604887008667,-5.010409355163574,-0.33632147312164307
1779959037538493000,17.238492919921875,-1.2080228328704834,-2.7332820892333984,-1.781456470489502
1779959037554814200,17.254814208984374,-3.0640947818756104,-2.5370349884033203,-3.0572116374969482
1779959037571133200,17.27113330078125,-3.6617493629455566,-2.9797439575195312,-3.0869555473327637
1779959037587482400,17.287482421875,-3.4357333183288574,-2.629495620727539,-1.832436442375183
1779959037603800800,17.30380078125,-1.690659523010254,-2.5190839767456055,-0.3449435234069824
1779959037620138800,17.320138671875,-0.2710094451904297,-3.7245635986328125,0.26545023918151855
1779959037636471300,17.33647119140625,0.4838240146636963,-4.791810035705566,1.127974271774292
1779959037652807200,17.35280712890625,2.0489754676818848,-4.275270462036133,1.4879448413848877
1779959037669141000,17.36914111328125,9.935142517089844,-0.9799613952636719,-1.584086298942566
1779959037685475000,17.38547509765625,8.724931716918945,0.5484428405761719,-2.1222879886627197
1779959037701809400,17.401809326171875,5.759089946746826,1.0489602088928223,-1.220211386680603
1779959037718142200,17.41814208984375,1.496985673904419,-0.1264476776123047,-0.7850254774093628
1779959037734477000,17.43447705078125,-0.11495733261108398,-1.5285539627075195,0.3950306177139282
1779959037750812200,17.450812255859375,1.5029783248901367,-1.5495624542236328,1.5436224937438965
1779959037767148300,17.467148193359375,4.594675540924072,-0.4228982925415039,1.9124802350997925
1779959037783477000,17.48347705078125,4.957726001739502,1.872908592224121,1.5767760276794434
1779959037799813400,17.4998134765625,5.002806186676025,5.647944450378418,0.640723466873169
1779959037816163600,17.51616357421875,5.7255096435546875,5.718534469604492,0.04333996772766113
1779959037832500500,17.53250048828125,4.483334541320801,5.440812110900879,0.8070263862609863
1779959037848812500,17.5488125,3.6216344833374023,6.483260154724121,1.4765949249267578
1779959037865141800,17.565141845703124,3.145853042602539,7.059736251831055,2.012890338897705
1779959037881485600,17.581485595703125,2.503725051879883,6.870449066162109,2.6070127487182617
1779959037897817900,17.59781787109375,2.200458526611328,7.029273986816406,2.9515392780303955
1779959037914154000,17.614154052734374,1.0081729888916016,6.70360803604126,2.348073959350586
1779959037930488300,17.63048828125,-0.38632965087890625,5.818454742431641,1.601199746131897
1779959037946821400,17.6468212890625,-1.0318260192871094,4.6480817794799805,1.6860685348510742
1779959037963174700,17.663174560546874,0.9533920288085938,3.798889636993408,1.5097591876983643
1779959037979472000,17.679471923828125,0.6127619743347168,0.33147096633911133,-1.2121977806091309
1779959037995812000,17.69581201171875,-6.8013691902160645,-10.099881172180176,-4.540338516235352
1779959038012147500,17.7121474609375,-6.926098823547363,-24.134140014648438,-6.991669654846191
1779959038028480800,17.728480712890626,1.3795957565307617,-11.038667678833008,-3.1049070358276367
1779959038044814800,17.74481494140625,2.6558585166931152,0.09821844100952148,-2.0416336059570312
1779959038061149200,17.761149169921875,4.528214931488037,4.724087238311768,-0.2604410648345947
1779959038077482800,17.777482666015626,6.4522624015808105,4.18128776550293,-0.5830578804016113
1779959038093815800,17.79381591796875,6.1789703369140625,2.4473910331726074,-1.3641886711120605
1779959038110152400,17.81015234375,5.832634449005127,1.116774559020996,-1.5404765605926514
1779959038126485200,17.8264853515625,5.669554710388184,-0.8542098999023438,-1.9012069702148438
1779959038142835700,17.842835693359376,3.20841121673584,-3.8335447311401367,-0.7513670325279236
1779959038159167000,17.8591669921875,1.840143084526062,-6.276215553283691,-0.30080997943878174
1779959038175500500,17.87550048828125,0.3229811191558838,-7.208498954772949,0.7877949476242065
1779959038191835000,17.8918349609375,-1.6514461040496826,-7.612296104431152,3.3746445178985596
1779959038208168200,17.908168212890626,-0.7259845733642578,-2.0483598709106445,3.7972354888916016
1779959038224504800,17.9245048828125,0.4801023006439209,2.669283866882324,2.8281049728393555
1779959038240836600,17.940836669921875,1.0768264532089233,3.80366849899292,0.4381237030029297
1779959038257171000,17.9571708984375,-0.9204500913619995,3.496784210205078,-0.5297000408172607
1779959038273514800,17.9735146484375,-0.8649760484695435,3.178737163543701,-0.8574793338775635
1779959038289841000,17.9898408203125,0.21340227127075195,3.3536362648010254,-0.10017627477645874
1779959038306185700,18.006185791015625,-0.2276839017868042,3.290719985961914,0.7609165906906128
1779959038322512000,18.022511962890626,-1.0661921501159668,2.6334280967712402,1.3387129306793213
1779959038338835200,18.038835205078126,-1.1154510974884033,2.1154098510742188,0.7861983180046082
1779959038355177500,18.055177490234374,-1.0356831550598145,2.3762831687927246,-1.3847978115081787
1779959038371511000,18.071510986328125,-2.2620387077331543,1.7904210090637207,-2.413393974304199
1779959038387847000,18.087846923828124,-4.012023448944092,1.137141227722168,-2.1926212310791016
1779959038404179700,18.1041796875,-4.224153518676758,2.0245566368103027,-0.9148910045623779
1779959038420514000,18.12051416015625,-1.0547876358032227,2.386256694793701,0.3984912633895874
1779959038436864300,18.1368642578125,2.4498088359832764,-0.008175849914550781,1.9355497360229492
1779959038453182000,18.153181884765626,1.665355920791626,-2.52414608001709,2.7105090618133545
1779959038469531000,18.16953076171875,-0.83319091796875,-2.7674827575683594,2.4077420234680176
1779959038485864400,18.185864501953127,0.5804888606071472,-2.336705207824707,2.246516704559326
1779959038502200000,18.202199951171874,-0.04667937755584717,-2.9993467330932617,2.259709358215332
1779959038518531800,18.21853173828125,-1.0615112781524658,-2.446408271789551,1.0849612951278687
1779959038534873000,18.234873046875,-2.1984927654266357,-2.8069639205932617,1.0381718873977661
1779959038551217400,18.251217529296873,-2.251481056213379,-3.7851953506469727,0.528082013130188
1779959038567533300,18.267533203125,-2.4451346397399902,-4.169492721557617,-0.5474573373794556
1779959038583853600,18.283853515625,-2.751638650894165,-4.717723846435547,-1.1981741189956665
1779959038600190000,18.30018994140625,-2.6810989379882812,-5.360939025878906,-0.36606812477111816
1779959038616525000,18.316525146484373,-1.9675465822219849,-5.540618896484375,1.438910961151123
1779959038632859100,18.332859130859376,-1.5351970195770264,-5.08762264251709,2.9973673820495605
1779959038649192700,18.349192626953126,-2.790956974029541,-3.5621843338012695,0.604337751865387
1779959038665523000,18.36552294921875,-3.587228775024414,-2.818678855895996,-2.638686180114746
1779959038681865000,18.381864990234376,-5.2751946449279785,-3.5987796783447266,-4.774300575256348
1779959038698194000,18.39819384765625,-5.112192153930664,-3.4420032501220703,-4.049726486206055
1779959038714528500,18.414528564453125,-2.8464550971984863,-2.483639717102051,-1.4784153699874878
1779959038730864000,18.430864013671876,0.594275712966919,-1.9828481674194336,0.7613358497619629
1779959038747196400,18.447196533203126,2.7798757553100586,-2.1081504821777344,2.378021240234375
1779959038763531500,18.463531494140625,4.649215221405029,-3.41851806640625,3.016509532928467
1779959038779865300,18.479865234375,9.334941864013672,-3.8885927200317383,0.7778782248497009
1779959038796212500,18.49621240234375,6.874701023101807,-2.304804801940918,-2.705571413040161
1779959038812548400,18.51254833984375,2.7988791465759277,-1.534010887145996,-4.840945243835449
1779959038828864300,18.5288642578125,-0.0089111328125,-2.9705543518066406,-4.4234299659729
1779959038845202700,18.54520263671875,0.8311967849731445,-2.8268232345581055,-3.277843952178955
1779959038861537000,18.561537109375,4.225637435913086,-0.9478030204772949,-1.1826645135879517
1779959038877869600,18.57786962890625,6.095667839050293,1.4070720672607422,1.0768967866897583
1779959038894204700,18.59420458984375,4.030954837799072,4.278680801391602,3.1881814002990723
1779959038910539800,18.610539794921873,3.8552069664001465,5.567625045776367,2.6239848136901855
1779959038926875100,18.626875244140624,5.2647929191589355,4.230777740478516,2.2013468742370605
1779959038943205400,18.643205322265626,5.024618625640869,4.4727044105529785,1.4047226905822754
1779959038959550000,18.659550048828127,5.7075629234313965,5.09291410446167,0.4104365110397339
1779959038975885000,18.675885009765626,5.5217976570129395,5.740090847015381,-0.21784043312072754
1779959038992231200,18.692231201171875,4.826255798339844,5.948118686676025,0.003920793533325195
1779959039008542500,18.70854248046875,3.3695693016052246,6.015207767486572,0.46951985359191895
1779959039024890400,18.724890380859375,1.6191339492797852,5.723691463470459,0.08505940437316895
1779959039041216800,18.741216796875,-0.3792295455932617,5.48721170425415,-0.6051590442657471
1779959039057559300,18.757559326171876,-1.1551909446716309,4.8199357986450195,-0.31847095489501953
1779959039073877800,18.773877685546875,1.7419190406799316,5.279267311096191,0.21277964115142822
1779959039090214700,18.790214599609374,5.934825897216797,5.091969013214111,-0.21940970420837402
1779959039106548500,18.806548583984377,3.1981496810913086,0.18311214447021484,-2.0009212493896484
1779959039122883000,18.822883056640624,-6.187600612640381,-13.432703018188477,-4.319821357727051
1779959039139217700,18.8392177734375,-5.995497703552246,-25.129573822021484,-2.917698860168457
1779959039155550700,18.85555078125,-2.655782699584961,-12.148204803466797,1.5457396507263184
1779959039171900000,18.87189990234375,0.09218597412109375,-0.6008286476135254,1.1127039194107056
1779959039188216000,18.888216064453125,2.991116762161255,4.071761608123779,0.4997295141220093
1779959039204556500,18.904556640625,3.270371913909912,5.624563694000244,-0.03169989585876465
1779959039220887600,18.920887451171875,3.514936685562134,6.4370245933532715,-0.5563162565231323
1779959039237221000,18.93722119140625,3.7599267959594727,6.230096340179443,-1.3264451026916504
1779959039253557000,18.953556884765625,4.600582122802734,3.7660574913024902,-1.6779165267944336
1779959039269898800,18.969898681640625,2.766340732574463,-1.3284063339233398,-1.207135796546936
1779959039286240500,18.986240478515626,1.1791815757751465,-8.825445175170898,0.8898023366928101
1779959039302573300,19.0025732421875,1.891358733177185,-14.507036209106445,0.6357707381248474
1779959039318905600,19.018905517578126,-1.482945203781128,-12.94277286529541,1.538785696029663
1779959039335213800,19.0352138671875,-1.3648061752319336,-2.5357656478881836,0.9313626885414124
1779959039351562200,19.051562255859373,0.1362929344177246,1.0271530151367188,-0.1002798080444336
1779959039367898400,19.0678984375,0.8204687833786011,2.1816930770874023,-0.2568225860595703
1779959039384228900,19.084228759765626,1.5105702877044678,3.017566680908203,-0.7923353910446167
1779959039400565200,19.100565185546873,1.2507072687149048,3.551361083984375,-0.674791693687439
1779959039416895000,19.11689501953125,0.011753082275390625,3.7715091705322266,-0.2845555543899536
1779959039433254000,19.13325390625,-1.1093261241912842,4.105291366577148,-0.2188577651977539
1779959039449580000,19.149580078125,-1.4890320301055908,4.410757064819336,0.23153960704803467
1779959039465895700,19.165895751953126,-1.0062686204910278,3.9549455642700195,0.6684688329696655
1779959039482254300,19.18225439453125,-1.101478099822998,3.4452872276306152,0.18921571969985962
1779959039498582800,19.198582763671876,-1.1325018405914307,2.840630054473877,-0.010005712509155273
1779959039514912800,19.214912841796874,-0.836974561214447,2.0381460189819336,0.2452046275138855
1779959039531256600,19.231256591796875,-0.9126138091087341,1.673079490661621,0.5700110197067261
1779959039547584800,19.247584716796876,-0.7401155829429626,1.5309467315673828,0.9409601092338562
1779959039563902000,19.26390185546875,-0.5274451971054077,0.7277708053588867,1.7204471826553345
1779959039580236300,19.280236328125,-0.8584586977958679,-0.6562013626098633,2.6004045009613037
1779959039596582100,19.29658203125,0.22581061720848083,-1.956751823425293,3.234118700027466
1779959039612907800,19.31290771484375,1.5948050022125244,-1.9739007949829102,2.585557222366333
1779959039629243600,19.32924365234375,0.12020653486251831,-1.7638511657714844,1.0236061811447144
1779959039645562400,19.345562255859374,-2.0026865005493164,-2.7387828826904297,-0.7090616226196289
1779959039661901600,19.361901611328125,-2.4770824909210205,-4.972530364990234,-2.0575010776519775
1779959039678244600,19.37824462890625,-1.2778310775756836,-6.523196220397949,-2.053520679473877
1779959039694580000,19.394580078125,-0.37299299240112305,-7.685909271240234,-0.8611531257629395
1779959039710913300,19.410913330078124,-0.9019486904144287,-7.426082611083984,0.08221697807312012
1779959039727247600,19.42724755859375,-1.321041464805603,-4.854315757751465,-0.3273148536682129
1779959039743582700,19.443582763671873,-2.2951982021331787,-2.681051254272461,-0.48083698749542236
1779959039759898600,19.459898681640624,-2.807417631149292,-1.855942726135254,-0.0532916784286499
1779959039776255200,19.476255126953124,-4.049879550933838,-1.7847871780395508,0.009620189666748047
1779959039792599300,19.492599365234376,-5.029570579528809,-2.215719223022461,0.119140625
1779959039808932600,19.5089326171875,-5.203972816467285,-2.997982978820801,0.29782652854919434
1779959039825250800,19.525250732421874,-3.033487319946289,-3.6290807723999023,0.8533981442451477
1779959039841587700,19.541587646484373,-0.34348034858703613,-4.426144599914551,0.6751757860183716
1779959039857921000,19.557921142578124,1.3415566682815552,-5.33431339263916,0.034702420234680176
1779959039874253600,19.574253662109374,5.538755893707275,-4.652137756347656,-0.07569432258605957
1779959039890593000,19.590593017578126,8.82436752319336,-2.8948917388916016,-0.6002457141876221
1779959039906923500,19.606923583984376,6.6565399169921875,-1.188791275024414,-1.0271424055099487
1779959039923258600,19.623258544921875,3.6672024726867676,-0.5797796249389648,-1.5311455726623535
1779959039939606000,19.63960595703125,2.3141472339630127,-0.7853145599365234,-2.0166566371917725
1779959039955937300,19.655937255859374,-0.13724470138549805,-0.6759767532348633,-1.9207137823104858
1779959039972264200,19.67226416015625,1.420496940612793,-0.8824930191040039,-0.9452024698257446
1779959039988601600,19.6886015625,3.925938606262207,0.6939811706542969,0.383550763130188
1779959040004918300,19.704918212890625,5.831033706665039,3.9619827270507812,1.245902419090271
1779959040021251800,19.721251953125,5.876823425292969,5.757354259490967,0.39660751819610596
1779959040037600300,19.737600341796874,5.038428783416748,4.7788825035095215,0.3531140089035034
1779959040053931000,19.753930908203124,4.2427473068237305,3.3945674896240234,0.8055094480514526
1779959040070267000,19.770266845703127,4.480752944946289,2.381702184677124,1.5276901721954346
1779959040086591700,19.786591796875,4.7652506828308105,2.7879652976989746,1.4092588424682617
1779959040102933000,19.80293310546875,4.235706329345703,3.4915974140167236,1.330480694770813
1779959040119269600,19.81926953125,4.030290603637695,5.401895999908447,0.4835972785949707
1779959040135600400,19.835600341796876,3.1137661933898926,5.609142303466797,-0.3758220672607422
1779959040151955200,19.851955078125,0.6575188636779785,5.816123962402344,-0.8100261688232422
1779959040168302600,19.868302490234374,-1.731672763824463,4.967508316040039,-0.412844181060791
1779959040184605000,19.88460498046875,-3.1710143089294434,4.260913372039795,0.9724278450012207
1779959040200934000,19.900933837890626,0.31867218017578125,5.4437336921691895,2.2200493812561035
1779959040217276400,19.9172763671875,4.7089385986328125,5.883627891540527,2.4912331104278564
1779959040233608200,19.933608154296873,1.483579158782959,2.4601826667785645,2.8709535598754883
1779959040249931500,19.949931640625,-7.785186290740967,-11.570381164550781,-0.08210694789886475
1779959040266273800,19.966273681640626,-3.9537434577941895,-28.966678619384766,-5.4803266525268555
1779959040282627600,19.982627685546873,-3.1879849433898926,-12.021774291992188,1.0063667297363281
1779959040298957300,19.998957275390627,1.6123125553131104,2.7503199577331543,-0.6562146544456482
1779959040315276000,20.015276123046874,4.289747714996338,7.334537029266357,-1.2024555206298828
1779959040331613400,20.031613525390625,3.9563632011413574,8.729305267333984,-1.2558155059814453
1779959040347947000,20.047947021484376,5.167544841766357,6.411293029785156,-1.5215981006622314
1779959040364281900,20.06428173828125,6.610065937042236,3.1084208488464355,-1.810736894607544
1779959040380616400,20.080616455078125,4.317836284637451,-3.8594541549682617,-1.974708080291748
1779959040396938200,20.096938232421873,0.9715681076049805,-10.78230094909668,0.4586729407310486
1779959040413298700,20.113298583984374,-1.3470463752746582,-13.388070106506348,1.9324655532836914
1779959040429617200,20.1296171875,-1.1038966178894043,-6.639660835266113,1.0258123874664307
1779959040445961200,20.145961181640626,0.09575629234313965,-1.3117990493774414,1.0889248847961426
1779959040462287600,20.16228759765625,1.308357834815979,0.09071922302246094,1.8953485488891602
1779959040478614300,20.1786142578125,1.836422324180603,0.7891645431518555,2.0293211936950684
1779959040494970400,20.194970458984375,1.8490347862243652,1.718456745147705,1.415696382522583
1779959040511287000,20.211287109375,1.252711534500122,2.2716317176818848,0.8356185555458069
1779959040527622700,20.22762255859375,0.020395994186401367,2.959235668182373,0.6731456518173218
1779959040543959600,20.24395947265625,-0.6868680715560913,3.5856146812438965,-0.116718590259552
1779959040560292400,20.260292236328127,-1.8135913610458374,4.160642147064209,-0.9598868489265442
1779959040576628700,20.276628662109374,-1.518760085105896,4.444408893585205,-1.0167787075042725
1779959040592960000,20.2929599609375,-1.4001879692077637,4.131541728973389,-0.44635510444641113
1779959040609277400,20.30927734375,-1.6818455457687378,3.683565139770508,0.12786298990249634
1779959040625629200,20.325629150390625,-1.8073515892028809,3.2668919563293457,0.345711350440979
1779959040641963500,20.341963623046876,-1.3142976760864258,2.939545154571533,0.3418300747871399
1779959040658278400,20.3582783203125,-0.7913665175437927,2.2413716316223145,0.42561304569244385
1779959040674618600,20.37461865234375,-0.3193378448486328,0.8396835327148438,1.0798660516738892
1779959040690955000,20.390955078125,0.2960955500602722,0.07454395294189453,2.3008241653442383
1779959040707286300,20.407286376953124,1.7033984661102295,-0.26947689056396484,2.8784639835357666
1779959040723621400,20.423621337890626,1.478523850440979,-1.1916446685791016,1.6396055221557617
1779959040739959300,20.439959228515626,-1.135168433189392,-2.1658849716186523,-0.19907379150390625
1779959040756300800,20.45630078125,-2.8973886966705322,-2.8203563690185547,-0.5501015186309814
1779959040772636000,20.472635986328125,-1.7344250679016113,-3.9816293716430664,-0.007939815521240234
1779959040788972500,20.48897265625,-1.2948015928268433,-5.620020866394043,-0.6268367767333984
1779959040805305300,20.505305419921875,-1.9096462726593018,-7.098532676696777,-1.5055197477340698
1779959040821639000,20.521638916015625,-2.2384238243103027,-8.246411323547363,-1.3024370670318604
1779959040837974500,20.537974609375,-1.6209557056427002,-8.978128433227539,0.7101598978042603
1779959040854307300,20.554307373046875,-1.3497580289840698,-8.66281795501709,3.134331464767456
1779959040870642000,20.570641845703125,-1.429807186126709,-4.815991401672363,1.5734505653381348
1779959040886975000,20.58697509765625,-2.7658333778381348,-1.1159734725952148,-1.6227104663848877
1779959040903315700,20.603315673828124,-4.196035861968994,-1.624161720275879,-2.4254562854766846
1779959040919673600,20.619673583984376,-5.115523815155029,-2.399674415588379,-2.1730432510375977
1779959040935975000,20.635974853515624,-6.041424751281738,-3.5104455947875977,-1.273564100265503
1779959040952330200,20.652330322265627,-3.027099847793579,-4.232902526855469,-0.11191308498382568
1779959040968659700,20.66865966796875,-0.003550887107849121,-4.6116132736206055,0.7095410823822021
1779959040985004300,20.68500439453125,1.785423994064331,-5.241617202758789,1.5486410856246948
1779959041001329700,20.70132958984375,3.5334203243255615,-5.356989860534668,1.0223966836929321
1779959041017633000,20.717633056640626,8.232818603515625,-3.898038864135742,-0.6126245260238647
1779959041033983000,20.73398291015625,7.720065116882324,-1.0613393783569336,-1.809553623199463
1779959041050317800,20.75031787109375,3.9542789459228516,0.6851272583007812,-2.0677852630615234
1779959041066652700,20.766652587890626,2.237759590148926,0.8625302314758301,-0.9096457958221436
1779959041082986500,20.782986572265624,1.1693506240844727,-0.1992015838623047,-0.2696523666381836
1779959041099304000,20.799303955078123,0.7918729782104492,-1.0011553764343262,1.0824395418167114
1779959041115658000,20.815657958984374,3.0983426570892334,-0.7305660247802734,2.3180038928985596
