time,seconds_elapsed,z,y,x
1779959020427989200,0.1279892578125,-0.2255619913339615,-2.255925416946411,2.892446994781494
1779959020444656000,0.14465625,-0.2788599729537964,-1.7130188941955566,2.102750778198242
1779959020461044000,0.1610439453125,-0.44623705744743347,-1.4442381858825684,1.0387763977050781
1779959020477377300,0.177377197265625,-0.6563746929168701,-1.7062993049621582,-0.04138612002134323
1779959020493713400,0.19371337890625,0.48579058051109314,-2.1427626609802246,-1.0059423446655273
1779959020510059000,0.21005908203125,4.165337562561035,-2.4692699909210205,-1.7692184448242188
1779959020526390000,0.22639013671875,4.2946882247924805,-4.386623382568359,-2.110692024230957
1779959020542726400,0.242726318359375,1.7915149927139282,-5.793751239776611,-2.02929425239563
1779959020559060500,0.259060546875,1.0005972385406494,-5.708993911743164,-0.7858781218528748
1779959020575395600,0.2753955078125,1.7979291677474976,-6.56237268447876,1.152855396270752
1779959020591728000,0.29172802734375,2.523178815841675,-7.2427239418029785,2.956282377243042
1779959020608043300,0.308043212890625,3.623499870300293,-7.908719539642334,4.007734298706055
1779959020624397600,0.3243974609375,4.851644515991211,-7.384749889373779,3.9376373291015625
1779959020640732200,0.340732177734375,5.6488237380981445,-6.495024681091309,3.057380437850952
1779959020657064000,0.35706396484375,6.260605335235596,-5.768247604370117,2.171778678894043
1779959020673417700,0.373417724609375,6.6900434494018555,-5.29665994644165,1.5995506048202515
1779959020689734000,0.38973388671875,7.414682388305664,-4.019798755645752,1.0351111888885498
1779959020706080300,0.406080322265625,7.9994330406188965,-3.397785186767578,0.7141014933586121
1779959020722416000,0.422416015625,7.7147698402404785,-3.015688896179199,1.0592403411865234
1779959020738752500,0.43875244140625,6.423247814178467,-1.976149082183838,1.550986886024475
1779959020755085300,0.455085205078125,4.703051567077637,-1.8860464096069336,2.068847894668579
1779959020771425500,0.471425537109375,3.830125093460083,-2.331367254257202,2.364506721496582
1779959020787748400,0.487748291015625,3.525303363800049,-1.778228759765625,2.2230913639068604
1779959020804091100,0.504091064453125,2.1820106506347656,-1.4701999425888062,1.5575536489486694
1779959020820425200,0.52042529296875,0.12629638612270355,-2.4750733375549316,0.30405816435813904
1779959020836754400,0.53675439453125,-0.2678644061088562,-1.224173903465271,-0.755182147026062
1779959020853090300,0.55309033203125,0.2788599729537964,0.4086688458919525,-0.9292787313461304
1779959020869423400,0.56942333984375,0.1696678251028061,0.9301950335502625,-0.66584312915802
1779959020885739300,0.5857392578125,0.2122756689786911,1.5419765710830688,-0.14905111491680145
1779959020910236200,0.610236083984375,-0.39904773235321045,1.8428276777267456,-0.6192646622657776
1779959020926591700,0.626591796875,-1.1702650785446167,2.1036672592163086,-0.9969320893287659
1779959020942913800,0.642913818359375,-0.4337143301963806,3.400075912475586,-0.46211954951286316
1779959020959237600,0.659237548828125,-0.49235737323760986,1.9295705556869507,0.10949759185314178
1779959020975579000,0.675578857421875,0.06459899991750717,3.9631409645080566,-0.3066543638706207
1779959020991918300,0.69191845703125,0.8184067010879517,1.9932533502578735,-0.8542950749397278
1779959021008249600,0.70824951171875,1.9007072448730469,2.87503719329834,-1.1475104093551636
1779959021024586200,0.724586181640625,2.4857633113861084,1.783879280090332,-1.4219415187835693
1779959021040905200,0.7409052734375,2.858238458633423,-0.20265454053878784,-1.1672108173370361
1779959021057251000,0.7572509765625,3.0360002517700195,-0.0656680166721344,-0.6351471543312073
1779959021073583400,0.773583251953125,2.5718953609466553,1.5410603284835815,-0.33857205510139465
1779959021089913300,0.789913330078125,0.5682573914527893,1.1006264686584473,-0.6876815557479858
1779959021106237700,0.80623779296875,-0.4917465150356293,0.5028948187828064,-1.3022119998931885
1779959021122594300,0.82259423828125,0.3104722499847412,-0.3599523603916168,-1.8417587280273438
1779959021138925300,0.83892529296875,1.7614299058914185,-1.6235270500183105,-2.1623103618621826
1779959021155255600,0.855255615234375,2.701704263687134,-0.3078760802745819,-1.8616118431091309
1779959021171593000,0.871593017578125,1.1452195644378662,-0.3017674386501312,-1.3975069522857666
1779959021187925800,0.88792578125,0.6136141419410706,-0.6520986557006836,-0.9711230397224426
1779959021204260600,0.904260498046875,0.4996877610683441,-0.5233588218688965,-0.8973610401153564
1779959021220593000,0.920593017578125,0.6956228017807007,-0.9269880056381226,-1.4028520584106445
1779959021236932600,0.9369326171875,1.330464482307434,-1.8303049802780151,-1.6126842498779297
1779959021253267000,0.953266845703125,1.679421305656433,-3.1392364501953125,-1.1759155988693237
1779959021269628000,0.9696279296875,0.7881689071655273,-3.6386189460754395,-0.6438519954681396
1779959021285923600,0.985923583984375,0.3842342495918274,-3.2427780628204346,0.11698069423437119
1779959021302285000,1.00228515625,1.3923145532608032,-2.08747935295105,1.0053315162658691
1779959021318612700,1.01861279296875,1.2608258724212646,-2.431701898574829,1.3361150026321411
1779959021334947000,1.034947021484375,0.6855435371398926,-2.233170509338379,1.3153456449508667
1779959021351282700,1.05128271484375,1.645365595817566,-1.6386460065841675,1.321912407875061
1779959021367619600,1.06761962890625,2.1711678504943848,-1.8383989334106445,0.7177666425704956
1779959021383945500,1.083945556640625,2.2267565727233887,-0.46441030502319336,0.19364428520202637
1779959021400285000,1.100284912109375,1.8942930698394775,0.3068070709705353,-0.1420261710882187
1779959021416599300,1.116599365234375,1.3614659309387207,-0.19379699230194092,0.25564709305763245
1779959021432936200,1.132936279296875,0.9451612234115601,-0.6513350605964661,0.6927211880683899
1779959021449274600,1.149274658203125,0.6861543655395508,0.012980886735022068,0.7785477638244629
1779959021465605400,1.16560546875,0.2093740701675415,1.32863187789917,0.7432702779769897
1779959021481943800,1.18194384765625,0.5577199459075928,1.3810136318206787,-0.029932396486401558
1779959021498276900,1.19827685546875,1.4240796566009521,-0.12553280591964722,-0.3381139039993286
1779959021514612700,1.21461279296875,3.5130860805511475,0.17776179313659668,-0.7704538106918335
1779959021530940000,1.23093994140625,0.4980078935623169,0.35414913296699524,-0.5106833577156067
1779959021547278300,1.2472783203125,0.6394231915473938,0.22479841113090515,-0.4964807331562042
1779959021563617300,1.2636171875,0.6192646622657776,-1.544114589691162,-0.29886582493782043
1779959021579935200,1.279935302734375,0.48166725039482117,-1.4819591045379639,-0.1765400618314743
1779959021596280000,1.296280029296875,0.34544429183006287,-0.4813618063926697,-0.2955060601234436
1779959021612617000,1.312616943359375,0.11285735666751862,0.12339477986097336,-0.3903428912162781
1779959021628949500,1.328949462890625,0.12751811742782593,-0.08857546001672745,-0.285121351480484
1779959021645285000,1.34528515625,0.2721404731273651,-0.451582133769989,-0.08231408894062042
1779959021661636400,1.36163623046875,0.059406645596027374,-0.7073819637298584,0.18585574626922607
1779959021677961200,1.377961181640625,-0.982729434967041,-0.8593347072601318,0.2200642079114914
1779959021694305300,1.39430517578125,-2.3573288917541504,-1.253800868988037,0.931569516658783
1779959021710634500,1.410634521484375,-1.9886717796325684,-1.6898059844970703,1.072068452835083
1779959021726985000,1.42698486328125,-0.8300131559371948,-0.8643743395805359,0.5580254197120667
1779959021743265300,1.443265380859375,0.4853324294090271,-0.4915938079357147,-0.06536258012056351
1779959021759602400,1.4596025390625,1.2877039909362793,0.33017265796661377,-0.5607742667198181
1779959021775957800,1.475957763671875,1.400255799293518,0.6151412725448608,-1.0951286554336548
1779959021792295700,1.492295654296875,1.3720033168792725,0.0835358202457428,-1.1986702680587769
1779959021808626200,1.508626220703125,1.1423180103302002,-0.4486805200576782,-0.5186246037483215
1779959021824963600,1.524963623046875,0.9043859839439392,-1.3825408220291138,-0.0884227454662323
1779959021841294800,1.541294921875,0.6385068893432617,-2.4268147945404053,-0.46379944682121277
1779959021857642000,1.55764208984375,0.351400226354599,-2.060601234436035,-0.7269296646118164
1779959021873965800,1.5739658203125,-0.21609358489513397,-0.4671591818332672,-1.1256719827651978
1779959021890298600,1.590298583984375,-1.0461066961288452,0.7938193678855896,-0.9808968901634216
1779959021906619100,1.606619140625,-0.7316638231277466,0.2561052441596985,-2.235461473464966
1779959021922967800,1.6229677734375,-0.29077184200286865,-1.2513574361801147,-2.8205175399780273
1779959021939301400,1.63930126953125,-0.047189339995384216,-2.629774808883667,-2.7904324531555176
1779959021955635200,1.65563525390625,-0.18417587876319885,-3.1163289546966553,-3.0366110801696777
1779959021971970800,1.671970703125,-0.5768095254898071,-2.099849224090576,-2.3634376525878906
1779959021988303600,1.6883037109375,0.4934264123439789,-2.1810944080352783,-1.5723671913146973
1779959022004635600,1.7046357421875,1.9289597272872925,-2.3570234775543213,-0.8649851679801941
1779959022020979700,1.720979736328125,1.497994303703308,-1.160033106803894,-0.7359399199485779
1779959022037292800,1.737292724609375,-0.032070424407720566,0.17241671681404114,-0.6753115057945251
1779959022053639700,1.7536396484375,-0.16951510310173035,-0.16554448008537292,-0.6322455406188965
1779959022069963000,1.769962890625,0.04153883829712868,-0.24953845143318176,-0.39385536313056946
1779959022086307600,1.7863076171875,0.07299839705228806,-0.23640485107898712,0.0656680166721344
1779959022102644500,1.80264453125,0.03573561832308769,-0.07101308554410934,0.6021603941917419
1779959022118975000,1.81897509765625,-0.11224649101495743,0.23289237916469574,1.1678216457366943
1779959022135312600,1.835312744140625,-0.10644327104091644,0.6029239892959595,1.6397150754928589
1779959022151645200,1.851645263671875,0.10751228034496307,0.8008443117141724,1.9407188892364502
1779959022167991600,1.867991455078125,0.22815817594528198,1.021824836730957,1.8930714130401611
1779959022184314400,1.884314453125,0.3520110845565796,0.9036223888397217,1.9995146989822388
1779959022200670500,1.90067041015625,0.5123631954193115,0.8405506014823914,2.0564777851104736
1779959022216981800,1.916981689453125,0.6565274000167847,0.7699956297874451,2.1957550048828125
1779959022233329400,1.933329345703125,0.6575964093208313,0.5447390675544739,2.8516716957092285
1779959022249664000,1.9496640625,0.3448334336280823,0.45662176609039307,3.5775322914123535
1779959022265993200,1.9659931640625,-0.2756529450416565,0.0780380368232727,3.5822665691375732
1779959022282306600,1.982306640625,-0.7218900322914124,-0.2793181240558624,2.69651198387146
1779959022298662000,1.998661865234375,-0.6918048858642578,0.09666942805051804,1.5682437419891357
1779959022315004400,2.01500439453125,-0.671493649482727,-0.08307767659425735,0.9451612234115601
1779959022331335000,2.0313349609375,-0.7478517889976501,-0.8617781400680542,0.7875580191612244
1779959022347654100,2.047654052734375,-0.749531626701355,-1.0618364810943604,0.3698789179325104
1779959022364002800,2.0640029296875,-0.669966459274292,0.6870706677436829,-0.48487427830696106
1779959022380341200,2.08034130859375,-0.20983220636844635,0.9665415287017822,-0.7192938327789307
1779959022396670200,2.096670166015625,0.14248432219028473,1.7658586502075195,-1.256244421005249
1779959022412989700,2.11298974609375,0.7009678483009338,2.4355196952819824,-1.7130188941955566
1779959022429324000,2.129323974609375,1.3190107345581055,0.5803219676017761,-1.083064079284668
1779959022445649700,2.145649658203125,0.8358163833618164,-2.12397837638855,0.4712825417518616
1779959022461982000,2.16198193359375,-0.1745547503232956,-2.0230329036712646,2.8489227294921875
1779959022478320600,2.178320556640625,-0.8306240439414978,0.578489363193512,1.7757853269577026
1779959022494665000,2.1946650390625,-0.5319108963012695,3.4519994258880615,-2.4992024898529053
1779959022510997500,2.21099755859375,0.17989981174468994,2.7843236923217773,-2.0638082027435303
1779959022527330800,2.227330810546875,0.48869219422340393,0.8494081497192383,-1.098183035850525
1779959022543666400,2.24366650390625,0.3738495409488678,-0.7887797355651855,-0.1976149082183838
1779959022559988000,2.259988037109375,0.2145664244890213,-1.8544341325759888,0.7257078886032104
1779959022576331300,2.276331298828125,0.04153883829712868,-1.8107572793960571,1.3190107345581055
1779959022592671500,2.29267138671875,0.34758231043815613,-0.7835873961448669,1.3072515726089478
1779959022609000400,2.30900048828125,0.5338962078094482,0.2255619913339615,0.6351471543312073
1779959022625341000,2.3253408203125,0.6102544069290161,0.35842517018318176,0.12476922571659088
1779959022641671700,2.341671630859375,0.8077165484428406,0.6270532011985779,0.192422553896904
1779959022658016500,2.3580166015625,0.8755226135253906,0.8497135639190674,0.244804248213768
1779959022674326000,2.374325927734375,0.8712465763092041,0.7895433306694031,0.17073683440685272
1779959022690677500,2.390677490234375,0.8051204085350037,0.7070765495300293,-0.0757472887635231
1779959022707007500,2.407007568359375,0.6852380633354187,0.6354525685310364,-0.423329621553421
1779959022723342300,2.42334228515625,0.5719226002693176,0.44516804814338684,-0.7519751191139221
1779959022739664400,2.439664306640625,0.34773504734039307,0.34605515003204346,-0.8197811841964722
1779959022756008000,2.456008056640625,0.18799377977848053,0.4108068645000458,-0.835969090461731
1779959022772348400,2.472348388671875,0.07971791177988052,0.9891435503959656,-1.0545061826705933
1779959022788691700,2.488691650390625,-0.04077525436878204,1.4297300577163696,-1.510058879852295
1779959022805028900,2.50502880859375,-0.09300423413515091,1.2776246070861816,-2.1960606575012207
1779959022821329700,2.52132958984375,-0.1875356286764145,0.37797287106513977,-3.026531934738159
1779959022837701400,2.537701416015625,-0.14019356667995453,-0.7292203903198242,-3.8534905910491943
1779959022854025000,2.55402490234375,0.12095131725072861,-0.8788823485374451,-4.242153644561768
1779959022870366200,2.5703662109375,0.3113885521888733,-1.2510520219802856,-3.774841785430908
1779959022886680000,2.58668017578125,0.31810808181762695,-1.2634220123291016,-3.375641345977783
1779959022903020800,2.603020751953125,0.4411974251270294,-1.2875511646270752,-3.2753067016601562
1779959022919352600,2.6193525390625,0.5036584138870239,-1.6134477853775024,-2.844646692276001
1779959022935687400,2.6356875,0.5064072608947754,-1.6378824710845947,-2.1650590896606445
1779959022951999000,2.6519990234375,0.11743884533643723,-1.191950798034668,-1.3991868495941162
1779959022968342800,2.6683427734375,-0.050243668258190155,-0.7411322593688965,-0.8460483551025391
1779959022984678700,2.6846787109375,-0.04612032696604729,-0.6736316680908203,-0.44776421785354614
1779959023001011500,2.701011474609375,-0.07467827945947647,-0.5616905689239502,0.01725694350898266
1779959023017346000,2.717345947265625,-0.1739438772201538,-0.2148718535900116,0.517861008644104
1779959023033680600,2.7336806640625,-0.3439171314239502,0.00045814894838258624,0.9503536224365234
1779959023050016300,2.750016357421875,-0.40775254368782043,0.20952677726745605,1.344361662864685
1779959023066348800,2.766348876953125,-0.5572618246078491,0.5308418869972229,1.8625280857086182
1779959023082683000,2.782682861328125,-0.761443555355072,0.6710354685783386,2.4333817958831787
1779959023099032800,2.79903271484375,-0.806647539138794,0.5705481171607971,2.7980682849884033
1779959023115364000,2.815364013671875,-0.6546948552131653,0.3914119005203247,2.830444097518921
1779959023131698000,2.831697998046875,-0.3975205719470978,0.33429601788520813,2.649322509765625
1779959023148031000,2.848031005859375,-0.19364428520202637,0.24266621470451355,2.5641069412231445
1779959023164366300,2.864366455078125,-0.11530081182718277,0.21273382008075714,2.808300256729126
1779959023180701000,2.880700927734375,-0.4616613984107971,0.48487427830696106,3.300352096557617
1779959023197054500,2.897054443359375,-1.2800681591033936,0.7854200005531311,3.5162930488586426
1779959023213379000,2.913379150390625,-1.7814357280731201,0.5862779021263123,3.328146457672119
1779959023229699000,2.929698974609375,-1.5222761631011963,-0.09972374886274338,2.962238311767578
1779959023246049000,2.946049072265625,-1.168279767036438,-1.264796495437622,2.683072805404663
1779959023262372000,2.9623720703125,-0.803135097026825,-2.838843584060669,2.2624921798706055
1779959023278701000,2.978701171875,-0.4486805200576782,-3.9209911823272705,0.2987131178379059
1779959023295040300,2.995040283203125,-0.11789698898792267,-2.3860397338867188,-0.95462965965271
1779959023311374300,3.011374267578125,0.2742784917354584,-0.45326200127601624,-0.9805914163589478
1779959023327707400,3.027707275390625,0.8617781400680542,2.162921190261841,-1.3194689750671387
1779959023344042500,3.04404248046875,0.8686503767967224,4.604244232177734,-2.1820106506347656
1779959023360381000,3.060380859375,1.0781772136688232,4.196186065673828,-1.780824899673462
1779959023376721200,3.07672119140625,0.5264131426811218,-0.08231408894062042,0.07956519722938538
1779959023393047800,3.0930478515625,-0.07742717117071152,-2.19163179397583,2.752558708190918
1779959023409380000,3.109380126953125,-0.8950703144073486,0.18005253374576569,1.8413006067276
1779959023425712000,3.125712158203125,-0.6690501570701599,2.280512571334839,-2.0370829105377197
1779959023442050300,3.14205029296875,0.10735956579446793,2.394897222518921,-2.1759018898010254
1779959023458380500,3.158380615234375,0.27779096364974976,1.00502610206604,-0.9752463698387146
1779959023474727000,3.174726806640625,0.17989981174468994,0.10735956579446793,0.15546520054340363
1779959023491040500,3.19104052734375,0.11301007121801376,-0.43615779280662537,0.9779952764511108
1779959023507383600,3.207383544921875,0.22021691501140594,-0.4207334518432617,1.193477988243103
1779959023523719200,3.22371923828125,0.6337726712226868,-0.45234572887420654,0.9075930118560791
1779959023540065000,3.24006494140625,0.9775370955467224,-0.8469646573066711,0.08964447677135468
1779959023556383000,3.256383056640625,0.9146180152893066,0.033139441162347794,-0.5160284042358398
1779959023572724700,3.272724853515625,0.9135489463806152,1.0563386678695679,-0.5442809462547302
1779959023589056500,3.289056396484375,0.8724682927131653,1.3952162265777588,-0.4178318381309509
1779959023605402600,3.305402587890625,0.7883216142654419,1.18660569190979,-0.4277583956718445
1779959023621724400,3.321724365234375,0.7492262125015259,0.5781839489936829,-0.5300782918930054
1779959023638057500,3.338057373046875,0.6238461136817932,0.4694499373435974,-0.7202101349830627
1779959023654377000,3.354376953125,0.35033121705055237,0.6957755088806152,-0.9560040831565857
1779959023670713900,3.3707138671875,0.1469130963087082,0.8153523802757263,-1.0334312915802002
1779959023687063000,3.38706298828125,0.060933809727430344,0.8101600408554077,-1.1362093687057495
1779959023703395600,3.4033955078125,-0.05650503560900688,1.279915452003479,-1.3350459337234497
1779959023719730400,3.41973046875,-0.10491610318422318,1.6975945234298706,-1.8099937438964844
1779959023736063700,3.436063720703125,-0.12721268832683563,1.4278974533081055,-2.690708637237549
1779959023752398000,3.452398193359375,-0.16798794269561768,0.33597588539123535,-3.5544722080230713
1779959023768729000,3.46872900390625,-0.13347405195236206,-0.3006984293460846,-3.7928624153137207
1779959023785085000,3.4850849609375,-0.2119702398777008,-0.7382306456565857,-3.2360587120056152
1779959023801416000,3.501416015625,-0.2220495194196701,-1.1349875926971436,-2.6511552333831787
1779959023817747700,3.517747802734375,0.08643743395805359,-1.4782938957214355,-2.4688119888305664
1779959023834083000,3.5340830078125,0.28130343556404114,-2.163837432861328,-2.1537580490112305
1779959023850418700,3.550418701171875,0.3908010423183441,-2.0552561283111572,-1.632842779159546
1779959023866750500,3.56675048828125,0.3292563557624817,-1.0737483501434326,-0.9575312733650208
1779959023883068700,3.583068603515625,0.16600263118743896,-0.1661553531885147,-0.08460483700037003
1779959023899406600,3.599406494140625,0.05955936014652252,0.13775011897087097,0.7052439451217651
1779959023915741000,3.615740966796875,-0.17501288652420044,-0.08536841720342636,1.260062336921692
1779959023932087300,3.63208740234375,-0.43127086758613586,-0.3378084897994995,1.5960382223129272
1779959023948394800,3.648394775390625,-0.566730260848999,-0.43997567892074585,1.8588629961013794
1779959023964745000,3.664744873046875,-0.6288857460021973,-0.33276882767677307,2.079232692718506
1779959023981056800,3.681056884765625,-0.6488916277885437,-0.1235474944114685,2.3687827587127686
1779959023997399300,3.6973994140625,-0.5859724879264832,0.11927144229412079,2.7349963188171387
1779959024013733600,3.713733642578125,-0.36193767189979553,0.3396410644054413,3.0689868927001953
1779959024030067000,3.73006689453125,-0.12232576310634613,0.370947927236557,3.2365167140960693
1779959024046401500,3.746401611328125,-0.31322115659713745,0.25793784856796265,3.257286310195923
1779959024062736400,3.762736328125,-1.0181596279144287,-0.3462078869342804,3.1531336307525635
1779959024079069400,3.7790693359375,-1.6013832092285156,-0.6626361012458801,2.9746084213256836
1779959024095404800,3.79540478515625,-1.4640913009643555,-0.547182559967041,2.749504566192627
1779959024111738400,3.81173828125,-0.8726209998130798,-0.5487096905708313,2.09694766998291
1779959024128073500,3.828073486328125,-0.8495608568191528,-0.20387627184391022,1.3593279123306274
1779959024144405800,3.84440576171875,-0.6398813724517822,-0.5763513445854187,1.0427470207214355
1779959024160744400,3.860744384765625,-0.4688390791416168,-2.6904032230377197,0.1189660057425499
1779959024177086200,3.877086181640625,-0.16920967400074005,-3.3350188732147217,-0.6055201888084412
1779959024193422000,3.893422119140625,0.5320636034011841,-1.7284432649612427,-0.3764457106590271
1779959024209757000,3.9097568359375,0.8011497855186462,1.964084506034851,-0.6418666839599609
1779959024226093600,3.926093505859375,0.6589708924293518,5.144401550292969,-1.8402315378189087
1779959024242421800,3.942421875,0.7591527700424194,3.9400808811187744,-2.1097757816314697
1779959024258759000,3.958759033203125,0.3543018400669098,-0.3094032406806946,-0.48548516631126404
1779959024275094500,3.975094482421875,-0.2119702398777008,-1.4854716062545776,2.101987361907959
1779959024291441200,3.991441162109375,-1.1693488359451294,1.557706356048584,1.6061174869537354
1779959024307758300,4.00775830078125,-0.9272934198379517,2.997821092605591,-1.3164145946502686
1779959024324109000,4.024109130859375,-0.1371392458677292,1.5326608419418335,-1.3918564319610596
1779959024340453600,4.04045361328125,0.2295326143503189,0.12736541032791138,-0.44165557622909546
1779959024356776400,4.0567763671875,0.22311852872371674,-0.6896668672561646,0.3159700334072113
1779959024373094400,4.073094482421875,0.03848451003432274,-1.4216361045837402,0.9699012637138367
1779959024389431000,4.08943115234375,0.002138028386980295,-1.4114041328430176,1.4260649681091309
1779959024405767700,4.105767578125,0.22220222651958466,-0.16768251359462738,1.3477214574813843
1779959024422102300,4.122102294921875,0.22739458084106445,0.9373727440834045,0.9963212013244629
1779959024438434300,4.138434326171875,0.26740625500679016,0.9717338681221008,0.7394523620605469
1779959024454784800,4.15478466796875,0.41431936621665955,0.5781839489936829,0.45036038756370544
1779959024471106000,4.17110595703125,0.5357288122177124,0.4703662395477295,0.012675453908741474
1779959024487433200,4.18743310546875,0.6116288304328918,0.7429648637771606,-0.3804163336753845
1779959024503772700,4.203772705078125,0.619111955165863,1.0558805465698242,-0.5474879741668701
1779959024520093000,4.220093017578125,0.479834645986557,1.2060006856918335,-0.5422956347465515
1779959024536439600,4.236439453125,0.1999056488275528,1.138958215713501,-0.4101960062980652
1779959024552772400,4.2527724609375,0.016340645030140877,0.7869471311569214,-0.33658674359321594
1779959024569111600,4.269111572265625,-0.039095375686883926,0.3442225754261017,-0.2715296149253845
1779959024585443000,4.285443115234375,-0.02779436856508255,0.3943135142326355,-0.2997821271419525
1779959024601777700,4.301777587890625,0.033139441162347794,0.7944302558898926,-0.5189300179481506
1779959024618110200,4.318110107421875,0.05360342562198639,0.9410378932952881,-0.8352054953575134
1779959024634445300,4.3344453125,0.052839845418930054,0.19089539349079132,-1.11085844039917
1779959024650780400,4.350780517578125,0.05406157299876213,-0.782976508140564,-1.793653130531311
1779959024667112700,4.36711279296875,0.06811147183179855,-1.5012013912200928,-2.81654691696167
1779959024683465700,4.3834658203125,0.25213462114334106,-1.8135062456130981,-3.8796050548553467
1779959024699791400,4.399791259765625,0.5419901609420776,-1.391703724861145,-4.472908020019531
1779959024716127500,4.41612744140625,0.5688682794570923,-1.0181596279144287,-4.427856922149658
1779959024732451300,4.432451416015625,0.4735732674598694,-1.0239628553390503,-3.7363572120666504
1779959024748793600,4.448793701171875,0.3891211748123169,-1.441641926765442,-3.006831407546997
1779959024765142300,4.465142333984375,0.4153883755207062,-1.903608798980713,-2.4891231060028076
1779959024781447200,4.481447265625,0.32330042123794556,-1.8637498617172241,-1.9917261600494385
1779959024797800200,4.49780029296875,0.1492038369178772,-1.2848023176193237,-1.368032693862915
1779959024814135800,4.5141357421875,0.007024950347840786,-0.85994553565979,-0.8509352803230286
1779959024830452000,4.530451904296875,0.01237002108246088,-0.5268712639808655,-0.555429220199585
1779959024846799000,4.546799072265625,0.11255192011594772,-0.2672535479068756,-0.30741792917251587
1779959024863125500,4.56312548828125,-0.04199698567390442,-0.28328874707221985,0.04092797264456749
1779959024879459800,4.5794599609375,-0.20586158335208893,-0.27870726585388184,0.5114469528198242
1779959024895791000,4.595791015625,-0.3819434940814972,-0.15027284622192383,1.081536889076233
1779959024912129000,4.61212890625,-0.537408709526062,0.06872233748435974,1.6354389190673828
1779959024928460500,4.62846044921875,-0.6145304441452026,0.31902438402175903,2.0986275672912598
1779959024944796000,4.6447958984375,-0.57436603307724,0.4075998365879059,2.4043655395507812
1779959024961133600,4.661133544921875,-0.43875396251678467,0.451582133769989,2.63191294670105
1779959024977471700,4.6774716796875,-0.2451096773147583,0.5320636034011841,2.878549814224243
1779959024993798100,4.693798095703125,-0.005345070734620094,0.6192646622657776,3.173750400543213
1779959025010133000,4.710133056640625,-0.13545936346054077,0.8770498037338257,3.559969902038574
1779959025026466000,4.726466064453125,-1.0256427526474,0.9335548281669617,3.5529448986053467
1779959025042800600,4.742800537109375,-1.266018271446228,0.8093964457511902,2.902984380722046
1779959025059145500,4.7591455078125,-1.1687378883361816,0.7987062931060791,2.2040019035339355
1779959025075469800,4.7754697265625,-0.9153815507888794,0.5862779021263123,1.8834502696990967
1779959025091803600,4.7918037109375,-0.6218608021736145,-0.25564709305763245,1.8452712297439575
1779959025108137000,4.808136962890625,-0.3623957931995392,-1.1212431192398071,1.5830572843551636
1779959025124471600,4.824471435546875,-0.19837848842144012,-1.3684908151626587,0.9323330521583557
1779959025140797200,4.840797119140625,-0.1921171247959137,-0.7849618196487427,0.18875735998153687
1779959025157139500,4.857139404296875,-0.11438451707363129,-0.015577063895761967,-0.1699732542037964
1779959025173474800,4.873474853515625,0.4063780903816223,0.3182607889175415,-0.5352706909179688
1779959025189824500,4.889824462890625,0.4729624092578888,1.3238977193832397,-1.2542591094970703
1779959025206153000,4.906153076171875,0.4902193546295166,2.520735502243042,-1.429271936416626
1779959025222494700,4.92249462890625,0.20311269164085388,1.976149082183838,-0.19715675711631775
1779959025238825200,4.9388251953125,-0.2785545587539673,-0.4688390791416168,1.658041000366211
1779959025255159300,4.9551591796875,-0.8336783647537231,0.34116822481155396,2.5747969150543213
1779959025271494400,4.971494384765625,-1.3947581052780151,2.3133466243743896,1.7887661457061768
1779959025287811600,4.9878115234375,-0.9578366875648499,2.540741205215454,0.7574729323387146
1779959025304181200,5.00418115234375,-0.4440990388393402,1.996002197265625,-0.09239336848258972
1779959025320499200,5.020499267578125,0.12996158003807068,1.3022119998931885,-0.9431759119033813
1779959025336843500,5.036843505859375,0.6333145499229431,0.50335294008255,-0.9425650835037231
1779959025353137200,5.05313720703125,0.6235406994819641,0.02886338345706463,-0.09453139454126358
1779959025369486000,5.069486083984375,0.34697145223617554,0.2125810980796814,0.8886561989784241
1779959025385816800,5.08581689453125,0.44776421785354614,0.7431175708770752,1.7232508659362793
1779959025402156800,5.10215673828125,0.5316054821014404,-0.04688390716910362,1.8816176652908325
1779959025418486800,5.11848681640625,0.4447098970413208,-0.10965031385421753,1.4486669301986694
1779959025434822000,5.13482177734375,0.42638394236564636,0.7924449443817139,0.9983065128326416
1779959025451160000,5.15116015625,0.47601673007011414,1.1913399696350098,0.9338602423667908
1779959025467503400,5.16750341796875,0.6282749176025391,0.8491026759147644,0.8671231865882874
1779959025483821000,5.183821044921875,0.8414669036865234,0.45814892649650574,0.6166684627532959
1779959025500159700,5.20015966796875,1.0013608932495117,0.4889976382255554,0.3827070891857147
1779959025516480800,5.216480712890625,0.874453604221344,0.7889324426651001,0.2814561724662781
1779959025532828200,5.232828125,0.49098294973373413,0.6855435371398926,0.3617849349975586
1779959025549162200,5.249162353515625,0.24785856902599335,0.413097620010376,0.3943135142326355
1779959025565496300,5.265496337890625,0.14294247329235077,0.16019940376281738,0.14767667651176453
1779959025581831000,5.281830810546875,0.05711590126156807,-0.17409659922122955,-0.460897833108902
1779959025598163500,5.29816357421875,-0.0009162978967651725,0.22113321721553802,-0.7710646390914917
1779959025614499800,5.314499755859375,-0.04917465150356293,0.6482807397842407,-0.8775079250335693
1779959025630832000,5.33083203125,-0.005039638374000788,-0.11667526513338089,-1.0349584817886353
1779959025647166200,5.347166259765625,0.08414668589830399,-1.9482020139694214,-1.0819950103759766
1779959025663506700,5.363506591796875,-0.16294831037521362,-3.004082441329956,-1.3151928186416626
1779959025679830000,5.379830078125,-0.8087855577468872,-2.269364356994629,-1.8028160333633423
1779959025696184000,5.39618408203125,-1.21027672290802,-1.5364787578582764,-2.359314203262329
1779959025712517400,5.412517333984375,-1.4508049488067627,-1.4648548364639282,-2.5060746669769287
1779959025728836000,5.428836181640625,-1.6925548315048218,-1.274264931678772,-2.4304800033569336
1779959025745186600,5.4451865234375,-1.7162258625030518,-0.6528622508049011,-2.4376578330993652
1779959025761518800,5.461518798828125,-1.3422236442565918,0.12996158003807068,-2.400394916534424
1779959025777857500,5.477857421875,-0.8863654732704163,0.36102136969566345,-2.412001371383667
1779959025794167300,5.494167236328125,-0.8425359129905701,-1.1100949048995972,-2.118786096572876
1779959025810526000,5.51052587890625,-0.988990843296051,-2.3764185905456543,-2.0641136169433594
1779959025826852000,5.52685205078125,-1.018923282623291,-2.1142046451568604,-2.1621575355529785
1779959025843178500,5.543178466796875,-0.941343367099762,-1.7928894758224487,-1.7472273111343384
1779959025859512600,5.5595126953125,-0.7560984492301941,-2.459190845489502,-1.1859948635101318
1779959025875848200,5.57584814453125,-0.5746715068817139,-3.240640163421631,-1.0447323322296143
1779959025892182500,5.5921826171875,-0.6606507897377014,-3.4570391178131104,-1.09024178981781
1779959025908513000,5.608512939453125,-0.5259549617767334,-3.2536211013793945,-0.8571966290473938
1779959025924853500,5.624853515625,-0.2538145184516907,-3.0973923206329346,-0.4360050559043884
1779959025941168000,5.641168212890625,-0.10064005106687546,-2.9500210285186768,0.03130684420466423
1779959025957504300,5.657504150390625,0.0003054326225537807,-2.649322509765625,0.5386304259300232
1779959025973841200,5.673841064453125,-0.007941247895359993,-2.048689365386963,1.1917980909347534
1779959025990173400,5.69017333984375,-0.11331550031900406,-1.2101240158081055,2.230574369430542
1779959026006508500,5.706508544921875,-0.012828170321881771,-0.540921151638031,3.3405165672302246
1779959026022861300,5.722861328125,0.46013423800468445,-0.0835358202457428,3.467576503753662
1779959026039188700,5.739188720703125,0.8219192028045654,1.904219627380371,1.0651962757110596
1779959026055520800,5.755520751953125,0.7806857824325562,0.845132052898407,-0.8874344825744629
1779959026071859500,5.771859375,-0.33597588539123535,-1.6525431871414185,-1.8509217500686646
1779959026088189700,5.788189697265625,-0.289702832698822,-3.0744848251342773,-1.829999566078186
1779959026104524800,5.80452490234375,0.0013744467869400978,-2.2262983322143555,-1.4918856620788574
1779959026120857000,5.820857177734375,0.06352998316287994,0.09239336848258972,-0.41951170563697815
1779959026137192700,5.837192626953125,-0.7254024744033813,2.8093693256378174,0.7950411438941956
1779959026153527300,5.85352734375,-0.5273294448852539,5.1349334716796875,1.5468635559082031
1779959026169852700,5.869852783203125,0.34865134954452515,4.34096097946167,0.8054258227348328
1779959026186211800,5.8862119140625,-0.2996293902397156,1.4341589212417603,-0.1690569519996643
1779959026202524000,5.90252392578125,-0.19868391752243042,0.10705413669347763,0.22342395782470703
1779959026218888000,5.918887939453125,0.13057245314121246,0.07925976812839508,0.9775370955467224
1779959026235199000,5.935198974609375,0.33307427167892456,0.5369505286216736,1.5929838418960571
1779959026251533000,5.951532958984375,0.5766568183898926,1.204779028892517,1.986228346824646
1779959026267866000,5.9678662109375,0.9983065128326416,1.683239221572876,2.026240110397339
1779959026284204300,5.984204345703125,1.173624873161316,0.9691377282142639,1.0659598112106323
1779959026300535300,6.000535400390625,0.7852672934532166,-0.4488332271575928,1.0587822198867798
1779959026316885800,6.0168857421875,0.0006108652451075613,-0.7987062931060791,2.334268808364868
1779959026333201200,6.033201171875,-0.5871942043304443,-0.39813143014907837,2.238668441772461
1779959026349538600,6.04953857421875,-0.7872526049613953,0.30863967537879944,1.6626224517822266
1779959026365868300,6.065868408203125,-0.8600982427597046,0.5180137157440186,1.377501130104065
1779959026382209300,6.082209228515625,-0.8741481900215149,1.3596333265304565,1.1045970916748047
1779959026398545000,6.098544921875,-0.7192938327789307,2.4964535236358643,1.154382586479187
1779959026414874400,6.114874267578125,-0.22052235901355743,2.440253973007202,1.4291192293167114
1779959026431201300,6.131201171875,0.20112738013267517,1.0015136003494263,1.5205962657928467
1779959026447556000,6.14755615234375,0.3527746796607971,-0.48197266459465027,1.3385584354400635
1779959026463874300,6.163874267578125,0.3732386529445648,-0.4781547784805298,1.1114692687988281
1779959026480208600,6.180208740234375,0.3433062732219696,0.6685920357704163,0.8558222055435181
1779959026496533200,6.196533203125,0.2791654169559479,1.7592918872833252,0.5855143666267395
1779959026512867300,6.212867431640625,0.24190263450145721,2.076789140701294,0.5384777188301086
1779959026529202400,6.229202392578125,0.33918291330337524,1.6407840251922607,0.7431175708770752
1779959026545536800,6.245536865234375,0.5059491395950317,1.1536190509796143,0.8520042896270752
1779959026561870000,6.2618701171875,0.7038694620132446,1.024420976638794,0.7305948138237
1779959026578205200,6.278205078125,0.8210029006004333,1.179275393486023,0.5207626223564148
1779959026594541600,6.29454150390625,0.7272350788116455,1.3807082176208496,0.3880521357059479
1779959026610884900,6.310884765625,0.5158756971359253,1.4019356966018677,0.33108896017074585
1779959026627218400,6.327218505859375,0.3433062732219696,1.1424707174301147,0.36010506749153137
1779959026643554000,6.343553955078125,0.24205535650253296,0.6452264189720154,0.5320636034011841
1779959026659901200,6.359901123046875,0.14935655891895294,0.43539419770240784,0.7142542004585266
1779959026676215600,6.376215576171875,0.17470745742321014,0.5476406812667847,0.6272059082984924
1779959026692563000,6.39256298828125,0.2177734673023224,0.4222606122493744,0.22632557153701782
1779959026708905200,6.4089052734375,0.06291911751031876,0.07773260027170181,-0.1134682223200798
1779959026725227000,6.42522705078125,-0.24037547409534454,-0.33139440417289734,-0.3286454975605011
1779959026741574400,6.441574462890625,-0.5807801485061646,-0.8323038816452026,-0.8961393237113953
1779959026757901300,6.4579013671875,-0.978606104850769,-0.8833111524581909,-1.5326608419418335
1779959026774245400,6.474245361328125,-1.2359330654144287,-1.1398745775222778,-1.9927951097488403
1779959026790574800,6.490574951171875,-1.267698049545288,-1.5647313594818115,-2.3211352825164795
1779959026806884000,6.506884033203125,-1.2122620344161987,-1.8568776845932007,-2.5613579750061035
1779959026823227600,6.5232275390625,-0.9860892295837402,-2.0415115356445312,-2.722015619277954
1779959026839565000,6.53956494140625,-0.7365507483482361,-1.6992744207382202,-2.7099509239196777
1779959026855883500,6.555883544921875,-0.5090034604072571,-0.7231117486953735,-2.5532639026641846
1779959026872235800,6.57223583984375,-0.3098613917827606,0.37598755955696106,-2.5141687393188477
1779959026888566300,6.588566162109375,-0.15485434234142303,1.2965614795684814,-2.66031813621521
1779959026904901400,6.6049013671875,-0.17837265133857727,1.6687310934066772,-2.825098991394043
1779959026921235000,6.62123486328125,-0.2561052441596985,1.0387763977050781,-2.7737863063812256
1779959026937568500,6.637568603515625,-0.19456058740615845,-0.9239336848258972,-2.3017401695251465
1779959026953902800,6.65390283203125,-0.40362921357154846,-2.64611554145813,-2.001652717590332
1779959026970238500,6.670238525390625,-0.5674937963485718,-2.6641359329223633,-2.1033618450164795
1779959026986574600,6.68657470703125,-0.6754642724990845,-1.9060522317886353,-2.1642956733703613
1779959027002905000,6.702905029296875,-0.693026602268219,-1.686446189880371,-1.774105429649353
1779959027019241700,6.71924169921875,-0.7797694802284241,-2.1256582736968994,-1.327562928199768
1779959027035571700,6.73557177734375,-0.7954992651939392,-2.4607179164886475,-1.169501543045044
1779959027051911000,6.751910888671875,-0.7072292566299438,-2.551889657974243,-1.1337659358978271
1779959027068242400,6.768242431640625,-0.6401867866516113,-2.601369619369507,-0.9801332950592041
1779959027084579600,6.78457958984375,-0.5676465034484863,-2.4834725856781006,-0.5386304259300232
1779959027100908800,6.80090869140625,-0.46043968200683594,-2.244471549987793,0.06352998316287994
1779959027117245200,6.8172451171875,-0.290313720703125,-1.7944166660308838,0.5450445413589478
1779959027133580300,6.833580322265625,-0.11514809727668762,-1.3092368841171265,1.003498911857605
1779959027149900300,6.849900390625,-0.09254608303308487,-0.8336783647537231,1.4879150390625
1779959027166250000,6.86625,-0.289702832698822,-0.4277583956718445,1.9362901449203491
1779959027182583800,6.882583740234375,-0.5303837656974792,-0.1488984078168869,2.2678372859954834
1779959027198932700,6.8989326171875,-0.4389066696166992,-0.19807305932044983,2.026545524597168
1779959027215265000,6.91526513671875,0.11575896292924881,-0.47800204157829285,0.5348125100135803
1779959027231600000,6.93160009765625,-0.05513058975338936,-0.11468994617462158,-0.18188512325286865
1779959027247932000,6.947931884765625,-0.3833179473876953,0.13530665636062622,-0.7283040881156921
1779959027264274200,6.964274169921875,-0.4983133375644684,-0.9952521920204163,-0.8408560156822205
1779959027280601300,6.980601318359375,-0.5334380865097046,-1.9127718210220337,-0.45402559638023376
1779959027296935400,6.996935302734375,-0.08750644326210022,-1.6181820631027222,-0.4050036668777466
1779959027313239600,7.013239501953125,0.02275473065674305,-1.1488847732543945,-0.8474228382110596
1779959027329590300,7.02959033203125,-0.5148066878318787,0.23839016258716583,-0.3882048726081848
1779959027345922600,7.045922607421875,-0.6094908118247986,2.2985332012176514,0.7979426980018616
1779959027362262000,7.062261962890625,0.5438227653503418,3.796221971511841,1.4080443382263184
1779959027378592800,7.0785927734375,1.3351987600326538,0.076052725315094,-0.194713294506073
1779959027394926300,7.09492626953125,0.46043968200683594,-0.2768746614456177,-0.5484042763710022
1779959027411265300,7.111265380859375,-0.14584407210350037,1.142012596130371,0.16600263118743896
1779959027427594000,7.127593994140625,0.19944749772548676,1.4569135904312134,0.978606104850769
1779959027443913500,7.14391357421875,0.6546948552131653,1.4104878902435303,1.6643023490905762
1779959027460251600,7.160251708984375,0.8495608568191528,1.103833556175232,2.109928607940674
1779959027476586000,7.1765859375,0.8556694984436035,0.2347249686717987,2.00699782371521
1779959027492920800,7.1929208984375,0.40485092997550964,-0.6426302194595337,1.3435981273651123
1779959027509257200,7.20925732421875,-0.26404649019241333,-0.14813482761383057,1.3959797620773315
1779959027525589000,7.225589111328125,-0.7509061098098755,1.0629055500030518,1.344056248664856
1779959027541923600,7.241923583984375,-0.956156849861145,2.0816760063171387,1.1476631164550781
1779959027558257400,7.25825732421875,-0.8275696635246277,2.258674144744873,0.9995282292366028
1779959027574592300,7.27459228515625,-0.3683517575263977,1.638798713684082,0.8672759532928467
1779959027590928600,7.2909287109375,-0.06169738993048668,1.2577714920043945,0.7596109509468079
1779959027607271200,7.307271240234375,0.13225232064723969,1.0305296182632446,0.9254608750343323
1779959027623606800,7.323606689453125,0.22647829353809357,1.315956473350525,1.1568260192871094
1779959027639932000,7.339931884765625,0.27641651034355164,1.5488488674163818,1.1061242818832397
1779959027656275700,7.356275634765625,0.33246341347694397,1.4747813940048218,0.6991352438926697
1779959027672609300,7.372609375,0.41172316670417786,1.1901181936264038,0.21563543379306793
1779959027688943400,7.388943359375,0.3908010423183441,0.9108000993728638,-0.04657847434282303
1779959027705294600,7.405294677734375,0.2996293902397156,0.702800452709198,-0.12919799983501434
1779959027721625600,7.42162548828125,0.2151772826910019,0.5273294448852539,-0.18646661937236786
1779959027737964500,7.437964599609375,0.13545936346054077,0.6033821702003479,-0.3608686327934265
1779959027754294000,7.4542939453125,0.06291911751031876,0.9520334601402283,-0.6418666839599609
1779959027770627600,7.470627685546875,0.04948008432984352,1.1646145582199097,-1.0009026527404785
1779959027786961000,7.4869609375,0.1359175145626068,1.1174252033233643,-1.1994339227676392
1779959027803281700,7.50328173828125,0.3579670190811157,1.1151344776153564,-1.3006848096847534
1779959027819601700,7.5196015625,0.5352706909179688,0.9550877809524536,-1.119410514831543
1779959027835948300,7.5359482421875,0.5296201705932617,0.8471173644065857,-0.5684100985527039
1779959027852288500,7.55228857421875,0.3623957931995392,1.0390818119049072,-0.1592831164598465
1779959027868619000,7.568618896484375,0.24953845143318176,1.2463178634643555,-0.13988813757896423
1779959027884955100,7.584955078125,0.13041973114013672,0.9787588119506836,-0.2877175211906433
1779959027901278700,7.60127880859375,0.009468411095440388,0.5494732856750488,-0.4902193546295166
1779959027917634600,7.617634521484375,0.05390885844826698,0.023060163483023643,-0.7597636580467224
1779959027933968600,7.63396875,0.1186605766415596,-0.44089198112487793,-0.9188940525054932
1779959027950303200,7.65030322265625,0.19486601650714874,-0.5780312418937683,-1.1814134120941162
1779959027966614300,7.6666142578125,0.3075706362724304,-0.7748825550079346,-1.8260289430618286
1779959027982960400,7.68296044921875,0.34636059403419495,-1.1523972749710083,-2.791501522064209
1779959027999294200,7.699294189453125,0.2093740701675415,-1.1279627084732056,-3.637244462966919
1779959028015628300,7.715628173828125,-0.13759739696979523,-0.8996517658233643,-3.330284595489502
1779959028031958300,7.731958251953125,-0.422871470451355,-0.7397578358650208,-2.4248294830322266
1779959028048298800,7.748298828125,-0.7542658448219299,-0.22540926933288574,-2.059837579727173
1779959028064630300,7.76463037109375,-1.1536190509796143,-0.3790418803691864,-1.7889188528060913
1779959028080966000,7.7809658203125,-1.0603092908859253,-0.6076582074165344,-1.6464345455169678
1779959028097297400,7.79729736328125,-0.7707592248916626,-0.7777841687202454,-1.3797918558120728
1779959028113633300,7.81363330078125,-0.543059229850769,-0.7319692969322205,-1.1693488359451294
1779959028129955000,7.829955078125,-0.4262312352657318,-0.7148650288581848,-1.0302242040634155
1779959028146300400,7.846300537109375,-0.1215621829032898,-0.4815145432949066,-0.7935139536857605
1779959028162635500,7.862635498046875,0.19135354459285736,-0.10170906037092209,-0.4787656366825104
1779959028178972700,7.87897265625,0.20326541364192963,0.04382958263158798,-0.06276640295982361
1779959028195301400,7.89530126953125,0.11621711403131485,-0.42012256383895874,0.2900082767009735
1779959028211657700,7.91165771484375,-0.06627888232469559,-0.6806566119194031,0.6154467463493347
1779959028227985400,7.9279853515625,-0.004886921960860491,-0.7127270102500916,1.0047205686569214
1779959028244319200,7.9443193359375,0.04489859566092491,-0.618195652961731,1.5042556524276733
1779959028260654800,7.96065478515625,0.043218716979026794,-0.4479169547557831,1.9619464874267578
1779959028276977700,7.976977783203125,0.11484266817569733,-0.4050036668777466,2.196518659591675
1779959028293304800,7.993304931640625,0.21151208877563477,-0.389426589012146,2.2175936698913574
1779959028309635000,8.009635009765624,0.2886338233947754,-0.30115658044815063,2.169029712677002
1779959028325979400,8.0259794921875,0.36331209540367126,-0.24327708780765533,2.149634838104248
1779959028342298400,8.04229833984375,0.37537670135498047,-0.3988949954509735,2.1395554542541504
1779959028358644500,8.05864453125,0.2370157092809677,-0.888961672782898,2.2632558345794678
1779959028374988500,8.074988525390625,-0.17623461782932281,-0.9633345007896423,2.8881709575653076
1779959028391318000,8.091318115234374,-1.3124439716339111,-0.4005748927593231,3.6306777000427246
1779959028407661600,8.10766162109375,-1.9634735584259033,-0.22632557153701782,3.576005220413208
1779959028423995100,8.1239951171875,-1.7165313959121704,-0.1371392458677292,2.559372663497925
1779959028440329700,8.140329833984374,-1.292590856552124,-1.2809844017028809,1.411251425743103
1779959028456648400,8.1566484375,-1.232573390007019,-4.081190586090088,0.01114829070866108
1779959028472986400,8.172986328125,-0.35613444447517395,-3.8699841499328613,-1.2460123300552368
1779959028489320400,8.189320556640626,0.3674354553222656,0.06368270516395569,-0.5557346343994141
1779959028505654500,8.205654541015624,1.037249207496643,4.326911449432373,-0.6733261942863464
1779959028521988400,8.22198828125,1.5877914428710938,5.569411277770996,-1.5842790603637695
1779959028538321200,8.238321044921875,1.5606080293655396,1.7046194076538086,-1.9857702255249023
1779959028554673400,8.25467333984375,1.1527026891708374,-2.8909196853637695,-0.8448266386985779
1779959028571004000,8.27100390625,0.08536841720342636,-0.6189591884613037,0.7480044960975647
1779959028587337000,8.2873369140625,-1.5150985717773438,2.27852725982666,0.3309362530708313
1779959028603677400,8.303677490234374,-1.1908818483352661,1.1969904899597168,-0.5361869931221008
1779959028619972900,8.319972900390624,-0.23029619455337524,0.3150537610054016,-0.2620611786842346
1779959028636326100,8.336326171875,0.03634648025035858,0.32620203495025635,0.3985895812511444
1779959028652661800,8.352661865234374,-0.09147707372903824,0.04001167416572571,0.7006624341011047
1779959028668996000,8.36899609375,0.13805554807186127,-0.14004085958003998,0.6818783283233643
1779959028685330400,8.385330322265625,0.3081815242767334,-0.08185594528913498,0.6294966340065002
1779959028701664800,8.401664794921874,0.2883284091949463,-0.0679587572813034,0.6107125282287598
1779959028718017000,8.41801708984375,0.3504839241504669,-0.43188172578811646,0.5552765130996704
1779959028734323000,8.434322998046875,0.4645630121231079,-0.5638286471366882,0.3718642294406891
1779959028750663000,8.450662841796875,0.45784351229667664,-0.2594650089740753,0.08338310569524765
1779959028767005200,8.467005126953126,0.4193589985370636,0.19562959671020508,-0.3323107063770294
1779959028783335700,8.483335693359376,0.46899178624153137,0.6875288486480713,-0.6548475623130798
1779959028799657200,8.4996572265625,0.4651738703250885,1.1691961288452148,-0.8074111342430115
1779959028816004000,8.516004150390625,0.42119157314300537,1.576948642730713,-1.0172433853149414
1779959028832337700,8.532337646484375,0.33719760179519653,1.5683965682983398,-0.944855809211731
1779959028848673000,8.548673095703125,0.037110064178705215,1.5360206365585327,-0.7081455588340759
1779959028865006800,8.5650068359375,-0.15882496535778046,1.7434093952178955,-0.775340735912323
1779959028881354500,8.5813544921875,-0.2741257846355438,1.4086552858352661,-1.1520918607711792
1779959028897677000,8.597677001953125,-0.23258693516254425,0.7402159571647644,-2.0552561283111572
1779959028914022400,8.6140224609375,-0.08597928285598755,0.31093040108680725,-3.0689868927001953
1779959028930355200,8.630355224609374,-0.04764748737215996,-0.4810563921928406,-3.551417827606201
1779959028946676500,8.646676513671874,-0.08032877743244171,-1.1305588483810425,-3.5384368896484375
1779959028963011600,8.663011474609375,0.1290452778339386,-1.1261301040649414,-3.196352481842041
1779959028979343400,8.67934326171875,0.24465152621269226,-1.1911872625350952,-2.5616633892059326
1779959028995683600,8.69568359375,0.17302757501602173,-1.524566888809204,-2.149176597595215
1779959029012014600,8.7120146484375,0.13179416954517365,-1.452942967414856,-1.8625280857086182
1779959029028355600,8.72835546875,0.09040805697441101,-0.9642508029937744,-1.4184291362762451
1779959029044685800,8.744685791015625,0.005192354787141085,-0.44654250144958496,-0.7750352621078491
1779959029061016300,8.761016357421875,0.07452555745840073,-0.19578230381011963,-0.23228150606155396
1779959029077363700,8.77736376953125,0.1215621829032898,0.0507018156349659,0.289702832698822
1779959029093699000,8.793698974609375,0.07681630551815033,0.1508837193250656,0.9101892113685608
1779959029110014200,8.81001416015625,-0.018478672951459885,0.15424346923828125,1.5462526082992554
1779959029126353000,8.826352783203125,-0.1319468915462494,0.07559457421302795,2.0952677726745605
1779959029142685400,8.842685546875,-0.21563543379306793,-0.0884227454662323,2.551889657974243
1779959029159012600,8.8590126953125,-0.22632557153701782,-0.18997909128665924,2.9407052993774414
1779959029175357000,8.87535693359375,-0.156686931848526,-0.1941024363040924,3.207958936691284
1779959029191690800,8.891690673828125,-0.10048733651638031,-0.3196352422237396,3.347694158554077
1779959029208023800,8.90802392578125,-0.30833423137664795,-0.6194173693656921,3.4720053672790527
1779959029224359200,8.924359130859376,-1.3599387407302856,-0.7771732807159424,3.3849570751190186
1779959029240694000,8.940694091796875,-2.012037515640259,-0.7411322593688965,2.853351593017578
1779959029257056000,8.957055908203126,-1.8866573572158813,-0.11713340878486633,2.568077564239502
1779959029273336000,8.973336181640626,-1.0806206464767456,-0.182648703455925,2.3964242935180664
1779959029289707300,8.989707275390625,-0.7220427393913269,-1.0213667154312134,1.8674150705337524
1779959029306030600,9.006030517578125,-0.8225300312042236,-1.9929478168487549,1.1178834438323975
1779959029322364400,9.022364501953126,-0.7165449261665344,-2.5506677627563477,0.5239696502685547
1779959029338697700,9.03869775390625,-0.27550023794174194,-2.0276143550872803,-0.17760907113552094
1779959029355020000,9.05502001953125,0.6168211698532104,-0.6835582256317139,-0.48548516631126404
1779959029371370200,9.071370361328125,1.260367751121521,1.7328720092773438,-1.434617042541504
1779959029387714000,9.087714111328125,0.9243918061256409,3.456428289413452,-2.3164010047912598
1779959029404047600,9.104047607421874,0.8356636762619019,2.281276226043701,-1.801899790763855
1779959029420370700,9.12037060546875,0.21120665967464447,-0.18478673696517944,-0.01970040425658226
1779959029436712700,9.136712646484375,-0.609338104724884,0.8959866166114807,1.5639677047729492
1779959029453038000,9.1530380859375,-1.244027018547058,2.4080307483673096,0.8885034918785095
1779959029469357000,9.169357177734375,-0.7347181439399719,1.6584991216659546,-1.202030062675476
1779959029485692200,9.185692138671875,0.20311269164085388,0.5668829679489136,-0.8767443299293518
1779959029502034200,9.2020341796875,0.39354994893074036,-0.3478877544403076,0.08261952549219131
1779959029518381800,9.2183818359375,0.31352660059928894,-0.7835873961448669,0.7590000629425049
1779959029534709800,9.234709716796875,0.20005837082862854,-0.79840087890625,1.1100949048995972
1779959029551043000,9.25104296875,0.36713001132011414,-0.5694791078567505,0.9970847964286804
1779959029567379700,9.267379638671875,0.493731826543808,-0.012217304669320583,0.4309654235839844
1779959029583735300,9.2837353515625,0.4807509481906891,0.4954117238521576,0.17577648162841797
1779959029600040400,9.30004052734375,0.39706242084503174,0.42500948905944824,0.1007927656173706
1779959029616379600,9.316379638671876,0.46334129571914673,0.1385136991739273,-0.08933904021978378
1779959029632714000,9.3327138671875,0.566730260848999,0.4847215712070465,-0.27809640765190125
1779959029649049000,9.349049072265625,0.5383250117301941,1.0954340696334839,-0.599564254283905
1779959029665383200,9.365383056640624,0.5729916095733643,1.2657127380371094,-0.9973902106285095
1779959029681717200,9.38171728515625,0.5954409241676331,1.0190759897232056,-1.1914926767349243
1779959029698050000,9.398050048828125,0.5291619896888733,0.6294966340065002,-1.150259256362915
1779959029714402000,9.414402099609376,0.45265114307403564,0.8367326855659485,-1.2435688972473145
1779959029730718000,9.430718017578124,0.28909197449684143,1.4845552444458008,-1.4062118530273438
1779959029747069000,9.44706884765625,0.1469130963087082,1.9588921070098877,-1.753335952758789
1779959029763384300,9.46338427734375,-0.025656340643763542,1.6082555055618286,-2.428647518157959
1779959029779722500,9.479722412109375,-0.1719585657119751,0.30894508957862854,-3.1115949153900146
1779959029796056600,9.496056640625,-0.19333885610103607,-0.49846604466438293,-3.693291187286377
1779959029812390700,9.512390625,-0.0708603709936142,-0.70692378282547,-3.8009562492370605
1779959029828725000,9.52872509765625,0.21334469318389893,-0.8420777320861816,-3.08166241645813
1779959029845059000,9.54505908203125,0.395077109336853,-1.5335772037506104,-2.688876152038574
1779959029861397000,9.56139697265625,0.2848159074783325,-2.1600193977355957,-2.6749789714813232
1779959029877739500,9.577739501953126,0.27030786871910095,-1.8945986032485962,-2.2313380241394043
1779959029894063900,9.59406396484375,0.1160643994808197,-0.7475463151931763,-1.328937292098999
1779959029910412300,9.610412353515626,0.05161811411380768,0.24602597951889038,-0.47907108068466187
1779959029926757400,9.62675732421875,0.05345070734620094,0.20128010213375092,0.03741549700498581
1779959029943043300,9.643043212890625,-0.03222314268350601,-0.1281289905309677,0.4761694669723511
1779959029959403000,9.659403076171875,-0.12721268832683563,-0.13240504264831543,1.0459539890289307
1779959029975729400,9.6757294921875,-0.2528982162475586,0.0019853119738399982,1.6016886234283447
1779959029992071200,9.6920712890625,-0.3433062732219696,0.08491026610136032,2.0557143688201904
1779959030008399600,9.708399658203126,-0.4075998365879059,0.20525072515010834,2.417499303817749
1779959030024720000,9.724719970703125,-0.41263946890830994,0.3066543638706207,2.7895162105560303
1779959030041056300,9.74105615234375,-0.27718010544776917,0.3113885521888733,3.087465763092041
1779959030057390800,9.757390869140625,-0.02535090781748295,0.2200642079114914,3.2346842288970947
1779959030073725400,9.773725341796874,-0.19058994948863983,0.06780604273080826,3.4327571392059326
1779959030090060000,9.79006005859375,-1.0227410793304443,-0.021074850112199783,3.8234055042266846
1779959030106393900,9.806393798828125,-1.5205962657928467,-0.5242751240730286,4.030488967895508
1779959030122727400,9.8227275390625,-1.5958853960037231,-1.1305588483810425,3.7091736793518066
1779959030139078400,9.839078369140625,-0.9692904353141785,-1.4497359991073608,2.7145323753356934
1779959030155409200,9.8554091796875,-0.6739370822906494,-1.0267117023468018,1.3214542865753174
1779959030171743200,9.8717431640625,-0.6053674817085266,-0.9531024694442749,0.5285511612892151
1779959030188076000,9.888075927734375,-0.7626652717590332,-2.177581787109375,-0.2557998299598694
1779959030204411100,9.9044111328125,-0.4625777006149292,-3.240792751312256,-1.0195341110229492
1779959030220746800,9.920746826171875,0.39477166533470154,-2.0228803157806396,-0.342237263917923
1779959030237097200,9.93709716796875,0.6826419234275818,2.9101619720458984,-1.0338894128799438
1779959030253410600,9.95341064453125,0.7539604306221008,6.49441385269165,-2.037388324737549
1779959030269749000,9.9697490234375,1.0493137836456299,2.917186975479126,-1.8854355812072754
1779959030286082000,9.98608203125,0.5601634383201599,-2.208583354949951,-0.6218608021736145
1779959030302415400,10.002415283203124,-0.16340644657611847,-0.7287622094154358,1.3851369619369507
1779959030318784000,10.018783935546875,-1.3461942672729492,1.5207489728927612,2.166433572769165
1779959030335085300,10.035085205078126,-1.1669052839279175,2.1587977409362793,1.2455542087554932
1779959030351422700,10.051422607421875,-0.2562579810619354,1.7064520120620728,-0.1472185254096985
1779959030367766300,10.067766357421876,0.15073099732398987,0.7301366925239563,-0.10002918541431427
1779959030384108800,10.08410888671875,0.37690386176109314,0.19715675711631775,0.13179416954517365
1779959030400435200,10.100435302734375,0.5192354321479797,-0.4054618179798126,0.4080579876899719
1779959030416769500,10.11676953125,0.5054910182952881,-0.9156870245933533,0.8611672520637512
1779959030433087000,10.1330869140625,0.34437528252601624,-0.8631525635719299,1.2782355546951294
1779959030449425200,10.149425048828125,0.3016147017478943,-0.3413209617137909,1.4902057647705078
1779959030465754600,10.165754638671874,0.3721696436405182,0.5937610268592834,1.4063645601272583
1779959030482098700,10.1820986328125,0.31123584508895874,1.5519031286239624,1.1397218704223633
1779959030498424800,10.1984248046875,0.25473082065582275,1.3483322858810425,0.6569855809211731
1779959030514758700,10.214758544921875,0.2506074607372284,0.6772968173027039,0.03588833287358284
1779959030531116500,10.231116455078125,0.3536909818649292,0.556345522403717,-0.2480112910270691
1779959030547442200,10.247442138671875,0.3689626157283783,0.47219884395599365,-0.2203696370124817
1779959030563761200,10.26376123046875,0.2968805134296417,0.3738495409488678,-0.22021691501140594
1779959030580098000,10.28009814453125,0.09682214260101318,0.46853363513946533,-0.41202861070632935
1779959030596431600,10.296431640625,-0.22388210892677307,0.5393940210342407,-0.6641632318496704
1779959030612766700,10.3127666015625,-0.35842517018318176,0.6363688707351685,-0.8865181803703308
1779959030629101600,10.3291015625,-0.23075434565544128,0.35903605818748474,-1.2528846263885498
1779959030645435100,10.34543505859375,-0.10965031385421753,-0.1313360333442688,-1.8235855102539062
1779959030661770800,10.361770751953125,-0.12110403180122375,-0.7499898076057434,-2.883894920349121
1779959030678101800,10.378101806640625,0.14538592100143433,-1.7875443696975708,-4.03461217880249
1779959030694438000,10.39443798828125,0.6701191663742065,-2.556623697280884,-4.535368919372559
1779959030710751500,10.41075146484375,0.8052731156349182,-2.3912320137023926,-4.2978949546813965
1779959030727114800,10.42711474609375,0.44058656692504883,-1.3252722024917603,-3.5856263637542725
1779959030743426300,10.44342626953125,0.11499538272619247,-0.26419922709465027,-3.0030136108398438
1779959030759772700,10.459772705078125,-0.07360926270484924,0.28527405858039856,-2.436588764190674
1779959030776109000,10.476109130859374,-0.2275473028421402,-0.7722864151000977,-1.871996521949768
1779959030792442600,10.492442626953125,-0.4216497242450714,-0.9691377282142639,-1.5320500135421753
1779959030808778000,10.508778076171875,-0.517250120639801,-0.46150869131088257,-1.147204875946045
1779959030825111000,10.525111083984376,-0.7147123217582703,-0.31184670329093933,-0.6301075220108032
1779959030841449500,10.541449462890625,-0.6417139172554016,0.2984076738357544,-0.26374107599258423
1779959030857791700,10.557791748046874,-0.5070181488990784,0.7596109509468079,0.1950187236070633
1779959030874127600,10.574127685546875,-0.4834998548030853,0.39904773235321045,0.6956228017807007
1779959030890460700,10.590460693359375,-0.5233588218688965,-0.24862214922904968,1.3281737565994263
1779959030906801400,10.606801513671876,-0.49006664752960205,-0.7322747111320496,2.2157609462738037
1779959030923110700,10.623110595703125,-0.43615779280662537,-0.9850202202796936,2.8377745151519775
1779959030939451600,10.63945166015625,-0.1440114825963974,-0.9618073105812073,2.919477701187134
1779959030955780900,10.65578076171875,0.35964691638946533,-0.555429220199585,2.646879196166992
1779959030972108000,10.67210791015625,0.630871057510376,-0.034666601568460464,2.582585573196411
1779959030988440800,10.68844091796875,0.46899178624153137,0.24984388053417206,2.9975156784057617
1779959031004776000,10.70477587890625,-0.9761626720428467,0.07788532227277756,3.512322425842285
1779959031021109200,10.721109130859375,-1.8238909244537354,0.01572977937757969,3.824169158935547
1779959031037443300,10.737443359375,-1.151481032371521,0.01863138936460018,3.821725606918335
1779959031053778000,10.75377783203125,0.2557998299598694,-1.3852896690368652,0.13988813757896423
1779959031070112300,10.7701123046875,0.45982882380485535,-0.020922135561704636,-2.5667030811309814
1779959031086447600,10.786447509765624,0.35323283076286316,1.4804319143295288,-1.5560264587402344
1779959031102782200,10.8027822265625,0.4308127164840698,1.6691893339157104,-0.14340060949325562
1779959031119127600,10.81912744140625,0.01466076634824276,0.6716463565826416,0.1944078654050827
1779959031135458800,10.835458740234374,-0.36331209540367126,-0.10965031385421753,-0.5451972484588623
1779959031151798300,10.85179833984375,-0.42271876335144043,-0.44745880365371704,-1.0473284721374512
1779959031168128800,10.868128662109376,0.020463986322283745,0.05268712714314461,-0.4628831446170807
1779959031184464100,10.884464111328125,-0.2047925740480423,1.4025466442108154,0.8851437568664551
1779959031200789200,10.900789306640625,-0.7009678483009338,0.6017022728919983,1.754252314567566
1779959031217135000,10.917135009765625,-1.0430524349212646,-0.551916778087616,2.222022294998169
1779959031233463300,10.93346337890625,-1.176831841468811,-0.45692721009254456,2.9465084075927734
1779959031249789200,10.9497890625,-1.1737775802612305,0.31093040108680725,4.830569744110107
1779959031266134000,10.966134033203126,-0.9447031021118164,-1.8248071670532227,4.4817657470703125
1779959031282455800,10.982455810546876,-0.10125091671943665,-0.5369505286216736,0.0455094613134861
1779959031298809000,10.99880908203125,-0.036651913076639175,4.074624061584473,-1.244943380355835
1779959031315137800,11.0151376953125,0.6047565937042236,6.083454132080078,-0.8054258227348328
1779959031331475500,11.031475341796876,1.362382173538208,4.296826362609863,0.3599523603916168
1779959031347818200,11.047818359375,1.2240211963653564,-0.5470298528671265,0.8629998564720154
1779959031364180000,11.064179931640625,0.5148066878318787,-2.596177339553833,1.395521640777588
1779959031380487400,11.0804873046875,0.11652254313230515,-0.8104654550552368,2.0954205989837646
1779959031396824000,11.096823974609375,-0.04489859566092491,1.7751743793487549,1.406822681427002
1779959031413153300,11.1131533203125,0.11270463466644287,2.626567840576172,0.6070473194122314
1779959031429477600,11.1294775390625,0.49556443095207214,2.1529946327209473,0.43188172578811646
1779959031445813800,11.145813720703124,0.8396342992782593,1.3223705291748047,0.395077109336853
1779959031462143200,11.162143310546876,0.9330966472625732,0.898124635219574,0.3176499307155609
1779959031478478600,11.178478515625,0.7954992651939392,1.1563678979873657,0.2767219543457031
1779959031494812200,11.194812255859375,0.5442809462547302,1.3791810274124146,0.23258693516254425
1779959031511148300,11.211148193359374,0.30695977807044983,1.0990992784500122,0.1514945775270462
1779959031527498200,11.227498291015625,0.23747386038303375,0.5757405161857605,0.07116580009460449
1779959031543831600,11.24383154296875,0.09392052888870239,0.4453207552433014,0.00855211354792118
1779959031560149200,11.260149169921876,0.0019853119738399982,0.46563202142715454,-0.09636399149894714
1779959031576496400,11.276496337890626,-0.09498954564332962,-0.14492778480052948,-0.43799036741256714
1779959031592834600,11.29283447265625,-0.37598755955696106,-0.6452264189720154,-0.9240863919258118
1779959031609165800,11.309165771484375,-0.7211264371871948,-0.922711968421936,-1.3596333265304565
1779959031625484300,11.325484375,-1.1630873680114746,-1.4294246435165405,-1.7866281270980835
1779959031641821400,11.341821533203126,-1.5552629232406616,-1.852143406867981,-2.2954788208007812
1779959031658154800,11.35815478515625,-1.4628695249557495,-1.9964603185653687,-2.861292839050293
1779959031674490000,11.374489990234375,-1.190423607826233,-2.113288402557373,-3.1619911193847656
1779959031690824200,11.39082421875,-1.120937705039978,-2.2203423976898193,-3.0602822303771973
1779959031707158000,11.407157958984374,-0.9459248185157776,-1.6548339128494263,-2.922837495803833
1779959031723492400,11.423492431640625,-0.651945948600769,-0.3897320330142975,-2.99812650680542
1779959031739822300,11.439822265625,-0.3220787048339844,1.4666874408721924,-3.1528282165527344
1779959031756162800,11.456162841796875,-0.18814650177955627,2.774549961090088,-3.112969398498535
1779959031772495400,11.472495361328125,-0.044287730008363724,2.3909265995025635,-2.875800848007202
1779959031788830500,11.48883056640625,-0.051770828664302826,-1.444696307182312,-1.8916969299316406
1779959031805164000,11.5051640625,-0.24129177629947662,-3.7421605587005615,-1.2612839937210083
1779959031821501200,11.521501220703126,-0.5942191481590271,-3.182149887084961,-1.686140775680542
1779959031837844700,11.5378447265625,-1.0787880420684814,-1.9460639953613281,-2.0425806045532227
1779959031854179800,11.554179931640626,-1.027169942855835,-1.6577355861663818,-1.6975945234298706
1779959031870498600,11.57049853515625,-0.7137960195541382,-2.0778582096099854,-1.3107640743255615
1779959031886848800,11.586848876953125,-0.5972734689712524,-2.411543369293213,-1.1982121467590332
1779959031903180000,11.603179931640625,-0.5717698931694031,-2.5647177696228027,-1.197601318359375
1779959031919504100,11.619504150390625,-0.5549710988998413,-2.6024386882781982,-0.8834638595581055
1779959031935834600,11.635834716796875,-0.4158465266227722,-2.3939809799194336,-0.33337971568107605
1779959031952175000,11.652175048828125,-0.22143864631652832,-1.9727892875671387,0.3127630054950714
1779959031968504800,11.6685048828125,-0.031154127791523933,-1.1160508394241333,0.9586002826690674
1779959031984841000,11.684841064453124,0.07192938029766083,-0.2926044464111328,1.6013832092285156
1779959032001174500,11.701174560546875,0.12599095702171326,0.49953505396842957,2.274709463119507
1779959032017524000,11.71752392578125,0.1362229436635971,0.8775079250335693,2.7815749645233154
1779959032033874400,11.73387451171875,0.33597588539123535,1.021519422531128,2.931084156036377
1779959032050186500,11.7501865234375,0.7596109509468079,1.595579981803894,2.3652701377868652
1779959032066526000,11.76652587890625,0.5592471361160278,1.8657351732254028,1.0571023225784302
1779959032082855700,11.782855712890624,0.0029016099870204926,0.4899139404296875,-0.6304129362106323
1779959032099196000,11.79919580078125,-0.21594086289405823,-1.202030062675476,-1.576948642730713
1779959032115513000,11.81551318359375,-0.7095199823379517,-1.768454909324646,-1.1757628917694092
1779959032131850000,11.83185009765625,-0.7806857824325562,1.1407908201217651,-0.15729780495166779
1779959032148181200,11.84818115234375,-0.4306600093841553,3.3825135231018066,-0.008399397134780884
1779959032164516400,11.864516357421875,-0.3882048726081848,3.383277177810669,0.061391957104206085
1779959032180855000,11.88085498046875,0.024587325751781464,0.6102544069290161,0.3891211748123169
1779959032197183700,11.897183837890625,0.49984049797058105,-2.2208006381988525,1.071763038635254
1779959032213519000,11.91351904296875,0.8669704794883728,-1.6296358108520508,1.3445143699645996
1779959032229843200,11.92984326171875,1.0077749490737915,-0.6916521787643433,1.1099421977996826
1779959032246186200,11.946186279296874,0.9181304574012756,-1.1789699792861938,0.619111955165863
1779959032262522400,11.9625224609375,0.7528914213180542,-1.253800868988037,0.5490151643753052
1779959032278857000,11.97885693359375,0.5302310585975647,-0.5230533480644226,1.4986051321029663
1779959032295190300,11.995190185546875,-0.004734205547720194,-0.4671591818332672,2.3131940364837646
1779959032311564300,12.011564208984375,-0.6395758986473083,0.11224649101495743,1.7362316846847534
1779959032327873000,12.027873046875,-0.8480336666107178,0.769079327583313,0.7053966522216797
1779959032344206300,12.044206298828126,-0.816726803779602,0.6444628238677979,0.6753115057945251
1779959032360535800,12.060535888671875,-0.7185302376747131,0.40943244099617004,0.9393580555915833
1779959032376862700,12.07686279296875,-0.46547931432724,0.37690386176109314,0.8808676600456238
1779959032393209300,12.093209228515626,-0.1898263692855835,0.16371189057826996,0.6600399017333984
1779959032409525500,12.109525390625,0.014966198243200779,-0.011301007121801376,0.4761694669723511
1779959032425861000,12.125861083984375,0.14614951610565186,0.07498370856046677,0.3933972120285034
1779959032442202400,12.142202392578126,0.2765692472457886,0.15943582355976105,0.2050980031490326
1779959032458517800,12.158517822265624,0.4086688458919525,0.09162978827953339,-0.058337632566690445
1779959032474865400,12.174865478515626,0.48869219422340393,0.14508049190044403,-0.28878653049468994
1779959032491187500,12.1911875,0.5571091175079346,0.471129834651947,-0.3943135142326355
1779959032507550200,12.20755029296875,0.5710062980651855,0.8976664543151855,-0.39324450492858887
1779959032523882500,12.223882568359375,0.532369077205658,1.0329731702804565,-0.4795292317867279
1779959032540204000,12.2402041015625,0.4528038501739502,0.9190467596054077,-0.6801984310150146
1779959032556546600,12.256546630859376,0.4106541574001312,0.7463245987892151,-0.9049968719482422
1779959032572884700,12.272884765625,0.46593746542930603,0.6963863968849182,-1.2087496519088745
1779959032589218300,12.28921826171875,0.5876523852348328,0.6041457056999207,-1.426675796508789
1779959032605548500,12.305548583984375,0.6386595964431763,0.5983424782752991,-1.3029755353927612
1779959032621875700,12.321875732421875,0.5093088746070862,0.73685622215271,-0.9503536224365234
1779959032638206500,12.33820654296875,0.5123631954193115,1.1491901874542236,-1.0009026527404785
1779959032654558700,12.354558837890625,0.4723515510559082,1.3012956380844116,-1.5274685621261597
1779959032670874000,12.3708740234375,0.31642818450927734,1.0056369304656982,-2.328465700149536
1779959032687194400,12.3871943359375,0.17699819803237915,0.6513350605964661,-3.3655619621276855
1779959032703548200,12.403548095703124,-0.03375030308961868,0.46700647473335266,-4.078289031982422
1779959032719869200,12.419869140625,-0.5215262174606323,-0.31902438402175903,-3.7526979446411133
1779959032736208600,12.436208740234376,-0.6159048676490784,-0.9323330521583557,-2.791654109954834
1779959032752550400,12.45255029296875,-0.29504790902137756,-1.4460707902908325,-2.102292776107788
1779959032768882000,12.4688818359375,0.06979135423898697,-1.3839151859283447,-2.082286834716797
1779959032785216000,12.485216064453125,0.4066835343837738,-0.9471465349197388,-1.9605720043182373
1779959032801587500,12.50158740234375,0.38377609848976135,-0.5787948369979858,-1.285413146018982
1779959032817880800,12.517880859375,0.24358251690864563,-0.17562375962734222,-0.42241331934928894
1779959032834232800,12.53423291015625,0.28496864438056946,0.32039880752563477,0.3634648323059082
1779959032850566400,12.55056640625,0.30314189195632935,0.7153232097625732,1.0908526182174683
1779959032866898400,12.5668984375,0.17867808043956757,0.8623890280723572,1.6885842084884644
1779959032883218400,12.583218505859374,0.08414668589830399,0.7947356700897217,2.21698260307312
1779959032899553000,12.599552978515625,0.04612032696604729,0.5795583724975586,2.7324001789093018
1779959032915886000,12.615885986328125,-0.03390302136540413,0.2889392673969269,3.2511775493621826
1779959032932226600,12.6322265625,-0.14233160018920898,-0.05421429127454758,3.7308595180511475
1779959032948555500,12.648555419921875,-0.3937026560306549,-0.48288896679878235,4.024838447570801
1779959032964895000,12.66489501953125,-1.1192578077316284,-0.9104946255683899,3.992462635040283
1779959032981211000,12.6812109375,-1.7203491926193237,-1.4080443382263184,3.3924400806427
1779959032997548500,12.697548583984375,-1.5586227178573608,-1.4257594347000122,2.774549961090088
1779959033013885000,12.713885009765624,-0.9630290865898132,-1.3959797620773315,2.5608997344970703
1779959033030217500,12.730217529296874,-0.7944302558898926,-1.5764905214309692,2.0592267513275146
1779959033046550000,12.746550048828125,-1.1385000944137573,-1.3729196786880493,0.9103419184684753
1779959033062897700,12.762897705078124,-0.9828822016716003,-1.0754282474517822,-0.6223189830780029
1779959033079234800,12.77923486328125,-0.29764407873153687,-1.4338533878326416,-1.0881037712097168
1779959033095562800,12.795562744140625,0.4389066696166992,-0.4867068827152252,-1.2678507566452026
1779959033111892200,12.811892333984375,0.82207190990448,1.9443840980529785,-1.6322319507598877
1779959033128232200,12.828232177734375,1.52578866481781,0.9361509680747986,-1.325730323791504
1779959033144569900,12.84456982421875,1.1876747608184814,-2.3125832080841064,-0.7698429226875305
1779959033160900400,12.860900390625,0.09147707372903824,0.30344730615615845,-0.2716823220252991
1779959033177235700,12.877235595703125,-0.8181012868881226,2.26737904548645,0.33658674359321594
1779959033193570800,12.89357080078125,-0.956156849861145,2.082592248916626,1.2570079565048218
1779959033209899500,12.9098994140625,-0.38011088967323303,0.4411974251270294,1.5129605531692505
1779959033226239200,12.9262392578125,-0.009773843921720982,-0.3680463135242462,0.6827946305274963
1779959033242574000,12.942573974609376,0.10170906037092209,0.1365283876657486,0.004581489134579897
1779959033258892300,12.958892333984375,0.46990808844566345,0.19532416760921478,-0.4407392740249634
1779959033275229000,12.97522900390625,0.7681630253791809,-0.23609942197799683,-0.6540839672088623
1779959033291579600,12.99157958984375,0.8223773241043091,-0.2272418737411499,-0.342695415019989
1779959033307909400,13.007909423828124,0.6362161636352539,0.22418753802776337,-0.10216721147298813
1779959033324244500,13.024244384765625,0.5965099334716797,0.3039054572582245,-0.13271047174930573
1779959033340579300,13.040579345703126,0.6776022911071777,-0.07406741380691528,-0.2583959996700287
1779959033356909800,13.056909912109376,0.7336491346359253,-0.1466076523065567,-0.2964223623275757
1779959033373267000,13.073266845703126,0.6835582256317139,0.5259549617767334,-0.48456886410713196
1779959033389575400,13.089575439453125,0.580016553401947,1.2011138200759888,-0.9544769525527954
1779959033405911000,13.1059111328125,0.6073527932167053,1.6357444524765015,-1.5195273160934448
1779959033422253300,13.12225341796875,0.6299547553062439,1.930334210395813,-2.141082763671875
1779959033438583300,13.138583251953126,0.5931501388549805,2.049300193786621,-2.7980682849884033
1779959033454919000,13.1549189453125,0.4524984359741211,1.676672339439392,-3.5575265884399414
1779959033471250400,13.17125048828125,0.18081611394882202,0.7695375084877014,-4.109748840332031
1779959033487577900,13.187577880859376,-0.1310305893421173,-0.308792382478714,-3.826918125152588
1779959033503919600,13.203919677734374,-0.20723603665828705,-0.5739079117774963,-2.8788552284240723
1779959033520255700,13.220255859375,-0.15943582355976105,-1.0571023225784302,-1.911091923713684
1779959033536588300,13.23658837890625,0.19883663952350616,-1.0534371137619019,-1.432020902633667
1779959033552925000,13.252925048828125,0.7443392872810364,-0.5748242139816284,-1.4799737930297852
1779959033569239300,13.2692392578125,0.8765916228294373,-0.6667594313621521,-1.1679743528366089
1779959033585579800,13.285579833984375,0.566730260848999,-0.7096726894378662,-0.4651738703250885
1779959033601914400,13.301914306640626,0.28955012559890747,-0.2811507284641266,0.41691553592681885
1779959033618248400,13.31824853515625,0.168751522898674,0.152105450630188,1.203251838684082
1779959033634582500,13.33458251953125,0.06398813426494598,0.3588833212852478,1.9611828327178955
1779959033650910500,13.350910400390624,-0.052839845418930054,0.4973970353603363,2.806162118911743
1779959033667265300,13.367265380859376,-0.37339138984680176,0.6621779203414917,3.676187038421631
1779959033683596800,13.3835966796875,-0.816421389579773,0.5467243790626526,3.972914934158325
1779959033699921700,13.399921630859374,-1.118036150932312,0.08506298810243607,3.448028802871704
1779959033716266500,13.4162666015625,-1.2386820316314697,-0.4694499373435974,2.5282185077667236
1779959033732602600,13.4326025390625,-1.3910928964614868,-0.39706242084503174,2.2823452949523926
1779959033748930000,13.448929931640626,-1.3100005388259888,0.23075434565544128,2.906649589538574
1779959033765268200,13.465268310546875,-1.0502300262451172,0.1693623960018158,3.2346842288970947
1779959033781619500,13.481619384765626,-0.8561276197433472,-0.5816964507102966,2.9016098976135254
1779959033797971000,13.497970947265625,-0.6435465216636658,-0.6001750826835632,2.339461088180542
1779959033814267400,13.514267333984375,-0.5679519772529602,0.13026700913906097,1.4914275407791138
1779959033830617600,13.53061767578125,-0.5662720799446106,0.24755313992500305,0.45036038756370544
1779959033846952700,13.54695263671875,-0.2509129047393799,-0.4723515510559082,-0.5297728776931763
1779959033863271700,13.563271728515625,0.15882496535778046,-1.8790215253829956,-1.0954340696334839
1779959033879619800,13.579619873046875,0.503963828086853,-1.6800321340560913,-1.3112221956253052
1779959033895934000,13.595933837890625,0.3793473243713379,1.432020902633667,-1.630246639251709
1779959033912278800,13.61227880859375,0.39248090982437134,3.810577392578125,-1.6966781616210938
1779959033928610600,13.628610595703124,0.30253100395202637,2.328618288040161,-0.6310238242149353
1779959033944943400,13.644943359375,0.07895433157682419,-2.7733283042907715,1.3681854009628296
1779959033961278700,13.66127880859375,-0.1915062516927719,-3.406031847000122,2.0777053833007812
1779959033977611300,13.677611328125,-0.6328563690185547,1.1427761316299438,0.4873177409172058
1779959033993962000,13.6939619140625,-0.5874996781349182,3.364187717437744,-0.6684392690658569
1779959034010294000,13.7102939453125,-0.0029016099870204926,2.1183278560638428,0.04214970022439957
1779959034026609400,13.726609375,0.23289237916469574,1.6699528694152832,0.3962988257408142
1779959034042966300,13.74296630859375,0.575893223285675,0.888350784778595,-0.2194533348083496
1779959034059285500,13.759285400390626,0.609338104724884,-0.2298380434513092,-0.726471483707428
1779959034075633000,13.7756328125,0.4086688458919525,-1.209971308708191,-0.41462478041648865
1779959034091968300,13.79196826171875,0.18875735998153687,-2.0276143550872803,0.40133845806121826
1779959034108298800,13.808298828125,0.09315694868564606,-1.6383405923843384,0.826195240020752
1779959034124634600,13.824634521484375,0.11713340878486633,0.37629300355911255,0.35414913296699524
1779959034140939000,13.84093896484375,0.19257527589797974,1.6786576509475708,-0.18325957655906677
1779959034157287700,13.85728759765625,0.19685132801532745,1.1501065492630005,-0.3836233615875244
1779959034173623000,13.873623046875,0.19883663952350616,0.7144069075584412,-0.4775438904762268
1779959034189945000,13.889945068359374,0.1889100819826126,0.8460483551025391,-0.5522221922874451
1779959034206290200,13.906290283203125,0.18539759516716003,0.7554876208305359,-0.7877107262611389
1779959034222626000,13.9226259765625,0.18035796284675598,0.5934556126594543,-1.1612548828125
1779959034238962000,13.9389619140625,0.16752979159355164,0.5772676467895508,-1.5105170011520386
1779959034255294200,13.955294189453125,0.22342395782470703,0.5297728776931763,-2.021658420562744
1779959034271626500,13.97162646484375,0.16737708449363708,-0.07819075137376785,-2.610227108001709
1779959034287978200,13.987978271484375,-0.06902777403593063,-0.7912232279777527,-3.157562494277954
1779959034304310000,14.00431005859375,-0.17638733983039856,-0.9970847964286804,-3.6363279819488525
1779959034320644000,14.02064404296875,-0.2698497176170349,-1.3996449708938599,-3.612962484359741
1779959034336977400,14.036977294921876,0.060322944074869156,-1.5590808391571045,-3.2870659828186035
1779959034353313000,14.05331298828125,0.28557950258255005,-1.5815300941467285,-2.710409164428711
1779959034369616000,14.069615966796874,0.20586158335208893,-1.6659822463989258,-2.3495404720306396
1779959034385966300,14.08596630859375,0.18478673696517944,-1.6462818384170532,-2.034486770629883
1779959034402288400,14.102288330078125,0.1036943718791008,-1.089020013809204,-1.5519031286239624
1779959034418645000,14.11864501953125,-0.11560624837875366,-0.14004085958003998,-0.8579602241516113
1779959034434971600,14.1349716796875,-0.14553864300251007,0.5145012736320496,-0.12324206531047821
1779959034451304700,14.1513046875,0.10216721147298813,0.650418758392334,0.4386012554168701
1779959034467622700,14.16762255859375,0.12079860270023346,0.5181664228439331,0.8952230215072632
1779959034483960300,14.183960205078124,-0.08109235763549805,0.3920227587223053,1.3978123664855957
1779959034500294700,14.200294677734375,-0.33078351616859436,0.12217304855585098,1.976454496383667
1779959034516629000,14.21662890625,-0.4518875777721405,-0.26511552929878235,2.4362833499908447
1779959034532962600,14.232962646484374,-0.4386012554168701,-0.4427245855331421,2.733316421508789
1779959034549297400,14.24929736328125,-0.22876903414726257,-0.3627012372016907,2.775008201599121
1779959034565631000,14.265630859375,0.10308351367712021,-0.14049901068210602,2.601980447769165
1779959034581965800,14.2819658203125,0.17073683440685272,-0.007635815534740686,2.5218043327331543
1779959034598300400,14.298300537109375,-0.36789360642433167,0.20357084274291992,2.7516424655914307
1779959034614634500,14.314634521484376,-1.2347114086151123,0.2557998299598694,3.1482467651367188
1779959034630967800,14.3309677734375,-1.601230502128601,0.14340060949325562,3.522707223892212
1779959034647316700,14.347316650390624,-1.4495831727981567,0.01572977937757969,3.40832257270813
1779959034663649300,14.363649169921874,-0.9590584635734558,-0.3744603991508484,2.805093288421631
1779959034679970600,14.379970458984374,-0.5065600275993347,-1.3936890363693237,1.9935587644577026
1779959034696316400,14.39631640625,-0.26221391558647156,-2.4405593872070312,1.0583239793777466
1779959034712652000,14.412652099609375,-0.3119994103908539,-1.136362075805664,-0.6968445181846619
1779959034728989200,14.4289892578125,0.00855211354792118,0.5445863604545593,-1.074817419052124
1779959034745320200,14.4453203125,0.6433938145637512,1.218676209449768,-0.88361656665802
1779959034761654500,14.461654541015625,0.6745479702949524,1.7983872890472412,-1.7912095785140991
1779959034777996800,14.477996826171875,0.32100969552993774,2.1623103618621826,-2.464383125305176
1779959034794340000,14.494340087890626,0.1368338167667389,1.7712037563323975,-1.5887078046798706
1779959034810669600,14.510669677734375,0.04948008432984352,0.3975205719470978,0.3113885521888733
1779959034827016200,14.52701611328125,-0.1059851199388504,-1.6232216358184814,2.6960537433624268
1779959034843326500,14.543326416015624,-0.5662720799446106,-2.051438093185425,1.3996449708938599
1779959034859674600,14.559674560546876,0.03726277872920036,0.1966986060142517,-1.7892242670059204
1779959034875990000,14.575989990234374,0.5488623976707458,2.3486242294311523,-2.0706803798675537
1779959034892327400,14.592327392578126,0.6436992287635803,1.6865988969802856,-0.7887797355651855
1779959034908666000,14.608666015625,0.6415612101554871,0.79840087890625,0.3689626157283783
1779959034924996600,14.62499658203125,0.48426342010498047,-0.0936150997877121,0.9127854108810425
1779959034941330200,14.641330078125,0.247094988822937,-0.9605855941772461,1.01617431640625
1779959034957651500,14.6576513671875,0.31093040108680725,-1.2027937173843384,0.6360634565353394
1779959034974005500,14.674005615234375,0.5410739183425903,-0.5754350423812866,0.04444044828414917
1779959034990342700,14.6903427734375,0.537408709526062,0.10980302840471268,-0.19746218621730804
1779959035006698800,14.70669873046875,0.5015203952789307,0.21319197118282318,-0.14126259088516235
1779959035022996200,14.722996337890624,0.4983133375644684,0.44318273663520813,-0.25671613216400146
1779959035039348000,14.739347900390625,0.46563202142715454,0.8852964639663696,-0.47189339995384216
1779959035055688400,14.7556884765625,0.42042800784111023,0.9651671051979065,-0.6511823534965515
1779959035072003000,14.772003173828125,0.2710714638233185,0.7148650288581848,-0.5681046843528748
1779959035088349400,14.788349365234374,0.11820242553949356,0.48747047781944275,-0.49327367544174194
1779959035104686600,14.8046865234375,0.05742133408784866,0.5335907936096191,-0.7110471725463867
1779959035121025800,14.82102587890625,0.03649919852614403,0.4544837474822998,-1.1797335147857666
1779959035137352000,14.83735205078125,-0.024434609338641167,0.2710714638233185,-1.7273741960525513
1779959035153658000,14.853658203125,-0.04001167416572571,-0.02580905705690384,-2.395355224609375
1779959035169996500,14.86999658203125,-0.0835358202457428,-0.8181012868881226,-2.9608638286590576
1779959035186342100,14.886342041015626,-0.24007004499435425,-1.4993687868118286,-3.0395126342773438
1779959035202677500,14.902677490234375,-0.34147366881370544,-1.3228286504745483,-3.109456777572632
1779959035219012600,14.9190126953125,-0.2028072625398636,-1.6213890314102173,-2.850755453109741
1779959035235346000,14.935345947265626,0.008857546374201775,-2.136043071746826,-2.2855522632598877
1779959035251681000,14.951680908203125,0.08292495459318161,-1.9422460794448853,-1.8471038341522217
1779959035268026600,14.968026611328124,-0.10445795953273773,-0.9181304574012756,-1.2893837690353394
1779959035284362000,14.984362060546875,-0.1661553531885147,0.04489859566092491,-0.6644686460494995
1779959035300695800,15.00069580078125,-0.03390302136540413,0.2750420868396759,-0.25641068816185
1779959035317029400,15.017029296875,0.014813481830060482,0.045204028487205505,-0.04184427112340927
1779959035333365500,15.033365478515625,-0.0731511116027832,0.02229658141732216,0.2580905556678772
1779959035349682700,15.0496826171875,-0.21884247660636902,0.12568552792072296,0.7014260292053223
1779959035366029600,15.066029541015626,-0.30024027824401855,0.05207626149058342,1.1659890413284302
1779959035382353700,15.082353759765626,-0.42378777265548706,0.039095375686883926,1.623374342918396
1779959035398696200,15.0986962890625,-0.5140430927276611,0.11667526513338089,2.116037130355835
1779959035415010800,15.1150107421875,-0.5175555944442749,0.13118331134319305,2.557081937789917
1779959035431356200,15.131356201171876,-0.42577308416366577,0.0685696229338646,2.7563767433166504
1779959035447689500,15.147689453125,-0.308792382478714,-0.03084869496524334,2.660776376724243
1779959035464024600,15.164024658203125,-0.4075998365879059,-0.17150041460990906,2.5199718475341797
1779959035480375300,15.180375244140626,-0.7733554244041443,-0.24327708780765533,2.5499043464660645
1779959035496702500,15.196702392578125,-1.238223910331726,-0.3452915847301483,2.6264150142669678
1779959035513044000,15.2130439453125,-1.528690218925476,-0.37659841775894165,2.5276076793670654
1779959035529373400,15.22937353515625,-1.324508547782898,-0.5627595782279968,2.0115792751312256
1779959035545707800,15.245707763671875,-0.8831584453582764,-0.9894489645957947,1.2078332901000977
1779959035562044000,15.2620439453125,-0.9767735004425049,-1.6797267198562622,0.8504771590232849
1779959035578363400,15.27836328125,-1.0523680448532104,-2.4602596759796143,0.7689266204833984
1779959035594712300,15.29471240234375,-0.9036223888397217,-2.685516357421875,0.4531092941761017
1779959035611046400,15.31104638671875,0.039706241339445114,-2.99812650680542,-0.5426010489463806
1779959035627379200,15.327379150390625,1.021824836730957,-1.6180293560028076,-0.8323038816452026
1779959035643697400,15.343697509765626,1.264796495437622,1.5670220851898193,-1.2166908979415894
1779959035660022300,15.360022216796875,1.559233546257019,3.637244462966919,-1.3214542865753174
1779959035676363500,15.376363525390625,1.2994630336761475,-2.031890630722046,0.013744467869400978
1779959035692703500,15.392703369140625,0.6557638645172119,-3.7733147144317627,0.6449210047721863
1779959035709038000,15.4090380859375,-0.20051652193069458,1.9556851387023926,-0.13805554807186127
1779959035725372200,15.4253720703125,-0.5612324476242065,3.548058032989502,-0.6392704844474792
1779959035741706200,15.441706298828125,-0.1463022232055664,0.4427245855331421,-0.5154175758361816
1779959035758057200,15.45805712890625,0.23365595936775208,-1.6517796516418457,-0.4265366494655609
1779959035774387700,15.4743876953125,0.20097467303276062,-1.4497359991073608,-0.5091561675071716
1779959035790690600,15.490690673828125,0.2603813111782074,-0.9167560338973999,-0.5603161454200745
1779959035807057700,15.5070576171875,0.28955012559890747,-0.6663012504577637,-0.2600758671760559
1779959035823384800,15.523384765625,0.194713294506073,-0.5169447064399719,0.3361285924911499
1779959035839711200,15.539711181640625,0.16142113506793976,-0.29504790902137756,0.7619016766548157
1779959035856060000,15.556059814453125,0.4043927788734436,-0.3341432809829712,0.6279694437980652
1779959035872378000,15.572378173828126,0.6502660512924194,-0.5679519772529602,0.2151772826910019
1779959035888714500,15.588714599609375,0.5691736936569214,-0.4944954216480255,-0.06215553730726242
1779959035905048300,15.60504833984375,0.37690386176109314,-0.5166392922401428,-0.256868839263916
1779959035921382400,15.62138232421875,0.3065016269683838,-0.7341073155403137,-0.247094988822937
1779959035937715200,15.637715087890625,0.2877175211906433,-0.7195992469787598,0.04841107130050659
1779959035954038800,15.654038818359375,0.25213462114334106,-0.5761986374855042,0.21609358489513397
1779959035970401000,15.670401123046876,0.14752395451068878,-0.40744712948799133,0.04886921867728233
1779959035986732000,15.68673193359375,-0.0806342139840126,-0.10064005106687546,-0.24862214922904968
1779959036003067400,15.7030673828125,-0.32330042123794556,0.02626720629632473,-0.4179845452308655
1779959036019400400,15.719400390625,-0.4775438904762268,-0.4411974251270294,-0.3810271918773651
1779959036035735000,15.735735107421876,-0.39477166533470154,-1.249372124671936,-0.3436116874217987
1779959036052071200,15.7520712890625,-0.11698069423437119,-2.253329277038574,-0.3214678466320038
1779959036068401400,15.7684013671875,-0.10735956579446793,-2.838843584060669,-0.39904773235321045
1779959036084737800,15.78473779296875,-0.4147774875164032,-2.8131871223449707,-0.7525860071182251
1779959036101074200,15.80107421875,-0.7469354867935181,-2.6361889839172363,-1.299310326576233
1779959036117398300,15.817398193359375,-1.045495867729187,-2.5636487007141113,-1.7788395881652832
1779959036133714000,15.8337138671875,-1.2797627449035645,-2.665510416030884,-2.034792184829712
1779959036150048300,15.85004833984375,-1.4842498302459717,-2.805856704711914,-2.0778582096099854
1779959036166393900,15.866393798828126,-1.5004377365112305,-2.872899293899536,-1.9785925149917603
1779959036182722000,15.88272216796875,-1.379333734512329,-2.7065911293029785,-1.836719036102295
1779959036199064300,15.899064208984376,-1.2580770254135132,-2.347249746322632,-1.7143932580947876
1779959036215398000,15.91539794921875,-1.146135926246643,-1.997223973274231,-1.508837103843689
1779959036231731700,15.931731689453125,-1.4191926717758179,-2.6225972175598145,-1.116814374923706
1779959036248068000,15.948068115234374,-1.88558828830719,-3.8371500968933105,-0.6352998614311218
1779959036264414500,15.96441455078125,-2.202627420425415,-4.612490653991699,-0.521984338760376
1779959036280727300,15.980727294921875,-2.255467176437378,-5.30001974105835,-0.4531092941761017
1779959036297081900,15.997081787109375,-2.1305453777313232,-5.565745830535889,-0.41172316670417786
1779959036313398500,16.0133984375,-1.9743164777755737,-5.532606601715088,-0.5905539989471436
1779959036329735200,16.029735107421875,-1.9029979705810547,-5.497023582458496,-0.8500189781188965
1779959036346088400,16.04608837890625,-1.954005241394043,-5.475948810577393,-0.988074541091919
1779959036362400500,16.062400390625,-2.0790798664093018,-5.329340934753418,-1.013272762298584
1779959036378744300,16.078744384765624,-2.191326379776001,-5.156008243560791,-0.9807441234588623
1779959036395073800,16.09507373046875,-2.275320291519165,-5.048495769500732,-0.8849910497665405
1779959036411397600,16.111397705078126,-2.3041837215423584,-4.99229621887207,-0.7269296646118164
1779959036427741000,16.127740966796875,-2.283566951751709,-4.874399185180664,-0.5693264007568359
1779959036444076300,16.144076171875,-2.2989914417266846,-4.767039775848389,-0.5134322643280029
1779959036460394800,16.160394775390625,-2.3124303817749023,-4.6470046043396,-0.6180428862571716
1779959036476744000,16.176743896484375,-2.127490997314453,-4.444044589996338,-0.760832667350769
1779959036493067800,16.19306787109375,-1.8613064289093018,-4.196338653564453,-0.8631525635719299
1779959036509400800,16.20940087890625,-1.624596118927002,-4.0462188720703125,-1.027475357055664
1779959036525736200,16.225736083984376,-1.4466816186904907,-3.9295434951782227,-1.3565789461135864
1779959036542069500,16.242069580078127,-1.3600914478302002,-3.9799396991729736,-1.7150042057037354
1779959036558417400,16.25841748046875,-1.1378892660140991,-4.067446231842041,-1.890017032623291
1779959036574744000,16.274744140625,-0.898124635219574,-3.988797426223755,-2.0176877975463867
1779959036591086600,16.291086669921874,-0.7806857824325562,-3.7980546951293945,-2.1759018898010254
1779959036607414500,16.30741455078125,-0.8633053302764893,-3.29943585395813,-2.280359983444214
1779959036623752400,16.32375244140625,-1.100015640258789,-2.783712863922119,-2.292119026184082
1779959036640087000,16.340087158203126,-1.3124439716339111,-2.381610870361328,-2.2902865409851074
1779959036656417000,16.3564169921875,-1.4022411108016968,-2.28631591796875,-2.271960496902466
1779959036672757800,16.3727578125,-1.431868076324463,-2.336406946182251,-2.2372939586639404
1779959036689089500,16.389089599609374,-1.4546228647232056,-2.4976751804351807,-2.154674530029297
1779959036705423600,16.405423583984376,-1.4065172672271729,-2.4966063499450684,-2.0563251972198486
1779959036721758500,16.421758544921875,-1.2947288751602173,-2.2815816402435303,-1.9336938858032227
1779959036738079700,16.438079833984375,-1.229519009590149,-1.818698525428772,-1.7634152173995972
1779959036754402600,16.454402587890623,-1.218676209449768,-1.2563971281051636,-1.5511395931243896
1779959036770778600,16.470778564453123,-1.214552879333496,-0.7609853744506836,-1.2305880784988403
1779959036787091000,16.487091064453125,-1.21027672290802,-0.3591887652873993,-0.7684684991836548
1779959036803438800,16.50343896484375,-1.193172574043274,0.05009094998240471,-0.19822576642036438
1779959036819786000,16.519785888671876,-1.106735110282898,0.23640485107898712,0.2996293902397156
1779959036836112100,16.536112060546873,-0.9199630618095398,0.1371392458677292,0.6415612101554871
1779959036852431400,16.552431396484376,-0.7476990818977356,-0.017562376335263252,0.8249735236167908
1779959036868772400,16.5687724609375,-0.6737843751907349,-0.1469130963087082,0.9104946255683899
1779959036885098800,16.5850986328125,-0.6727153658866882,-0.17256943881511688,1.151481032371521
1779959036901434000,16.60143408203125,-0.709061861038208,-0.06291911751031876,1.635591745376587
1779959036917768000,16.617767822265623,-0.7024950385093689,0.46593746542930603,1.797776460647583
1779959036934101000,16.63410107421875,-0.36224308609962463,1.2043207883834839,1.0911580324172974
1779959036950440200,16.650440185546874,0.24556782841682434,1.0175487995147705,0.6459900140762329
1779959036966795800,16.666795654296877,0.4749477207660675,0.5102251768112183,1.068861484527588
1779959036983107800,16.68310791015625,0.24419337511062622,0.9521862268447876,1.5541938543319702
1779959036999450400,16.699450439453123,0.011453723534941673,1.5916093587875366,1.7111862897872925
1779959037015786500,16.715786376953126,-0.16920967400074005,1.69148588180542,1.6484198570251465
1779959037032118500,16.732118408203124,-0.24663683772087097,1.567480206489563,1.53525710105896
1779959037048458200,16.748458251953124,-0.21212296187877655,1.2822061777114868,1.4636331796646118
1779959037064789800,16.764789794921874,0.044745877385139465,0.7307475209236145,1.5534303188323975
1779959037081108000,16.78110791015625,0.24877487123012543,-0.03573561832308769,1.6259706020355225
1779959037097443000,16.797443115234376,0.2779437005519867,-0.29184088110923767,1.6586518287658691
1779959037113762000,16.813761962890624,0.17989981174468994,0.060475658625364304,1.8529070615768433
1779959037130099700,16.830099609375,0.04138612002134323,0.6478226184844971,2.0644190311431885
1779959037146434300,16.846434326171874,-0.08414668589830399,0.897513747215271,2.3122775554656982
1779959037162768600,16.8627685546875,-0.096211276948452,0.7012733221054077,2.375502109527588
1779959037179102500,16.8791025390625,-0.13271047174930573,-0.0354301854968071,2.149634838104248
1779959037195453000,16.895452880859374,-0.21395555138587952,-0.5215262174606323,1.7521142959594727
1779959037211783200,16.911783203125,-0.2912299931049347,-0.7455610036849976,1.335504174232483
1779959037228116700,16.92811669921875,-0.3572034537792206,-0.7802276611328125,1.096961259841919
1779959037244451300,16.944451416015625,-0.28267788887023926,-0.7759515643119812,0.9648616313934326
1779959037260786400,16.960786376953124,-0.09712757170200348,-0.8300131559371948,0.8944594264030457
1779959037277119200,16.977119140625,0.10399980843067169,-0.7635815739631653,0.8254316449165344
1779959037293457400,16.99345751953125,0.32620203495025635,-0.5419901609420776,0.7834346890449524
1779959037309802000,17.009802001953126,0.31932979822158813,-0.1693623960018158,0.7341073155403137
1779959037326122000,17.0261220703125,0.3727805018424988,0.13041973114013672,0.6392704844474792
1779959037342468600,17.042468505859375,0.33047810196876526,0.1547016203403473,0.5812382698059082
1779959037358791200,17.058791259765623,0.1371392458677292,-0.09437867999076843,0.5833762884140015
1779959037375125500,17.07512548828125,0.14095716178417206,-0.4813618063926697,0.5090034604072571
1779959037391459300,17.091459228515625,0.2050980031490326,-0.5549710988998413,0.41599923372268677
1779959037407785500,17.107785400390625,0.12797626852989197,-0.1270599663257599,0.6081163287162781
1779959037424128000,17.1241279296875,0.05619960278272629,0.004123340360820293,0.9187413454055786
1779959037440463600,17.140463623046877,-0.016798794269561768,-0.3211624026298523,1.173624873161316
1779959037456811800,17.156811767578127,-0.2776382565498352,-0.7408268451690674,1.2904528379440308
1779959037473145300,17.173145263671874,-0.4080579876899719,-0.7661777138710022,1.1557570695877075
1779959037489472300,17.18947216796875,-0.34345898032188416,-0.7553348541259766,0.7037167549133301
1779959037505809400,17.205809326171874,-0.1485929638147354,-0.10812314599752426,-0.076052725315094
1779959037522155000,17.222155029296875,0.00045814894838258624,0.6233879923820496,-0.8391761183738708
1779959037538493000,17.238492919921875,0.050854530185461044,0.6354525685310364,-1.5567901134490967
1779959037554814200,17.254814208984374,0.2496911734342575,-0.13988813757896423,-2.203085422515869
1779959037571133200,17.27113330078125,0.49693888425827026,-1.106735110282898,-2.911383867263794
1779959037587482400,17.287482421875,0.6985244154930115,-1.6421585083007812,-3.7536141872406006
1779959037603800800,17.30380078125,0.8509352803230286,-1.2933543920516968,-4.353025913238525
1779959037620138800,17.320138671875,1.0297660827636719,0.10903944820165634,-4.542699337005615
1779959037636471300,17.33647119140625,1.338711142539978,1.5729780197143555,-4.120285987854004
1779959037652807200,17.35280712890625,1.4234687089920044,1.3784173727035522,-2.793944835662842
1779959037669141000,17.36914111328125,0.5855143666267395,0.18539759516716003,-1.5205962657928467
1779959037685475000,17.38547509765625,-0.14019356667995453,-0.3068070709705353,-1.5508341789245605
1779959037701809400,17.401809326171875,0.2255619913339615,-0.8868235945701599,-2.1368067264556885
1779959037718142200,17.41814208984375,0.40485092997550964,-0.475253164768219,-2.793792247772217
1779959037734477000,17.43447705078125,0.3032945990562439,-0.07895433157682419,-3.148552179336548
1779959037750812200,17.450812255859375,0.19853121042251587,-0.4283692538738251,-3.0914363861083984
1779959037767148300,17.467148193359375,-0.17928895354270935,-0.9040805697441101,-2.861598253250122
1779959037783477000,17.48347705078125,-0.36071592569351196,-0.8553640842437744,-2.8493809700012207
1779959037799813400,17.4998134765625,-0.20861047506332397,-0.8327620625495911,-2.5857925415039062
1779959037816163600,17.51616357421875,-0.32039880752563477,-0.8758280277252197,-2.2521073818206787
1779959037832500500,17.53250048828125,-0.3675881624221802,-0.851393461227417,-2.0060815811157227
1779959037848812500,17.5488125,-0.3799581825733185,-0.8051204085350037,-1.5013540983200073
1779959037865141800,17.565141845703124,-0.5221370458602905,-0.5140430927276611,-0.7735081315040588
1779959037881485600,17.581485595703125,-0.6362161636352539,-0.24755313992500305,-0.051770828664302826
1779959037897817900,17.59781787109375,-0.6029239892959595,-0.2583959996700287,0.41004329919815063
1779959037914154000,17.614154052734374,-0.5729916095733643,-0.4054618179798126,0.7177666425704956
1779959037930488300,17.63048828125,-0.6788240075111389,-0.399200439453125,0.9892962574958801
1779959037946821400,17.6468212890625,-0.8397870063781738,-0.17867808043956757,1.3645201921463013
1779959037963174700,17.663174560546874,-1.0348057746887207,0.14004085958003998,2.0589213371276855
1779959037979472000,17.679471923828125,-0.99876469373703,0.8500189781188965,2.2290472984313965
1779959037995812000,17.69581201171875,-0.8396342992782593,1.6366606950759888,1.4069753885269165
1779959038012147500,17.7121474609375,-0.33200526237487793,1.3756685256958008,1.588249683380127
1779959038028480800,17.728480712890626,-0.2857322096824646,0.9402743577957153,2.232712507247925
1779959038044814800,17.74481494140625,-0.29245173931121826,1.3054190874099731,2.4811818599700928
1779959038061149200,17.761149169921875,-0.3623957931995392,2.043649673461914,2.800511598587036
1779959038077482800,17.777482666015626,-0.280539870262146,2.0587685108184814,2.853504180908203
1779959038093815800,17.79381591796875,0.05115996301174164,1.6768250465393066,2.9100093841552734
1779959038110152400,17.81015234375,0.4106541574001312,1.3921618461608887,2.9352076053619385
1779959038126485200,17.8264853515625,0.7435756921768188,1.3758212327957153,2.8037188053131104
1779959038142835700,17.842835693359376,1.0487029552459717,1.3800972700119019,2.8971810340881348
1779959038159167000,17.8591669921875,1.3202325105667114,1.28128981590271,3.0607402324676514
1779959038175500500,17.87550048828125,1.4300355911254883,0.6724098920822144,2.5642595291137695
1779959038191835000,17.8918349609375,0.9825767278671265,-1.1296426057815552,1.5471689701080322
1779959038208168200,17.908168212890626,0.31093040108680725,-1.7942639589309692,1.1261301040649414
1779959038224504800,17.9245048828125,-0.3425426781177521,-0.6954700946807861,1.4220943450927734
1779959038240836600,17.940836669921875,-0.9074403047561646,1.051146388053894,1.7328720092773438
1779959038257171000,17.9571708984375,-1.0235047340393066,1.8889480829238892,1.7892242670059204
1779959038273514800,17.9735146484375,-0.6704245805740356,1.5522085428237915,1.4854716062545776
1779959038289841000,17.9898408203125,-0.45142942667007446,0.9647089242935181,0.9411906003952026
1779959038306185700,18.006185791015625,-0.4054618179798126,0.41401392221450806,0.7218900322914124
1779959038322512000,18.022511962890626,-0.34315356612205505,-0.18936823308467865,0.6403394937515259
1779959038338835200,18.038835205078126,-0.16844609379768372,-0.483957976102829,0.32330042123794556
1779959038355177500,18.055177490234374,-0.007788531947880983,-0.3049744665622711,0.04535674303770065
1779959038371511000,18.071510986328125,0.12507465481758118,-0.19303341209888458,-0.24648413062095642
1779959038387847000,18.087846923828124,0.38728857040405273,-0.31932979822158813,-0.6800457239151001
1779959038404179700,18.1041796875,0.542142927646637,-0.39996400475502014,-0.7003570199012756
1779959038420514000,18.12051416015625,0.43799036741256714,0.07773260027170181,-0.31230485439300537
1779959038436864300,18.1368642578125,0.21670444309711456,1.419498085975647,0.3219259977340698
1779959038453182000,18.153181884765626,0.08659014850854874,1.7095063924789429,0.6604980230331421
1779959038469531000,18.16953076171875,0.20265454053878784,0.2658790946006775,0.7072292566299438
1779959038485864400,18.185864501953127,0.3367394804954529,-0.6620252132415771,0.665232241153717
1779959038502200000,18.202199951171874,0.4401284158229828,-0.45875978469848633,0.6772968173027039
1779959038518531800,18.21853173828125,0.6029239892959595,-0.17409659922122955,0.8642216324806213
1779959038534873000,18.234873046875,0.5259549617767334,-0.15454891324043274,1.1099421977996826
1779959038551217400,18.251217529296873,0.3300199508666992,-0.3139847218990326,1.1911872625350952
1779959038567533300,18.267533203125,0.17699819803237915,-0.34437528252601624,1.1803443431854248
1779959038583853600,18.283853515625,0.062460970133543015,-0.4434881806373596,1.00502610206604
1779959038600190000,18.30018994140625,0.008399397134780884,-0.5552765130996704,0.5916230082511902
1779959038616525000,18.316525146484373,0.01710422709584236,-0.4870123267173767,-0.05360342562198639
1779959038632859100,18.332859130859376,0.03390302136540413,-0.04245513305068016,-0.7586946487426758
1779959038649192700,18.349192626953126,-0.17440202832221985,0.21639901399612427,-1.2811371088027954
1779959038665523000,18.36552294921875,-0.17287486791610718,0.07819075137376785,-1.7143932580947876
1779959038681865000,18.381864990234376,0.13179416954517365,-0.27947086095809937,-2.272265911102295
1779959038698194000,18.39819384765625,0.4460843503475189,-0.9841039180755615,-3.081204414367676
1779959038714528500,18.414528564453125,0.6629415154457092,-1.211803913116455,-4.0381245613098145
1779959038730864000,18.430864013671876,0.6352998614311218,-0.3842342495918274,-4.513377666473389
1779959038747196400,18.447196533203126,0.29504790902137756,0.7228062748908997,-4.363868713378906
1779959038763531500,18.463531494140625,0.021838432177901268,0.7134906053543091,-3.665191411972046
1779959038779865300,18.479865234375,0.06490442901849747,0.016340645030140877,-2.537075996398926
1779959038796212500,18.49621240234375,-0.06734789162874222,0.2151772826910019,-2.0053179264068604
1779959038812548400,18.51254833984375,-0.622013509273529,0.18387043476104736,-2.024407386779785
1779959038828864300,18.5288642578125,-0.9946413636207581,0.197004035115242,-2.6482534408569336
1779959038845202700,18.54520263671875,-0.631481945514679,-0.308792382478714,-3.428481101989746
1779959038861537000,18.561537109375,-0.3669773042201996,-1.0154107809066772,-3.7812559604644775
1779959038877869600,18.57786962890625,-0.47907108068466187,-1.4271339178085327,-3.847229242324829
1779959038894204700,18.59420458984375,-0.4642575979232788,-1.2015719413757324,-3.5866951942443848
1779959038910539800,18.610539794921873,-0.44104471802711487,-1.0630582571029663,-2.998279333114624
1779959038926875100,18.626875244140624,-0.5653557777404785,-1.326035737991333,-2.7065911293029785
1779959038943205400,18.643205322265626,-0.5015203952789307,-1.6586518287658691,-2.4272730350494385
1779959038959550000,18.659550048828127,-0.3900374472141266,-1.794722080230713,-2.048994779586792
1779959038975885000,18.675885009765626,-0.3344487249851227,-1.58259916305542,-1.4899003505706787
1779959038992231200,18.692231201171875,-0.3257438838481903,-1.1644618511199951,-0.7385360598564148
1779959039008542500,18.70854248046875,-0.2874121069908142,-0.6632469296455383,-0.009010262787342072
1779959039024890400,18.724890380859375,-0.26404649019241333,-0.15347988903522491,0.5923865437507629
1779959039041216800,18.741216796875,-0.32498031854629517,0.12202033400535583,1.1311696767807007
1779959039057559300,18.757559326171876,-0.46731191873550415,0.1736384481191635,1.7058411836624146
1779959039073877800,18.773877685546875,-0.566119372844696,0.05497787147760391,2.601522445678711
1779959039090214700,18.790214599609374,-0.5337435007095337,0.40882155299186707,3.3924400806427
1779959039106548500,18.806548583984377,-0.3182607889175415,1.7206547260284424,2.515542984008789
1779959039122883000,18.822883056640624,-0.14156801998615265,2.5474607944488525,1.5496124029159546
1779959039139217700,18.8392177734375,0.11835514008998871,1.8145751953125,1.9475910663604736
1779959039155550700,18.85555078125,-0.04993823543190956,1.394299864768982,2.3134994506835938
1779959039171900000,18.87189990234375,-0.1791362315416336,0.5488623976707458,2.324800491333008
1779959039188216000,18.888216064453125,-0.3966042697429657,0.6850853562355042,2.4741568565368652
1779959039204556500,18.904556640625,-0.3419318199157715,0.7296785116195679,2.2629501819610596
1779959039220887600,18.920887451171875,-0.1869247704744339,0.570242702960968,2.0972530841827393
1779959039237221000,18.93722119140625,-0.008704829961061478,0.5684100985527039,2.0305161476135254
1779959039253557000,18.953556884765625,0.46960264444351196,0.7958046793937683,2.0089831352233887
1779959039269898800,18.969898681640625,1.3194689750671387,0.7698429226875305,2.1600193977355957
1779959039286240500,18.986240478515626,1.9289597272872925,-0.01970040425658226,2.2395846843719482
1779959039302573300,19.0025732421875,1.6145168542861938,-0.15531249344348907,1.8558086156845093
1779959039318905600,19.018905517578126,0.3911064863204956,-0.2194533348083496,1.3058772087097168
1779959039335213800,19.0352138671875,-0.42928555607795715,-0.3484986126422882,1.4385876655578613
1779959039351562200,19.051562255859373,-0.8985827565193176,0.012828170321881771,1.6936239004135132
1779959039367898400,19.0678984375,-0.8306240439414978,0.1459967941045761,1.7941112518310547
1779959039384228900,19.084228759765626,-0.6751587986946106,0.28649580478668213,1.7127134799957275
1779959039400565200,19.100565185546873,-0.5238169431686401,0.7316638231277466,1.57313072681427
1779959039416895000,19.11689501953125,-0.41691553592681885,0.7583891749382019,1.436144232749939
1779959039433254000,19.13325390625,-0.2344195395708084,0.408974289894104,1.299310326576233
1779959039449580000,19.149580078125,-0.0708603709936142,-0.2119702398777008,1.0971139669418335
1779959039465895700,19.165895751953126,0.08659014850854874,-0.5158756971359253,0.8827002644538879
1779959039482254300,19.18225439453125,0.15332718193531036,-0.2145664244890213,0.7425066828727722
1779959039498582800,19.198582763671876,0.02519819140434265,0.34666603803634644,0.5736024379730225
1779959039514912800,19.214912841796874,-0.09392052888870239,0.8655960559844971,0.4043927788734436
1779959039531256600,19.231256591796875,-0.06612616032361984,1.1774427890777588,0.24266621470451355
1779959039547584800,19.247584716796876,-0.00931569468230009,1.2909109592437744,0.18066339194774628
1779959039563902000,19.26390185546875,0.023060163483023643,1.2615894079208374,0.2742784917354584
1779959039580236300,19.280236328125,0.12247848510742188,0.8411614298820496,0.4810563921928406
1779959039596582100,19.29658203125,0.2736676335334778,0.27000242471694946,0.727998673915863
1779959039612907800,19.31290771484375,0.3790418803691864,0.540921151638031,0.9669997096061707
1779959039629243600,19.32924365234375,0.3804163336753845,0.88987797498703,1.1001683473587036
1779959039645562400,19.345562255859374,0.24113905429840088,0.4108068645000458,1.1699596643447876
1779959039661901600,19.361901611328125,0.06811147183179855,-0.30344730615615845,1.2702943086624146
1779959039678244600,19.37824462890625,-0.07987063378095627,-0.40194934606552124,1.249372124671936
1779959039694580000,19.394580078125,-0.0936150997877121,0.02122756652534008,0.9204211831092834
1779959039710913300,19.410913330078124,-0.10048733651638031,0.1270599663257599,0.3599523603916168
1779959039727247600,19.42724755859375,-0.055741455405950546,0.022449297830462456,-0.17577648162841797
1779959039743582700,19.443582763671873,0.09269879758358002,-0.2802344262599945,-0.8651378750801086
1779959039759898600,19.459898681640624,0.29275718331336975,-0.7018841505050659,-1.722640037536621
1779959039776255200,19.476255126953124,0.4184426963329315,-1.037249207496643,-2.484541654586792
1779959039792599300,19.492599365234376,0.4349360466003418,-1.3542882204055786,-3.182149887084961
1779959039808932600,19.5089326171875,0.3988949954509735,-1.3564262390136719,-3.9593231678009033
1779959039825250800,19.525250732421874,0.35903605818748474,-0.6155994534492493,-4.354400157928467
1779959039841587700,19.541587646484373,0.2981022298336029,0.8042041063308716,-4.032321453094482
1779959039857921000,19.557921142578124,0.23411411046981812,1.6617062091827393,-3.2369749546051025
1779959039874253600,19.574253662109374,-0.2538145184516907,0.7590000629425049,-1.9950858354568481
1779959039890593000,19.590593017578126,-0.6111706495285034,-0.04199698567390442,-1.3449726104736328
1779959039906923500,19.606923583984376,-0.5207626223564148,-0.6898195743560791,-1.7751743793487549
1779959039923258600,19.623258544921875,0.029932396486401558,-1.8779524564743042,-2.782796621322632
1779959039939606000,19.63960595703125,0.49953505396842957,-2.4110851287841797,-3.8489091396331787
1779959039955937300,19.655937255859374,0.4337143301963806,-1.8530597686767578,-4.513530731201172
1779959039972264200,19.67226416015625,0.07070764899253845,-0.9598219990730286,-4.163352012634277
1779959039988601600,19.6886015625,-0.11774427443742752,-0.5606215596199036,-3.4035885334014893
1779959040004918300,19.704918212890625,-0.1362229436635971,-0.503047525882721,-2.8858802318573
1779959040021251800,19.721251953125,-0.16294831037521362,-0.47250425815582275,-2.6003005504608154
1779959040037600300,19.737600341796874,-0.2451096773147583,-0.5687155723571777,-2.554943799972534
1779959040053931000,19.753930908203124,-0.1661553531885147,-0.6702718734741211,-2.479349374771118
1779959040070267000,19.770266845703127,-0.06551529467105865,-0.7900014519691467,-2.1375701427459717
1779959040086591700,19.786591796875,-0.05268712714314461,-0.8576548099517822,-1.607797384262085
1779959040102933000,19.80293310546875,-0.06673702597618103,-0.7941248416900635,-0.9579893946647644
1779959040119269600,19.81926953125,-0.1281289905309677,-0.5360342264175415,-0.3594942092895508
1779959040135600400,19.835600341796876,-0.22189679741859436,0.054825156927108765,0.1996002197265625
1779959040151955200,19.851955078125,-0.3211624026298523,0.5557346343994141,0.7661777138710022
1779959040168302600,19.868302490234374,-0.4749477207660675,0.7666358947753906,1.3231340646743774
1779959040184605000,19.88460498046875,-0.6600399017333984,0.6676757335662842,1.8774943351745605
1779959040200934000,19.900933837890626,-0.8871290683746338,0.05406157299876213,2.7534751892089844
1779959040217276400,19.9172763671875,-1.0213667154312134,0.5009095072746277,3.528663158416748
1779959040233608200,19.933608154296873,-0.9396634697914124,2.1704041957855225,2.967583417892456
1779959040249931500,19.949931640625,-0.7163922190666199,2.9440650939941406,1.9396498203277588
1779959040266273800,19.966273681640626,0.057879481464624405,1.6284140348434448,1.9898935556411743
1779959040282627600,19.982627685546873,-0.05864306539297104,0.5482515692710876,2.433839797973633
1779959040298957300,19.998957275390627,-0.33368512988090515,-0.1469130963087082,2.4106268882751465
1779959040315276000,20.015276123046874,-0.44089198112487793,0.19288070499897003,2.2311851978302
1779959040331613400,20.031613525390625,-0.3321579694747925,0.20463985204696655,1.97080397605896
1779959040347947000,20.047947021484376,-0.001527163083665073,0.3550654351711273,1.7692184448242188
1779959040364281900,20.06428173828125,0.6688974499702454,0.7542658448219299,1.7629570960998535
1779959040380616400,20.080616455078125,1.4946345090866089,1.1892019510269165,2.0584630966186523
1779959040396938200,20.096938232421873,1.9532415866851807,0.7519751191139221,2.0201313495635986
1779959040413298700,20.113298583984374,1.5108224153518677,0.30711251497268677,1.821752905845642
1779959040429617200,20.1296171875,0.7664831876754761,-0.11453723162412643,1.8926132917404175
1779959040445961200,20.145961181640626,-0.17470745742321014,-0.2541199326515198,1.9449949264526367
1779959040462287600,20.16228759765625,-0.6194173693656921,-0.408363401889801,1.856266736984253
1779959040478614300,20.1786142578125,-0.6177374720573425,-0.5102251768112183,1.685835361480713
1779959040494970400,20.194970458984375,-0.5807801485061646,-0.4645630121231079,1.6983580589294434
1779959040511287000,20.211287109375,-0.5111414790153503,0.14065171778202057,1.6792685985565186
1779959040527622700,20.22762255859375,-0.4308127164840698,0.270766019821167,1.5294538736343384
1779959040543959600,20.24395947265625,-0.3523165285587311,-0.0328340083360672,1.2932016849517822
1779959040560292400,20.260292236328127,-0.12782354652881622,-0.5036584138870239,1.0005972385406494
1779959040576628700,20.276628662109374,0.0910189226269722,-0.7296785116195679,0.698677122592926
1779959040592960000,20.2929599609375,0.23319780826568604,-0.34865134954452515,0.5229006409645081
1779959040609277400,20.30927734375,0.19578230381011963,0.16982053220272064,0.47907108068466187
1779959040625629200,20.325629150390625,0.08689557760953903,0.5697845816612244,0.4430300295352936
1779959040641963500,20.341963623046876,0.08017606288194656,0.9564622640609741,0.3295617997646332
1779959040658278400,20.3582783203125,0.08567385375499725,1.2570079565048218,0.2344195395708084
1779959040674618600,20.37461865234375,0.07483099400997162,1.2487612962722778,0.299476683139801
1779959040690955000,20.390955078125,0.10919216275215149,0.6968445181846619,0.4703662395477295
1779959040707286300,20.407286376953124,0.21853704750537872,0.15851953625679016,0.5442809462547302
1779959040723621400,20.423621337890626,0.35063666105270386,0.11545353382825851,0.5048801302909851
1779959040739959300,20.439959228515626,0.4499022662639618,0.12919799983501434,0.5807801485061646
1779959040756300800,20.45630078125,0.5265658497810364,-0.24617868661880493,0.7049384713172913
1779959040772636000,20.472635986328125,0.48319441080093384,-0.26511552929878235,1.045495867729187
