time,seconds_elapsed,z,y,x
1780099067008557800,0.057557861328125,-3.1176679101526736,1.2794187555417418,-0.35321671413071454
1780099067018549800,0.0675498046875,-3.104242611390352,1.3052930553801356,-0.5365019186114892
1780099067028541700,0.077541748046875,-2.576235805130005,0.8630924550905823,-0.6317886677742004
1780099067038533600,0.08753369140625,-1.6169699177026748,0.3354582815349102,-0.6209331464346498
1780099067048525800,0.09752587890625,-0.7954518742769956,-0.008328267884254455,-0.6185879715479911
1780099067058517800,0.107517822265625,-0.09261106368005276,-0.18056246498599648,-0.5891975168148055
1780099067068509700,0.117509765625,0.6150906309515237,-0.1777894931413233,-0.5307610734045505
1780099067078501600,0.127501708984375,1.187544481703639,-0.1371969321206212,-0.4394153534851968
1780099067088493800,0.137493896484375,1.4675146847724914,-0.19416662744656205,-0.3413428095288574
1780099067098485800,0.14748583984375,1.4349667523890732,-0.33277196506038303,-0.33446419246364384
1780099067108478000,0.15747802734375,1.2129285138070582,-0.40073914747983214,-0.501284292094782
1780099067118469600,0.1674697265625,1.0208084436267615,-0.3237152367711067,-0.7656248182248324
1780099067128461800,0.1774619140625,0.8717074309617281,-0.24958266358971595,-0.8777279333602637
1780099067138454800,0.187454833984375,0.7362818924278021,-0.2269464688897133,-0.8006929898008703
1780099067148446700,0.19744677734375,0.583657381811738,-0.14430033438503742,-0.6191271929912269
1780099067158438700,0.207438720703125,0.5969558393239974,0.02455459554195404,-0.4342155563523993
1780099067168430800,0.217430908203125,0.702631551760435,0.21042086602449417,-0.2813742063815705
1780099067178422800,0.2274228515625,0.7474632116556167,0.2457248191177845,-0.17503054982200264
1780099067188414700,0.237414794921875,0.8339134146183729,0.200726862744987,-0.09448652956257574
1780099067198406700,0.24740673828125,0.9049772478789091,0.13621975765153765,0.011397519261762499
1780099067208398800,0.25739892578125,0.9417723163127899,0.0672564038015902,0.1234689971499145
1780099067218390800,0.267390869140625,0.8867366577893495,0.007074030039459466,0.23565734288338572
1780099067228382700,0.2773828125,0.8444833239495754,-0.002307107898592949,0.36668501178454604
1780099067238374700,0.287374755859375,0.8505512456864118,0.05830912723615765,0.4912539695329964
1780099067248366800,0.297366943359375,0.8406728257507086,-0.02103489698320627,0.5856998474247753
1780099067258358800,0.30735888671875,0.8829203143715858,-0.08862477052286266,0.5208753469452262
1780099067268350700,0.317350830078125,0.9815034381985663,-0.15528174712657927,0.36958332704193886
1780099067278342700,0.3273427734375,1.1070026260018349,-0.2676192555397749,0.24327554453583433
1780099067288334800,0.3373349609375,1.2699264123141765,-0.3690259123548865,0.11386990561224519
1780099067298327800,0.347327880859375,1.336608669489622,-0.4810378420755267,0.04631689348425716
1780099067308319700,0.35731982421875,1.3294886083513497,-0.5684875774696468,-0.0010674831010401248
1780099067318311700,0.367311767578125,1.3603759140461682,-0.5814943585589528,-0.07482486629448831
1780099067328303900,0.377303955078125,1.3554337814688682,-0.5947451775372028,-0.1476755829717964
1780099067338295800,0.3872958984375,1.261734338030219,-0.6492685026243329,-0.11447996380198747
1780099067348287700,0.397287841796875,1.0481319193601608,-0.7221373394802212,-0.08669687120020389
1780099067358279700,0.40727978515625,0.6987783834636211,-0.8408777006730437,-0.09667122579105197
1780099067368272000,0.41727197265625,0.0740390496790409,-0.8538686996713281,-0.16609788630381225
1780099067378263800,0.427263916015625,-0.4491927972644567,-0.7272226799204945,-0.22511899773422628
1780099067388255700,0.437255859375,-0.6649567778825759,-0.505371780604124,-0.1417381557468325
1780099067398247700,0.44724755859375,-0.6398714364647865,-0.3467465682685375,0.037263599261082705
1780099067408239900,0.457239990234375,-0.4972574477314949,-0.2561915603354573,0.21418452940694988
1780099067418231800,0.467231689453125,-0.2282926228016615,-0.29857582707852126,0.3065778952157125
1780099067428223700,0.4772236328125,0.18527707241773606,-0.434419591024518,0.3105680242978036
1780099067438215700,0.487215576171875,0.4699000697284937,-0.561931872215867,0.2129581294171512
1780099067448207600,0.49720751953125,0.491977461501956,-0.6675909257784486,0.10314389240387827
1780099067458199800,0.50719970703125,0.18468027556836605,-0.6278636032849549,0.07006338751371949
1780099067468191700,0.517191650390625,-0.31307810742259023,-0.49388884808123107,0.04677439146079123
1780099067478184700,0.527184814453125,-0.8186474564254284,-0.3481362690612674,0.044583859146572646
1780099067488177000,0.537177001953125,-1.2595599166005849,-0.14556173262298105,0.053431876588612794
1780099067498168800,0.5471689453125,-1.6237994714617727,0.021076398037374017,-0.07839837739970534
1780099067508160800,0.557160888671875,-1.794381663572788,0.18599223494976758,-0.17358254297077655
1780099067518152700,0.567152587890625,-1.6620973456740378,0.2562579035699367,-0.05189301311615854
1780099067528145000,0.577144775390625,-1.2213380302339791,0.2287105559527874,0.19092629381846635
1780099067538136800,0.58713671875,-0.4219324498951435,0.11529869630634784,0.51763694954589
1780099067548128800,0.597128662109375,0.60931613920331,-0.050047056455910205,0.8165005805898458
1780099067558120700,0.60712060546875,1.3826239862114191,-0.24425913047939538,1.1087458164073527
1780099067568113000,0.61711279296875,1.6066092672079801,-0.3624810207560658,1.2424825250715017
1780099067578104800,0.627104736328125,1.281660104727745,-0.23457827894240615,1.1071947875730692
1780099067588096500,0.637096435546875,0.4005132297694683,0.10015139605700969,0.6977697909429669
1780099067598088700,0.647088623046875,-0.7687830630600452,0.5062634687468409,0.21290533978398887
1780099067608080600,0.65708056640625,-1.8758388805538415,0.9781181796744465,-0.037887174519523975
1780099067618072800,0.66707275390625,-2.765687532883882,1.4075588132426142,-0.12980422805342823
1780099067628064500,0.677064453125,-2.8848873282819985,1.541434784246981,-0.16068492134436965
1780099067638056700,0.687056640625,-2.2184201458364723,1.4387468554496765,0.026847309589013456
1780099067648048600,0.697048583984375,-1.2430197006881236,1.2311305254518985,0.23501787593606857
1780099067658040800,0.707040771484375,-0.20881050821840763,0.8541077691242098,0.3951126128349453
1780099067668033800,0.71703369140625,0.6942150210708379,0.4682137240767479,0.6706659493096172
1780099067678025700,0.727025634765625,1.4133248294234275,0.2937853779315948,1.0150962034597992
1780099067688018000,0.737017822265625,1.983551651775837,0.3165507519692182,1.2480088872775434
1780099067698009900,0.747009765625,2.285309323760867,0.4022591966539621,1.3351646081611512
1780099067708001500,0.75700146484375,2.085813756376505,0.4899950555130839,1.3054586212053894
1780099067717993700,0.76699365234375,1.2526128739416598,0.5424763533785939,0.9126049662783742
1780099067727985700,0.776985595703125,0.18073183020353317,0.6094432727143169,0.3669742405220866
1780099067737977900,0.786977783203125,-0.6136936236351728,0.7505737448915839,-0.06885857830122113
1780099067747969500,0.796969482421875,-1.192229424649477,0.874460236801207,-0.3550374998170882
1780099067757961700,0.806961669921875,-1.378711196681857,1.0303618693917989,-0.3936955856438726
1780099067767953700,0.81695361328125,-0.9237059137463569,1.1817822649151086,-0.21292247358188032
1780099067777945900,0.82694580078125,-0.042834348598122594,1.1452736122071743,0.1063673296961002
1780099067787937500,0.8369375,0.8038684049665927,1.037743504075706,0.41004941213876006
1780099067797929700,0.8469296875,1.5920453198045492,0.940925344094634,0.5291463316842914
1780099067807921700,0.856921630859375,2.2206898443341254,0.8480068219006061,0.6074740915331989
1780099067817913600,0.86691357421875,2.5241835463315248,0.7141743977770209,0.7225088762063533
1780099067827905500,0.876905517578125,2.5899218006551266,0.613273644657433,0.7802329700961709
1780099067837897500,0.8868974609375,2.5015666408538815,0.5698690949559211,0.7864988986231386
1780099067847889400,0.896889404296875,2.2353712806373833,0.498973019477725,0.6651145987927913
1780099067857882600,0.906882568359375,1.7921540506511926,0.421301166254282,0.4935087992550805
1780099067867874300,0.916874267578125,1.3327046477884052,0.36180151405930516,0.3684872023683041
1780099067877866500,0.926866455078125,0.9792278944820165,0.30627398036569353,0.32367779083754866
1780099067887858400,0.9368583984375,0.7952391083091497,0.2219792018711567,0.3537742384156212
1780099067897850600,0.9468505859375,0.8495920452654361,0.16209844140410423,0.38796244881935416
1780099067907842300,0.95684228515625,1.0325479812592266,0.06460954255461693,0.41441093181651084
1780099067917834500,0.96683447265625,1.1555308023273945,-0.08871697885096072,0.4559677347594872
1780099067927826400,0.976826416015625,1.215670505991578,-0.17766338254362343,0.4497007833192125
1780099067937818600,0.986818603515625,1.2607353901207445,-0.2057028975918889,0.3298693754866719
1780099067947810300,0.996810302734375,1.1623299609482287,-0.21802169641703367,0.2749030558723956
1780099067957802500,1.006802490234375,0.8363421030700207,-0.2608653973653912,0.3218343183953315
1780099067967794400,1.01679443359375,0.3115297089368105,-0.33069881204813717,0.4226648192903027
1780099067977786600,1.02678662109375,-0.25715572919249535,-0.3346685924619436,0.502333728082478
1780099067987778300,1.0367783203125,-0.5644610984325409,-0.2980579406842589,0.5676720963682979
1780099067997770500,1.0467705078125,-0.5259212321579456,-0.31005174533873797,0.6397598658490926
1780099068007762400,1.056762451171875,-0.4063450046628713,-0.3816273275136947,0.6937597515840083
1780099068017754600,1.066754638671875,-0.3873416135072708,-0.5009899122580885,0.6646157093599439
1780099068027746600,1.07674658203125,-0.4290378979861736,-0.6462871487259865,0.49456177890673275
1780099068037738500,1.086738525390625,-0.558026681470871,-0.6899129399627447,0.2519901448565535
1780099068047730400,1.09673046875,-0.767455613848567,-0.664732905998826,0.025030432892777024
1780099068057723600,1.1067236328125,-1.0304986475139857,-0.5745557914674282,-0.0934112467475701
1780099068067715300,1.11671533203125,-1.4432272157341242,-0.33364830950349567,-0.06861188266430981
1780099068077707500,1.12670751953125,-1.751954726731777,-0.052369361923635005,0.025819208650290963
1780099068087699500,1.136699462890625,-1.9301216748833656,0.1648728745535016,0.1803080883661285
1780099068097691600,1.146691650390625,-1.8860539850980043,0.32452976802438493,0.2979528363419697
1780099068107683300,1.156683349609375,-1.5073323158979415,0.33232962812036276,0.3234713084800169
1780099068117675500,1.166675537109375,-1.0479068784326315,0.19065759641230104,0.2963963276149705
1780099068127667500,1.17666748046875,-0.8128197731852531,-0.043674014292657375,0.19389643220305441
1780099068137659600,1.18665966796875,-0.6981190427720546,-0.26221447388678787,-0.01618474897171836
1780099068147651300,1.1966513671875,-0.5687555807560682,-0.4966980602830648,-0.26760740070519967
1780099068157643500,1.2066435546875,-0.4078425497442484,-0.6874173237547277,-0.49374476343542334
1780099068167635500,1.216635498046875,-0.27214696209728717,-0.8456336630284785,-0.5730755628470331
1780099068177627600,1.226627685546875,-0.0673339990824461,-0.8892717292249203,-0.6287962810251861
1780099068187619300,1.236619384765625,0.1774362957894802,-0.777879100446403,-0.6681337274182587
1780099068197611500,1.246611572265625,0.12965806104838848,-0.6472367045357823,-0.5537142981644719
1780099068207603500,1.256603515625,-0.44188510459959507,-0.43481765043139453,-0.41156894985623654
1780099068217595600,1.266595703125,-1.414803085282445,-0.10231325026601552,-0.33863914006073026
1780099068227587600,1.276587646484375,-2.4800766935795546,0.3144718998685479,-0.39527967649754137
1780099068237579500,1.28657958984375,-3.148970810911059,0.6175847858548164,-0.5621178597746417
1780099068247571500,1.296571533203125,-3.0877380513131616,0.7886927554056048,-0.6376059026855975
1780099068257563600,1.306563720703125,-2.240054470017552,0.8608318166822194,-0.5457530369617044
1780099068267556400,1.316556396484375,-0.6231085177123546,0.696960228125751,-0.34102344138137997
1780099068277548500,1.326548583984375,1.2784230225026607,0.3122495476439595,0.28029899663180113
1780099068287540500,1.33654052734375,1.9176520694106816,-0.11143471435457468,0.6680385964807123
1780099068297532700,1.34653271484375,1.1564245362967251,-0.057009881205856795,0.7518393809132278
1780099068307524400,1.3565244140625,-0.15045184275209902,0.4158163051024079,0.49546376924775537
1780099068317516500,1.3665166015625,-0.7135621110975742,0.8048404648691415,0.16128719808645545
1780099068327508500,1.376508544921875,-0.2115297040492296,0.9273384250298142,0.07616568644419312
1780099068337500700,1.386500732421875,0.5762620108634233,0.8214689435869454,0.06586790858525783
1780099068347492400,1.396492431640625,0.9116302760273217,0.5112561624675989,-0.029333865707740187
1780099068357484500,1.406484619140625,0.7318745973795652,0.1517944895327091,-0.37050343756154175
1780099068367476500,1.4164765625,0.6377198113888501,-0.007455868963897228,-0.601640636139363
1780099068377468700,1.42646875,0.610873305517435,0.04190437427163124,-0.7174478664897381
1780099068387460400,1.43646044921875,0.6174152745068073,0.07931026808023452,-0.709625356170535
1780099068397452500,1.44645263671875,0.7167471708744764,0.06498685143440962,-0.622139307354018
1780099068407444500,1.456444580078125,1.0598656117737293,0.07153875729590654,-0.6391362540580332
1780099068417436700,1.466436767578125,1.6368875010937451,0.1285430855438113,-0.7609343223210424
1780099068427428600,1.4764287109375,1.989983730649948,-0.09410685519576072,-0.7293434714667498
1780099068437420300,1.486420166015625,1.8674001380324363,-0.3639277124330401,-0.48093540461435913
1780099068447412500,1.49641259765625,1.5766729786276816,-0.28897680860608815,-0.345402387117967
1780099068457404400,1.506404296875,0.9600240123182534,-0.16409019974321126,-0.2811369087606668
1780099068467396600,1.516396728515625,0.6170201377093791,0.19429639130607246,0.04372830176316202
1780099068477389600,1.5263896484375,1.1383458587706088,0.45044411249980326,-0.08211516943313181
1780099068487381500,1.536381591796875,1.976201289013028,0.823561385821551,-0.00828157919831574
1780099068497373700,1.546373779296875,2.523667998024821,0.7811743425995111,0.14219978190921245
1780099068507365400,1.556365478515625,2.8026579578846693,0.3719291595157236,0.20739874172434208
1780099068517357600,1.566357666015625,3.1663428014725445,0.03850815596207976,0.2674763399377465
1780099068527349500,1.576349609375,2.9240912114232778,-0.33153314398042855,0.32534269184246656
1780099068537341700,1.586341796875,1.9418629660814999,-0.586168305186741,0.3365789561279118
1780099068547333400,1.59633349609375,0.9087287093669175,-1.2659445030711591,-0.42998080485947426
1780099068557325300,1.6063251953125,-0.8208499349057674,-1.754489505906403,-1.0260743282657117
1780099068567317500,1.6163173828125,-1.61798581674695,-1.1637622587736696,-1.1580879394643009
1780099068577309400,1.626309326171875,-1.8454069174110888,-0.8098075126919895,-1.7433055563300848
1780099068587301400,1.63630126953125,-1.2115595635414123,-0.9227082079458981,-2.880136334362626
1780099068597293300,1.646293212890625,0.361445540228486,-1.5950675902351736,-2.188442940723896
1780099068607285500,1.656285400390625,-0.47622927275001997,-1.5321763959057628,-1.477458717290312
1780099068617277400,1.66627734375,-1.1315087062269449,-0.6260976895909756,-1.7693176572039722
1780099068627269600,1.67626953125,-0.8979401888489723,-0.02324906590133905,-1.9274919109016655
1780099068637261300,1.68626123046875,-1.1176584600508213,-0.0628278102369979,-1.8115806356549262
1780099068647253500,1.69625341796875,-1.449014566963911,-0.5539858085822313,-1.4134838193774222
1780099068657245400,1.706245361328125,-1.4656851312577723,-1.331014356613904,-0.7830000967219471
1780099068667237600,1.716237548828125,-0.14196984561085702,-1.5676839087471366,0.4738645163800567
1780099068677229300,1.726229248046875,1.4679998379409311,-0.9491497132129967,0.9585741057708859
1780099068687221500,1.736221435546875,0.742796388888359,-0.40546822182834147,0.020554346924647686
1780099068697213400,1.74621337890625,-0.12461948235929012,0.07955679018720983,-0.7009630340263248
1780099068707206400,1.756206298828125,0.15038637630045412,0.43794265058413145,-1.0068675965577363
1780099068717198300,1.7661982421875,-2.267355149397254,0.4158747572913766,-1.3245071666769683
1780099068727190500,1.7761904296875,-1.3339794900298119,1.4398483869507908,-1.1339650133378802
1780099068737182500,1.786182373046875,3.3752643688499924,2.286579197566211,0.5368555178221315
1780099068747174400,1.79617431640625,2.8043337821424004,1.5712492000132798,0.8202079106751828
1780099068757166300,1.806166259765625,1.1401093613117932,0.31584055787324905,0.19416885593626648
1780099068767158500,1.816158447265625,-0.4248217415958643,-1.4122709364563226,-0.21245319383600725
1780099068777150500,1.826150390625,-0.3034375878959894,-2.4613877752006053,0.16613175204079597
1780099068787142400,1.836142333984375,-0.48048342306315894,-2.903148084376752,1.1923101617354899
1780099068797134300,1.84613427734375,-0.5560597653120756,-2.5875571173503995,2.2828575466945766
1780099068807126500,1.85612646484375,-0.5081435834050179,-1.0018694960094987,2.2157648090220987
1780099068817119000,1.866118896484375,-1.085849363335967,0.6755842626199126,1.201661050665751
1780099068827110700,1.876110595703125,-2.9580741450458765,1.5934892350025474,0.6532178978372365
1780099068837102800,1.886102783203125,-5.578180071562528,1.7712639689661562,0.38002098829559977
1780099068847094800,1.8960947265625,-8.34524766062796,1.3650326538108288,-0.382663319497928
1780099068857087000,1.9060869140625,-7.149661326766013,1.2354216467745602,-1.3605823964037
1780099068867078700,1.91607861328125,-5.442258858466148,1.1568433462306857,-1.497623991832137
1780099068877070800,1.92607080078125,-3.726830904620886,0.7497405089378356,-1.1069979498267173
1780099068887062800,1.936062744140625,-1.5253262377500534,0.783630795840919,-0.9736984635360538
1780099068897055000,1.946054931640625,0.01324234341084957,1.1244316074475644,-0.686391560903564
1780099068907047000,1.956046875,0.7413654793024063,0.854155992180109,0.13979599956995806
1780099068917038800,1.966038818359375,1.50671973695755,0.8156140800788998,0.6210707282744348
1780099068927030800,1.97603076171875,1.5499638354003429,1.294690120562166,0.43604974950961767
1780099068937024000,1.98602392578125,0.38160511568188665,1.614722138775885,0.058303135886788364
1780099068947015700,1.996015625,-0.8589362121939659,1.4611527485251425,0.038793694905191654
1780099068957008000,2.0060078125,-1.2656184859871864,1.049944521740079,0.17498451872318982
1780099068966999800,2.015999755859375,-1.381460203129053,0.29994010116904973,0.5276562392570078
1780099068976992000,2.025991943359375,-0.9118915573120117,0.034653087969124315,0.7842105684902518
1780099068986983700,2.035983642578125,-0.37125323301553725,0.14379618425518273,0.6737400229927152
1780099068996975900,2.045975830078125,0.23815058447122572,0.21441607314050196,0.7592151703782379
1780099069006967800,2.0559677734375,1.209044365850091,0.36119185772836204,1.4117048270061612
1780099069016960000,2.0659599609375,2.094652896392345,0.7108890924960375,1.500026084537804
1780099069026951700,2.07595166015625,1.6530705741316079,0.7543173153340816,1.8504342440538106
1780099069036944000,2.08594384765625,1.5294254897624253,1.2228224235728382,0.7892998544532805
1780099069046935800,2.095935791015625,0.6005670155584811,1.1089954072542487,0.5996089841812848
1780099069056928000,2.105927978515625,0.6415104358434677,1.106158430262655,-0.12618936202451586
1780099069066919700,2.115919677734375,0.2805775213122368,0.9014121027432381,0.3217830996647477
1780099069076911900,2.125911865234375,0.45960313211977477,0.5634959066621958,0.845110150611028
1780099069086903800,2.13590380859375,0.7963099524110555,0.08952434971109031,0.6567941488888114
1780099069096896000,2.14589599609375,1.2251461903452872,-0.7056842173293233,1.3204409401513635
1780099069106888000,2.155887939453125,2.691661927208304,-0.9445936573438346,0.43252888190709055
1780099069116880000,2.1658798828125,3.594026946762204,-0.7586556367993355,0.388524174355343
1780099069126871800,2.175871826171875,3.252191531410813,-0.29706249990612266,1.0146819235704838
1780099069136864000,2.185864013671875,2.638949158674478,0.21497166119664907,0.545495043612644
1780099069146856000,2.19585595703125,1.0278443336129188,-0.215376442605257,0.4249750324614346
1780099069156847900,2.205847900390625,-0.8052040374845266,-0.059919923433661454,0.8183399979114532
1780099069166839800,2.21583984375,-1.5150941820710897,0.28535701067373154,1.783154459376633
1780099069176832000,2.22583203125,-0.5460211863785982,0.7240043023958802,0.1638987688243389
1780099069186824700,2.23582470703125,0.18249650178849697,0.31305048876330255,-0.251049375141412
1780099069196817000,2.24581689453125,0.4028881422072649,-0.6364702497191727,0.22428382555171847
1780099069206808800,2.255808837890625,0.8098679376423359,-0.96127050524801,-0.13791618630588054
1780099069216801000,2.265801025390625,0.8990718232274055,-0.6292546192519366,-0.23170900711640713
1780099069226792700,2.275792724609375,0.6752806034982204,-0.48631563634797925,0.24937230877466499
1780099069236785000,2.285784912109375,0.9968231724053621,-0.32743235759809614,1.0160203325673938
1780099069246776800,2.29577685546875,1.1956319265693425,-0.005356996988505125,1.3373200326293706
1780099069256769000,2.30576904296875,0.6025894612967968,0.4273582743361592,1.1632458336841314
1780099069266760700,2.3157607421875,-0.1873626465201378,0.8976815379127859,0.819899502313137
1780099069276753000,2.3257529296875,1.1116174263209104,1.5518495030164718,-0.4233979924030602
1780099069286744800,2.335744873046875,0.912163359990716,1.0438897517457604,-0.2889914216533303
1780099069296737000,2.345737060546875,1.8292647609055042,0.004446019623428583,-1.0197753011867403
1780099069306729000,2.35572900390625,1.3011048099100588,-0.6329144569337367,-3.096846071398258
1780099069316721000,2.365720947265625,-0.03680208269655704,-1.1568598589740693,-3.558045532798767
1780099069326712800,2.375712890625,-1.218622926056385,-0.6165718094199896,-2.6956241088375448
1780099069336705000,2.385705078125,-2.081227597630024,0.29351956660225986,-1.6322297384157776
1780099069346697000,2.395697021484375,-2.404476385933161,0.7399417301096022,-0.9257781899757683
1780099069356688600,2.405688720703125,-2.4912451533257958,1.0930151633121072,-0.14935352612137795
1780099069366680800,2.415680908203125,-3.032839170911908,0.8345538314137607,-0.05652341286316514
1780099069376672800,2.4256728515625,-2.9028245515108106,0.13673260254450142,-0.1258202364511788
1780099069386665000,2.4356650390625,-2.048664467677474,-0.23184417780339717,-0.5880715449921786
1780099069396656600,2.44565673828125,-0.9482838901638984,-0.9737978322573005,-0.19726064793914555
1780099069406648800,2.45564892578125,0.6059118837177753,-1.3034398287288844,0.014136954163014888
1780099069416640800,2.465640869140625,1.3432950153857468,-1.2309728506721556,0.41422888978049155
1780099069426633000,2.475633056640625,1.1976000117719172,-1.166930440481007,0.7909250445023178
1780099069436626000,2.4856259765625,0.2958107462793588,-1.0401260152980685,0.5149840969495475
1780099069446617900,2.495617919921875,-1.4823293920665979,-0.906698664844036,-0.16368644124791026
1780099069456610000,2.505610107421875,-3.7966923763543363,-0.4814869010172784,-0.6122201900817453
1780099069466601700,2.515601806640625,-5.554616240623593,0.16077734886817632,-0.8221284304089844
1780099069476594000,2.525593994140625,-6.090742640453577,0.5934113716501742,-0.8945815260708332
1780099069486585900,2.5355859375,-5.373778611958026,0.5215222665466368,-0.8701068638972937
1780099069496577800,2.545577880859375,-3.710997375673055,0.33521906595155593,-0.8507296709932386
1780099069506570000,2.555570068359375,-1.5335411083877086,0.12996157403960823,-0.6211157364599407
1780099069516561700,2.565561767578125,0.4622258818387985,0.08280760867670178,-0.2744932329624891
1780099069526553900,2.575553955078125,1.9082775073438882,0.039738866800814864,-0.09710033792331814
1780099069536545800,2.5855458984375,2.4618951402008533,0.042052842831611634,0.22248890495896337
1780099069546538000,2.5955380859375,2.3115227924257518,0.12425722491815686,0.19712416207790373
1780099069556529700,2.60552978515625,1.925278911027312,0.47638154070228333,-0.34046251956298945
1780099069566521900,2.61552197265625,1.922593617466092,0.42349809177666903,-0.47205081802159543
1780099069576513800,2.625513671875,2.1989304324686527,0.4514338541895151,-0.5295804853178561
1780099069586506000,2.635506103515625,2.3757880515873433,0.6476711504302919,-0.8618855635188519
1780099069596497700,2.64549755859375,1.9379747264713048,0.32959114306718107,-0.9287775179222225
1780099069606489900,2.65548974609375,1.5828466988265513,0.4851408934801817,-1.1040258021481335
1780099069616481800,2.665481689453125,1.7117442968964576,0.4548701122485101,-0.9773996561415493
1780099069626474000,2.675473876953125,1.5604811377614736,0.8671649652265012,-0.44081177627965806
1780099069636465700,2.685465576171875,1.2962111926496027,1.2393252300843596,0.23994024436697362
1780099069646457900,2.695457763671875,1.1770149043828249,1.131193356667459,-0.03949073725864291
1780099069656449800,2.70544970703125,1.0585071829020976,0.4917537357486784,-0.36200960385203357
1780099069666442000,2.71544189453125,0.9771715464740991,0.11217559584975242,-0.17145780590176582
1780099069676434000,2.725433837890625,1.1294815843135118,0.21750527132749556,-0.27523206863105293
1780099069686425900,2.73542578125,1.385527890959382,0.09029723377972841,0.0269974586494267
1780099069696417800,2.745417724609375,1.8004308806091547,0.22097090161144733,0.46378582463189955
1780099069706411000,2.755410888671875,2.2590374029070137,0.11744009224921464,0.46389439957290884
1780099069716402700,2.765402587890625,2.401566635966301,-0.23797888116613028,0.4311684802740812
1780099069726395000,2.775394775390625,2.1424977666288614,-0.408003585524857,0.2876519897431135
1780099069736386800,2.78538671875,1.8708499862253665,-0.3929882410921156,0.06470964192822576
1780099069746379000,2.79537890625,1.8945079251885413,-0.4468082402154803,-0.21503858895301817
1780099069756370700,2.80537060546875,1.774696719893813,-0.726945908805728,-0.05887231407687068
1780099069766363000,2.81536279296875,2.097868351307511,-0.9508793134845792,0.04008665732517838
1780099069776354800,2.825354736328125,2.684765153431892,-0.9343544412717223,0.02590761758610606
1780099069786347000,2.835346923828125,2.481217095786333,-0.9694428519181907,0.34311727185547347
1780099069796338700,2.845338623046875,1.6479332112431526,-0.8533660108461976,0.4102097172670066
1780099069806331000,2.855330810546875,0.8877215771734714,-0.6206786602169275,0.3022375644564628
1780099069816322000,2.865322021484375,0.48040977330505846,-0.40490912664085627,0.3956939929194748
1780099069826314000,2.87531396484375,0.4837888943493366,-0.3317756474994123,0.2925982139736414
1780099069836306200,2.88530615234375,0.7042214513003826,-0.34998175079748034,0.05799158571958542
1780099069846297900,2.8952978515625,1.0738783550351858,-0.2886161586001515,-0.0012545301057398318
1780099069856290000,2.9052900390625,1.2090262456715106,-0.12014482116326688,-0.2630941793307662
1780099069866282000,2.915281982421875,2.2197534402668473,-0.29721695981547236,-1.1019731074020267
1780099069876274200,2.925274169921875,1.5241227071791887,-1.1358357756458222,-1.0810925241976976
1780099069886266000,2.93526611328125,0.9182043937206268,-1.7547680305868387,-0.9739467392086982
1780099069896258000,2.945258056640625,0.361600438529253,-2.475593995207548,-0.47578328254818913
1780099069906250000,2.95525,-0.09296002324819565,-2.513546124722063,0.5184183091819285
1780099069916242200,2.9652421875,1.211211188495159,-1.2952594448827206,0.2778314374744892
1780099069926234000,2.975234130859375,0.6529846005380153,-0.46850700793489813,0.2338420736223459
1780099069936226000,2.98522607421875,0.009980711266398429,-0.41914464580751953,0.20727906086742875
1780099069946218000,2.995218017578125,-0.15873860958218575,-0.4052623970579356,0.3964858739495277
1780099069956210200,3.005210205078125,-0.3791694129675627,-0.038497853763774036,0.6174404089480638
1780099069966202000,3.0152021484375,-0.919852745449543,0.397693423108384,0.5123325595274567
1780099069976193800,3.02519384765625,-0.9900777897983789,0.9604713176943361,0.4966124278262257
1780099069986186000,3.03518603515625,-0.819231978315115,0.699606650981307,0.2926949523463845
1780099069996179200,3.04517919921875,0.419314960873127,0.29772067155390974,-1.5339102339610458
1780099070006171000,3.0551708984375,0.04033844012916088,0.07065291437208653,-2.9997952717050906
1780099070016163000,3.0651630859375,-0.03582885375022888,-0.9504106730595231,-3.826163970032334
1780099070026155000,3.075155029296875,1.8159475986927747,-1.01174718529284,-5.140022463053465
1780099070036147200,3.085147216796875,2.0707821914613245,0.2599178873822093,-1.91836401707232
1780099070046139000,3.095138916015625,3.0075802264928817,1.7681605961233375,-0.7544976403370499
1780099070056131000,3.105131103515625,3.435580013602972,3.5184409599021076,-0.6916901787683367
1780099070066123000,3.115123046875,3.109246118766069,4.712772909788787,0.23394436495304105
1780099070076115200,3.125115234375,2.4902350995004174,5.375984597569704,1.3556255046486854
1780099070086107100,3.135107177734375,0.6789268510460853,4.751851997506618,1.1167851843476295
1780099070096099000,3.14509912109375,-2.8051100272119043,2.173384780062735,-1.8948469478845595
1780099070106091000,3.155091064453125,-5.302839866381883,-0.427788993903622,-4.0299721399188035
1780099070116083000,3.1650830078125,-4.7091591032058,-1.5107397862538694,-3.2423008365154264
1780099070126075100,3.1750751953125,-1.1067623875051735,1.7501877170592546,-1.3723042522490023
1780099070136066800,3.18506689453125,-0.6755196729511023,4.616369760349393,1.1852291904985903
1780099070146059000,3.19505908203125,-1.2194962017595767,4.227988866922259,2.179962697148323
1780099070156051000,3.205051025390625,-0.5540788206279278,3.9107060012862083,2.4574141953945157
1780099070166043100,3.215043212890625,-0.6652578066557645,4.26723629694432,3.171662535190582
1780099070176034800,3.225034912109375,0.8961538899540901,5.88379617254138,3.2321815935611724
1780099070186027000,3.235027099609375,1.4911749618232248,6.602037965887784,3.397095092386007
1780099070196019000,3.24501904296875,-0.8826941044002771,5.297822330480813,4.036975296679139
1780099070206011100,3.25501123046875,-2.1785464006096125,4.046626337599754,3.645998541539907
1780099070216002800,3.2650029296875,-2.7904274218648673,4.417461052942276,3.3739158768504858
1780099070225995000,3.2749951171875,-2.9199715011447664,4.9844665751606225,2.444362406119704
1780099070235987000,3.284987060546875,-1.9617010544955729,5.131766675883531,0.4645651384413242
1780099070245979100,3.294979248046875,-2.2242136345461008,4.736510343728959,0.16908172442018984
1780099070255971000,3.30497119140625,-3.0060280286148187,4.2012160108089445,0.4449111744225025
1780099070265963000,3.314962890625,-1.4470257312342523,4.196800532454252,-0.4129144461810589
1780099070275955000,3.324954833984375,-2.085690422257781,3.80353975803107,-0.27122867820858954
1780099070285947100,3.334947021484375,-1.7356918664559722,2.9822561078831553,-0.3777519473850727
1780099070295939800,3.34493994140625,-0.6887099939137696,3.1385949628472325,0.07279167996644974
1780099070305932000,3.35493212890625,-1.017489236076176,2.784501831208169,0.23722528631985187
1780099070315924000,3.364924072265625,-1.8900351636886596,1.632570514677465,-0.2924327942788601
1780099070325916200,3.374916259765625,-2.6371070379391313,1.3923159436643122,-1.203324234637618
1780099070335907800,3.384907958984375,-2.6220804414600134,1.5050217008680105,-1.9934838477253913
1780099070345900000,3.394900146484375,-2.060529092994332,1.2528636338323353,-2.766507032573223
1780099070355892000,3.40489208984375,-1.305321550822258,0.619831103476882,-3.024078941351175
1780099070365884200,3.41488427734375,-0.04334054455459117,0.25035715509355067,-2.7859213426172733
1780099070375875800,3.424875732421875,1.2793062350779771,-0.009952069693803786,-2.967935029324889
1780099070385868000,3.434867919921875,2.0931877922758457,-0.5586310771048069,-3.321361513748765
1780099070395860000,3.44485986328125,2.253270509943366,-1.2208639829814434,-3.9882735173523423
1780099070405852200,3.45485205078125,2.1396187040612102,-1.9094407059043645,-5.444190703311563
1780099070415843800,3.46484375,4.127402586579323,-3.7542765454292297,-8.354436929255723
1780099070425836000,3.4748359375,12.80697981697321,-7.0044690119773145,-11.4947012866199
1780099070435828000,3.484827880859375,12.467275568431615,-9.608747254765033,-11.898165182888507
1780099070445820200,3.494820068359375,7.202418518963456,-10.630365261209011,-13.633552221179007
1780099070455812000,3.50481201171875,7.103910213938355,-10.762971066147088,-13.742944323790073
1780099070465804000,3.514803955078125,0.6040550038047134,-8.42404530301094,-9.5303096778661
1780099070475796000,3.5247958984375,1.749259057907015,-7.699208349183201,-6.951341232901811
1780099070485788200,3.5347880859375,8.083076733621954,-7.160836216253042,-4.074082499802112
1780099070495780000,3.544780029296875,9.149937903371454,-6.149051621559262,-1.2967191421717406
1780099070505772000,3.55477197265625,5.829563647094369,-4.918178285738826,0.4271083912283182
1780099070515764000,3.564763916015625,4.085143407520651,-2.7105612734675404,1.6300725603818893
1780099070525756200,3.574756103515625,2.823370491045713,-1.4779624290287494,2.159915349897742
1780099070535748000,3.584748046875,1.9217209262847899,-1.4473112701773643,1.7101801163196562
1780099070545740000,3.594739990234375,1.3974854552567004,-2.1230156520456074,0.6402806017875671
1780099070555732000,3.60473193359375,1.305791506421566,-3.68321914190948,-1.5408037928670644
1780099070565724200,3.61472412109375,1.3081056285828352,-5.925883502164483,-3.867248260092735
1780099070575716000,3.624716064453125,0.7151303833276033,-7.836385699820518,-6.400859559983014
1780099070585708000,3.6347080078125,-0.5997276055922731,-8.87219005252719,-8.60205852190554
1780099070595700000,3.644699951171875,-0.49648763240277766,-5.661476194408536,-7.101141918268799
1780099070605693200,3.654693115234375,-1.074443003180623,-2.0561475169092414,-4.155583555924892
1780099070615684900,3.664684814453125,-1.8622920012384652,0.12666238636374472,-2.4413503648221493
1780099070625677000,3.674677001953125,-3.6181963423788543,0.8079670724570751,-1.9864450351297853
1780099070635669000,3.6846689453125,-4.733523144611716,0.9221592688262462,-2.097930310627818
1780099070645661200,3.6946611328125,-3.2566812440454957,1.9972765180066228,-0.80023677046597
1780099070655653000,3.704653076171875,0.32757308124303813,1.3785641894266008,0.0047691140979528425
1780099070665645000,3.71464501953125,4.2847780911147595,0.21471388704329727,-0.0158726919144392
1780099070675637000,3.724636962890625,7.249988663911819,0.464916143836081,-0.7423503986865282
1780099070685629200,3.734629150390625,9.913884047794342,2.0895368685528637,-1.8994927278637885
1780099070695621000,3.74462109375,7.190444588053226,0.3929132761597633,-3.848993641477823
1780099070705613000,3.754613037109375,-1.0884650987923146,-1.179551144862175,-5.017075882342457
1780099070715605000,3.76460498046875,-3.4245383951067923,2.6152114324733615,-5.0790375407367945
1780099070725597000,3.774596923828125,-2.6463305010974407,5.37144052439928,-3.2747482311338185
1780099070735589000,3.784589111328125,-1.0741104102253913,7.528684024739265,-1.6213339581310748
1780099070745580800,3.794580810546875,1.2675053226470947,9.826824188500643,-1.0633955394655465
1780099070755573000,3.804572998046875,1.2479510196104644,8.735134866964817,0.5743190601021051
1780099070765565000,3.81456494140625,0.8490499012127518,6.820088011616468,1.704609622710943
1780099070775557000,3.82455712890625,1.1509925743758678,7.326531805366277,-0.4018932859510183
1780099070785548800,3.834548828125,0.9104135937139392,7.769145808762311,-2.2801854048758745
1780099070795541000,3.844541015625,0.28534079019129277,7.3731141083210705,-2.6820366052508353
1780099070805533000,3.854532958984375,-0.674747811795771,6.138175422757864,-2.429628947368264
1780099070815525000,3.864525146484375,-1.0287854138553143,4.854893854308128,-2.8859499890774485
1780099070825517000,3.87451708984375,-1.3324807759046553,3.7195723117947574,-1.3341951786071062
1780099070835509000,3.884509033203125,-1.1627017168700695,2.787372710469365,0.4512625892758369
1780099070845501200,3.894501220703125,-1.2279489728063344,2.4302013404287397,1.6199772828251122
1780099070855493000,3.9044931640625,-1.6139590454488992,2.2052339165270327,2.242154657167196
1780099070865485300,3.9144853515625,-1.8784166220873593,1.5289480815090237,2.8674662378817795
1780099070875477000,3.92447705078125,-2.566552030983567,0.6647320292159915,3.640885144048929
1780099070885469200,3.93446923828125,-2.037502145411074,0.40310003139227624,3.7301299461662767
1780099070895461000,3.944461181640625,-1.311869365030527,0.682273238864541,3.599026947006583
1780099070905453300,3.954453369140625,-1.4014479291468858,0.7229185529857873,4.18220034469366
1780099070915445000,3.964445068359375,-2.43240630312711,0.5104796251371503,4.062102139151096
1780099070925438200,3.974438232421875,-2.7558161272108554,-0.26887656212449074,4.022746864840388
1780099070935430100,3.98443017578125,-3.647711190676689,-1.9768749504908918,2.6804607342362403
1780099070945422000,3.994422119140625,-3.8475639009356497,-3.514059383817017,1.2126982121825218
1780099070955414000,4.0044140625,-3.3718621591910716,-4.209497516942024,0.9925824660956859
1780099070965406200,4.01440625,-3.2116146063506603,-3.3166268864423034,1.9120541032731533
1780099070975398100,4.024398193359375,-3.2691137323781847,-2.455424190621078,3.2881220919698473
1780099070985390000,4.03439013671875,-3.564293195016682,-2.00177675203532,4.213735300642251
1780099070995382000,4.044382080078125,-3.471547691302001,-1.7976462183266877,4.773671030604839
1780099071005374200,4.054374267578125,-2.1745921100258827,-1.840283583047986,5.164729618808627
1780099071015366100,4.0643662109375,0.10894406658262014,-2.14643510607779,5.3654333929389715
1780099071025358000,4.074358154296875,1.3507444546088576,-2.5692168662786483,5.112263518512249
1780099071035350000,4.08435009765625,1.0943041802093385,-2.943347116035223,4.358261260476708
1780099071045342200,4.09434228515625,0.856847130960226,-2.7239672830075023,3.889415668237209
1780099071055334100,4.104334228515625,1.3929028036415576,-2.0927818418234585,3.8202620525121684
1780099071065326300,4.114326416015625,3.4372277808099985,-1.7689625601559877,3.521856613564491
1780099071075318000,4.124318115234375,7.1693176288723945,-1.2785334971398115,1.9835931528300046
1780099071085310200,4.134310302734375,11.172419297522305,-0.8089075681775808,-0.3746194945782423
1780099071095302100,4.14430224609375,13.009128529214859,-0.041913142099976534,-3.4372809723019597
1780099071105294300,4.15429443359375,9.624483168557285,1.0708142912894487,-5.5301943315505975
1780099071115286000,4.1642861328125,3.8644200509294864,2.5281156250834464,-5.220509958219528
1780099071125278200,4.1742783203125,-0.16770312954336403,3.5295974369496106,-4.421650321325659
1780099071135270100,4.184270263671875,0.8344906299844383,4.231775984245538,-4.346111972999572
1780099071145262300,4.194262451171875,1.4005936504051089,4.489614435005188,-3.097573216629028
1780099071155254000,4.20425390625,1.4565139828085898,4.204904928454757,-1.65707630264163
1780099071165246200,4.21424609375,0.7555670231342315,2.848713022094965,0.5123609088391066
1780099071175238100,4.224238037109375,0.016559505134820938,1.03886432479918,2.431505262634158
1780099071185230300,4.234230224609375,-0.7530215764351189,-0.6406260542243719,3.488390981814265
1780099071195222000,4.244221923828125,-2.112284268542379,-1.610990258771181,3.7036920210957525
1780099071205214200,4.254214111328125,-2.248128470879793,-1.9189795186221599,3.6153912218302486
1780099071215206100,4.2642060546875,-0.38856545621380206,-1.6115525688290595,3.600470716074109
1780099071225198000,4.274197998046875,2.3828783021092415,-0.8346358836740255,2.8505595267444845
1780099071235190300,4.284190185546875,8.435615329295397,1.8154905025750399,0.4167790126547217
1780099071245182000,4.294181884765625,5.8295841053605075,3.6532080345273017,-2.341930790171027
1780099071255175200,4.304175048828125,-5.449556029736995,1.1976023498594761,-2.7883932856887577
1780099071265167400,4.31416748046875,-5.132378085780143,3.085377751922607,-1.8768600402951239
1780099071275159000,4.324158935546875,-3.3643373166441917,7.198454876029491,-1.0980869136184452
1780099071285151200,4.334151123046875,-2.939745292150974,10.303933166694641,-0.26636063378080727
1780099071295143200,4.34414306640625,-2.4063177760161456,11.98055705037117,0.8399269758194684
1780099071305135400,4.35413525390625,-1.9646483599938451,9.689279173594713,0.649025268452987
1780099071315127000,4.364126953125,-1.2477649955190717,5.806617071270942,-0.6000645459290593
1780099071325119200,4.374119140625,-1.470822932537645,2.6270272502124308,-1.7347729980453848
1780099071335111200,4.384111083984375,-3.4420950945854183,0.17786124320328234,-2.4284279010154304
1780099071345103400,4.394103271484375,-4.809339725357294,-1.595603889068961,-2.98350552342236
1780099071355095000,4.404094970703125,-4.479562119807302,-2.7801468508690594,-3.415538219310343
1780099071365087000,4.4140869140625,-3.8513036719858644,-3.4294442873269317,-3.661195233888924
1780099071375079200,4.4240791015625,-4.909195937860011,-3.900551394757628,-4.342551650169492
1780099071385071000,4.434071044921875,-6.506793631094694,-3.915048706665635,-4.258017509961128
1780099071395063000,4.44406298828125,-8.484587742257117,-3.598284019684791,-3.470032610563934
1780099071405055000,4.454054931640625,-9.521465277153252,-3.2500814073890445,-2.8565839016005397
1780099071415047200,4.464047119140625,-9.45903249411583,-2.569778007292747,-2.285192127121985
1780099071425039000,4.4740390625,-8.878705133509635,-2.107369754624367,-1.4839473486572503
1780099071435031300,4.48403125,-7.500984701430797,-1.654739384126663,-0.42301644573956726
1780099071445023000,4.49402294921875,-5.885301900929212,-1.1533820998609066,0.296802679926157
1780099071455015200,4.50401513671875,-4.9391632061004636,-0.12877601751685142,1.9046780215471981
1780099071465007000,4.514007080078125,-3.9355554881215093,0.6538818416386842,3.062444035580754
1780099071474999300,4.523999267578125,-2.4116917241394518,1.3953665634065866,3.6855230349376797
1780099071484991000,4.533990966796875,-0.5557072986125946,1.9513076707750558,4.167555148747563
1780099071494983200,4.543983154296875,3.5496705031633375,2.8997756853342054,4.445288971066475
1780099071504975000,4.55397509765625,16.011010836327074,4.011963020497561,4.240357350108027
1780099071514967300,4.56396728515625,15.765960555469988,0.013198504269123076,0.47840442483201623
1780099071524959000,4.573958984375,9.916906025964021,-1.5937398487627505,-1.5436176812440157
1780099071534951200,4.583951171875,12.509576248544453,-0.7498007146924733,-2.7515988017767667
1780099071544943000,4.593943115234375,15.101340462195873,-0.00686930124759674,-4.8967587733522056
1780099071554935300,4.603935302734375,6.553441985023022,1.6636159335434435,-3.8581542685329913
1780099071564927000,4.613927001953125,-0.7587782402656972,2.5222949561059473,-1.9411447348095476
1780099071574919200,4.623919189453125,-3.282097424852848,1.768517738997936,-1.6665093168973921
1780099071584911000,4.6339111328125,-4.598437213295698,1.000391094020009,-1.7120035323545335
1780099071594904000,4.643904052734375,-4.410372555986046,0.27711422911584377,-2.1122252318315207
1780099071604896000,4.65389599609375,-3.2551685013949867,-0.44537177767157554,-2.704679814213514
1780099071614888200,4.66388818359375,-2.304358892145753,-1.0788245792657136,-3.2178648989170786
1780099071624880000,4.673880126953125,-1.59883702577129,-1.4852841502189635,-3.1429654330164194
1780099071634872300,4.683872314453125,-0.9662016049746424,-1.7111644511818884,-2.7234622560948134
1780099071644864000,4.693864013671875,-0.2725648952484131,-1.6300965257793665,-2.254166728130728
1780099071654856200,4.703856201171875,0.36059155374765395,-1.5287831002056598,-1.991074740757048
1780099071664848100,4.71384814453125,0.8927467118591069,-1.3685463610202073,-1.926722680094838
1780099071674840300,4.72384033203125,1.405326816406846,-1.0212807373136281,-1.8857532485857604
1780099071684832000,4.73383203125,1.8336288013339042,-0.5615256295025348,-1.800652122144401
1780099071694824200,4.74382421875,2.1040280429810285,-0.0033136545926332472,-1.5935051632240413
1780099071704816000,4.753816162109375,2.392812397754937,0.4937392104774713,-1.3684887856140733
1780099071714808300,4.763808349609375,3.5890827683582898,0.982097312438488,-1.1287249207273125
1780099071724800000,4.773800048828125,5.463288787013292,1.6167285101622342,-1.2584376345723867
1780099071734792200,4.783792236328125,6.152193426716328,1.9949989284634588,-2.2315862091407177
1780099071744784100,4.7937841796875,5.35193269085288,2.2507067969352006,-3.3057351978108285
1780099071754776300,4.8037763671875,4.147733719207346,2.7902754461735486,-4.091790298189222
1780099071764768000,4.81376806640625,3.177779849027097,3.382354619371891,-4.4903561932832
1780099071774760200,4.82376025390625,2.3801064993083476,4.0076603548675775,-4.489672887194156
1780099071784752000,4.833752197265625,1.9833298257187009,4.582008056542277,-4.30059174631834
1780099071794744300,4.843744384765625,2.0540441148892046,4.989682263982296,-3.6821427448496222
1780099071804736300,4.853736328125,2.6588638194561005,5.126504225310683,-2.4815000043809414
1780099071814728200,4.863728271484375,3.9974052105739712,4.557034358805418,-1.1200013699151574
1780099071824720400,4.873720458984375,6.10112491825819,3.6537282590091227,0.4824764965765178
1780099071834712300,4.88371240234375,8.676579802143573,3.1269056940972804,1.9570763173043726
1780099071844704500,4.89370458984375,10.064276853835581,3.667425944972038,3.400486488389969
1780099071854696200,4.9036962890625,8.753518080395459,5.2604649519890545,4.177530014795065
1780099071864688400,4.9136884765625,6.373315719497204,6.361653338754177,3.3811563494980335
1780099071874680300,4.923680419921875,4.512134309849142,6.361669705367088,1.241335839254409
1780099071884672500,4.933672607421875,3.0817011092364788,6.036880701884627,-0.3590072071656584
1780099071894664200,4.943664306640625,1.3895767279587685,5.57582678643465,-0.5503247287914157
1780099071904657400,4.953657470703125,-1.5532657995551824,4.259144468164444,-0.364174088409543
1780099071914649300,4.9636494140625,-4.845740241515636,2.9525796392828223,0.3341897229038179
1780099071924641300,4.973641357421875,-7.360209618562459,2.1357254960149525,1.1802844275727868
1780099071934633200,4.98363330078125,-8.487422673422097,1.7618173645764588,2.7406948381856084
1780099071944625400,4.99362548828125,-6.537710162883997,2.0917396392941474,5.040739666524529
1780099071954617300,5.003617431640625,-1.6190028848350047,3.080322222098708,7.2682234087824815
1780099071964609300,5.013609375,2.1497338553622365,3.610625614863634,7.831093438631296
1780099071974601200,5.023601318359375,1.3474527195870876,2.8939047474741932,5.982818856829405
1780099071984593400,5.033593505859375,-1.2120800802841782,1.3608230732917785,3.709293786625564
1780099071994585300,5.04358544921875,-2.991779430770874,0.08832301109731197,1.9530678123153744
1780099072004577300,5.053577392578125,-3.3106253079399464,-0.5691928031295538,0.2900488217517733
1780099072014569200,5.0635693359375,-3.0731448778152464,-0.6337906552463769,-0.9486354800805449
1780099072024561400,5.0735615234375,-3.0348771064803004,-0.6617243718326091,-2.2381047972545027
1780099072034553300,5.08355322265625,-3.162332396787405,-0.6232686767101288,-2.9233941690698266
1780099072044545500,5.093545654296875,-3.6528342327788472,-0.4326636872678995,-2.786156904938817
1780099072054537200,5.103537109375,-4.0927252409517765,-0.11108429348170756,-3.055117053693533
1780099072064529400,5.113529296875,-3.885409647466242,0.05159750076830387,-3.3746099965944882
1780099072074521300,5.123521240234375,-3.8564790287971493,0.1230085400313139,-3.442534947307408
1780099072084513500,5.133513427734375,-3.979557126933336,0.06621756227314472,-3.3801258374065157
1780099072094505200,5.143505126953125,-4.073179998004436,-0.11483633949160575,-2.777113182261586
1780099072104497400,5.153497314453125,-4.299859048129618,-0.30759236948788166,-1.5933096406519411
1780099072114489300,5.1634892578125,-5.112381591933965,-0.8713023572921752,-0.40381081001013513
1780099072124481500,5.1734814453125,-6.010319442695379,-1.717638615632057,0.4659986783757806
1780099072134473200,5.18347314453125,-6.336894745072722,-2.5538462786674496,1.0651783312290906
1780099072144465400,5.19346533203125,-6.245482535788416,-3.3464187981158493,1.5144164289399982
1780099072154457300,5.203457275390625,-6.02029372422099,-4.11601142399311,1.8222116275236009
1780099072164449500,5.213449462890625,-5.576899384102225,-4.901021983754634,1.9587775682643054
1780099072174442200,5.223442138671875,-5.259245639327168,-5.595362677031755,2.128208544513583
1780099072184434400,5.233434326171875,-5.293361259418726,-6.303877441611886,2.3621751212984323
1780099072194426400,5.24342626953125,-5.2627293897897,-6.940987012147903,2.450486734218895
1780099072204418300,5.253418212890625,-4.89721703851372,-7.264872344788908,2.4101953481018543
1780099072214410200,5.26341015625,-4.529501039713621,-7.180596563255786,2.3780668101742863
1780099072224402400,5.27340234375,-4.22003323174268,-6.929988648271561,2.239111051687598
1780099072234394400,5.283394287109375,-3.8144329079672694,-6.850010271671414,1.9514263287186622
1780099072244386600,5.293386474609375,-3.1302313313886523,-6.823548381203413,1.6674343227878212
1780099072254378200,5.303378173828125,-2.323616550323367,-6.510564966326951,1.3772516455233097
1780099072264370400,5.313370361328125,-1.50819273211956,-5.498062578752637,1.0987345638722181
1780099072274362400,5.3233623046875,-0.12986556631922722,-3.440322239693999,0.8721604354262351
1780099072284354600,5.3333544921875,3.238299491919577,-0.4005424558639526,0.6427931691303849
1780099072294346200,5.34334619140625,10.758075110799073,3.5181297019958495,0.2379126840621233
1780099072304338400,5.35333837890625,21.800424259340762,9.577315759190917,-0.5497708943009376
1780099072314330400,5.363330322265625,22.63774485205412,16.452550488489866,0.22427491159290075
1780099072324322600,5.373322509765625,14.042242912185191,18.277620720314978,-0.3484644781023264
1780099072334314200,5.383314208984375,6.661917557311058,14.696287835431098,-2.9565877058804033
1780099072344306400,5.393306396484375,3.316905703383684,9.195160608410834,-3.937816126529872
1780099072354298400,5.40329833984375,2.1135504890859127,3.7029350652486084,-2.58075825099051
1780099072364290300,5.413290283203125,1.5831202550709247,-0.17908523204028606,-0.6461155915513634
1780099072374282200,5.4232822265625,1.2602844314828514,-2.388514846691489,0.8626692612424492
1780099072384274200,5.433274169921875,1.3703788371443748,-3.9651656134873625,1.7965964170128106
1780099072394266400,5.443266357421875,-0.19580694199949503,-5.2365334567815065,2.1686074826583264
1780099072404258300,5.45325830078125,-2.4881059785172344,-5.7184472049087285,2.3491660021215677
1780099072414251300,5.463251220703125,-3.7615386453866955,-5.48850623037815,2.4090330263242126
1780099072424243500,5.473243408203125,-5.325304211646318,-4.643409158444404,2.3868691253110765
1780099072434235400,5.4832353515625,-6.335121890181303,-1.8037287531107664,3.43399829736948
1780099072444227600,5.4932275390625,-4.290533878162503,2.7110820824712514,5.442884296888113
1780099072454219300,5.50321923828125,1.7889103925548493,9.060485595983266,7.417714297547936
1780099072464211500,5.51321142578125,4.927055419677496,13.75055830592513,7.13928080252707
1780099072474203400,5.523203369140625,-3.2552515035033225,11.990694998025894,4.392057147094607
1780099072484195600,5.533195556640625,-5.99642301928997,7.091918162849545,2.2199559771016237
1780099072494187300,5.543187255859375,-5.054378315776586,2.084550604572892,0.9132190065234899
1780099072504179200,5.55317919921875,-4.547021498835087,-1.4193202704459429,0.24512042348384855
1780099072514171400,5.56317138671875,-3.889829509735107,-3.633175300323963,-0.2014680365011096
1780099072524163300,5.573163330078125,-3.7082162205219267,-5.040325825026631,-0.9294356895700097
1780099072534155300,5.5831552734375,-3.3005987117052076,-6.137476919099688,-2.146539735496044
1780099072544147200,5.593147216796875,-3.042611792385578,-6.571679652503132,-3.0706849174425006
1780099072554139400,5.603139404296875,-3.121585375857353,-6.091956107896566,-3.2181559908181425
1780099072564131300,5.61313134765625,-3.648981064482033,-4.825405894017219,-3.1347692670792338
1780099072574123300,5.623123291015625,-4.5339460364237425,-2.720284210580587,-2.968031767697632
1780099072584115200,5.633115234375,-5.320796378833055,-0.5256055903375149,-3.0443253183051944
1780099072594107400,5.643107421875,-6.088686876967549,1.4783365230381489,-2.9752579195588824
1780099072604099300,5.653099365234375,-7.115289101564883,3.4306343738943337,-2.3492165632650255
1780099072614091500,5.663091552734375,-8.081813581818341,4.802674422249198,-1.593157080438733
1780099072624083200,5.673083251953125,-7.970165224713087,4.671180377945304,-1.3729226764082907
1780099072634076400,5.683076416015625,-6.900808146494627,3.5735400390505787,-0.9885574483633041
1780099072644068400,5.693068359375,-6.036592532593011,2.6424235567867753,-0.23876024080216884
1780099072654060300,5.703060302734375,-4.52625811226964,2.4198475580662486,0.038456279644370074
1780099072664052200,5.71305224609375,-2.016380739188194,1.6527502561360596,-0.5159051573172211
1780099072674044400,5.72304443359375,-0.788205556410551,0.18877192879617213,-1.0790288696661592
1780099072684036400,5.733036376953125,0.22064413560880347,-1.3739987812072039,-1.3860881551906465
1780099072694028300,5.7430283203125,2.4545196429967877,-2.584941674154997,-1.3217740884512663
1780099072704020200,5.753020263671875,5.329768205317855,-3.0674042883366344,-0.7237243164107203
1780099072714012400,5.763012451171875,7.629783515301346,-2.9096342315256596,0.041755028928816315
1780099072724004400,5.77300439453125,8.203928387880325,-2.11915020878911,0.7970245304211974
1780099072733996300,5.782996337890625,7.184866495659947,-1.34733639973104,1.2044359952718018
1780099072743988200,5.79298828125,5.106784794840216,-0.9877747735530138,1.0659206740289926
1780099072753980400,5.80298046875,2.8093519025653597,-0.9928951853066682,0.365278250259161
1780099072763972400,5.812972412109375,1.0389395089272409,-0.71364452868402,-0.38036359118819235
1780099072773964300,5.82296435546875,-0.2506178518563509,-0.4922404963523149,-0.7037371749147773
1780099072783956200,5.832956298828125,-1.1990022797852753,-0.4240086716473102,-0.9467994968250393
1780099072793948400,5.842948486328125,-2.393783142483234,-0.38378362876474853,-1.0853671327769756
1780099072803940400,5.8529404296875,-3.4237510441213845,-0.4258353025525808,-1.2301231019750236
1780099072813932500,5.8629326171875,-3.299890855696797,-0.37124388066530223,-1.5156602915212511
1780099072823924700,5.8729248046875,-1.5575469840057192,-0.2123538799136877,-1.8589774698629975
1780099072833916700,5.882916748046875,0.5760346318483353,0.058609425356984136,-1.9967174228191376
1780099072843908900,5.892908935546875,2.6210598662406204,0.4371609986871481,-2.064311826403439
1780099072853901600,5.902901611328125,4.657338315075636,0.7084452064752579,-1.9847849929630754
1780099072863893800,5.912893798828125,6.201186297944187,0.8328162670314312,-1.8102949797585606
1780099072873885700,5.9228857421875,6.75329820241332,0.9884639248609542,-1.6075132303103803
1780099072883877600,5.932877685546875,6.133606215146184,1.1519897687196732,-1.4295005959376692
1780099072893869600,5.94286962890625,4.90408838558793,1.1881266655057667,-1.313133685877919
1780099072903861800,5.95286181640625,3.6667742030650374,0.967218307736516,-1.4778352955177425
1780099072913853700,5.962853759765625,2.303603105342388,0.9436287578344345,-2.0895368685528637
1780099072923846000,5.972845947265625,1.2448003004945813,1.1496019968003033,-3.0274475410014388
1780099072933837600,5.982837646484375,0.6822048498034476,1.6545061598926782,-4.0715889294207095
1780099072943829800,5.992829833984375,0.5008490424826741,2.230536115565896,-4.990172093325853
1780099072953821700,6.00282177734375,0.36253391998708245,2.7630653676867483,-5.7877393523216245
1780099072963814000,6.01281396484375,0.19925299080014228,3.3729292039006946,-6.347151350671052
1780099072973805600,6.0228056640625,0.5223711384609341,3.9496588322758672,-6.5501300839960575
1780099072983797800,6.0327978515625,1.5889672275334596,4.057750958204269,-6.192171216839552
1780099072993789700,6.042789794921875,3.1339544435650106,3.8334716626971956,-5.293213959902524
1780099073003782000,6.052781982421875,5.274211153268814,3.8816871198117733,-4.030218808156252
1780099073013773600,6.062773681640625,7.495080445823073,4.232073505887389,-2.3588456846147774
1780099073023765800,6.072765869140625,9.194428787004947,4.609757064211368,-0.6628589288204908
1780099073033757700,6.0827578125,9.568564881980418,5.087276376771927,0.7511369317322969
1780099073043750700,6.092750732421875,9.158380153024195,5.526698306128383,1.5626315937936306
1780099073053742600,6.10274267578125,7.268896777999401,5.9275219170212745,1.176199496346712
1780099073063734800,6.11273486328125,4.109833612141013,6.24323797173202,-0.344623292504251
1780099073073726700,6.122726806640625,1.4702245282530784,6.3978182925909755,-2.135072292803228
1780099073083718700,6.13271875,0.21154607066214084,6.0890580483675,-3.210994428625703
1780099073093710600,6.142710693359375,-0.7317420570410788,5.346650951057672,-3.3530952071398494
1780099073103702800,6.152702880859375,-2.447268648955226,3.8880473024934528,-2.3491604491636155
1780099073113694700,6.16269482421875,-4.280749566251039,2.486893972378969,-0.19635346996635197
1780099073123687000,6.17268701171875,-5.14997219465971,2.005285929200053,2.0735408425197006
1780099073133678600,6.1826787109375,-5.156205536091328,2.052782424390316,3.9839480553686615
1780099073143670800,6.1926708984375,-4.372420134210587,2.6410803254842756,5.993984978488087
1780099073153662700,6.202662841796875,-1.8045991062045097,3.7739877925932404,8.336555235606431
1780099073163655000,6.212655029296875,0.6737164959866553,4.640519282221794,9.777185420584678
1780099073173646600,6.222646484375,1.2626163815617562,4.271858403787016,8.974805208349228
1780099073183638800,6.232638671875,0.14211962934508918,2.935768789735436,6.8417328571915625
1780099073193630700,6.242630615234375,-1.599053298870474,1.2961971641242502,4.85470388469398
1780099073203623000,6.252622802734375,-2.691982829725742,0.045516135028004646,2.81397722427845
1780099073213614600,6.262614501953125,-2.499585111647844,-0.36240649421513077,1.2765291715800762
1780099073223606800,6.272606689453125,-2.553697810107469,-0.6206026723712682,0.8439996320858597
1780099073233598700,6.2825986328125,-3.072415102235973,-1.138382683649659,0.3193979580938816
1780099073243591700,6.292591796875,-3.736649411062896,-1.8324159184128046,-0.5830819200113415
1780099073253583600,6.30258349609375,-4.3081919921889895,-2.281556693229079,-0.8696431919082999
1780099073263575800,6.312575927734375,-4.445087895536423,-2.3066391120374203,-1.77100049572438
1780099073273567700,6.322567626953125,-4.8724987768426535,-2.1613176179111004,-2.4748487297981976
1780099073283559700,6.3325595703125,-4.7873418285608285,-1.873202686831355,-2.8104367751926183
1780099073293551600,6.342551513671875,-4.170020077556371,-1.6844798578739166,-2.7263562239706514
1780099073303543800,6.352543701171875,-3.517257303075492,-1.4504162504553795,-2.831302745349705
1780099073313535700,6.36253564453125,-3.503264433558285,-1.2621978638887406,-3.1547651764035223
1780099073323528000,6.37252783203125,-4.2472421411857,-1.2247346869349478,-3.073725308051705
1780099073333519600,6.38251953125,-6.112104577434063,-1.4523925189644098,-2.350267533622682
1780099073343511800,6.39251171875,-7.223334465742111,-1.9583838927716015,-1.6019950514107941
1780099073353503700,6.402503662109375,-7.240553311568498,-2.509665776157379,-0.6456067652463913
1780099073363496000,6.412495849609375,-6.640513534754514,-3.062966013628244,0.5431406625062227
1780099073373487600,6.422487548828125,-6.039771162629127,-3.7213644559085366,1.548150648498535
1780099073383479800,6.432479736328125,-5.564886874747276,-4.46238039112091,2.2232298842057583
1780099073393471700,6.4424716796875,-4.956759653067588,-5.245103132206201,2.70041689607203
1780099073403464000,6.4524638671875,-4.550805693548917,-5.9733244677752255,3.011997458413243
1780099073413455600,6.46245556640625,-4.280803342264891,-6.688323918199539,3.025328064629435
1780099073423447800,6.47244775390625,-4.099850270526111,-7.300741530549526,2.8969468916490673
1780099073433439700,6.482439697265625,-3.770523039092123,-7.653720855727792,2.7879882120192048
1780099073443432700,6.4924326171875,-3.421677744978666,-7.774618687215447,2.742249081890285
1780099073453424600,6.502424560546875,-2.6793904746562243,-7.623144515678286,2.5126491758823395
1780099073463416800,6.512416748046875,-1.291772041158378,-7.0226727771878235,2.167745312871039
1780099073473408800,6.52240869140625,0.9560010404124856,-5.435562575697898,1.7322049011230467
1780099073483400700,6.532400634765625,5.391092150330543,-2.476649641740322,1.3209399757146834
1780099073493392600,6.542392578125,16.763672785669563,1.6877642863720654,0.41086803504526614
1780099073503384800,6.552384765625,27.496643850350377,9.62637877304554,0.24625468821078536
1780099073513376800,6.562376708984375,22.586349011337756,17.008106980454922,2.647159060876071
1780099073523369000,6.572368896484375,9.98924996216297,17.43722554246187,0.6088716103062033
1780099073533360600,6.582360595703125,2.342277411651611,13.235067282366751,-4.096383471198379
1780099073543352800,6.592352783203125,0.755791771800816,8.143140449440478,-5.577334852910042
1780099073553344800,6.6023447265625,1.9909587131619453,3.1142256607443093,-4.224437311920523
1780099073563337000,6.6123369140625,2.643853589589894,-0.5640238760590552,-2.7803558174446223
1780099073573328600,6.62232861328125,2.5239096978262063,-2.8132547552227973,-1.5589786242440342
1780099073583320600,6.632320556640625,1.7170400652170181,-3.962248264735937,-0.2741170931264758
1780099073593312800,6.642312744140625,0.48913873094469307,-3.9920536204129453,0.9465323703214525
1780099073603304700,6.6523046875,-1.2567347761772572,-3.361341057437658,1.5120321641519665
1780099073613296600,6.662296630859375,-3.05821852684021,-2.710073782211542,1.0620096380650996
1780099073623288600,6.67228857421875,-5.003236157560348,-1.5250801540344954,0.650320057503879
1780099073633281800,6.68228173828125,-6.807519621944427,1.7973726620823143,1.9702339050412176
1780099073643273700,6.692273681640625,-6.396864937388896,6.193638951304554,4.111435494379699
1780099073653265700,6.702265625,0.3941873877488076,12.342939579188823,5.9340381670475
1780099073663257900,6.7122578125,0.4957913207016885,13.9625164645195,4.6638984042435885
1780099073673249800,6.722249755859375,-4.641766651934385,8.175472693246602,2.861926431672275
1780099073683241700,6.73224169921875,-4.291677787500619,2.734336116808653,2.1355594917982814
1780099073693233700,6.742233642578125,-3.9992227813899515,-1.0114052399873732,1.3117659046560526
1780099073703225600,6.7522255859375,-3.9574294662773606,-3.4362960529178377,0.8982979162454604
1780099073713217800,6.7622177734375,-3.9553389237388967,-4.599652434304356,0.6544394755214452
1780099073723209700,6.772209716796875,-3.751800510704517,-5.378548895099759,0.18631459877192974
1780099073733201700,6.78220166015625,-3.5577588248118754,-5.8316953984260556,-0.32490590786039825
1780099073743193600,6.792193603515625,-3.714395493678748,-5.631790081197023,-0.49750849988311524
1780099073753185800,6.802185791015625,-4.421359521685541,-4.592001042768359,0.0643792409300804
1780099073763177700,6.812177734375,-5.147765040004253,-2.9460967070043087,0.8126739349737763
1780099073773169700,6.822169677734375,-5.907987195467949,-1.0021323847293853,1.5315028805583715
1780099073783161600,6.83216162109375,-6.796298555228113,1.1832879933029412,2.4651789841771126
1780099073793153800,6.84215380859375,-7.169279050427675,3.0529280192166564,3.2218180204570293
1780099073803145700,6.852145751953125,-6.560004996800422,3.7711557840377092,3.3141748171150684
1780099073813137700,6.8621376953125,-5.3366158792555325,3.1033892094314095,2.5970073750019074
1780099073823131100,6.872131103515625,-4.450196909113228,2.0728730262607336,2.0211673889428377
1780099073833123000,6.882123046875,-3.907252938222885,0.8983072685956954,1.5846625160768628
1780099073843115000,6.892114990234375,-3.5822973460018632,-0.18920505951642988,1.003033717483282
1780099073853107000,6.90210693359375,-2.854575776648521,-1.162385490527749,0.19837036274671555
1780099073863099100,6.91209912109375,-2.3502711868844925,-2.0603853006094694,-0.602799596916139
1780099073873091000,6.922091064453125,-1.6633119821608067,-2.7249755832672116,-1.1775231461659073
1780099073883082800,6.932082763671875,-1.0129939704835413,-3.2200960189700125,-1.6383359463363885
1780099073893075000,6.942074951171875,-0.605610233890079,-3.3515789573580026,-1.7636343508705496
1780099073903067000,6.95206689453125,-0.1655505911519751,-3.076567838001251,-1.7870090889781713
1780099073913059000,6.96205908203125,0.39633214469254013,-2.5665304036736485,-1.9313620303332804
1780099073923051000,6.972051025390625,0.9267869286268949,-1.6122522415310143,-1.840796208745241
1780099073933043000,6.98204296875,1.745520309770107,-0.409945074981451,-1.6816352820977567
1780099073943035000,6.992034912109375,3.1217151397168634,0.5994879881501197,-1.4185454866811633
1780099073953027000,7.002027099609375,4.970235220712423,1.144682660576701,-1.19821989723593
1780099073963019000,7.01201904296875,5.8708712245166295,1.0628712233304978,-1.3800263709336518
1780099073973011000,7.022010986328125,5.389220511239767,0.49419922920465464,-1.7376237113013862
1780099073983003000,7.0320029296875,3.4768162793546913,-0.05808160209059715,-2.221922016477585
1780099073992995000,7.0419951171875,1.6543401556760071,-0.5562579182326793,-2.796315603120625
1780099074002987000,7.051987060546875,1.3123100945353507,-0.7181184592276811,-2.4905618472367523
1780099074012979000,7.06197900390625,1.6457938611268996,-0.31692016980350013,-1.6502701297581195
1780099074022972000,7.071971923828125,2.5643828702509404,0.16982114461064338,-1.039129113215208
1780099074032964000,7.081964111328125,3.7948978941529985,0.49470074898600574,-0.7411138426288962
1780099074042955800,7.091955810546875,4.379411600533127,0.7609867100954055,-0.7181763268947601
1780099074052948000,7.101947998046875,4.047850910958648,1.127481934928894,-0.850276812659204
1780099074062940000,7.11193994140625,3.9417134262293576,1.562531640550494,-1.1376160831913351
1780099074072932000,7.12193212890625,4.326213678830862,1.9235539869308471,-1.5603765083432197
1780099074082923800,7.131923828125,4.8209372241705655,1.9245494277089834,-2.2391154356017706
1780099074092916000,7.141916015625,4.633572824084759,1.6956646842330694,-3.1004750755503774
1780099074102908000,7.151907958984375,3.503309734004736,1.5886089156150818,-4.1214238044306635
1780099074112900000,7.161900146484375,2.108540259708464,2.079233208942413,-5.018293441438675
1780099074122891800,7.171891845703125,1.3461550809919833,2.968337180384993,-5.7291579840153455
1780099074132884000,7.181884033203125,1.326314069968462,4.023117451718449,-6.349980436617136
1780099074142876000,7.1918759765625,1.953274879194796,5.244126396128535,-6.590699410271644
1780099074152868000,7.2018681640625,3.2675954367697235,6.0215364177584645,-5.982035597497225
1780099074162860000,7.211860107421875,4.603936687494814,5.925600009047985,-4.849885086235404
1780099074172852000,7.22185205078125,5.854630868333578,5.451895870861411,-3.2426237848594783
1780099074182844000,7.231843994140625,7.433757669854164,5.025377846741676,-1.118210833236575
1780099074192836000,7.241836181640625,9.762454299920797,4.595246892821788,0.9478399457886815
1780099074202828000,7.251828125,10.992315243828296,4.439893249502778,2.2799524729028344
1780099074212820000,7.261820068359375,9.161324389782548,5.020874105581641,2.644213362812996
1780099074222812000,7.27181201171875,5.381837999773025,5.817890160435438,2.018055686663091
1780099074232805000,7.28180517578125,1.8261311390548944,5.828544240918755,0.847162187770009
1780099074242796800,7.291796875,-0.3079303692705929,5.638166630491614,-0.17647066562771796
1780099074252789000,7.3017890625,-1.7436825729489325,5.197953258496523,-0.3256117180421948
1780099074262781000,7.311781005859375,-3.7076685235112903,4.325698715046048,0.848145061327517
1780099074272773000,7.321773193359375,-5.709567732882499,3.576898117306828,2.2295105719104407
1780099074282764800,7.331764892578125,-6.484024165403842,3.154019910994172,3.3000968996629116
1780099074292757000,7.341757080078125,-5.9438090349555015,3.1171172905325886,4.595575978645682
1780099074302749000,7.3517490234375,-4.523427857279778,3.8818057777553796,6.958109411862492
1780099074312741000,7.3617412109375,-0.9966354678135365,5.429314621219039,9.285169965159893
1780099074322732800,7.37173291015625,1.3324797529913484,6.423086589360237,9.427229827141762
1780099074332725000,7.38172509765625,1.4778841030955314,5.883182424557209,7.429830851799249
1780099074342717000,7.391717041015625,0.6931821708917617,3.924772812822461,5.035321148607134
1780099074352709000,7.401709228515625,-0.5042835469760001,2.2458915056079625,3.1497105233624576
1780099074362701000,7.411701171875,-2.0874567012779415,0.9511007011502981,1.7649669146485625
1780099074372693000,7.42169287109375,-3.1766204498589037,-0.359263520014286,0.4077399661526084
1780099074382685000,7.431684814453125,-3.7803573276251554,-1.449234931716323,-0.8381158347442745
1780099074392677000,7.441677001953125,-4.069591325862706,-2.23828746034503,-1.867275342608988
1780099074402669000,7.4516689453125,-4.076073673619329,-2.6886995702713725,-2.7599934128955006
1780099074412661000,7.461660888671875,-4.2745989346668125,-2.9475416451156136,-3.4937992705985903
1780099074422653000,7.47165283203125,-4.868572543309629,-2.7699919520795344,-3.5901463059365746
1780099074432646100,7.481646240234375,-5.52727990540862,-2.3932506430417297,-2.924830923874676
1780099074442637800,7.491637939453125,-5.59276038557887,-2.209738826730847,-2.319802544993162
1780099074452630000,7.501630126953125,-5.851769049161672,-2.0549463244259356,-2.180184815466404
1780099074462622000,7.5116220703125,-5.707480989736318,-2.1013608695983885,-2.043159148259461
1780099074472614100,7.5216142578125,-5.245769487160444,-2.3948247604906556,-1.4188155357941985
1780099074482605800,7.531605712890625,-5.42086360373795,-2.8940193137645718,-0.5315449172586202
1780099074492598000,7.541597900390625,-6.1699833504289385,-3.3726182382553813,0.10176789134293794
1780099074502590000,7.55158984375,-6.921232510364055,-3.9920518668472766,0.4196899316653609
1780099074512582100,7.56158203125,-7.313578800290823,-4.693811311948299,0.6820353384554386
1780099074522573800,7.57157373046875,-7.250911039453745,-5.30023465231955,0.9781541277706622
1780099074532566000,7.58156591796875,-6.898519158774614,-5.821272204089165,1.1823530505403876
1780099074542558000,7.591557861328125,-5.9513961290836335,-6.339234586197137,1.4572025495946406
1780099074552550100,7.601550048828125,-4.818257191306352,-6.938491103678941,1.7596441121906041
1780099074562542000,7.6115419921875,-4.390551126445829,-7.492571093350649,1.940292355763912
1780099074572534000,7.621533935546875,-4.608317094536125,-7.865484953054786,2.1533105448052288
1780099074582526000,7.63152587890625,-4.520309140737354,-7.790821049475669,2.471323478281498
1780099074592518100,7.64151806640625,-4.241178895623982,-7.400632229843735,2.710258198867738
1780099074602510000,7.651510009765625,-3.5293586597576736,-6.777059601750969,2.691886383613944
1780099074612502000,7.661501953125,-2.275333580930531,-5.336559765154123,2.5187545070201156
1780099074622494000,7.671493896484375,-0.050019583927094935,-3.034032764610648,2.071540608613193
1780099074632486000,7.68148583984375,4.7812382509887215,-0.26691549118459224,1.5866604118958114
1780099074642478000,7.69147802734375,23.361577012753486,5.642899504232406,0.5042375158771872
1780099074652471000,7.701470947265625,31.729858927488326,16.575924354702234,2.10546129065454
1780099074662463000,7.711462890625,18.127630065333843,21.111876177990435,4.520855960965156
1780099074672455200,7.721455078125,7.188958733409643,17.5988692258358,1.191390051215887
1780099074682446800,7.73144677734375,1.5824363644599913,11.100351255655289,-1.7797662782430648
1780099074692439000,7.74143896484375,0.04917655723169446,5.005244574773311,-1.6535039971128105
1780099074702431000,7.751430908203125,0.5294681109845638,0.4140449115157127,-0.31365678409337994
1780099074712423200,7.761423095703125,1.297534842468798,-2.2372101865023373,1.3646432161018252
1780099074722414800,7.771414794921875,2.1912185429170727,-4.06101200582683,2.7335642556533215
1780099074732407000,7.781406982421875,1.7814111228406428,-5.497022129788994,3.3903707525670526
1780099074742399000,7.79139892578125,0.2562123108625412,-5.225313559108972,4.504087781515717
1780099074752391200,7.80139111328125,-2.7136720989644525,-3.285737827181816,5.644898569095134
1780099074762383000,7.811383056640625,-4.778065466171503,0.29034137495756146,6.653536682456731
1780099074772374800,7.821374755859375,-4.72420995734334,4.5145308495968575,6.587653466704487
1780099074782367000,7.831366943359375,-0.42882747010588645,9.433211824160814,6.87439360229969
1780099074792359000,7.84135888671875,-0.5957694060184061,11.35850184110403,4.76643289604485
1780099074802351000,7.85135107421875,-5.805016650336981,6.455988157486916,1.488649534998834
1780099074812342800,7.8613427734375,-5.896468607109785,1.6501806979089975,-0.20384937867969274
1780099074822334200,7.871334228515625,-5.224129317760467,-1.1983791794508696,-0.7897627227246761
1780099074832326100,7.881326171875,-4.9008115558743475,-2.9717683238774537,-1.1992393034115434
1780099074842318300,7.891318359375,-4.504905527639389,-4.257628802904486,-1.9949954213321208
1780099074852310300,7.901310302734375,-4.083670996880531,-4.984226336663961,-3.0293811394125223
1780099074862302200,7.91130224609375,-3.9323324344217774,-4.914702134060859,-3.815333656199276
1780099074872295200,7.921295166015625,-4.273181176823377,-3.5778286761552094,-3.6948566804721947
1780099074882287400,7.931287353515625,-5.010396550709009,-1.6533043828874825,-3.2419729197353124
1780099074892279000,7.941279052734375,-5.8356888519763945,0.41329438540935515,-3.09672069145292
1780099074902271200,7.951271240234375,-6.574701046150922,2.2230805388629435,-3.145330700843036
1780099074912263200,7.96126318359375,-7.145444585853815,3.007663228601217,-2.833614237162471
1780099074922255400,7.97125537109375,-7.805983547294139,3.0721283942490816,-2.483443539664149
1780099074932247000,7.9812470703125,-8.190866661733388,2.1563018355756998,-2.434901627074182
1780099074942239200,7.9912392578125,-7.485241188853979,0.9263245718121528,-2.267052367058396
1780099074952231200,8.001231201171874,-6.395218923747539,0.32785715888142586,-1.8403657083734868
1780099074962223400,8.011223388671874,-5.293883821988105,0.3619306933969259,-1.1745999521955848
1780099074972215300,8.02121533203125,-4.1376352267801755,0.7751222029536962,-0.45598026544749737
1780099074982207200,8.031207275390624,-2.764060223942995,0.38032968891859054,-0.5923030450820923
1780099074992199200,8.04119921875,-1.4930197129070757,-0.452976407456398,-1.1442165043696761
1780099075002191400,8.05119140625,-0.49476621543765065,-1.1264911703258753,-1.2481000726923346
1780099075012183300,8.061183349609376,0.5441735126852989,-1.7690040612101554,-1.3265250823706387
1780099075022175200,8.07117529296875,2.4845202289849517,-2.1604998717874286,-1.007991047629714
1780099075032167200,8.081167236328126,6.182182906788587,-1.5997206767380237,0.2703247151061892
1780099075042159400,8.091159423828126,9.594793548214435,-0.7150690085291862,1.4625997324630617
1780099075052151300,8.1011513671875,11.198666668456791,-0.25335458334386346,2.1085779613703486
1780099075062143200,8.111143310546876,10.017700980621576,-0.026399931147694587,2.4117682965070006
1780099075072135200,8.12113525390625,6.744601685738563,-0.22489070540368555,2.0671347748696802
1780099075082127400,8.13112744140625,3.7846325207263227,-0.6748743607848883,1.2515464137539267
1780099075092119300,8.141119384765625,1.5533382802695035,-0.913017346471548,0.383327701690793
1780099075102111200,8.151111328125,-0.2600327459335327,-0.6749176154047251,-0.1597287896633148
1780099075112104200,8.161104248046875,-1.522596520525217,-0.19422201089560984,-0.4265089640304446
1780099075122096400,8.171096435546875,-2.726966464823484,0.1847732145488262,-0.7227572249442339
1780099075132088000,8.181088134765625,-3.463579196640849,0.47431320999562737,-1.118550148193538
1780099075142080300,8.191080322265625,-2.722695363375544,0.4220236353099346,-1.6394579361036419
1780099075152072200,8.201072265625,-0.6089695177227258,0.3938596170991659,-2.1602543725937604
1780099075162064400,8.211064453125,1.0097241550326346,0.46328328193724155,-2.424279695294797
1780099075172056300,8.221056396484375,2.3360798721857368,0.3420037576556206,-2.496069797003269
1780099075182048300,8.23104833984375,3.502368946023285,0.15768354757130146,-2.547304601939022
1780099075192040200,8.241040283203125,4.516507702627778,0.06091828682124614,-2.646357681365311
1780099075202032400,8.251032470703125,5.137286316087842,0.22101357170939445,-2.627414788225293
1780099075212024300,8.2610244140625,5.098277078735828,0.733256991648674,-2.426809506033361
1780099075222016300,8.271016357421875,4.560459364818036,1.2787222977101802,-2.3723408337429164
1780099075232008200,8.28100830078125,3.6654157741934057,1.4714204600393772,-2.7326699371621013
1780099075242000400,8.29100048828125,2.645635504570603,1.6874726099491117,-3.4929522983804344
1780099075251992300,8.300992431640625,1.8369354416638612,2.370713817062974,-4.455281080509722
1780099075261984300,8.310984375,1.299974344575405,3.3767636674970385,-5.288405682837963
1780099075271976200,8.32097607421875,0.70276219240278,4.098714836755395,-6.218326233315468
1780099075281968000,8.330968017578124,0.28205402360558507,4.6500066570132965,-6.386600733006
1780099075291960300,8.340960205078124,0.6463502770900726,4.97425088609457,-5.672967310237884
1780099075301952000,8.350951904296876,1.451493232037127,4.4680952616363765,-4.596671957188844
1780099075311944200,8.360944091796876,2.5956585907414556,3.808395089107752,-2.7698911220535636
1780099075321936100,8.37093603515625,5.163424965950846,3.3672312845200296,-0.11616291192024945
1780099075331928300,8.38092822265625,9.547129295241833,2.920041643771529,2.524384621861577
1780099075341920300,8.390920166015626,13.29256903874278,2.6482342888921497,4.876376495058834
1780099075351912200,8.400912109375,12.629930474674701,3.0254677653610704,6.334720323643088
1780099075361905400,8.410905517578126,8.831395100802183,4.092192156988382,5.57935145342946
1780099075371897300,8.4208974609375,5.307675031453371,5.753379402080178,2.7323057800248263
1780099075381889300,8.43088916015625,3.2272295241117477,7.050753793290257,0.16304302877783775
1780099075391881200,8.440881103515625,1.5662341483302413,7.188873977735638,-2.055340584440529
1780099075401873200,8.450873046875,-0.09407580247037112,6.536762068378925,-3.3553426938056945
1780099075411865300,8.460865234375,-1.6865987497240305,5.008345463398099,-2.920398202124238
1780099075421857000,8.47085693359375,-3.0438270133942362,3.1207378191173074,-0.3879033390432596
1780099075431849200,8.48084912109375,-4.385627990829945,2.0836393349468705,2.0006787276655436
1780099075441841200,8.490841064453125,-5.434039311653375,1.6510381915211676,3.2931615474417804
1780099075451833300,8.500833251953125,-5.16623476267457,1.536841318976879,4.697534131863713
1780099075461825000,8.510824951171875,-3.856433436089754,1.9164947160691022,7.003132794937491
1780099075471817200,8.520817138671875,-1.09007026896663,2.8611311896413563,9.495978953719138
1780099075481809200,8.53080908203125,0.6556453441798686,3.751991064840555,10.439645120954513
1780099075491801300,8.54080126953125,0.09640300330892204,3.328275823181867,8.845603074374795
1780099075501793000,8.55079296875,-0.2783108915545046,1.687614064246416,6.09260142006278
1780099075511785200,8.56078515625,-0.6749382198013365,0.4368734139174223,3.9811677770003673
1780099075521777200,8.570777099609375,-1.9002128588318823,-0.12351707407534122,2.2116690641410646
1780099075531769300,8.580769287109375,-2.999049421773851,-0.35574119110703467,0.5428706133931875
1780099075541761300,8.59076123046875,-3.6756288329109545,-0.519115059274435,-1.3639973194137214
1780099075551753200,8.600753173828124,-4.47909070290327,-0.6240659645676613,-2.0588065069854258
1780099075561745200,8.6107451171875,-4.840689095605909,-0.957626303526759,-2.619119838088751
1780099075571737300,8.6207373046875,-4.946273330366611,-1.4901573092132805,-3.711022510114312
1780099075581729300,8.630729248046874,-5.523881495141983,-1.6684329784363507,-4.219052988533676
1780099075591721200,8.64072119140625,-5.464921941173077,-1.71427586120069,-4.208495061901211
1780099075601713200,8.650713134765626,-5.187874932074546,-1.6129846474587917,-3.789892048689723
1780099075611705300,8.660705322265626,-5.265753121525049,-1.2853484378516673,-2.3074986514762044
1780099075621697300,8.670697265625,-4.957711254703998,-1.234924657037854,-0.5660065743088721
1780099075631690200,8.680690185546876,-4.468972921253741,-1.5897019715487957,0.7569535090565681
1780099075641682200,8.69068212890625,-4.60523140348047,-2.151785819455981,1.7926926875725389
1780099075651674400,8.70067431640625,-4.509959303897619,-2.9607722980886697,2.476917937287688
1780099075661666000,8.710666015625,-4.629737191444635,-3.755744864416122,2.7963983129680154
1780099075671658200,8.720658203125,-5.011173964822292,-4.595700481808185,2.810774628844857
1780099075681650200,8.730650146484376,-5.57670415379107,-5.5577346649050705,2.4931863505214453
1780099075691642400,8.740642333984376,-5.824053359240293,-6.50984074370563,2.1039944329723714
1780099075701634000,8.750634033203125,-5.493780371388793,-7.383700968787074,1.8099311148822306
1780099075711626200,8.760626220703125,-4.662042839504778,-7.885816377943754,1.4715373644173144
1780099075721618200,8.7706181640625,-3.772607444150746,-7.962503896304964,1.1487640846714378
1780099075731610400,8.7806103515625,-3.507298511379957,-7.717429650050401,1.0809098611071706
1780099075741602300,8.790602294921875,-2.8255916742265224,-7.515137145423889,0.7306143681854009
1780099075751594200,8.80059423828125,-1.845541065184772,-7.468821384450793,0.2070227480188012
1780099075761586200,8.810586181640625,-0.7841989511176943,-7.101610120302438,-0.23080226753503083
1780099075771578400,8.820578369140625,0.6392717170059681,-5.977182312247157,-0.5214917252779007
1780099075781570300,8.8305703125,3.4939550456821915,-3.679855802956223,-0.6368658249080181
1780099075791562200,8.840562255859375,8.35312175500393,-0.033254034826159476,-0.6959592343896627
1780099075801554200,8.85055419921875,19.165952538341283,6.150746735039353,-0.46141456545591353
1780099075811546400,8.86054638671875,27.362989413142202,16.096110209202767,1.6953636554598808
1780099075821538300,8.870538330078125,17.08119910467267,20.588380711674688,2.3881647180795667
1780099075831530200,8.8805302734375,7.9227371185839175,18.176952022385596,-0.5542518391072749
1780099075841522400,8.8905224609375,3.232199421478808,12.91417879345417,-2.292124556733668
1780099075851514400,8.900514404296874,1.5721958332136272,6.92499157063663,-1.536570977602899
1780099075861506600,8.910506591796874,1.867337301929295,1.7322265284329652,-0.04965045835375786
1780099075871498200,8.920498291015624,1.7982837855778633,-2.221637938839197,0.6946864379748702
1780099075881490400,8.930490478515624,1.6741710836969315,-4.880510526123643,1.0092565375208855
1780099075891482400,8.940482421875,0.5466504241928458,-6.709101333290338,1.0572536757096647
1780099075901474300,8.950474365234374,-2.4973861402988433,-7.436567466577887,1.3471025909751653
1780099075911466200,8.96046630859375,-4.9255286485016345,-6.806195679864287,1.7810475502252578
1780099075921458200,8.970458251953126,-6.948865198177099,-5.58479685935378,1.7645266235351562
1780099075931451400,8.980451416015624,-8.328865265625716,-2.30514799669683,2.7398385136172174
1780099075941443300,8.990443359375,-6.756932175001501,2.276676519972086,4.857761226437986
1780099075951435300,9.000435302734376,-0.6329917599536479,9.56610170673728,7.856386869841813
1780099075961427500,9.010427490234376,0.9518282847724855,14.644695595359801,7.578374815103412
1780099075971419400,9.02041943359375,-4.136030129671097,11.73085163718462,4.895199853472412
1780099075981411600,9.03041162109375,-4.598368239712715,6.421609502544999,2.9044273105323315
1780099075991403300,9.0404033203125,-4.701266304129362,1.3645359563350676,1.2643021426916121
1780099076001395500,9.0503955078125,-4.463976135879755,-1.92082543874979,0.0967462637886405
1780099076011387400,9.060387451171875,-4.124216942280531,-4.0642654546648265,-0.9476251339942217
1780099076021379600,9.070379638671875,-3.8850150951907034,-5.044109435218572,-1.9816884882524608
1780099076031371300,9.080371337890625,-3.610945640598237,-5.42601031897664,-3.1515389078333973
1780099076041363200,9.09036328125,-3.7435412164032456,-4.633837612500787,-3.271645296682417
1780099076051355400,9.10035546875,-4.446279151147603,-3.166338125297427,-2.8639558916732666
1780099076061347300,9.110347412109375,-5.349551348674297,-1.5731073951005934,-2.894800819531083
1780099076071339300,9.12033935546875,-6.127416712856292,0.4381313050240278,-2.9773733042776582
1780099076081331200,9.130331298828125,-6.78127342005372,2.381632685962319,-2.4747908621311185
1780099076091323400,9.140323486328125,-7.4991551479160785,3.8022739758789537,-1.7640853095084428
1780099076101315300,9.1503154296875,-8.127394598776101,4.50046491484344,-1.092486609393358
1780099076111307300,9.160307373046875,-7.733596356475353,3.918298063850403,-0.9194470872581004
1780099076121299200,9.17029931640625,-6.100554424893856,2.165913129007816,-1.0925839322879909
1780099076131291400,9.18029150390625,-4.721393730878829,1.0647031149327755,-1.107162492738664
1780099076141283300,9.190283447265625,-3.7194928168177603,0.491665911334753,-0.972520505797863
1780099076151275500,9.200275634765624,-2.821327002519369,0.1018979474633932,-0.7498919001072645
1780099076161267200,9.21026708984375,-1.9672703790605066,-0.5809563061594962,-0.6162722419515252
1780099076171259400,9.22025927734375,-0.8607435538768767,-1.382321788394451,-0.6379071506544948
1780099076181251300,9.230251220703124,0.996343864455819,-2.0568039349913594,-0.8321206859827042
1780099076191243500,9.240243408203124,3.828892518213391,-2.498985392189026,-0.9123521605610847
1780099076201235200,9.250235107421876,6.815019037789106,-2.1412276005625723,-0.5592024472519755
1780099076211227400,9.260227294921876,8.555753866848349,-1.412486625033617,0.3031967648774385
1780099076221219300,9.27021923828125,8.275113801693916,-0.9381821828663348,1.2379390364229679
1780099076231211500,9.28021142578125,6.895944339850544,-0.44728141068518157,1.7985592415183782
1780099076241203200,9.290203125,5.129671749430894,-0.335247853654623,1.632081562116742
1780099076251195400,9.3001953125,3.129283529144525,-0.5892179385483265,0.9852952316969632
1780099076261187300,9.310187255859375,1.4610453426279126,-0.9210282189697027,0.14882453381121158
1780099076271179500,9.320179443359375,0.05380246346667408,-1.1333090336471796,-0.46262920194268226
1780099076281171200,9.330171142578125,-2.114937559530139,-0.9752116445779799,-0.7504305370286106
1780099076291164400,9.340164306640625,-4.5002696845322845,-0.9400111518591642,-1.0407838946849106
1780099076301156400,9.35015625,-6.124956460222601,-1.2708546330749988,-1.7276023757636545
1780099076311148300,9.360148193359375,-4.050582381749153,-1.5236591813206672,-1.9113456627428531
1780099076321140200,9.37014013671875,-0.3147399031549692,-1.2468027263581751,-1.8140908649101852
1780099076331132400,9.38013232421875,2.407118424874544,-0.6956599591821432,-1.2137763628080487
1780099076341124400,9.390124267578125,4.530859468585253,-0.37791970516741274,-0.9019944326758385
1780099076351116500,9.400116455078125,6.057708385857939,0.08044073341488837,-0.8571677412167191
1780099076361108200,9.410108154296875,6.754101335489749,0.8062059080034494,-0.7828168491095304
1780099076371100400,9.420100341796875,6.466015045982599,1.488700096142292,-0.872267110671103
1780099076381092400,9.43009228515625,5.7270414302527906,2.059253666231036,-1.1272738451361655
1780099076391084500,9.44008447265625,4.7857232874482865,2.297335277119279,-1.7736311364889144
1780099076401076200,9.450076171875,3.4643080954372882,2.3290450051128864,-2.863410240489244
1780099076411068400,9.460068359375,2.2016668716952204,2.3576690420508384,-3.906292861019075
1780099076421060400,9.470060302734375,1.5412316628903149,2.4025889647513625,-4.617627651455998
1780099076431052500,9.480052490234375,1.442123346145451,2.8171149377822875,-5.018765735125541
1780099076441044200,9.490044189453124,1.5370739586889743,3.777570911777019,-5.551102095022797
1780099076451036400,9.500036376953124,1.8312813614249228,4.674803244617581,-6.116933897286653
1780099076461028400,9.5100283203125,2.4665502725303172,5.368524929213524,-6.339943026727438
1780099076471020500,9.5200205078125,3.193210642392933,5.4881011567085975,-5.955605855733156
1780099076481012200,9.53001220703125,4.202527093407512,5.373285860005021,-5.0056104854762555
1780099076491004400,9.54000439453125,5.660715146908164,5.336280363690853,-4.0351422360330815
1780099076500996400,9.549996337890626,6.805427033579349,5.771826328396797,-2.934749675820768
1780099076510988500,9.559988525390626,6.786378634238242,6.805288501891494,-1.6268869160830974
1780099076520980500,9.56998046875,6.2007812242746345,7.932533705455064,-0.3156327603414655
1780099076530972200,9.57997216796875,5.362650484222173,8.290629935255646,1.2116837744429707
1780099076540964400,9.58996435546875,3.9888919415116306,7.034441540914774,3.006473142033815
1780099076550956300,9.599956298828126,3.097590167763829,4.913157242706418,5.3678796170473095
1780099076560948500,9.609948486328125,3.1548575308620928,2.8863474639624354,6.814623900991678
1780099076570940200,9.619940185546875,2.154690308725834,1.523946766090393,7.017986080676317
1780099076580932400,9.629932373046875,-0.48823476784229275,1.0297224024444818,6.548710864847898
1780099076590924300,9.63992431640625,-2.550791567271948,1.1496814917773008,6.512211564490198
1780099076600916500,9.64991650390625,-4.115532116043568,1.4704969154536722,7.328471248996258
1780099076610908200,9.659908203125,-4.189063216200471,1.8268465938478706,8.799217755296826
1780099076620900400,9.669900390625,-2.8259868110239506,2.4343682508498428,10.36687682186365
1780099076630892300,9.679892333984375,-1.1522610599417238,2.6455601012468337,10.062067361092566
1780099076640884500,9.689884521484375,-0.15650339787602424,2.1063234604418275,7.488031111833453
1780099076650876200,9.699876220703125,-0.34497546694278713,1.4908616580903529,5.167894804841279
1780099076660868400,9.709868408203125,-1.2560906330548227,1.1707038215398788,3.313123846757412
1780099076670860300,9.7198603515625,-2.3981739247880873,1.3049118009775875,1.7654393544659017
1780099076680852500,9.7298525390625,-3.2680943262025712,1.6086451569497584,0.5619537917867302
1780099076690845200,9.73984521484375,-3.897349383845925,1.9054145191282033,-0.6783271315872669
1780099076700837400,9.74983740234375,-4.4823283696502445,2.0098633201181886,-1.6513696154326198
1780099076710829300,9.759829345703125,-4.886496614795923,1.991481275731325,-2.102698547942936
1780099076720821500,9.769821533203125,-4.675050789637863,1.7633979117661713,-2.5210420334354042
1780099076730813200,9.779813232421875,-4.127800353725254,1.402273858577013,-2.4880229764088986
1780099076740805400,9.789805419921874,-3.7771994481161233,0.7657879728972912,-2.4895699135899543
1780099076750797300,9.79979736328125,-3.5823955456793306,0.14451310035288334,-2.166581529788673
1780099076760789500,9.80978955078125,-3.225934515865147,-0.6834446207314729,-1.571444430324435
1780099076770781200,9.81978125,-3.391511739295721,-1.928483260026574,-0.8919012009456753
1780099076780773400,9.8297734375,-4.252685501283407,-3.099479927033186,-0.1796452040106058
1780099076790765300,9.839765380859374,-5.571498986363411,-4.041597111260891,0.12231442028731107
1780099076800757500,9.849757568359376,-6.545563214471936,-4.852843351519107,-0.030428456011414525
1780099076810749200,9.859749267578126,-6.887994842150807,-5.485440413066745,-0.19018647176921366
1780099076820741400,9.869741455078126,-6.996043128937482,-5.8568608193427325,-0.31261516608595846
1780099076830736400,9.879736328125,-7.049489472442865,-6.224631470939516,-0.08832447240203618
1780099076840728600,9.889728515625,-6.975535762959718,-6.405790586644411,0.48633594848364586
1780099076850720500,9.899720458984374,-6.739101919278502,-6.704259738478064,0.8395233634546398
1780099076860712400,9.90971240234375,-6.1251855928033585,-7.045593634048104,0.836677034112811
1780099076870704400,9.919704345703124,-5.702556392815708,-7.491414324530958,0.7583668829858302
1780099076880696600,9.929696533203124,-5.237333667248487,-7.927671067854762,0.41572073577344415
1780099076890688500,9.9396884765625,-4.708802544853091,-8.297228018346429,-0.02309504438340664
1780099076900680400,9.949680419921876,-4.327129040110111,-8.339591242301463,-0.3452718195408582
1780099076910672400,9.95967236328125,-3.8030581119939684,-7.922962744033336,-0.5954141628399491
1780099076920664600,9.96966455078125,-2.2418773015305398,-6.867620747163891,-0.5969187221840023
1780099076930656500,9.979656494140626,0.6935220703706145,-5.1286985204845665,-0.4049705014392733
1780099076940648400,9.9896484375,6.996407870596647,-2.0796184088677165,-0.34846155549287794
1780099076950640400,9.999640380859375,21.66951006075144,3.9310511624395845,-1.4708248322337865
1780099076960632600,10.009632568359375,33.719096808207034,15.479827738118171,-1.6232810005456209
1780099076970624500,10.01962451171875,17.940337561440465,22.82362515106201,1.582903397449851
1780099076980616400,10.029616455078125,6.821182236593962,20.96727247674465,-0.9173416394114494
1780099076990608400,10.0396083984375,4.770460836386681,14.635188931345938,-3.6487101385861633
1780099077000600600,10.0496005859375,3.1136203883275386,8.489425245416165,-1.8414274923861025
1780099077010592500,10.059592529296875,1.9542133290886878,4.5885663921445605,1.1605664584070443
1780099077020584700,10.069584716796875,1.2168760823890565,1.3019260631650686,3.371313585397601
1780099077030576400,10.079576416015625,1.0412848299443722,-1.7131681922197342,4.751470304712653
1780099077040568600,10.089568603515625,-0.9683493575930595,-4.227562750464678,5.44078118712902
1780099077050560500,10.099560546875,-4.021915090191364,-5.629850053045153,5.9551171954333775
1780099077060552700,10.109552734375,-5.886694816592335,-5.3668163717299695,7.816606648117303
1780099077070544400,10.11954443359375,-4.238274698615074,-3.2331174131065605,11.265853952544926
1780099077080536300,10.129536376953125,3.6442975828409194,0.21583236967921257,15.947693087148666
1780099077090528500,10.139528564453125,5.530864193636178,5.645797563761472,17.26585190771222
1780099077100520400,10.1495205078125,-7.622344305211305,6.308721959033608,8.412939971628784
1780099077110512400,10.159512451171874,-11.132075596696138,1.9645429999232291,1.9764730916917324
1780099077120504300,10.16950439453125,-8.643869957196712,-1.4233254144340752,-1.2733993491217492
1780099077130496500,10.17949658203125,-7.538283043211698,-2.714391060888767,-2.368103926825523
1780099077140488400,10.189488525390624,-7.034630926007032,-3.37152109066844,-2.591961489789188
1780099077150480400,10.19948046875,-6.434241605103016,-4.14005164027214,-3.6480087123185396
1780099077160472300,10.209472412109376,-5.631100345367193,-4.14600148858726,-4.77245697863996
1780099077170464500,10.219464599609376,-5.265857166421413,-3.1645489037930963,-6.019983927619457
1780099077180456400,10.22945654296875,-5.5927615546226495,-0.9497592234134673,-6.605450404679775
1780099077190448600,10.23944873046875,-6.56025166503787,1.997020205157995,-6.928762905868887
1780099077200440300,10.2494404296875,-7.28154232456088,5.146925666570663,-7.089031209236383
1780099077210432500,10.2594326171875,-7.461096927678585,7.813617403173446,-6.444588811594247
1780099077220424400,10.269424560546875,-7.604367919015884,8.768262645062803,-5.567693748861551
1780099077230416600,10.279416748046875,-7.951898331138491,6.824263251474499,-4.958689159825444
1780099077240408300,10.289408203125,-8.628576526474951,3.044140901648998,-4.787689619085192
1780099077250400500,10.299400390625,-6.938817266893387,0.5547796623736619,-4.242198886321485
1780099077260392400,10.309392333984375,-4.264848232764005,0.38188743975460526,-3.8520664730519054
1780099077270384600,10.319384521484375,-2.367623449832201,0.349746334606409,-3.647496963404119
1780099077280377300,10.32937744140625,-1.167853692805767,-0.23539047210812566,-3.1777079528346657
1780099077290368500,10.339368408203125,-0.5767956793487071,-0.7254021864950656,-1.9752169541507958
1780099077300360400,10.3493603515625,-0.4150140488088131,-1.257183835119009,-0.5034250304505229
1780099077310353400,10.359353515625,0.5633610282361508,-1.746986875191331,0.5155591203585267
1780099077320345300,10.369345458984375,4.0391432883679865,-1.5388842229813335,0.3888829977303743
1780099077330337500,10.379337646484375,7.07055505682528,-1.3811603433996438,1.0318860102191567
1780099077340329500,10.38932958984375,9.144053521507978,-1.374796653586626,1.8177762754246591
1780099077350321400,10.3993212890625,9.798326992812752,-1.3295388772338628,2.394636544442177
1780099077360313300,10.409313232421875,7.579984003865718,-1.6552894192248582,2.0986139089778066
1780099077370305500,10.419305419921875,4.238530719202757,-1.72891638097167,0.9642159110501408
1780099077380297500,10.42929736328125,1.5680641402363775,-1.5838398015171289,0.04733370584398508
1780099077390289700,10.43928955078125,-0.47958676648437976,-1.537372649374604,-0.3147323043704033
1780099077400281300,10.44928125,-2.121993761651963,-1.0563713399171828,-0.09767068515717983
1780099077410273500,10.4592734375,-3.1272371180087326,-0.29967209788262844,0.5995359189450741
1780099077420265500,10.469265380859374,-2.595588740375638,0.5384814385235309,1.1186766971826552
1780099077430257700,10.479257568359374,0.10271569358706474,1.7216928594589231,1.111698090341687
1780099077440249300,10.489249267578124,2.468264675232768,2.4094471600830554,0.1263353463664651
1780099077450241500,10.499241455078124,3.3811934666380283,1.7455664869993923,-0.9466314467817545
1780099077460233500,10.5092333984375,4.206881196963787,1.2259481543779371,-1.2571338584974407
1780099077470225700,10.5192255859375,4.513486893501877,0.9265420139551163,-0.9779629891127347
1780099077480217300,10.52921728515625,4.50744001455307,0.6944283715605736,-0.8235226612463593
1780099077490209500,10.53920947265625,4.337619162203371,0.5404454320728779,-0.7242027475774288
1780099077500201500,10.549201416015626,3.657599547484517,0.6821276929140091,-0.6115203712493181
1780099077510193700,10.559193603515626,2.889114590588212,1.0761708498865366,-0.6268970963403582
1780099077520185300,10.569185302734375,2.2984712954118844,1.3909148446947335,-1.0453951878726482
1780099077530177500,10.579177490234375,1.9194848377957938,1.538059462594986,-1.6322984197378159
1780099077540169500,10.58916943359375,1.6754256138026713,1.4141647873789072,-1.9783204731240867
1780099077550161400,10.599161376953125,1.6205597588881848,0.9425836326956748,-1.9808856474369763
1780099077560153600,10.609153564453125,1.9269976976439356,0.4229723143368959,-1.6687693707838653
1780099077570145300,10.619145263671875,2.184929087384045,0.3481020745307207,-1.21745738940835
1780099077580137500,10.629137451171875,1.9681834022521971,0.7687333786994218,-0.9789619370222091
1780099077590129400,10.63912939453125,1.543437648501992,1.3183628187030554,-1.5730775844842195
1780099077600121600,10.64912158203125,0.9578677110671997,1.950774002289772,-2.484268592311442
1780099077610113300,10.65911328125,0.5870249585486949,2.535472417587042,-3.3012697428345676
1780099077620105500,10.66910546875,0.6114876380234956,3.1911078248947855,-3.8928076487630605
1780099077630097400,10.679097412109375,1.0177832505866884,4.046296667253971,-4.168590337014198
1780099077640089600,10.689089599609375,1.7741998762875795,4.5409173367410895,-4.389727242842317
1780099077650081300,10.699081298828125,2.6338836919784545,4.493789674863219,-4.270029727055132
1780099077660073500,10.709073486328125,3.5276062631323932,4.4621623644560575,-3.5404426560908555
1780099077670065400,10.7190654296875,4.871766663175821,4.366606479495763,-2.158971931567788
1780099077680057600,10.7290576171875,6.922802536159754,3.8718221438795326,-0.6692556441202759
1780099077690049500,10.739049560546874,8.484612292176484,2.993963204550743,0.47764644607156514
1780099077700041500,10.74904150390625,8.346975507333875,2.3192595241576432,1.1309478574737906
1780099077710033400,10.759033447265624,7.010285589301586,2.4599995357125994,1.048420380912721
1780099077720025600,10.769025634765624,5.466338822233676,3.2763913221657273,-0.030344577120244503
1780099077730017500,10.779017578125,3.7397386092498897,4.348340170443057,-1.6740540331885219
1780099077740009500,10.789009521484376,1.9287458564855158,5.48380608986318,-3.488571599078178
1780099077750001400,10.79900146484375,0.3319911899462342,6.137126205965877,-4.90998387336731
1780099077759993600,10.80899365234375,-0.9126233787178992,5.906386190012097,-5.117367563652992
1780099077769985500,10.818985595703126,-1.8668232149273156,4.7145489795505995,-3.8145965740963814
1780099077779977500,10.8289775390625,-3.2655127852767705,3.0318250254333017,-1.5798232593521475
1780099077789969400,10.838969482421875,-4.863881462883949,1.7966010931879282,0.4087167022302747
1780099077799961600,10.848961669921875,-5.466809946876764,1.194538286113739,2.181568378779292
1780099077809953500,10.85895361328125,-4.752332474499941,1.305666418737173,4.286090342757106
1780099077819945500,10.868945556640625,-2.597442259287834,2.2771453065276144,7.474673033088445
1780099077829934600,10.8789345703125,0.8384685937047004,3.9290672951459884,11.246775158065557
1780099077839926800,10.8889267578125,2.079796688044071,4.849004211747646,12.524046672445534
1780099077849918700,10.898918701171874,0.9069452600162475,4.0479999640405175,10.487718539249895
1780099077859910400,10.908910400390624,-0.3401205011922866,2.1172458364725113,7.053270160025358
1780099077869902600,10.918902587890624,-1.0768355974055825,0.5140039998710155,4.314125766152143
1780099077879894500,10.92889453125,-1.6570739645540713,-0.07653028197288513,2.317064936722815
1780099077889886700,10.93888671875,-2.658690800976753,-0.2955196543782949,0.8791860962793231
1780099077899878400,10.94887841796875,-4.009756742624938,-0.48915480529665945,0.8200295584335923
1780099077909870600,10.95887060546875,-4.714229538337886,-1.1628326497733592,0.4099734242931008
1780099077919862500,10.968862548828126,-4.8821699837684625,-2.220949372053146,-0.37328912275731563
1780099077929854700,10.978854736328126,-5.0967994073987,-3.127721102133393,-1.463429461285472
1780099077939846400,10.988846435546876,-5.3001487276017665,-3.4686084229797123,-2.0996412061989305
1780099077949838600,10.998838623046876,-5.629281313246488,-3.3733664262741803,-2.3474857939496636
1780099077959830500,11.00883056640625,-5.25998856664896,-3.0346190400660036,-2.1728686472341416
1780099077969822700,11.01882275390625,-5.033522574752569,-2.6465298230618237,-1.6777376901373267
1780099077979814700,11.028814697265625,-4.880953009194135,-2.3304420124292373,-1.5325751859650014
1780099077989806600,11.038806640625,-4.312478875727951,-1.9986381617486475,-1.696051345463097
1780099077999798500,11.048798583984375,-3.656329673679173,-1.634851026830077,-1.7603183581903576
1780099078009790700,11.058790771484375,-4.735965569327772,-1.5503127949684858,-1.3318743344441055
1780099078019782700,11.06878271484375,-5.954968726873397,-1.8537497983425855,-0.6605830928429961
1780099078029774600,11.078774658203125,-6.120401865658164,-2.46734639134407,-0.08901333144903183
1780099078039766500,11.0887666015625,-5.787890743491054,-3.3311475792258975,0.4436182120025158
1780099078049758700,11.0987587890625,-5.630602917239069,-4.178592091068626,0.9641755790397524
1780099078059750700,11.108750732421875,-5.459724957051873,-4.947408471876383,1.4222943178206682
1780099078069742600,11.11874267578125,-5.098091200774908,-5.691407806813716,1.695540473331511
1780099078079734500,11.128734619140625,-4.648970884224772,-6.357380483740568,1.6807611296117304
1780099078089726700,11.138726806640625,-4.197518909856677,-6.80210636472404,1.5535060380518435
1780099078099718700,11.14871875,-3.543255959945917,-6.940144716104864,1.324760410785675
1780099078109710600,11.158710693359374,-2.9190055787220595,-6.703359574767947,0.9110518916174769
1780099078119702500,11.16870263671875,-2.274436632090807,-6.324908539202809,0.23313538665771483
1780099078129694700,11.17869482421875,-1.4613880185857415,-5.6583671224772925,-0.5266089221611618
1780099078139686700,11.188686767578124,0.0019017419680953025,-4.076353367343545,-1.1405272944629192
1780099078149678600,11.1986787109375,3.345695744538307,-1.3047493038922549,-1.5922358739405869
1780099078159670500,11.20867041015625,10.124379732620715,2.842636917051673,-2.1724814014822242
1780099078169662700,11.218662841796874,24.188553906106947,10.488335794365405,-2.515140115915239
1780099078179654700,11.228654541015626,26.026947729885578,18.572877924364803,2.1279025473043323
1780099078189646800,11.238646728515626,15.344521442049741,18.73405983544588,2.372233573976159
1780099078199638500,11.248638427734376,8.04479581054449,14.918265868258475,-0.24466069701761006
1780099078209630500,11.25863037109375,3.160973967915773,10.249245298695564,-0.7625269252747297
1780099078219622700,11.26862255859375,0.8055576732277869,4.8538072281152,-0.3214753488898277
1780099078229614600,11.278614501953125,0.4954524441361427,0.06272445946037769,0.45656741768568754
1780099078239606500,11.2886064453125,0.1712754350721836,-3.2785932161241766,1.1426195905670522
1780099078249598500,11.298598388671875,-1.3745005932494998,-5.654625013339519,1.436654851606488
1780099078259590700,11.308590576171875,-4.260089932321012,-7.026202120357752,2.120384426759183
1780099078269582600,11.31858251953125,-6.739906805920601,-6.499854771742224,3.630118543101847
1780099078279574500,11.328574462890625,-8.322659981244803,-4.010013639995456,5.7396840542048215
1780099078289566500,11.33856640625,-7.368425658243894,-0.2808154217213392,8.090579072076082
1780099078299558700,11.34855859375,2.563144852888584,5.785319431698322,13.033935638213157
1780099078309550600,11.358550537109375,5.702510215586424,11.947962940758465,13.531433908963203
1780099078319542500,11.36854248046875,-8.230666757202147,8.265392618146539,6.0560220402061935
1780099078329534500,11.378534423828125,-8.108626769942045,1.4497136551439762,1.6278803110346196
1780099078339526700,11.388526611328125,-6.210304254901409,-2.2415777340620755,-0.3754185360014438
1780099078349518600,11.3985185546875,-5.6182057924807065,-3.819105283692479,-1.2696245067581533
1780099078359510800,11.4085107421875,-4.904506903260946,-4.775095510450005,-2.0096078840523957
1780099078369502500,11.41850244140625,-4.206737404578924,-5.456104428467154,-3.080596947386861
1780099078379494700,11.42849462890625,-3.7960304053142666,-5.558250797733664,-4.2432402120679615
1780099078389486600,11.438486572265624,-3.75963807246238,-4.38086121481955,-4.665418745678663
1780099078399478800,11.448478759765624,-4.53667283103913,-1.8461662113457917,-4.257093965375423
1780099078409470500,11.458470458984374,-5.285253940808773,1.1089636969417334,-4.350642309905588
1780099078419462700,11.468462646484374,-5.997659867608547,4.176272708210349,-4.421988174977899
1780099078429454600,11.47845458984375,-6.6512985481411215,6.676110917836428,-4.501259280091523
1780099078439446800,11.48844677734375,-7.160520574432611,7.400033679428696,-4.590939551016688
1780099078449438500,11.4984384765625,-8.22191763355732,5.789401732575893,-4.57689173644185
1780099078459430700,11.5084306640625,-8.413617432498931,2.7078403240710496,-4.580180548854172
1780099078469422600,11.518422607421876,-6.94190588055849,0.8906675674974918,-3.766527247454226
1780099078479414800,11.528414794921876,-5.428481677526236,0.5287567478448152,-2.774394278691709
1780099078489406500,11.538406494140625,-4.424083685952425,0.5361170474797486,-2.192320074418187
1780099078499398700,11.548398681640625,-3.293298033303022,0.4615986898511648,-1.3023697152793408
1780099078509390600,11.558390625,-2.053794816303253,-0.13583178124725817,-0.6786711227193475
1780099078519382800,11.5683828125,-0.15167875419855117,-0.9456377595692872,-0.5382698415994643
1780099078529374700,11.578374755859375,2.790190690499544,-1.2645412121444939,-0.27876404214948414
1780099078539366700,11.58836669921875,6.051688979437947,-1.0550853917598724,0.4737663897678256
1780099078549358600,11.598358642578125,9.010516573199629,-0.5803384665220975,1.3868965489640832
1780099078559350500,11.6083505859375,10.322180771046876,-0.1970604491919279,2.1207842397317287
1780099078569342700,11.6183427734375,9.4529867842108,0.06417115113735199,2.488505499228835
1780099078579334400,11.62833447265625,6.828091285330057,-0.2673316707700491,1.8881471579849718
1780099078589326600,11.63832666015625,3.990116514870524,-1.0380869106858968,0.5517044927120208
1780099078599318500,11.648318603515625,1.7674182533234357,-1.5176707545608281,-0.2854892587512731
1780099078609310700,11.658310791015625,-0.005443652358651161,-1.7619576498299836,-0.7634612835153937
1780099078619302400,11.668302490234375,-1.84579620898962,-1.7725842577844857,-0.8619342249661683
1780099078629294600,11.678294677734375,-3.4635236670613287,-1.3614613711953163,-0.5241095065608621
1780099078639286500,11.68828662109375,-4.78084895941019,-1.007882911080122,-0.2870230441898107
1780099078649278700,11.69827880859375,-3.8091935460090633,-0.7511258258163929,-0.20273352639228104
1780099078659270400,11.7082705078125,-1.0414110866725443,-0.12219839269220828,-0.16927695473134516
1780099078669262600,11.7182626953125,0.9208316734842955,0.5389689297795296,-0.2517462713643908
1780099078679254500,11.728254638671874,2.2116426145255565,0.747501790100336,-0.4648381101638078
1780099078689246700,11.738246826171874,3.4351422067075967,0.8050152369141578,-0.8227095912978053
1780099078699238700,11.74823876953125,4.471380274656415,0.7257593293696641,-1.0221437838837504
1780099078709230600,11.758230712890626,5.109790990918874,0.3659393445163965,-1.1716510392621158
1780099078719222500,11.768222412109376,5.208687418478727,-0.03604746493697166,-1.193620879007876
1780099078729214700,11.778214599609376,4.254734835028648,0.05219780474901199,-0.9323197205737233
1780099078739206700,11.78820654296875,2.6731325833052395,0.44320495502650736,-0.6240393688216805
1780099078749198600,11.798198486328126,1.6111232375010847,0.8084493030160665,-0.43426966115981336
1780099078759190500,11.8081904296875,1.4621065421186388,1.1034013866394758,-0.6096224286735058
1780099078769182700,11.8181826171875,1.9633881307996808,1.704425498315692,-1.2562953618466854
1780099078779174700,11.828174560546875,2.395121113088727,2.274223866122961,-2.379711654771864
1780099078789166600,11.83816650390625,2.3607781139820814,2.9071628729760643,-3.503400627158582
1780099078799158500,11.848158447265625,2.132682036665827,3.7670477641969917,-4.432299725633859
1780099078809150700,11.858150634765625,1.8778496358543633,4.809025837102532,-5.211518842512369
1780099078819142700,11.868142578125,1.886460812333226,6.171092772975563,-5.506726362201571
1780099078829134300,11.87813427734375,2.150223100183904,6.995379696592688,-5.469087244158983
1780099078839126000,11.8881259765625,2.4831767054215073,6.089180797964334,-5.208610846111178
1780099078849118200,11.8981181640625,3.438056925110519,4.709719659698009,-4.221848172210157
1780099078859110100,11.908110107421875,5.217479796743393,3.4104853198349474,-2.321426346802711
1780099078869102300,11.918102294921875,7.878869919806719,2.5616741958141325,0.2737345235496759
1780099078879094000,11.928093994140625,10.13975967258215,2.3686200596541167,2.793515743269026
1780099078889086200,11.938086181640625,11.047524505352973,2.4602660776942966,4.6767312900707125
1780099078899078100,11.948078125,9.710029116156697,2.6744471730351447,5.1141000862896435
1780099078909070300,11.9580703125,7.033821363189816,2.6865719105929133,3.236102274136245
1780099078919062000,11.96806201171875,4.662668570187687,2.633306184351444,0.08692951091229915
1780099078929054200,11.97805419921875,3.158473383271694,3.079128628399968,-2.327987897275388
1780099078939046100,11.988046142578124,1.3384902454525232,3.9477188041239977,-3.8983594376713033
1780099078949038000,11.9980380859375,-0.9225017986536026,4.642525945869088,-4.867394439440965
1780099078959030300,12.0080302734375,-3.0335248150885104,4.467291544038057,-4.752693709027767
1780099078969022000,12.01802197265625,-4.825755438107252,3.8299411504834886,-3.204249338279664
1780099078979014100,12.02801416015625,-6.486980677121878,2.9787714806377887,-1.2439084662213922
1780099078989006000,12.038006103515626,-7.27083855971694,2.243037285220623,0.5130506446689367
1780099078998998300,12.047998291015626,-6.232891349762678,2.1609721654742953,2.702546893838048
1780099079008990000,12.057989990234375,-2.973015109068155,2.9930905133694408,5.838137998694181
1780099079018982100,12.067982177734375,0.3842715584121644,4.897946814092993,9.223315858793258
1780099079028974000,12.07797412109375,1.0360932526506483,6.731995886665582,11.1429254920125
1780099079038966300,12.08796630859375,0.5730595615603029,7.376494982931018,10.939728147500754
1780099079048957200,12.097957275390625,-0.06295636852011084,6.732308021354675,8.987415683597325
1780099079058949000,12.10794921875,-0.31096929857507344,4.756439325296879,5.3712745201826095
1780099079068941000,12.117941162109375,-1.294277740368992,2.8831916302800176,2.700847688704729
1780099079078933200,12.127933349609375,-2.8469910206079483,1.994573396527767,1.54991298199594
1780099079088925200,12.13792529296875,-4.377024120874703,1.1489578536778688,1.1192340388044715
1780099079098917000,12.147917236328125,-5.169702146524191,-0.486363713273406,0.6593976824507117
1780099079108909000,12.157908935546875,-5.1677901754230255,-2.075911955565214,-0.9409779510647058
1780099079118901200,12.1679013671875,-4.983217451882362,-3.2884359802246093,-2.054548557280004
1780099079128893200,12.17789306640625,-5.056892928946018,-3.754029877191782,-1.995645994195342
1780099079138885400,12.187885498046874,-5.617575093361735,-3.9676790576130148,-2.4808242970764636
1780099079148877000,12.197876953125,-5.492398561641574,-3.8217432309806343,-2.409337562228739
1780099079158869200,12.207869140625,-5.273816016471385,-3.673151336881518,-1.9871517220944166
1780099079168861200,12.217861083984374,-4.714151504665613,-3.0992133850514887,-1.8499866464167831
1780099079178853000,12.22785302734375,-5.036231249189377,-2.527258715993166,-1.8815797622933983
1780099079188845000,12.237844970703126,-6.228349614679813,-2.4360271239727735,-1.5984735992863774
1780099079198837000,12.2478369140625,-6.0353135986983775,-2.692970087197423,-1.3676678246200085
1780099079208829200,12.2578291015625,-5.573800833564996,-3.2503590552866455,-0.919061887332797
1780099079218821000,12.267821044921876,-5.392643471425772,-4.0016766042828555,-0.2908303275182843
1780099079228813000,12.27781298828125,-5.63259905949235,-4.788700257432461,0.2240349653571844
1780099079238805000,12.287804931640625,-6.239062147352099,-5.617296276420355,0.6149889241427183
1780099079248797200,12.297797119140625,-6.938911959439515,-6.583892652866244,0.787966779218614
1780099079258789000,12.3077890625,-7.418885094892978,-7.427150818935036,0.8585261700883507
1780099079268781300,12.31778125,-7.086059499949217,-8.106609584900736,0.9485095156133174
1780099079278773000,12.32777294921875,-5.896056519177556,-8.350978897756338,1.1777429263964294
1780099079288765200,12.33776513671875,-4.540579483088851,-8.265366314661502,1.4867325954616069
1780099079298757000,12.347757080078125,-3.2305849720194932,-7.863327482759952,1.61497406771034
1780099079308749300,12.357749267578125,-2.07492148322314,-7.196973113039135,1.3755007102027534
1780099079318741000,12.367740966796875,-0.560861320374906,-5.733983212214708,1.0682014784425495
1780099079328733200,12.377733154296875,3.165288031722605,-3.1359388953804967,1.1784718251928687
1780099079338725000,12.38772509765625,12.99480189769864,0.6341846230000258,0.30645547441244125
1780099079348717300,12.39771728515625,22.25561951189041,7.1545333167165515,0.0941729061692953
1780099079358709000,12.407708984375,23.712159213662147,14.271684120500087,2.589016668508947
1780099079368701200,12.417701171875,16.181716947078705,17.722341291725634,2.052735954900086
1780099079378693000,12.427693115234375,7.661420762580633,16.88813035546541,-2.171793419218063
1780099079388685300,12.437685302734375,2.5636156852707264,13.37116268298626,-5.697900091442466
1780099079398677000,12.447677001953124,-0.33637101246565576,8.347363045346736,-6.243404560470581
1780099079408669200,12.457669189453124,-1.8012275839447973,3.748580379614234,-4.273090868191421
1780099079418661000,12.4676611328125,-2.116935163088143,0.4982645789474249,-2.526027420632541
1780099079428653300,12.4776533203125,-0.6044084934175015,-2.2184131315737963,-0.8369508826181292
1780099079438645200,12.487645263671874,-0.5143924146667123,-3.501671319147944,1.0931836517468094
1780099079448637200,12.49763720703125,-2.553191321890056,-3.7908752145081754,2.80218975585103
1780099079458629000,12.507629150390626,-4.47275039396584,-3.519069028672576,4.171705838686227
1780099079468621300,12.517621337890626,-5.145860667687654,-1.5685808575868605,6.350459160044789
1780099079478613200,12.52761328125,-2.741590617981553,3.3771599733382462,10.104742135214805
1780099079488605200,12.537605224609376,13.99860484598875,11.457746643710136,14.762570279633998
1780099079498597000,12.54759716796875,25.93912214691639,17.628261324536798,12.697750211447477
1780099079508589000,12.557589111328125,-10.830887833553552,11.317242778998613,5.7682852947890755
1780099079518581200,12.567581298828125,-16.483081235831975,2.985820230105519,2.2212205902099607
1780099079528573000,12.577572998046875,-10.45089482924342,-1.5146762489199637,0.7284580669343471
1780099079538565000,12.587565185546875,-8.520360481905938,-4.01427597361505,0.004542027343809605
1780099079548557000,12.59755712890625,-5.627081172853708,-6.427882591465115,-1.0915051971405745
1780099079558549200,12.60754931640625,-4.9988066506803035,-7.587537195724249,-2.108993264172971
1780099079568541000,12.617541015625,-5.532617759305238,-7.672846996480226,-2.7389249059036374
1780099079578533000,12.627533203125,-5.1996027792692185,-7.767493365380168,-3.060146280032396
1780099079588525000,12.637525146484375,-4.8459492080911994,-7.529183790954947,-2.7039482850685714
1780099079598517200,12.647517333984375,-5.352662174171209,-6.564603430506587,-1.8039944183096288
1780099079608509200,12.65750927734375,-5.579979229938983,-5.192147787088156,-1.1683759631142019
1780099079618500400,12.667500244140625,-5.8389984149158,-3.0016233639150856,-0.7205003859281539
1780099079628492000,12.677491943359374,-6.218083656731247,-0.046506899631023405,-0.21269436391443014
