time,seconds_elapsed,z,y,x
1780099067008557800,0.057557861328125,-0.11120442301034927,0.0017373135779052973,-0.33269399404525757
1780099067018549800,0.0675498046875,0.030972180888056755,0.3759079873561859,-0.20298811793327332
1780099067028541700,0.077541748046875,0.09940050542354584,0.5999400019645691,-0.025076963007450104
1780099067038533600,0.08753369140625,0.11977570503950119,0.5882892608642578,0.17061272263526917
1780099067048525800,0.09752587890625,0.10549502819776535,0.4514337182044983,0.3736092448234558
1780099067058517800,0.107517822265625,0.060099221765995026,0.2670840322971344,0.5572046637535095
1780099067068509700,0.117509765625,0.006454631686210632,0.02610604651272297,0.6886793375015259
1780099067078501600,0.127501708984375,-0.03326503187417984,-0.22962969541549683,0.7484814524650574
1780099067088493800,0.137493896484375,-0.055989254266023636,-0.42657044529914856,0.7342047691345215
1780099067098485800,0.14748583984375,-0.08098272979259491,-0.5236544609069824,0.6600765585899353
1780099067108478000,0.15747802734375,-0.12083028256893158,-0.5140817165374756,0.5372185707092285
1780099067118469600,0.1674697265625,-0.18122375011444092,-0.4123956263065338,0.37080860137939453
1780099067128461800,0.1774619140625,-0.24715189635753632,-0.25333884358406067,0.19128678739070892
1780099067138454800,0.187454833984375,-0.3014052212238312,-0.09899106621742249,0.03372107446193695
1780099067148446700,0.19744677734375,-0.33629634976387024,0.025225691497325897,-0.07454228401184082
1780099067158438700,0.207438720703125,-0.3636813163757324,0.10611549019813538,-0.1369151622056961
1780099067168430800,0.217430908203125,-0.37282073497772217,0.14808690547943115,-0.15522946417331696
1780099067178422800,0.2274228515625,-0.36800417304039,0.16824135184288025,-0.13996107876300812
1780099067188414700,0.237414794921875,-0.36785078048706055,0.1788114458322525,-0.1146589145064354
1780099067198406700,0.24740673828125,-0.37266984581947327,0.17016945779323578,-0.09899947047233582
1780099067208398800,0.25739892578125,-0.3812990188598633,0.14854219555854797,-0.07853440940380096
1780099067218390800,0.267390869140625,-0.3861551582813263,0.12482818216085434,-0.04169376194477081
1780099067228382700,0.2773828125,-0.37911269068717957,0.1079554483294487,0.003321382449939847
1780099067238374700,0.287374755859375,-0.35028982162475586,0.09366324543952942,0.05969347059726715
1780099067248366800,0.297366943359375,-0.3092917799949646,0.08722718805074692,0.11829447001218796
1780099067258358800,0.30735888671875,-0.25501400232315063,0.09721173346042633,0.16620561480522156
1780099067268350700,0.317350830078125,-0.1973877251148224,0.13076862692832947,0.19975212216377258
1780099067278342700,0.3273427734375,-0.15061606466770172,0.15848015248775482,0.21596862375736237
1780099067288334800,0.3373349609375,-0.11124815046787262,0.15314877033233643,0.216221883893013
1780099067298327800,0.347327880859375,-0.0790809914469719,0.12005853652954102,0.21822766959667206
1780099067308319700,0.35731982421875,-0.059409286826848984,0.06761103868484497,0.22468823194503784
1780099067318311700,0.367311767578125,-0.04865594953298569,-0.003441378939896822,0.21593645215034485
1780099067328303900,0.377303955078125,-0.04386359080672264,-0.07110457867383957,0.1887732744216919
1780099067338295800,0.3872958984375,-0.03594837337732315,-0.09724407643079758,0.1462550312280655
1780099067348287700,0.397287841796875,-0.023033637553453445,-0.089376300573349,0.08877948671579361
1780099067358279700,0.40727978515625,-0.0062800743617117405,-0.05210813134908676,0.0432002916932106
1780099067368272000,0.41727197265625,0.014235853217542171,0.058052726089954376,0.05385852977633476
1780099067378263800,0.427263916015625,0.022847581654787064,0.22569510340690613,0.10447853058576584
1780099067388255700,0.437255859375,0.03678257018327713,0.34280362725257874,0.1944185346364975
1780099067398247700,0.44724755859375,0.07168009132146835,0.3695884048938751,0.30689337849617004
1780099067408239900,0.457239990234375,0.12762725353240967,0.34683355689048767,0.4270802438259125
1780099067418231800,0.467231689453125,0.18617287278175354,0.26748812198638916,0.5163441300392151
1780099067428223700,0.4772236328125,0.23632019758224487,0.12521487474441528,0.5565655827522278
1780099067438215700,0.487215576171875,0.2597828805446625,-0.05043746903538704,0.5452532172203064
1780099067448207600,0.49720751953125,0.2658687233924866,-0.19866502285003662,0.4945695698261261
1780099067458199800,0.50719970703125,0.2688049376010895,-0.23157237470149994,0.4249628186225891
1780099067468191700,0.517191650390625,0.27250993251800537,-0.16291822493076324,0.3626405894756317
1780099067478184700,0.527184814453125,0.2793634235858917,-0.05766245350241661,0.3431541621685028
1780099067488177000,0.537177001953125,0.27954959869384766,0.08831285685300827,0.3739677369594574
1780099067498168800,0.5471689453125,0.28951549530029297,0.2902633845806122,0.4352911412715912
1780099067508160800,0.557160888671875,0.3133348226547241,0.5325945615768433,0.5158027410507202
1780099067518152700,0.567152587890625,0.3315190374851227,0.7662726640701294,0.5981019735336304
1780099067528145000,0.577144775390625,0.3558720350265503,0.9345676302909851,0.6461048722267151
1780099067538136800,0.58713671875,0.38725903630256653,0.9674515724182129,0.6251598596572876
1780099067548128800,0.597128662109375,0.42631617188453674,0.8209931254386902,0.5108231902122498
1780099067558120700,0.60712060546875,0.4734666347503662,0.4745883047580719,0.3447341024875641
1780099067568113000,0.61711279296875,0.5057334899902344,0.033441804349422455,0.16465887427330017
1780099067578104800,0.627104736328125,0.502318799495697,-0.38219544291496277,0.004361505154520273
1780099067588096500,0.637096435546875,0.46761754155158997,-0.6322042346000671,-0.10331941395998001
1780099067598088700,0.647088623046875,0.42639169096946716,-0.6517268419265747,-0.14717479050159454
1780099067608080600,0.65708056640625,0.43321868777275085,-0.43057873845100403,-0.1131952628493309
1780099067618072800,0.66707275390625,0.4683588147163391,-0.022463517263531685,0.005959129426628351
1780099067628064500,0.677064453125,0.49307218194007874,0.34897422790527344,0.1678186058998108
1780099067638056700,0.687056640625,0.5203286409378052,0.6003588438034058,0.31474000215530396
1780099067648048600,0.697048583984375,0.5449740886688232,0.737668514251709,0.41899290680885315
1780099067658040800,0.707040771484375,0.5486981272697449,0.7200402021408081,0.4655294716358185
1780099067668033800,0.71703369140625,0.5270500779151917,0.562092125415802,0.4584505259990692
1780099067678025700,0.727025634765625,0.4920688271522522,0.3220559358596802,0.3836670219898224
1780099067688018000,0.737017822265625,0.4529011845588684,0.021079592406749725,0.22637592256069183
1780099067698009900,0.747009765625,0.4494992792606354,-0.2844028174877167,0.013637294992804527
1780099067708001500,0.75700146484375,0.4880211055278778,-0.5452234745025635,-0.20909778773784637
1780099067717993700,0.76699365234375,0.5269080400466919,-0.6506861448287964,-0.3700494170188904
1780099067727985700,0.776985595703125,0.5174911022186279,-0.590873122215271,-0.4395086467266083
1780099067737977900,0.786977783203125,0.45715832710266113,-0.45246097445487976,-0.4098278880119324
1780099067747969500,0.796969482421875,0.3695826530456543,-0.25295934081077576,-0.28756511211395264
1780099067757961700,0.806961669921875,0.29751378297805786,-0.0008480505202896893,-0.11476290225982666
1780099067767953700,0.81695361328125,0.26179707050323486,0.17891424894332886,0.03715553134679794
1780099067777945900,0.82694580078125,0.26058122515678406,0.2729760408401489,0.12083148956298828
1780099067787937500,0.8369375,0.2949402630329132,0.31575921177864075,0.13830208778381348
1780099067797929700,0.8469296875,0.32737699151039124,0.3009936809539795,0.09267698973417282
1780099067807921700,0.856921630859375,0.34974488615989685,0.23218001425266266,0.010161077603697777
1780099067817913600,0.86691357421875,0.35861122608184814,0.1316061168909073,-0.09271689504384995
1780099067827905500,0.876905517578125,0.3754674792289734,0.0339549221098423,-0.190205380320549
1780099067837897500,0.8868974609375,0.39676037430763245,-0.0464923121035099,-0.2587564289569855
1780099067847889400,0.896889404296875,0.40923169255256653,-0.0941232219338417,-0.28891754150390625
1780099067857882600,0.906882568359375,0.4032691419124603,-0.11978057026863098,-0.26552385091781616
1780099067867874300,0.916874267578125,0.3683388829231262,-0.1243944987654686,-0.19627873599529266
1780099067877866500,0.926866455078125,0.32441478967666626,-0.13228987157344818,-0.09685305505990982
1780099067887858400,0.9368583984375,0.2803754210472107,-0.1334313005208969,0.0014319655019789934
1780099067897850600,0.9468505859375,0.24972514808177948,-0.1664908230304718,0.07470189034938812
1780099067907842300,0.95684228515625,0.22065089643001556,-0.21949517726898193,0.10296069085597992
1780099067917834500,0.96683447265625,0.1848289668560028,-0.24940986931324005,0.09137240797281265
1780099067927826400,0.976826416015625,0.13754267990589142,-0.25991788506507874,0.04442407935857773
1780099067937818600,0.986818603515625,0.09021726995706558,-0.24267356097698212,-0.051727257668972015
1780099067947810300,0.996810302734375,0.05247974023222923,-0.18553224205970764,-0.16462478041648865
1780099067957802500,1.006802490234375,0.02654820680618286,-0.12804073095321655,-0.25142621994018555
1780099067967794400,1.01679443359375,0.00391186960041523,-0.0604020319879055,-0.272320032119751
1780099067977786600,1.02678662109375,-0.016285788267850876,0.03909864276647568,-0.21940498054027557
1780099067987778300,1.0367783203125,-0.03694099932909012,0.0935983657836914,-0.12764203548431396
1780099067997770500,1.0467705078125,-0.05152299255132675,0.04220237955451012,-0.02929355762898922
1780099068007762400,1.056762451171875,-0.06007307022809982,-0.06379249691963196,0.06253436952829361
1780099068017754600,1.066754638671875,-0.08060242235660553,-0.17829470336437225,0.13002938032150269
1780099068027746600,1.07674658203125,-0.12779337167739868,-0.2786570191383362,0.1425992250442505
1780099068037738500,1.086738525390625,-0.19739343225955963,-0.32668787240982056,0.10025426000356674
1780099068047730400,1.09673046875,-0.2788834869861603,-0.30652642250061035,0.0135673051699996
1780099068057723600,1.1067236328125,-0.3467071056365967,-0.2347240149974823,-0.08658545464277267
1780099068067715300,1.11671533203125,-0.3870215117931366,-0.10330233722925186,-0.16592741012573242
1780099068077707500,1.12670751953125,-0.391849547624588,0.04734744876623154,-0.20948757231235504
1780099068087699500,1.136699462890625,-0.36116406321525574,0.18594475090503693,-0.2011082023382187
1780099068097691600,1.146691650390625,-0.30472931265830994,0.28311771154403687,-0.1434890180826187
1780099068107683300,1.156683349609375,-0.2549511194229126,0.269546777009964,-0.06349483877420425
1780099068117675500,1.166675537109375,-0.20606765151023865,0.1554386019706726,0.0211185272783041
1780099068127667500,1.17666748046875,-0.16528081893920898,0.04929031804203987,0.10125944018363953
1780099068137659600,1.18665966796875,-0.1483248621225357,-0.017807064577937126,0.16961373388767242
1780099068147651300,1.1966513671875,-0.1629706472158432,-0.04057283326983452,0.19639819860458374
1780099068157643500,1.2066435546875,-0.20172631740570068,-0.03314952179789543,0.18055737018585205
1780099068167635500,1.216635498046875,-0.2513785660266876,-0.012878603301942348,0.13790951669216156
1780099068177627600,1.226627685546875,-0.318864643573761,-0.030281715095043182,0.04501575604081154
1780099068187619300,1.236619384765625,-0.40245169401168823,-0.13432715833187103,-0.0959504172205925
1780099068197611500,1.246611572265625,-0.475934237241745,-0.2833966016769409,-0.25215092301368713
1780099068207603500,1.256603515625,-0.5171874165534973,-0.36265891790390015,-0.37074628472328186
1780099068217595600,1.266595703125,-0.5210952162742615,-0.31596076488494873,-0.41490575671195984
1780099068227587600,1.276587646484375,-0.4912440776824951,-0.11081293225288391,-0.3554075360298157
1780099068237579500,1.28657958984375,-0.4548451900482178,0.2128525823354721,-0.21505574882030487
1780099068247571500,1.296571533203125,-0.4133201241493225,0.5238695740699768,-0.03303295373916626
1780099068257563600,1.306563720703125,-0.35885730385780334,0.7984727621078491,0.11850596964359283
1780099068267556400,1.316556396484375,-0.3120511770248413,0.8562948107719421,0.15960626304149628
1780099068277548500,1.326548583984375,-0.2786683738231659,0.44200384616851807,0.07562857121229172
1780099068287540500,1.33654052734375,-0.2524929344654083,-0.034399714320898056,-0.0627165213227272
1780099068297532700,1.34653271484375,-0.22987857460975647,-0.30903953313827515,-0.14669302105903625
1780099068307524400,1.3565244140625,-0.2098793089389801,-0.26182886958122253,-0.15940561890602112
1780099068317516500,1.3665166015625,-0.17073671519756317,-0.0960991233587265,-0.1591523289680481
1780099068327508500,1.376508544921875,-0.0999927669763565,-0.039567138999700546,-0.22774922847747803
1780099068337500700,1.386500732421875,-0.0016642343252897263,-0.0963587835431099,-0.3479693531990051
1780099068347492400,1.396492431640625,0.09680987894535065,-0.2063063383102417,-0.4401775598526001
1780099068357484500,1.406484619140625,0.14441241323947906,-0.2237013429403305,-0.48651421070098877
1780099068367476500,1.4164765625,0.14668647944927216,-0.23229403793811798,-0.486157089471817
1780099068377468700,1.42646875,0.12593196332454681,-0.2183976024389267,-0.4679730236530304
1780099068387460400,1.43646044921875,0.11175623536109924,-0.1581803411245346,-0.46273404359817505
1780099068397452500,1.44645263671875,0.10832741856575012,-0.03309272602200508,-0.5039116144180298
1780099068407444500,1.456444580078125,0.1403047889471054,0.07630779594182968,-0.6302000284194946
1780099068417436700,1.466436767578125,0.18992576003074646,0.2191133201122284,-0.8597021698951721
1780099068427428600,1.4764287109375,0.238957479596138,0.4086267948150635,-1.1328173875808716
1780099068437420300,1.486420166015625,0.307908833026886,0.6056041717529297,-1.4020150899887085
1780099068447412500,1.49641259765625,0.3670206367969513,0.7689387202262878,-1.6290618181228638
1780099068457404400,1.506404296875,0.4344155192375183,0.9426895976066589,-1.7929047346115112
1780099068467396600,1.516396728515625,0.5186771154403687,1.1210476160049438,-1.9899976253509521
1780099068477389600,1.5263896484375,0.6121013760566711,1.1573461294174194,-2.248661756515503
1780099068487381500,1.536381591796875,0.7797092795372009,1.0830469131469727,-2.527038812637329
1780099068497373700,1.546373779296875,1.0201714038848877,0.9363742470741272,-2.7497313022613525
1780099068507365400,1.556365478515625,1.3008979558944702,0.7222214937210083,-2.8813769817352295
1780099068517357600,1.566357666015625,1.5929527282714844,0.2953040897846222,-2.878061294555664
1780099068527349500,1.576349609375,1.8577399253845215,-0.22339871525764465,-2.7214622497558594
1780099068537341700,1.586341796875,2.0515077114105225,-0.6529076099395752,-2.4078056812286377
1780099068547333400,1.59633349609375,2.054948329925537,-0.8686712980270386,-1.9077131748199463
1780099068557325300,1.6063251953125,1.962164282798767,-0.5980682969093323,-1.3643351793289185
1780099068567317500,1.6163173828125,1.7590126991271973,-0.08949082344770432,-0.8103973865509033
1780099068577309400,1.626309326171875,1.2242722511291504,0.4500710070133209,-0.2094685137271881
1780099068587301400,1.63630126953125,0.40870580077171326,0.4808478355407715,0.17364931106567383
1780099068597293300,1.646293212890625,-0.09830330312252045,0.28063634037971497,0.36641260981559753
1780099068607285500,1.656285400390625,-0.31516027450561523,0.5206372141838074,0.7177740931510925
1780099068617277400,1.66627734375,-0.4184313416481018,0.785430908203125,1.1568223237991333
1780099068627269600,1.67626953125,-0.5080559849739075,0.8495121598243713,1.6279698610305786
1780099068637261300,1.68626123046875,-0.5933154821395874,0.7287266850471497,2.1092023849487305
1780099068647253500,1.69625341796875,-0.7223032712936401,0.4198775291442871,2.552551507949829
1780099068657245400,1.706245361328125,-0.9276986122131348,-0.22419798374176025,2.861516237258911
1780099068667237600,1.716237548828125,-1.1554782390594482,-1.321143627166748,2.9916698932647705
1780099068677229300,1.726229248046875,-1.4383553266525269,-2.3417348861694336,3.073674440383911
1780099068687221500,1.736221435546875,-1.796398639678955,-2.755948305130005,3.1909031867980957
1780099068697213400,1.74621337890625,-2.184701442718506,-2.966780424118042,3.2871363162994385
1780099068707206400,1.756206298828125,-2.618652582168579,-2.998852491378784,3.3403007984161377
1780099068717198300,1.7661982421875,-3.0713605880737305,-1.3492331504821777,2.9607906341552734
1780099068727190500,1.7761904296875,-2.850764036178589,-1.3551479578018188,2.2606029510498047
1780099068737182500,1.786182373046875,-2.075338125228882,-1.5983530282974243,1.039837121963501
1780099068747174400,1.79617431640625,-1.2090733051300049,-1.461870551109314,-0.04187685251235962
1780099068757166300,1.806166259765625,-0.8266211748123169,-0.33257654309272766,-0.773048996925354
1780099068767158500,1.816158447265625,-0.7056087255477905,0.5958656072616577,-1.2172515392303467
1780099068777150500,1.826150390625,-0.5614470839500427,0.8613880276679993,-1.4899418354034424
1780099068787142400,1.836142333984375,-0.34320130944252014,0.6910208463668823,-1.5728689432144165
1780099068797134300,1.84613427734375,-0.14278821647167206,0.3434372842311859,-1.5084000825881958
1780099068807126500,1.85612646484375,-0.01512400433421135,-0.2156079113483429,-1.4673786163330078
1780099068817119000,1.866118896484375,0.11060778051614761,-0.8054433465003967,-1.430258870124817
1780099068827110700,1.876110595703125,0.26040101051330566,-1.078307032585144,-1.2817540168762207
1780099068837102800,1.886102783203125,0.4032512903213501,-0.6901029348373413,-0.9503921866416931
1780099068847094800,1.8960947265625,0.4484211802482605,0.0539296455681324,-0.4434821605682373
1780099068857087000,1.9060869140625,0.3375989496707916,0.41381511092185974,0.04050029441714287
1780099068867078700,1.91607861328125,0.18042027950286865,0.5542816519737244,0.3801334798336029
1780099068877070800,1.92607080078125,0.05955740436911583,0.4767360985279083,0.592767596244812
1780099068887062800,1.936062744140625,0.0031149033457040787,0.16549324989318848,0.6570544838905334
1780099068897055000,1.946054931640625,-0.08806285262107849,-0.2407563179731369,0.6494675278663635
1780099068907047000,1.956046875,-0.16662290692329407,-0.724775493144989,0.6389749050140381
1780099068917038800,1.966038818359375,-0.18598739802837372,-1.3399958610534668,0.591907262802124
1780099068927030800,1.97603076171875,-0.138672336935997,-1.805466890335083,0.51898592710495
1780099068937024000,1.98602392578125,-0.07893797755241394,-1.8215614557266235,0.4831918776035309
1780099068947015700,1.996015625,-0.036899179220199585,-1.459756851196289,0.48238199949264526
1780099068957008000,2.0060078125,0.04957154393196106,-1.0797524452209473,0.514627993106842
1780099068966999800,2.015999755859375,0.0423346683382988,-0.6683092713356018,0.4254016578197479
1780099068976992000,2.025991943359375,0.0550922229886055,-0.34240853786468506,0.30714935064315796
1780099068986983700,2.035983642578125,0.10953415930271149,-0.12951305508613586,0.208390012383461
1780099068996975900,2.045975830078125,0.19119374454021454,0.01712699979543686,0.08338804543018341
1780099069006967800,2.0559677734375,0.3126642405986786,-0.015750523656606674,-0.07101564109325409
1780099069016960000,2.0659599609375,0.41749024391174316,-0.10902465134859085,-0.21401163935661316
1780099069026951700,2.07595166015625,0.5111445784568787,-0.22375977039337158,-0.27810436487197876
1780099069036944000,2.08594384765625,0.573610782623291,-0.22970780730247498,-0.32653531432151794
1780099069046935800,2.095935791015625,0.6372395157814026,-0.10500822961330414,-0.36731231212615967
1780099069056928000,2.105927978515625,0.6551336646080017,0.08865068852901459,-0.4430772066116333
1780099069066919700,2.115919677734375,0.7006244659423828,0.3353278338909149,-0.45597997307777405
1780099069076911900,2.125911865234375,0.7428949475288391,0.5666883587837219,-0.4563988745212555
1780099069086903800,2.13590380859375,0.7365033626556396,0.8551009893417358,-0.4176749289035797
1780099069096896000,2.14589599609375,0.5754550695419312,0.8596742749214172,-0.3198370039463043
1780099069106888000,2.155887939453125,0.33458542823791504,0.3939313292503357,-0.22144865989685059
1780099069116880000,2.1658798828125,0.1817290037870407,-0.28303709626197815,-0.13806088268756866
1780099069126871800,2.175871826171875,0.18878957629203796,-0.8668606281280518,-0.026590008288621902
1780099069136864000,2.185864013671875,0.12652821838855743,-1.3703639507293701,0.03894875943660736
1780099069146856000,2.19585595703125,0.0827820748090744,-1.252915620803833,0.048482079058885574
1780099069156847900,2.205847900390625,0.18642888963222504,-0.5220839381217957,-0.06312162429094315
1780099069166839800,2.21583984375,0.38419201970100403,0.10703086853027344,-0.0722256451845169
1780099069176832000,2.22583203125,0.3966542184352875,0.2898607850074768,-0.11660096794366837
1780099069186824700,2.23582470703125,0.3492843210697174,0.37328192591667175,-0.07739018648862839
1780099069196817000,2.24581689453125,0.22428420186042786,0.3748103976249695,-0.05848965048789978
1780099069206808800,2.255808837890625,0.058484841138124466,0.3039521872997284,-0.06168011948466301
1780099069216801000,2.265801025390625,-0.09414892643690109,0.17922534048557281,-0.005001891870051622
1780099069226792700,2.275792724609375,-0.12883687019348145,0.1568305492401123,0.04677049070596695
1780099069236785000,2.285784912109375,-0.07559582591056824,0.023748314008116722,0.031861983239650726
1780099069246776800,2.29577685546875,0.008382433094084263,-0.11535578221082687,-0.00209145899862051
1780099069256769000,2.30576904296875,0.11937322467565536,-0.05985311046242714,-0.04273206740617752
1780099069266760700,2.3157607421875,0.2888227105140686,0.00017107823805417866,-0.09165966510772705
1780099069276753000,2.3257529296875,0.38156476616859436,-0.22390544414520264,-0.25431638956069946
1780099069286744800,2.335744873046875,0.538321852684021,-0.48841381072998047,-0.4938751757144928
1780099069296737000,2.345737060546875,0.5753095746040344,-0.8727043271064758,-0.8444101214408875
1780099069306729000,2.35572900390625,0.3387121856212616,-1.1441508531570435,-1.1216251850128174
1780099069316721000,2.365720947265625,0.09635887295007706,-1.1507234573364258,-1.322142481803894
1780099069326712800,2.375712890625,-0.046404674649238586,-0.8961974382400513,-1.3850064277648926
1780099069336705000,2.385705078125,-0.15294499695301056,-0.4775272011756897,-1.3062744140625
1780099069346697000,2.395697021484375,-0.1320575624704361,-0.3762642443180084,-1.118793249130249
1780099069356688600,2.405688720703125,-0.15993641316890717,-0.018581654876470566,-0.8152238726615906
1780099069366680800,2.415680908203125,-0.10239269584417343,0.1671636998653412,-0.3964196741580963
1780099069376672800,2.4256728515625,-0.03998379036784172,0.23478180170059204,0.04955160245299339
1780099069386665000,2.4356650390625,-0.11071361601352692,0.14667750895023346,0.37959128618240356
1780099069396656600,2.44565673828125,-0.2136988341808319,-0.01910327933728695,0.5121934413909912
1780099069406648800,2.45564892578125,-0.32745254039764404,-0.2351362407207489,0.4107666611671448
1780099069416640800,2.465640869140625,-0.3585255444049835,-0.3826795518398285,0.1420905888080597
1780099069426633000,2.475633056640625,-0.312350869178772,-0.46818673610687256,-0.21491120755672455
1780099069436626000,2.4856259765625,-0.30575987696647644,-0.5532322525978088,-0.5370815396308899
1780099069446617900,2.495617919921875,-0.36379918456077576,-0.6337444186210632,-0.6677790880203247
1780099069456610000,2.505610107421875,-0.40734362602233887,-0.6392806768417358,-0.5331918001174927
1780099069466601700,2.515601806640625,-0.39038676023483276,-0.5358496308326721,-0.1910778433084488
1780099069476594000,2.525593994140625,-0.3543277382850647,-0.30618181824684143,0.21007512509822845
1780099069486585900,2.5355859375,-0.3054611086845398,0.0076834349893033504,0.5375952124595642
1780099069496577800,2.545577880859375,-0.26700812578201294,0.2692335844039917,0.7022861838340759
1780099069506570000,2.555570068359375,-0.21378514170646667,0.40681222081184387,0.6899037957191467
1780099069516561700,2.565561767578125,-0.22026681900024414,0.4426758289337158,0.5585798621177673
1780099069526553900,2.575553955078125,-0.23407770693302155,0.3841414153575897,0.4056600332260132
1780099069536545800,2.5855458984375,-0.1861880123615265,0.2640085220336914,0.3139563500881195
1780099069546538000,2.5955380859375,-0.17639930546283722,0.12334514409303665,0.31408020853996277
1780099069556529700,2.60552978515625,-0.2062406688928604,0.03294049948453903,0.3781963884830475
1780099069566521900,2.61552197265625,-0.20767559111118317,-0.15058857202529907,0.4767453372478485
1780099069576513800,2.625513671875,-0.2497604489326477,-0.2598517835140228,0.488538533449173
1780099069586506000,2.635506103515625,-0.32997429370880127,-0.30568772554397583,0.41706353425979614
1780099069596497700,2.64549755859375,-0.3686148226261139,-0.24536891281604767,0.32297879457473755
1780099069606489900,2.65548974609375,-0.43442898988723755,-0.1534847915172577,0.19675588607788086
1780099069616481800,2.665481689453125,-0.4899487793445587,-0.09343352168798447,0.04810316115617752
1780099069626474000,2.675473876953125,-0.44483670592308044,0.053285613656044006,-0.09543589502573013
1780099069636465700,2.685465576171875,-0.3076808750629425,0.18380382657051086,-0.20274125039577484
1780099069646457900,2.695457763671875,-0.2747498154640198,0.22223004698753357,-0.25405529141426086
1780099069656449800,2.70544970703125,-0.3087993562221527,0.27661362290382385,-0.25032395124435425
1780099069666442000,2.71544189453125,-0.3614654839038849,0.36387768387794495,-0.26875993609428406
1780099069676434000,2.725433837890625,-0.38770151138305664,0.34047073125839233,-0.2672949433326721
1780099069686425900,2.73542578125,-0.38438880443573,0.28268545866012573,-0.26380857825279236
1780099069696417800,2.745417724609375,-0.3412494361400604,0.19843250513076782,-0.3143564462661743
1780099069706411000,2.755410888671875,-0.30887073278427124,-0.021659374237060547,-0.31739139556884766
1780099069716402700,2.765402587890625,-0.32078027725219727,-0.33883988857269287,-0.23527920246124268
1780099069726395000,2.775394775390625,-0.3411089777946472,-0.6269103288650513,-0.1160217896103859
1780099069736386800,2.78538671875,-0.34639060497283936,-0.851061224937439,-0.03140967711806297
1780099069746379000,2.79537890625,-0.3564983606338501,-0.9069775342941284,-0.04678570106625557
1780099069756370700,2.80537060546875,-0.3478507399559021,-0.6514976620674133,-0.21323613822460175
1780099069766363000,2.81536279296875,-0.3431939482688904,-0.3682137727737427,-0.5338460803031921
1780099069776354800,2.825354736328125,-0.2933402359485626,-0.21287475526332855,-0.8584709167480469
1780099069786347000,2.835346923828125,-0.19734790921211243,-0.11901377886533737,-1.0367573499679565
1780099069796338700,2.845338623046875,-0.1116747111082077,-0.17296011745929718,-0.980631411075592
1780099069806331000,2.855330810546875,-0.01966516301035881,-0.30111247301101685,-0.7398787140846252
1780099069816322000,2.865322021484375,0.08395551145076752,-0.49721425771713257,-0.4142167866230011
1780099069826314000,2.87531396484375,0.17103102803230286,-0.7107617259025574,-0.08338642120361328
1780099069836306200,2.88530615234375,0.2901792526245117,-0.9507983922958374,0.1642906218767166
1780099069846297900,2.8952978515625,0.3336199223995209,-0.9831443428993225,0.3213934302330017
1780099069856290000,2.9052900390625,0.2592853307723999,-1.0215871334075928,0.389970064163208
1780099069866282000,2.915281982421875,0.17533183097839355,-1.138738751411438,0.26070716977119446
1780099069876274200,2.925274169921875,0.2034797966480255,-1.1956313848495483,0.17648285627365112
1780099069886266000,2.93526611328125,0.15331409871578217,-0.8571456074714661,0.12643860280513763
1780099069896258000,2.945258056640625,0.004977156408131123,-0.11382602155208588,0.04058869555592537
1780099069906250000,2.95525,0.05861189216375351,0.2736695110797882,-0.11104849725961685
1780099069916242200,2.9652421875,0.23265275359153748,0.2927328646183014,-0.2907734215259552
1780099069926234000,2.975234130859375,0.3506172001361847,0.39816102385520935,-0.39448994398117065
1780099069936226000,2.98522607421875,0.41348913311958313,0.33635213971138,-0.4454161524772644
1780099069946218000,2.995218017578125,0.5085698366165161,0.045687537640333176,-0.36645475029945374
1780099069956210200,3.005210205078125,0.6062288880348206,-0.5463942885398865,-0.1182076632976532
1780099069966202000,3.0152021484375,0.7406540513038635,-1.1242561340332031,0.31828418374061584
1780099069976193800,3.02519384765625,1.001956820487976,-1.5995826721191406,0.6871265172958374
1780099069986186000,3.03518603515625,1.110543131828308,-1.843651533126831,0.9679403901100159
1780099069996179200,3.04517919921875,0.9747399091720581,-2.3263542652130127,0.991915225982666
1780099070006171000,3.0551708984375,0.7509888410568237,-2.2587575912475586,0.9440006613731384
1780099070016163000,3.0651630859375,0.5368106365203857,-2.4038515090942383,0.652646541595459
1780099070026155000,3.075155029296875,0.2587539553642273,-2.194904088973999,0.1898893117904663
1780099070036147200,3.085147216796875,0.4119720160961151,-1.9315868616104126,-0.41486719250679016
1780099070046139000,3.095138916015625,0.7140695452690125,-1.9535614252090454,-0.9379618167877197
1780099070056131000,3.105131103515625,1.0813813209533691,-2.5866963863372803,-1.2076106071472168
1780099070066123000,3.115123046875,1.601503610610962,-3.7592172622680664,-1.1116734743118286
1780099070076115200,3.125115234375,2.200927495956421,-5.23297643661499,-0.6551660895347595
1780099070086107100,3.135107177734375,2.4599053859710693,-6.243781089782715,0.06525997072458267
1780099070096099000,3.14509912109375,2.09442400932312,-5.718190670013428,0.6846026182174683
1780099070106091000,3.155091064453125,1.1259920597076416,-3.778312921524048,0.844663143157959
1780099070116083000,3.1650830078125,0.509840190410614,-2.0351614952087402,0.2712123990058899
1780099070126075100,3.1750751953125,0.9086999297142029,-1.0685545206069946,-0.6031777262687683
1780099070136066800,3.18506689453125,1.347132682800293,-0.02758762799203396,-1.1904312372207642
1780099070146059000,3.19505908203125,1.6080889701843262,0.2448098063468933,-1.447042465209961
1780099070156051000,3.205051025390625,1.834649920463562,-0.2648606300354004,-1.215847373008728
1780099070166043100,3.215043212890625,2.1115190982818604,-1.420656442642212,-0.6797603368759155
1780099070176034800,3.225034912109375,2.7955052852630615,-3.731550455093384,-0.14640361070632935
1780099070186027000,3.235027099609375,3.358295440673828,-5.637319564819336,0.6292974352836609
1780099070196019000,3.24501904296875,3.362659454345703,-6.500412464141846,1.5429269075393677
1780099070206011100,3.25501123046875,3.109442710876465,-6.732028484344482,2.4602487087249756
1780099070216002800,3.2650029296875,2.9657061100006104,-6.4839982986450195,3.2712478637695312
1780099070225995000,3.2749951171875,3.2160258293151855,-6.113949298858643,3.388669967651367
1780099070235987000,3.284987060546875,3.632049560546875,-5.268067836761475,2.825920581817627
1780099070245979100,3.294979248046875,3.829416513442993,-3.2191736698150635,2.0949575901031494
1780099070255971000,3.30497119140625,4.168695449829102,-1.4558171033859253,1.1676462888717651
1780099070265963000,3.314962890625,4.524875640869141,-0.28846094012260437,0.43623116612434387
1780099070275955000,3.324954833984375,4.615767955780029,0.29774197936058044,0.0688544511795044
1780099070285947100,3.334947021484375,4.603271007537842,-0.04117802903056145,0.08583743125200272
1780099070295939800,3.34493994140625,4.682883262634277,-1.1805901527404785,0.4127691388130188
1780099070305932000,3.35493212890625,4.530176162719727,-2.267371892929077,1.1277722120285034
1780099070315924000,3.364924072265625,4.262665271759033,-3.1253926753997803,2.140350580215454
1780099070325916200,3.374916259765625,4.070049285888672,-3.8546409606933594,3.167991876602173
1780099070335907800,3.384907958984375,3.9241080284118652,-4.43930196762085,3.916658639907837
1780099070345900000,3.394900146484375,3.734380006790161,-4.680795669555664,4.4550065994262695
1780099070355892000,3.40489208984375,3.631991147994995,-4.656935691833496,4.715655326843262
1780099070365884200,3.41488427734375,3.6050970554351807,-4.410003185272217,4.648601531982422
1780099070375875800,3.424875732421875,3.636929988861084,-4.012749195098877,4.337388515472412
1780099070385868000,3.434867919921875,3.735384702682495,-3.5334582328796387,3.931093454360962
1780099070395860000,3.44485986328125,3.8118672370910645,-3.0377919673919678,3.5060176849365234
1780099070405852200,3.45485205078125,3.722818374633789,-2.629291534423828,3.173895835876465
1780099070415843800,3.46484375,3.2264504432678223,-1.5983175039291382,1.9518557786941528
1780099070425836000,3.4748359375,2.7215282917022705,-0.159672349691391,-0.30782726407051086
1780099070435828000,3.484827880859375,2.2813756465911865,0.8481654524803162,-2.1644842624664307
1780099070445820200,3.494820068359375,1.5487403869628906,1.3706233501434326,-2.986787796020508
1780099070455812000,3.50481201171875,0.8680107593536377,1.5254476070404053,-2.576986789703369
1780099070465804000,3.514803955078125,0.31831514835357666,1.8943856954574585,-1.5947422981262207
1780099070475796000,3.5247958984375,-0.3080021142959595,1.889129877090454,-0.9759401679039001
1780099070485788200,3.5347880859375,-0.7964945435523987,0.7836906313896179,-1.1684411764144897
1780099070495780000,3.544780029296875,-1.1825947761535645,-0.21439096331596375,-1.0541921854019165
1780099070505772000,3.55477197265625,-1.2460501194000244,-1.387718677520752,-0.4853939414024353
1780099070515764000,3.564763916015625,-1.130873203277588,-2.436910390853882,0.16402649879455566
1780099070525756200,3.574756103515625,-0.9777515530586243,-3.1333506107330322,0.6800315380096436
1780099070535748000,3.584748046875,-0.8452818989753723,-3.423924207687378,1.0028082132339478
1780099070545740000,3.594739990234375,-0.8306803107261658,-3.3656768798828125,1.1350634098052979
1780099070555732000,3.60473193359375,-1.0922476053237915,-2.9885830879211426,0.998738169670105
1780099070565724200,3.61472412109375,-1.549484372138977,-2.572338581085205,0.7277167439460754
1780099070575716000,3.624716064453125,-2.297816753387451,-2.1939334869384766,0.5618001818656921
1780099070585708000,3.6347080078125,-3.0616912841796875,-1.89327871799469,0.5277453064918518
1780099070595700000,3.644699951171875,-3.457242727279663,-1.5541115999221802,0.3376069664955139
1780099070605693200,3.654693115234375,-3.313520669937134,-1.134069561958313,0.019344551488757133
1780099070615684900,3.664684814453125,-2.917833089828491,-0.8515527844429016,-0.3174097537994385
1780099070625677000,3.674677001953125,-2.573166847229004,-0.826563835144043,-0.38008829951286316
1780099070635669000,3.6846689453125,-2.2998690605163574,-0.8879203796386719,-0.21794350445270538
1780099070645661200,3.6946611328125,-2.0791053771972656,-0.8528992533683777,-0.20599150657653809
1780099070655653000,3.704653076171875,-1.915108561515808,-0.8013501763343811,-0.7268627882003784
1780099070665645000,3.71464501953125,-1.748874306678772,-1.0491403341293335,-1.6628994941711426
1780099070675637000,3.724636962890625,-1.6030385494232178,-1.612640380859375,-2.843895196914673
1780099070685629200,3.734629150390625,-1.3776421546936035,-2.946092128753662,-4.095341682434082
1780099070695621000,3.74462109375,-1.3315601348876953,-4.0151591300964355,-4.639101982116699
1780099070705613000,3.754613037109375,-1.3787147998809814,-4.0000786781311035,-4.049075603485107
1780099070715605000,3.76460498046875,-1.3750905990600586,-3.3471360206604004,-3.0672807693481445
1780099070725597000,3.774596923828125,-1.2593657970428467,-2.640765905380249,-2.143580436706543
1780099070735589000,3.784589111328125,-1.3273288011550903,-1.9429293870925903,-1.580841064453125
1780099070745580800,3.794580810546875,-1.7372899055480957,-1.2753926515579224,-1.3488941192626953
1780099070755573000,3.804572998046875,-1.8274420499801636,-1.2256488800048828,-1.042119026184082
1780099070765565000,3.81456494140625,-1.629786729812622,-1.4102898836135864,-0.6262921690940857
1780099070775557000,3.82455712890625,-1.4203495979309082,-1.3768287897109985,-0.1740572601556778
1780099070785548800,3.834548828125,-1.175679087638855,-1.0939997434616089,0.2260398119688034
1780099070795541000,3.844541015625,-0.8194341659545898,-0.7278510332107544,0.5171899199485779
1780099070805533000,3.854532958984375,-0.54207444190979,-0.6217315196990967,0.6528297662734985
1780099070815525000,3.864525146484375,-0.37462151050567627,-0.7803695797920227,0.6877722144126892
1780099070825517000,3.87451708984375,-0.1626349538564682,-1.0999445915222168,0.6346054077148438
1780099070835509000,3.884509033203125,0.09742765873670578,-1.160894751548767,0.4267319142818451
1780099070845501200,3.894501220703125,0.42466890811920166,-0.9396323561668396,0.10810920596122742
1780099070855493000,3.9044931640625,0.7953082919120789,-0.5666559934616089,-0.2034706473350525
1780099070865485300,3.9144853515625,1.1593061685562134,-0.019841931760311127,-0.4247409701347351
1780099070875477000,3.92447705078125,1.4245494604110718,0.6255903840065002,-0.5104168653488159
1780099070885469200,3.93446923828125,1.601540207862854,1.0838141441345215,-0.5508697628974915
1780099070895461000,3.944461181640625,1.7707750797271729,1.2444603443145752,-0.535718560218811
1780099070905453300,3.954453369140625,2.0673980712890625,1.300129771232605,-0.40588781237602234
1780099070915445000,3.964445068359375,2.4037246704101562,1.4337544441223145,-0.26805344223976135
1780099070925438200,3.974438232421875,2.7416040897369385,1.5893735885620117,-0.16834019124507904
1780099070935430100,3.98443017578125,2.8584048748016357,1.6505001783370972,-0.0393967404961586
1780099070945422000,3.994422119140625,2.7666592597961426,1.491889476776123,0.12396528571844101
1780099070955414000,4.0044140625,2.6787209510803223,1.0793161392211914,0.44688135385513306
1780099070965406200,4.01440625,2.7110695838928223,0.4296397864818573,0.939123272895813
1780099070975398100,4.024398193359375,2.767794370651245,-0.16214454174041748,1.5165373086929321
1780099070985390000,4.03439013671875,2.8113834857940674,-0.44486573338508606,2.1017112731933594
1780099070995382000,4.044382080078125,2.817495584487915,-0.5994299650192261,2.661342144012451
1780099071005374200,4.054374267578125,2.7049384117126465,-0.9072674512863159,3.093956708908081
1780099071015366100,4.0643662109375,2.4276976585388184,-1.419817328453064,3.2449522018432617
1780099071025358000,4.074358154296875,2.043241262435913,-1.7533713579177856,3.1885600090026855
1780099071035350000,4.08435009765625,1.6507517099380493,-1.7411214113235474,3.070380210876465
1780099071045342200,4.09434228515625,1.4017189741134644,-1.5448302030563354,3.0027737617492676
1780099071055334100,4.104334228515625,1.3598207235336304,-1.2948678731918335,2.8635661602020264
1780099071065326300,4.114326416015625,1.4334518909454346,-1.2033616304397583,2.470235586166382
1780099071075318000,4.124318115234375,1.5579588413238525,-1.4478747844696045,1.6586713790893555
1780099071085310200,4.134310302734375,1.6177326440811157,-1.9813685417175293,0.43536829948425293
1780099071095302100,4.14430224609375,1.5007842779159546,-2.1345386505126953,-0.9058977365493774
1780099071105294300,4.15429443359375,1.4490915536880493,-1.1137003898620605,-1.7586952447891235
1780099071115286000,4.1642861328125,1.5626424551010132,0.7292189598083496,-1.8254505395889282
1780099071125278200,4.1742783203125,1.6945850849151611,2.211390733718872,-1.3921997547149658
1780099071135270100,4.184270263671875,1.8229540586471558,2.8772382736206055,-0.8543832898139954
1780099071145262300,4.194262451171875,1.9267635345458984,2.8871421813964844,-0.2909841239452362
1780099071155254000,4.20425390625,1.9693090915679932,2.6285836696624756,0.26971080899238586
1780099071165246200,4.21424609375,2.00341796875,2.4101245403289795,0.7385672926902771
1780099071175238100,4.224238037109375,2.108755350112915,2.336867332458496,1.0181283950805664
1780099071185230300,4.234230224609375,2.3347737789154053,2.4402847290039062,1.1298120021820068
1780099071195222000,4.244221923828125,2.6709225177764893,2.5656940937042236,1.1244899034500122
1780099071205214200,4.254214111328125,3.1268253326416016,2.274397373199463,0.9428988695144653
1780099071215206100,4.2642060546875,3.6889028549194336,1.4279370307922363,0.6685399413108826
1780099071225198000,4.274197998046875,4.253734111785889,-0.20076367259025574,0.2564693093299866
1780099071235190300,4.284190185546875,4.703681945800781,-2.754322052001953,-0.4297821819782257
1780099071245182000,4.294181884765625,4.927846431732178,-3.4618194103240967,-0.6451759934425354
1780099071255175200,4.304175048828125,4.986916542053223,-2.8525454998016357,-0.49270185828208923
1780099071265167400,4.31416748046875,5.147176742553711,-3.1213486194610596,-0.08340620249509811
1780099071275159000,4.324158935546875,5.413442134857178,-3.6351311206817627,0.3684530556201935
1780099071285151200,4.334151123046875,5.91352653503418,-4.0769195556640625,0.5729808807373047
1780099071295143200,4.34414306640625,6.48663330078125,-4.36508321762085,0.6315881013870239
1780099071305135400,4.35413525390625,6.752366065979004,-4.693515300750732,0.598922073841095
1780099071315127000,4.364126953125,6.531533241271973,-5.178791046142578,0.5350673198699951
1780099071325119200,4.374119140625,5.928422451019287,-5.516823768615723,0.5588663816452026
1780099071335111200,4.384111083984375,5.198269367218018,-5.385658264160156,0.7028517723083496
1780099071345103400,4.394103271484375,4.431149959564209,-5.042281627655029,0.8653067350387573
1780099071355095000,4.404094970703125,3.644404888153076,-4.852128505706787,1.0012623071670532
1780099071365087000,4.4140869140625,2.8448262214660645,-4.634482383728027,1.1858316659927368
1780099071375079200,4.4240791015625,1.9851703643798828,-3.951730966567993,1.3084467649459839
1780099071385071000,4.434071044921875,1.122185468673706,-2.6183087825775146,1.3565943241119385
1780099071395063000,4.44406298828125,0.29764166474342346,-0.700018048286438,1.3437645435333252
1780099071405055000,4.454054931640625,-0.5420487523078918,1.465445876121521,1.2009872198104858
1780099071415047200,4.464047119140625,-1.4147624969482422,3.5674707889556885,0.9606584310531616
1780099071425039000,4.4740390625,-2.2209651470184326,5.311097621917725,0.7793309688568115
1780099071435031300,4.48403125,-2.888115882873535,6.482045650482178,0.7878673076629639
1780099071445023000,4.49402294921875,-3.247948169708252,7.056774616241455,1.057569980621338
1780099071455015200,4.50401513671875,-3.13490629196167,7.257575988769531,1.5414341688156128
1780099071465007000,4.514007080078125,-2.699198007583618,7.1569061279296875,2.059997797012329
1780099071474999300,4.523999267578125,-2.0298969745635986,6.704584121704102,2.526684522628784
1780099071484991000,4.533990966796875,-1.2190725803375244,5.748848915100098,2.992328405380249
1780099071494983200,4.543983154296875,-0.04493481293320656,1.7587567567825317,4.163020133972168
1780099071504975000,4.55397509765625,0.893794059753418,-4.410803318023682,4.978850841522217
1780099071514967300,4.56396728515625,0.8757457733154297,-7.650758266448975,4.576989650726318
1780099071524959000,4.573958984375,0.6434454321861267,-8.751375198364258,3.5094246864318848
1780099071534951200,4.583951171875,0.47422894835472107,-8.674835205078125,1.5513691902160645
1780099071544943000,4.593943115234375,0.47292664647102356,-6.7690534591674805,-0.6894912123680115
1780099071554935300,4.603935302734375,0.8410184979438782,-3.830657958984375,-1.97396719455719
1780099071564927000,4.613927001953125,1.2829713821411133,-1.312146544456482,-2.2709109783172607
1780099071574919200,4.623919189453125,1.5419940948486328,0.5118448734283447,-2.016315221786499
1780099071584911000,4.6339111328125,1.5840104818344116,1.7881258726119995,-1.5246608257293701
1780099071594904000,4.643904052734375,1.4450794458389282,2.544443368911743,-1.0160610675811768
1780099071604896000,4.65389599609375,1.1406172513961792,2.8525588512420654,-0.5211719274520874
1780099071614888200,4.66388818359375,0.7445368766784668,2.8223681449890137,0.02184886857867241
1780099071624880000,4.673880126953125,0.4193214774131775,2.59153413772583,0.5963577032089233
1780099071634872300,4.683872314453125,0.24304041266441345,2.2177531719207764,1.1678212881088257
1780099071644864000,4.693864013671875,0.19480815529823303,1.7468971014022827,1.6524322032928467
1780099071654856200,4.703856201171875,0.19505558907985687,1.2642775774002075,1.9733967781066895
1780099071664848100,4.71384814453125,0.20352309942245483,0.8243105411529541,2.098815679550171
1780099071674840300,4.72384033203125,0.21080726385116577,0.42682692408561707,2.046483039855957
1780099071684832000,4.73383203125,0.224668487906456,0.06563889235258102,1.869863510131836
1780099071694824200,4.74382421875,0.2373025119304657,-0.2599213719367981,1.6340230703353882
1780099071704816000,4.753816162109375,0.24738150835037231,-0.5894667506217957,1.3994795083999634
1780099071714808300,4.763808349609375,0.26686859130859375,-1.0374059677124023,1.2203593254089355
1780099071724800000,4.773800048828125,0.30636298656463623,-1.412371039390564,1.0404982566833496
1780099071734792200,4.783792236328125,0.32586774230003357,-1.4719427824020386,0.7411947846412659
1780099071744784100,4.7937841796875,0.2797148823738098,-1.3155148029327393,0.3513890206813812
1780099071754776300,4.8037763671875,0.1681891530752182,-1.1416490077972412,-0.04678203910589218
1780099071764768000,4.81376806640625,0.026490602642297745,-1.007947325706482,-0.3694969713687897
1780099071774760200,4.82376025390625,-0.14047352969646454,-0.9179387092590332,-0.5525988340377808
1780099071784752000,4.833752197265625,-0.3415496349334717,-0.7641938924789429,-0.5469383001327515
1780099071794744300,4.843744384765625,-0.5014545917510986,-0.4632550776004791,-0.346768856048584
1780099071804736300,4.853736328125,-0.6026298999786377,0.002325405366718769,-0.07791530340909958
1780099071814728200,4.863728271484375,-0.6371777653694153,0.5458651185035706,0.06375501304864883
1780099071824720400,4.873720458984375,-0.6088516116142273,1.012895941734314,-0.08747392147779465
1780099071834712300,4.88371240234375,-0.5170379281044006,1.229424238204956,-0.5914919972419739
1780099071844704500,4.89370458984375,-0.3116501271724701,1.0668823719024658,-1.3137173652648926
1780099071854696200,4.9036962890625,0.005527136847376823,0.7155748009681702,-2.0762317180633545
1780099071864688400,4.9136884765625,0.22171616554260254,0.4323071241378784,-2.8796546459198
1780099071874680300,4.923680419921875,0.2088390737771988,0.15838344395160675,-3.5897057056427
1780099071884672500,4.933672607421875,0.06336870044469833,-0.08762633055448532,-4.0992889404296875
1780099071894664200,4.943664306640625,-0.12494359910488129,-0.22073331475257874,-4.289108753204346
1780099071904657400,4.953657470703125,-0.29012003540992737,-0.029327942058444023,-4.115402698516846
1780099071914649300,4.9636494140625,-0.3783775269985199,0.535579264163971,-3.6743581295013428
1780099071924641300,4.973641357421875,-0.38087213039398193,1.4054123163223267,-3.099292755126953
1780099071934633200,4.98363330078125,-0.27884534001350403,2.276333808898926,-2.546903133392334
1780099071944625400,4.99362548828125,-0.02976255491375923,2.4700756072998047,-2.1908762454986572
1780099071954617300,5.003617431640625,0.3367708623409271,1.568199634552002,-2.1033873558044434
1780099071964609300,5.013609375,0.6600048542022705,0.27359628677368164,-2.180551767349243
1780099071974601200,5.023601318359375,0.8335970640182495,-0.5118218660354614,-2.249959945678711
1780099071984593400,5.033593505859375,0.8187512755393982,-0.6032492518424988,-2.2438652515411377
1780099071994585300,5.04358544921875,0.6494067311286926,-0.33950650691986084,-2.183215379714966
1780099072004577300,5.053577392578125,0.45218557119369507,-0.08967804908752441,-2.0711605548858643
1780099072014569200,5.0635693359375,0.2727448642253876,-0.08424899727106094,-1.8903582096099854
1780099072024561400,5.0735615234375,0.07819773256778717,-0.28414881229400635,-1.6739816665649414
1780099072034553300,5.08355322265625,-0.039572615176439285,-0.22325509786605835,-1.5833141803741455
1780099072044545500,5.093545654296875,-0.1152612492442131,-0.0007903449586592615,-1.5432381629943848
1780099072054537200,5.103537109375,-0.19198527932167053,0.03206383436918259,-1.5350615978240967
1780099072064529400,5.113529296875,-0.24887917935848236,-0.15726535022258759,-1.5559325218200684
1780099072074521300,5.123521240234375,-0.29076921939849854,-0.5407329201698303,-1.541433572769165
1780099072084513500,5.133513427734375,-0.30759695172309875,-0.8930893540382385,-1.4991835355758667
1780099072094505200,5.143505126953125,-0.2738111615180969,-1.1599087715148926,-1.4642307758331299
1780099072104497400,5.153497314453125,-0.19622179865837097,-1.1573468446731567,-1.4347831010818481
1780099072114489300,5.1634892578125,-0.08109195530414581,-0.8404175639152527,-1.3569594621658325
1780099072124481500,5.1734814453125,0.04427129402756691,-0.4070024788379669,-1.2172876596450806
1780099072134473200,5.18347314453125,0.16094237565994263,-0.033212002366781235,-1.0396158695220947
1780099072144465400,5.19346533203125,0.24785223603248596,0.21158362925052643,-0.8451319336891174
1780099072154457300,5.203457275390625,0.24901968240737915,0.3082335293292999,-0.6267415285110474
1780099072164449500,5.213449462890625,0.16242247819900513,0.20454254746437073,-0.37260913848876953
1780099072174442200,5.223442138671875,0.03931732475757599,-0.01694789156317711,-0.0686698704957962
1780099072184434400,5.233434326171875,-0.09119860827922821,-0.1983320564031601,0.3054960072040558
1780099072194426400,5.24342626953125,-0.20939907431602478,-0.3183191120624542,0.7051461338996887
1780099072204418300,5.253418212890625,-0.2387162148952484,-0.4281385540962219,1.0761536359786987
1780099072214410200,5.26341015625,-0.12135853618383408,-0.5087253451347351,1.4166646003723145
1780099072224402400,5.27340234375,0.07214514911174774,-0.5504661202430725,1.7343552112579346
1780099072234394400,5.283394287109375,0.243269681930542,-0.5991170406341553,2.021646738052368
1780099072244386600,5.293386474609375,0.3541032671928406,-0.7288599014282227,2.277012586593628
1780099072254378200,5.303378173828125,0.3929601013660431,-1.0329042673110962,2.5024731159210205
1780099072264370400,5.313370361328125,0.37831029295921326,-1.5256693363189697,2.6960229873657227
1780099072274362400,5.3233623046875,0.3230503499507904,-2.250924825668335,2.7585854530334473
1780099072284354600,5.3333544921875,0.25881651043891907,-3.108485460281372,2.4066638946533203
1780099072294346200,5.34334619140625,0.21356940269470215,-3.135845899581909,0.8030357360839844
1780099072304338400,5.35333837890625,0.3384524881839752,-2.275277614593506,-1.5535509586334229
1780099072314330400,5.363330322265625,0.7440822720527649,-2.2316999435424805,-2.32198429107666
1780099072324322600,5.373322509765625,0.8373618721961975,-2.163200616836548,-1.7556438446044922
1780099072334314200,5.383314208984375,0.43638914823532104,-1.4610064029693604,-0.8956097960472107
1780099072344306400,5.393306396484375,-0.11846556514501572,-0.4184938371181488,-0.23416796326637268
1780099072354298400,5.40329833984375,-0.5118802785873413,0.40374755859375,0.1337469518184662
1780099072364290300,5.413290283203125,-0.7624338865280151,0.8647788166999817,0.32217517495155334
1780099072374282200,5.4232822265625,-0.9227675795555115,0.9781214594841003,0.41837844252586365
1780099072384274200,5.433274169921875,-1.0297621488571167,0.9116483926773071,0.4995731711387634
1780099072394266400,5.443266357421875,-1.0922787189483643,0.9065587520599365,0.7097657322883606
1780099072404258300,5.45325830078125,-1.0635673999786377,0.7911797165870667,1.023114800453186
1780099072414251300,5.463251220703125,-0.9249427914619446,0.5813315510749817,1.2446086406707764
1780099072424243500,5.473243408203125,-0.6484163999557495,0.7066125273704529,1.1928242444992065
1780099072434235400,5.4832353515625,-0.22662316262722015,1.048707127571106,0.8728584051132202
1780099072444227600,5.4932275390625,0.2333417683839798,0.8734188675880432,0.5541459321975708
1780099072454219300,5.50321923828125,0.7505235075950623,-0.5547922253608704,0.4885264039039612
1780099072464211500,5.51321142578125,1.1423892974853516,-1.0273120403289795,0.426821231842041
1780099072474203400,5.523203369140625,1.072415828704834,0.0719325840473175,0.05672704800963402
1780099072484195600,5.533195556640625,0.772869884967804,0.875434935092926,-0.40188342332839966
1780099072494187300,5.543187255859375,0.6245514154434204,1.1707438230514526,-0.6074810028076172
1780099072504179200,5.55317919921875,0.6455144882202148,1.1021658182144165,-0.6986061334609985
1780099072514171400,5.56317138671875,0.7513890266418457,0.9028096795082092,-0.7536441683769226
1780099072524163300,5.573163330078125,0.8197092413902283,0.5992029309272766,-0.7630155682563782
1780099072534155300,5.5831552734375,0.7901372909545898,0.13898371160030365,-0.7226434350013733
1780099072544147200,5.593147216796875,0.7267149686813354,-0.4559797942638397,-0.6350419521331787
1780099072554139400,5.603139404296875,0.7004969716072083,-1.0794264078140259,-0.4998684227466583
1780099072564131300,5.61313134765625,0.6648207306861877,-1.5695664882659912,-0.31344953179359436
1780099072574123300,5.623123291015625,0.513147234916687,-1.7904108762741089,-0.08742879331111908
1780099072584115200,5.633115234375,0.21806949377059937,-1.7987027168273926,0.1849912852048874
1780099072594107400,5.643107421875,-0.1517105996608734,-1.5252954959869385,0.5055904388427734
1780099072604099300,5.653099365234375,-0.5009287595748901,-0.8122751712799072,0.8799569010734558
1780099072614091500,5.663091552734375,-0.8402795195579529,0.24392901360988617,1.313356876373291
1780099072624083200,5.673083251953125,-1.1382014751434326,1.1854193210601807,1.869616150856018
1780099072634076400,5.683076416015625,-1.2948782444000244,1.877185344696045,2.667236566543579
1780099072644068400,5.693068359375,-1.2643005847930908,2.5321004390716553,3.36067795753479
1780099072654060300,5.703060302734375,-1.1649397611618042,2.952849864959717,3.6444270610809326
1780099072664052200,5.71305224609375,-1.103937029838562,3.0432851314544678,3.5915687084198
1780099072674044400,5.72304443359375,-1.0431774854660034,3.006157398223877,3.4881515502929688
1780099072684036400,5.733036376953125,-0.9352776408195496,2.8698997497558594,3.4644815921783447
1780099072694028300,5.7430283203125,-0.7583625316619873,2.549208402633667,3.4227638244628906
1780099072704020200,5.753020263671875,-0.5455580949783325,2.000220537185669,3.1755192279815674
1780099072714012400,5.763012451171875,-0.3182883560657501,1.3047009706497192,2.602245569229126
1780099072724004400,5.77300439453125,-0.048644088208675385,0.577415406703949,1.7657406330108643
1780099072733996300,5.782996337890625,0.30419737100601196,-0.07962757349014282,0.8842967748641968
1780099072743988200,5.79298828125,0.6495521068572998,-0.5843695998191833,0.18291737139225006
1780099072753980400,5.80298046875,0.8565041422843933,-0.9498419165611267,-0.2100020796060562
1780099072763972400,5.812972412109375,0.9372996687889099,-1.1825121641159058,-0.3166252076625824
1780099072773964300,5.82296435546875,0.906075656414032,-1.191879391670227,-0.2302539050579071
1780099072783956200,5.832956298828125,0.8054515719413757,-0.9849979877471924,0.03846995532512665
1780099072793948400,5.842948486328125,0.6944372653961182,-0.5239313840866089,0.5156750679016113
1780099072803940400,5.8529404296875,0.6180490255355835,0.10955949872732162,1.119606852531433
1780099072813932500,5.8629326171875,0.5692110061645508,0.6646474599838257,1.6758389472961426
1780099072823924700,5.8729248046875,0.5193182826042175,0.8876187801361084,2.0322165489196777
1780099072833916700,5.882916748046875,0.48153191804885864,0.8157975673675537,2.2148141860961914
1780099072843908900,5.892908935546875,0.4593352675437927,0.5428877472877502,2.2270357608795166
1780099072853901600,5.902901611328125,0.44891130924224854,0.22624988853931427,2.0486867427825928
1780099072863893800,5.912893798828125,0.44604921340942383,0.030050013214349747,1.6552304029464722
1780099072873885700,5.9228857421875,0.45305135846138,0.013076293282210827,1.0842704772949219
1780099072883877600,5.932877685546875,0.47758013010025024,0.17561088502407074,0.4920276701450348
1780099072893869600,5.94286962890625,0.5025757551193237,0.37099289894104004,0.049487531185150146
1780099072903861800,5.95286181640625,0.5001221895217896,0.5170376896858215,-0.1551779955625534
1780099072913853700,5.962853759765625,0.49468156695365906,0.6272270083427429,-0.21982121467590332
1780099072923846000,5.972845947265625,0.46835488080978394,0.6851086616516113,-0.2648222744464874
1780099072933837600,5.982837646484375,0.335987389087677,0.6202072501182556,-0.3199019432067871
1780099072943829800,5.992829833984375,0.10153175890445709,0.4382734000682831,-0.33527156710624695
1780099072953821700,6.00282177734375,-0.17343589663505554,0.09213469177484512,-0.2004760056734085
1780099072963814000,6.01281396484375,-0.4153105616569519,-0.3662762939929962,0.16472913324832916
1780099072973805600,6.0228056640625,-0.5569541454315186,-0.7707472443580627,0.6270334124565125
1780099072983797800,6.0327978515625,-0.6461586356163025,-0.978603184223175,1.0191302299499512
1780099072993789700,6.042789794921875,-0.7737168073654175,-0.9166763424873352,1.2039028406143188
1780099073003782000,6.052781982421875,-0.8649924397468567,-0.6194872856140137,1.0919880867004395
1780099073013773600,6.062773681640625,-0.8046075105667114,-0.17528298497200012,0.624727189540863
1780099073023765800,6.072765869140625,-0.6079373359680176,0.3004590570926666,-0.12168972194194794
1780099073033757700,6.0827578125,-0.37707242369651794,0.5578886866569519,-0.9973300099372864
1780099073043750700,6.092750732421875,-0.21237003803253174,0.4104589521884918,-1.842461347579956
1780099073053742600,6.10274267578125,-0.15526072680950165,0.10588851571083069,-2.5437169075012207
1780099073063734800,6.11273486328125,-0.21768681704998016,-0.0941510945558548,-3.0919864177703857
1780099073073726700,6.122726806640625,-0.3633110821247101,-0.19712978601455688,-3.5040175914764404
1780099073083718700,6.13271875,-0.5895074605941772,-0.33034855127334595,-3.7400383949279785
1780099073093710600,6.142710693359375,-0.8711451888084412,-0.38316047191619873,-3.7418525218963623
1780099073103702800,6.152702880859375,-1.1131328344345093,-0.20134086906909943,-3.4369702339172363
1780099073113694700,6.16269482421875,-1.1920894384384155,0.15522630512714386,-2.9454517364501953
1780099073123687000,6.17268701171875,-1.1181308031082153,0.5836242437362671,-2.4493603706359863
1780099073133678600,6.1826787109375,-0.9498228430747986,0.9069933295249939,-2.015324354171753
1780099073143670800,6.1926708984375,-0.6542451977729797,0.8911480903625488,-1.726088523864746
1780099073153662700,6.202662841796875,-0.24804875254631042,0.3382209837436676,-1.6916323900222778
1780099073163655000,6.212655029296875,0.15594318509101868,-0.480526864528656,-1.8903329372406006
1780099073173646600,6.222646484375,0.4075888395309448,-1.0224637985229492,-2.2382092475891113
1780099073183638800,6.232638671875,0.4710913896560669,-1.0319569110870361,-2.572875499725342
1780099073193630700,6.242630615234375,0.377918004989624,-0.6076945066452026,-2.727447032928467
1780099073203623000,6.252622802734375,0.20753374695777893,-0.16886761784553528,-2.670412302017212
1780099073213614600,6.262614501953125,0.1290976107120514,0.2741590440273285,-2.5007150173187256
1780099073223606800,6.272606689453125,0.18283994495868683,0.6683756113052368,-2.2519872188568115
1780099073233598700,6.2825986328125,0.2640042304992676,0.9102890491485596,-1.9849433898925781
1780099073243591700,6.292591796875,0.28933224081993103,0.9761855006217957,-1.7148977518081665
1780099073253583600,6.30258349609375,0.2053876519203186,0.7008259296417236,-1.48527991771698
1780099073263575800,6.312575927734375,-0.01222376897931099,0.05067027732729912,-1.2863218784332275
1780099073273567700,6.322567626953125,-0.22175616025924683,-0.8041759729385376,-1.1032631397247314
1780099073283559700,6.3325595703125,-0.3435070812702179,-1.706135630607605,-1.003916621208191
1780099073293551600,6.342551513671875,-0.33581095933914185,-2.6298439502716064,-1.066171407699585
1780099073303543800,6.352543701171875,-0.21815729141235352,-3.0945048332214355,-1.2731956243515015
1780099073313535700,6.36253564453125,-0.06871858239173889,-2.8540680408477783,-1.5683860778808594
1780099073323528000,6.37252783203125,0.05548405647277832,-2.031282901763916,-1.738699197769165
1780099073333519600,6.38251953125,0.07589761912822723,-0.9439594745635986,-1.6276123523712158
1780099073343511800,6.39251171875,0.05892103165388107,-0.08462586253881454,-1.3204865455627441
1780099073353503700,6.402503662109375,0.049737390130758286,0.3980664610862732,-0.9186295866966248
1780099073363496000,6.412495849609375,0.06690599024295807,0.5239014029502869,-0.4957351088523865
1780099073373487600,6.422487548828125,0.07342633605003357,0.4451541602611542,-0.06715546548366547
1780099073383479800,6.432479736328125,0.028456464409828186,0.22543324530124664,0.3525019884109497
1780099073393471700,6.4424716796875,-0.04145631939172745,-0.06920518726110458,0.7334766387939453
1780099073403464000,6.4524638671875,-0.09874384105205536,-0.32179030776023865,1.062079906463623
1780099073413455600,6.46245556640625,-0.1412092000246048,-0.5184712409973145,1.3393205404281616
1780099073423447800,6.47244775390625,-0.12853547930717468,-0.6419463157653809,1.5887264013290405
1780099073433439700,6.482439697265625,-0.03816963732242584,-0.7824928760528564,1.8319318294525146
1780099073443432700,6.4924326171875,0.09243151545524597,-0.9337652325630188,2.079252243041992
1780099073453424600,6.502424560546875,0.21985451877117157,-1.2404478788375854,2.2711305618286133
1780099073463416800,6.512416748046875,0.32104772329330444,-1.81565260887146,2.36277174949646
1780099073473408800,6.52240869140625,0.40638384222984314,-2.666991949081421,2.2627391815185547
1780099073483400700,6.532400634765625,0.43751779198646545,-3.5337133407592773,1.5918909311294556
1780099073493392600,6.542392578125,0.3481237292289734,-2.7357935905456543,-0.9766866564750671
1780099073503384800,6.552384765625,0.5827860236167908,-2.209904909133911,-3.057675838470459
1780099073513376800,6.562376708984375,1.0493077039718628,-2.615234136581421,-2.9110398292541504
1780099073523369000,6.572368896484375,0.9373359084129333,-2.104043960571289,-1.6282997131347656
1780099073533360600,6.582360595703125,0.24832628667354584,-0.6397804021835327,-0.3723945617675781
1780099073543352800,6.592352783203125,-0.38558539748191833,0.709865927696228,0.40857556462287903
1780099073553344800,6.6023447265625,-0.7138466835021973,1.4413695335388184,0.7206702828407288
1780099073563337000,6.6123369140625,-0.9433866739273071,1.5816973447799683,0.7856698036193848
1780099073573328600,6.62232861328125,-1.1281447410583496,1.3684343099594116,0.8214922547340393
1780099073583320600,6.632320556640625,-1.2260340452194214,1.0613758563995361,0.9397392272949219
1780099073593312800,6.642312744140625,-1.1538249254226685,0.6752831935882568,1.0801429748535156
1780099073603304700,6.6523046875,-0.9227003455162048,0.2649371922016144,1.0978423357009888
1780099073613296600,6.662296630859375,-0.6530420780181885,-0.07729160040616989,0.7980068325996399
1780099073623288600,6.67228857421875,-0.3871845304965973,-0.1452607959508896,0.25108495354652405
1780099073633281800,6.68228173828125,-0.13902124762535095,0.10246812552213669,-0.27246391773223877
1780099073643273700,6.692273681640625,0.06859906017780304,0.24932120740413666,-0.383484423160553
1780099073653265700,6.702265625,0.3835603892803192,-0.23961350321769714,0.2544647753238678
1780099073663257900,6.7122578125,0.4447036385536194,0.32518887519836426,0.48087289929389954
1780099073673249800,6.722249755859375,0.22808267176151276,0.8230650424957275,0.11602634191513062
1780099073683241700,6.73224169921875,0.024550054222345352,0.9884518384933472,-0.261621356010437
1780099073693233700,6.742233642578125,-0.04686960205435753,0.9944112300872803,-0.44421321153640747
1780099073703225600,6.7522255859375,0.014204404316842556,0.9417373538017273,-0.4954814612865448
1780099073713217800,6.7622177734375,0.13414476811885834,0.8765936493873596,-0.48768725991249084
1780099073723209700,6.772209716796875,0.24875763058662415,0.7509047389030457,-0.4254923462867737
1780099073733201700,6.78220166015625,0.3200046122074127,0.5439345836639404,-0.3201933205127716
1780099073743193600,6.792193603515625,0.35450267791748047,0.38879239559173584,-0.19312377274036407
1780099073753185800,6.802185791015625,0.34780997037887573,0.43351566791534424,-0.06285389512777328
1780099073763177700,6.812177734375,0.2668032646179199,0.6145690679550171,0.057021114975214005
1780099073773169700,6.822169677734375,0.14927083253860474,0.9514673352241516,0.19811856746673584
1780099073783161600,6.83216162109375,0.039337407797575,1.3863106966018677,0.39278629422187805
1780099073793153800,6.84215380859375,-0.05553976073861122,1.770612120628357,0.6356257200241089
1780099073803145700,6.852145751953125,-0.18806877732276917,1.910620093345642,0.8949939012527466
1780099073813137700,6.8621376953125,-0.2723539173603058,1.7195932865142822,1.2234582901000977
1780099073823131100,6.872131103515625,-0.2338089495897293,1.3461674451828003,1.6564604043960571
1780099073833123000,6.882123046875,-0.13724017143249512,1.0117801427841187,2.0906176567077637
1780099073843115000,6.892114990234375,-0.06426689773797989,0.766991913318634,2.4364473819732666
1780099073853107000,6.90210693359375,-0.045574963092803955,0.5862373113632202,2.6598427295684814
1780099073863099100,6.91209912109375,-0.06186498701572418,0.4355219006538391,2.7892985343933105
1780099073873091000,6.922091064453125,-0.08176347613334656,0.23392869532108307,2.837097406387329
1780099073883082800,6.932082763671875,-0.09499192982912064,0.001641387352719903,2.8208961486816406
1780099073893075000,6.942074951171875,-0.08090458810329437,-0.20011551678180695,2.74607515335083
1780099073903067000,6.95206689453125,-0.046342883259058,-0.41790029406547546,2.6220932006835938
1780099073913059000,6.96205908203125,0.036846429109573364,-0.7046656608581543,2.469620943069458
1780099073923051000,6.972051025390625,0.18561114370822906,-1.1731226444244385,2.4289581775665283
1780099073933043000,6.98204296875,0.3707886040210724,-1.9277904033660889,2.628204345703125
1780099073943035000,6.992034912109375,0.49308332800865173,-2.6922078132629395,2.897383689880371
1780099073953027000,7.002027099609375,0.52199387550354,-2.9562673568725586,2.9720444679260254
1780099073963019000,7.01201904296875,0.486479789018631,-2.273866891860962,2.6597061157226562
1780099073973011000,7.022010986328125,0.4252748191356659,-0.8888047337532043,1.9992748498916626
1780099073983003000,7.0320029296875,0.3369545638561249,0.6058102250099182,1.3009803295135498
1780099073992995000,7.0419951171875,0.2668786644935608,1.6497668027877808,0.7943115830421448
1780099074002987000,7.051987060546875,0.33267897367477417,2.0983963012695312,0.5549802184104919
1780099074012979000,7.06197900390625,0.49401307106018066,2.054945707321167,0.5538212060928345
1780099074022972000,7.071971923828125,0.6245948076248169,1.5187435150146484,0.7527827620506287
1780099074032964000,7.081964111328125,0.6823111176490784,0.5935571193695068,1.0361855030059814
1780099074042955800,7.091955810546875,0.7095392346382141,-0.26086169481277466,1.1910136938095093
1780099074052948000,7.101947998046875,0.73130202293396,-0.7451215386390686,1.1433310508728027
1780099074062940000,7.11193994140625,0.7266082167625427,-0.8996509313583374,0.965533435344696
1780099074072932000,7.12193212890625,0.6515900492668152,-0.8373395204544067,0.7477263808250427
1780099074082923800,7.131923828125,0.5072988867759705,-0.5653764605522156,0.550762951374054
1780099074092916000,7.141916015625,0.368897944688797,-0.07653176784515381,0.3471798598766327
1780099074102908000,7.151907958984375,0.2601352334022522,0.46645456552505493,0.09150174260139465
1780099074112900000,7.161900146484375,0.16578377783298492,0.8616238236427307,-0.1817786544561386
1780099074122891800,7.171891845703125,0.010603244416415691,0.9397947788238525,-0.3816973865032196
1780099074132884000,7.181884033203125,-0.2117656171321869,0.7459113597869873,-0.4081808924674988
1780099074142876000,7.1918759765625,-0.46435338258743286,0.2605140209197998,-0.17894771695137024
1780099074152868000,7.2018681640625,-0.7317811250686646,-0.39035969972610474,0.18971996009349823
1780099074162860000,7.211860107421875,-0.9711534976959229,-0.8076469302177429,0.40121889114379883
1780099074172852000,7.22185205078125,-0.9850125312805176,-0.753054141998291,0.278049111366272
1780099074182844000,7.231843994140625,-0.7625285983085632,-0.20301207900047302,-0.235434427857399
1780099074192836000,7.241836181640625,-0.4818708002567291,0.39439451694488525,-1.1054627895355225
1780099074202828000,7.251828125,-0.3106604218482971,0.6623990535736084,-2.0895333290100098
1780099074212820000,7.261820068359375,-0.27474477887153625,0.7376667261123657,-2.9713637828826904
1780099074222812000,7.27181201171875,-0.382168710231781,0.9562669992446899,-3.646287679672241
1780099074232805000,7.28180517578125,-0.5933918952941895,1.246525526046753,-4.062325477600098
1780099074242796800,7.291796875,-0.8574382066726685,1.3232232332229614,-4.163130760192871
1780099074252789000,7.3017890625,-1.090664029121399,1.2474708557128906,-3.890432357788086
1780099074262781000,7.311781005859375,-1.1958831548690796,1.1987172365188599,-3.298670530319214
1780099074272773000,7.321773193359375,-1.1667976379394531,1.275431513786316,-2.608562707901001
1780099074282764800,7.331764892578125,-1.1130915880203247,1.3279578685760498,-2.0348286628723145
1780099074292757000,7.341757080078125,-1.047463297843933,1.2551175355911255,-1.640189528465271
1780099074302749000,7.3517490234375,-0.8980128765106201,0.8449012637138367,-1.4896026849746704
1780099074312741000,7.3617412109375,-0.6969415545463562,-0.005278564523905516,-1.670008659362793
1780099074322732800,7.37173291015625,-0.5116076469421387,-0.7725403308868408,-2.0785648822784424
1780099074332725000,7.38172509765625,-0.3367968201637268,-1.1255027055740356,-2.5498785972595215
1780099074342717000,7.391717041015625,-0.13444000482559204,-1.0459461212158203,-2.9051389694213867
1780099074352709000,7.401709228515625,0.15383949875831604,-0.7513762712478638,-3.0102949142456055
1780099074362701000,7.411701171875,0.4362642765045166,-0.40070295333862305,-2.8875505924224854
1780099074372693000,7.42169287109375,0.6166558265686035,-0.12857413291931152,-2.650357484817505
1780099074382685000,7.431684814453125,0.6624810695648193,-0.08236190676689148,-2.405029058456421
1780099074392677000,7.441677001953125,0.5869942307472229,-0.3468133807182312,-2.2020394802093506
1780099074402669000,7.4516689453125,0.38914456963539124,-0.9020798206329346,-2.023844003677368
1780099074412661000,7.461660888671875,0.10845235735177994,-1.430323600769043,-1.8475384712219238
1780099074422653000,7.47165283203125,-0.06957356631755829,-1.8091199398040771,-1.6313952207565308
1780099074432646100,7.481646240234375,-0.10810957849025726,-1.9729907512664795,-1.4122228622436523
1780099074442637800,7.491637939453125,-0.07837165147066116,-1.9494167566299438,-1.214410424232483
1780099074452630000,7.501630126953125,-0.10723620653152466,-1.7179312705993652,-1.031535029411316
1780099074462622000,7.5116220703125,-0.1950789839029312,-1.4189735651016235,-0.9241172671318054
1780099074472614100,7.5216142578125,-0.23640494048595428,-1.2475570440292358,-0.9298253655433655
1780099074482605800,7.531605712890625,-0.1581418216228485,-0.9643694758415222,-0.9433531761169434
1780099074492598000,7.541597900390625,-0.022068798542022705,-0.5457810163497925,-0.8758389353752136
1780099074502590000,7.55158984375,0.11660971492528915,-0.057558897882699966,-0.7009992003440857
1780099074512582100,7.56158203125,0.23552347719669342,0.3682330846786499,-0.4812971353530884
1780099074522573800,7.57157373046875,0.3127426207065582,0.7041064500808716,-0.24449312686920166
1780099074532566000,7.58156591796875,0.30585455894470215,0.884171724319458,-0.02162487804889679
1780099074542558000,7.591557861328125,0.2277541607618332,0.752359926700592,0.18333598971366882
1780099074552550100,7.601550048828125,0.09012746065855026,0.3256184160709381,0.429415225982666
1780099074562542000,7.6115419921875,-0.06413480639457703,-0.10470207780599594,0.7456741333007812
1780099074572534000,7.621533935546875,-0.16916979849338531,-0.44970807433128357,1.1251044273376465
1780099074582526000,7.63152587890625,-0.1570928990840912,-0.8169108033180237,1.5414494276046753
1780099074592518100,7.64151806640625,-0.06023625656962395,-1.2822669744491577,1.9726866483688354
1780099074602510000,7.651510009765625,0.06239378824830055,-1.94334077835083,2.385812520980835
1780099074612502000,7.661501953125,0.18698132038116455,-2.8971333503723145,2.768002510070801
1780099074622494000,7.671493896484375,0.21785001456737518,-4.129531383514404,2.999678373336792
1780099074632486000,7.68148583984375,0.09203591197729111,-5.211535453796387,2.4810268878936768
1780099074642478000,7.69147802734375,-0.16846491396427155,-2.943101644515991,-1.2953338623046875
1780099074652471000,7.701470947265625,0.2530321776866913,-1.848705768585205,-3.027477264404297
1780099074662463000,7.711462890625,0.7471811771392822,-1.565156102180481,-2.4206066131591797
1780099074672455200,7.721455078125,0.5410067439079285,-0.6920920014381409,-1.1807113885879517
1780099074682446800,7.73144677734375,-0.030184324830770493,0.7098247408866882,-0.050615716725587845
1780099074692439000,7.74143896484375,-0.5027580857276917,1.760608196258545,0.6498968005180359
1780099074702431000,7.751430908203125,-0.8744232654571533,2.247042655944824,0.9816955327987671
1780099074712423200,7.761423095703125,-1.1092350482940674,2.211064338684082,1.055932879447937
1780099074722414800,7.771414794921875,-1.2137681245803833,1.9190057516098022,1.0711380243301392
1780099074732407000,7.781406982421875,-1.1640499830245972,1.4593297243118286,1.2062408924102783
1780099074742399000,7.79139892578125,-0.9206716418266296,0.9511115550994873,1.4624041318893433
1780099074752391200,7.80139111328125,-0.4876750707626343,0.730485200881958,1.5218009948730469
1780099074762383000,7.811383056640625,0.014200571924448013,0.7742425203323364,1.0580272674560547
1780099074772374800,7.821374755859375,0.45185717940330505,0.756040096282959,0.2580068111419678
1780099074782367000,7.831366943359375,0.8726856112480164,0.39429333806037903,-0.35816690325737
1780099074792359000,7.84135888671875,1.025783896446228,0.8271570205688477,-0.7462158203125
1780099074802351000,7.85135107421875,0.9454806447029114,0.9510315656661987,-0.9043055772781372
1780099074812342800,7.8613427734375,0.823819100856781,0.6389287114143372,-0.9675449132919312
1780099074822334200,7.871334228515625,0.8246057629585266,0.23871873319149017,-0.9567963480949402
1780099074832326100,7.881326171875,0.8503310084342957,-0.15216420590877533,-0.9126535058021545
1780099074842318300,7.891318359375,0.837453305721283,-0.5790609121322632,-0.8446041345596313
1780099074852310300,7.901310302734375,0.7389404773712158,-1.105710506439209,-0.737098217010498
1780099074862302200,7.91130224609375,0.6325134038925171,-1.6924495697021484,-0.5604270696640015
1780099074872295200,7.921295166015625,0.6064990758895874,-2.2124481201171875,-0.3179242014884949
1780099074882287400,7.931287353515625,0.6273031830787659,-2.5620527267456055,-0.03300433233380318
1780099074892279000,7.941279052734375,0.5859963297843933,-2.6315548419952393,0.27683189511299133
1780099074902271200,7.951271240234375,0.39639607071876526,-2.3108794689178467,0.5949763059616089
1780099074912263200,7.96126318359375,0.08416051417589188,-1.5720442533493042,0.9088746309280396
1780099074922255400,7.97125537109375,-0.3370298445224762,-0.47116050124168396,1.258819580078125
1780099074932247000,7.9812470703125,-0.8102591037750244,0.7670523524284363,1.6549057960510254
1780099074942239200,7.9912392578125,-1.2271311283111572,1.78044855594635,2.1249942779541016
1780099074952231200,8.001231201171874,-1.4706714153289795,2.4893858432769775,2.685255765914917
1780099074962223400,8.011223388671874,-1.4992330074310303,2.997457981109619,3.1808199882507324
1780099074972215300,8.02121533203125,-1.3813843727111816,3.346036911010742,3.503671169281006
1780099074982207200,8.031207275390624,-1.3033148050308228,3.4678335189819336,3.6224327087402344
1780099074992199200,8.04119921875,-1.2710812091827393,3.3859245777130127,3.6094906330108643
1780099075002191400,8.05119140625,-1.1995923519134521,3.105288028717041,3.5710692405700684
1780099075012183300,8.061183349609376,-1.0998159646987915,2.594985008239746,3.659695863723755
1780099075022175200,8.07117529296875,-0.9785268306732178,1.770810842514038,3.860668659210205
1780099075032167200,8.081167236328126,-0.8169681429862976,0.8805898427963257,3.7927536964416504
1780099075042159400,8.091159423828126,-0.5858659148216248,0.27250733971595764,3.170647144317627
1780099075052151300,8.1011513671875,-0.2703542709350586,0.030783092603087425,2.0347676277160645
1780099075062143200,8.111143310546876,0.13436205685138702,-0.02508123777806759,0.7932925820350647
1780099075072135200,8.12113525390625,0.5340644121170044,-0.06915031373500824,-0.14037124812602997
1780099075082127400,8.13112744140625,0.8029360771179199,-0.17164607346057892,-0.6516555547714233
1780099075092119300,8.141119384765625,0.9138858914375305,-0.25005120038986206,-0.7810908555984497
1780099075102111200,8.151111328125,0.9387560486793518,-0.2580729126930237,-0.6127883791923523
1780099075112104200,8.161104248046875,0.8934751152992249,-0.15954411029815674,-0.18564459681510925
1780099075122096400,8.171096435546875,0.8105282783508301,0.07137886434793472,0.43508392572402954
1780099075132088000,8.181088134765625,0.7540216445922852,0.4479629695415497,1.1079546213150024
1780099075142080300,8.191080322265625,0.6879233121871948,0.6618859171867371,1.576979160308838
1780099075152072200,8.201072265625,0.5923779606819153,0.5791877508163452,1.7958033084869385
1780099075162064400,8.211064453125,0.5423816442489624,0.3062419891357422,1.8360764980316162
1780099075172056300,8.221056396484375,0.5598464608192444,-0.034865934401750565,1.7612204551696777
1780099075182048300,8.23104833984375,0.5962790250778198,-0.3530638813972473,1.6012603044509888
1780099075192040200,8.241040283203125,0.5856247544288635,-0.6052903532981873,1.3379303216934204
1780099075202032400,8.251032470703125,0.5302645564079285,-0.7035093307495117,1.0176070928573608
1780099075212024300,8.2610244140625,0.4676285982131958,-0.6176285743713379,0.719804048538208
1780099075222016300,8.271016357421875,0.3947346806526184,-0.3571530282497406,0.4951384663581848
1780099075232008200,8.28100830078125,0.3290388286113739,-0.008808637037873268,0.2930492162704468
1780099075242000400,8.29100048828125,0.2651858329772949,0.28660276532173157,0.04410942643880844
1780099075251992300,8.300992431640625,0.1556248515844345,0.42063796520233154,-0.23088671267032623
1780099075261984300,8.310984375,-0.06587371230125427,0.3193156123161316,-0.41809549927711487
1780099075271976200,8.32097607421875,-0.3545399606227875,0.0011433407198637724,-0.3351042568683624
1780099075281968000,8.330968017578124,-0.5728845596313477,-0.398780882358551,0.06812309473752975
1780099075291960300,8.340960205078124,-0.8082901835441589,-0.6979805827140808,0.5887693762779236
1780099075301952000,8.350951904296876,-1.0683999061584473,-0.701489269733429,1.008134365081787
1780099075311944200,8.360944091796876,-1.2057154178619385,-0.30966728925704956,1.2113065719604492
1780099075321936100,8.37093603515625,-1.1174050569534302,0.2503510117530823,1.0596259832382202
1780099075331928300,8.38092822265625,-0.9196099638938904,0.7403053641319275,0.38172614574432373
1780099075341920300,8.390920166015626,-0.6651188135147095,1.0321108102798462,-0.6800572276115417
1780099075351912200,8.400912109375,-0.3750440180301666,1.2142367362976074,-1.7957119941711426
1780099075361905400,8.410905517578126,-0.195868119597435,1.3650614023208618,-2.7162179946899414
1780099075371897300,8.4208974609375,-0.16121800243854523,1.347568392753601,-3.3819401264190674
1780099075381889300,8.43088916015625,-0.2745027542114258,1.0765018463134766,-3.8220162391662598
1780099075391881200,8.440881103515625,-0.5150686502456665,0.664706289768219,-4.059318542480469
1780099075401873200,8.450873046875,-0.8394193053245544,0.4484640061855316,-4.056682586669922
1780099075411865300,8.460865234375,-1.1217117309570312,0.44619667530059814,-3.7113919258117676
1780099075421857000,8.47085693359375,-1.1924488544464111,0.544231653213501,-3.079969644546509
1780099075431849200,8.48084912109375,-1.1056392192840576,0.7451522946357727,-2.3805174827575684
1780099075441841200,8.490841064453125,-0.9776942729949951,0.9811720252037048,-1.8384757041931152
1780099075451833300,8.500833251953125,-0.8332622647285461,1.1709794998168945,-1.5149339437484741
1780099075461825000,8.510824951171875,-0.6441506743431091,1.0097661018371582,-1.40481436252594
1780099075471817200,8.520817138671875,-0.38551005721092224,0.40913790464401245,-1.565990686416626
1780099075481809200,8.53080908203125,-0.05670767277479172,-0.1428975611925125,-1.9014719724655151
1780099075491801300,8.54080126953125,0.17336112260818481,-0.3226126432418823,-2.2849130630493164
1780099075501793000,8.55079296875,0.34499281644821167,-0.4192582368850708,-2.6071107387542725
1780099075511785200,8.56078515625,0.5186262726783752,-0.5069323778152466,-2.7591705322265625
1780099075521777200,8.570777099609375,0.6770023107528687,-0.6190157532691956,-2.6963396072387695
1780099075531769300,8.580769287109375,0.7615416646003723,-0.9218695163726807,-2.496985912322998
1780099075541761300,8.59076123046875,0.7408590316772461,-1.0962352752685547,-2.294308662414551
1780099075551753200,8.600753173828124,0.7308145761489868,-1.0387725830078125,-2.1164538860321045
1780099075561745200,8.6107451171875,0.6767604351043701,-1.1483062505722046,-1.963323950767517
1780099075571737300,8.6207373046875,0.516751229763031,-1.4594470262527466,-1.7536170482635498
1780099075581729300,8.630729248046874,0.3052632212638855,-1.4258233308792114,-1.5182561874389648
1780099075591721200,8.64072119140625,0.018307259306311607,-1.1879000663757324,-1.3057879209518433
1780099075601713200,8.650713134765626,-0.2336924821138382,-0.7110520005226135,-1.171518325805664
1780099075611705300,8.660705322265626,-0.3353838622570038,-0.014430009759962559,-1.0761991739273071
1780099075621697300,8.670697265625,-0.31087130308151245,0.5903621315956116,-1.0359140634536743
1780099075631690200,8.680690185546876,-0.18761444091796875,0.9497488141059875,-0.9828266501426697
1780099075641682200,8.69068212890625,-0.019084814935922623,1.083461880683899,-0.8715243339538574
1780099075651674400,8.70067431640625,0.12550239264965057,0.978571891784668,-0.7202575206756592
1780099075661666000,8.710666015625,0.2313995212316513,0.7179991602897644,-0.5073780417442322
1780099075671658200,8.720658203125,0.2640780210494995,0.43524613976478577,-0.2360866665840149
1780099075681650200,8.730650146484376,0.20585785806179047,0.24173736572265625,0.06039053201675415
1780099075691642400,8.740642333984376,0.10218920558691025,0.07965090870857239,0.35089796781539917
1780099075701634000,8.750634033203125,0.01693928986787796,-0.09608736634254456,0.6182070970535278
1780099075711626200,8.760626220703125,-0.01886112615466118,-0.3873176872730255,0.8526671528816223
1780099075721618200,8.7706181640625,0.07051535695791245,-0.6694462895393372,1.1319611072540283
1780099075731610400,8.7806103515625,0.26626721024513245,-0.813191831111908,1.4768970012664795
1780099075741602300,8.790602294921875,0.4311451017856598,-0.9041699767112732,1.8270471096038818
1780099075751594200,8.80059423828125,0.5003871321678162,-1.0478601455688477,2.1731009483337402
1780099075761586200,8.810586181640625,0.46981802582740784,-1.3944324254989624,2.550917148590088
1780099075771578400,8.820578369140625,0.356166809797287,-2.1340434551239014,2.961775779724121
1780099075781570300,8.8305703125,0.14990924298763275,-3.2590010166168213,3.1658756732940674
1780099075791562200,8.840562255859375,-0.06442566215991974,-3.795361042022705,2.5870859622955322
1780099075801554200,8.85055419921875,-0.08069917559623718,-1.829408884048462,-0.3087964951992035
1780099075811546400,8.86054638671875,0.44514986872673035,-0.9156621694564819,-2.467932939529419
1780099075821538300,8.870538330078125,0.8038904070854187,-1.4387609958648682,-2.725130796432495
1780099075831530200,8.8805302734375,0.624873161315918,-1.5639930963516235,-2.1708335876464844
1780099075841522400,8.8905224609375,0.17767828702926636,-0.7755171060562134,-1.4227973222732544
1780099075851514400,8.900514404296874,-0.12996846437454224,0.1747797727584839,-0.7471868395805359
1780099075861506600,8.910506591796874,-0.3501091003417969,0.7734493017196655,-0.22637613117694855
1780099075871498200,8.920498291015624,-0.5804935097694397,0.9920945763587952,0.138809472322464
1780099075881490400,8.930490478515624,-0.8234584927558899,0.8645554780960083,0.5057477951049805
1780099075891482400,8.940482421875,-1.0328108072280884,0.5401665568351746,1.0417804718017578
1780099075901474300,8.950474365234374,-1.063372015953064,0.3000549376010895,1.566307544708252
1780099075911466200,8.96046630859375,-0.9322524070739746,0.20737649500370026,1.6557458639144897
1780099075921458200,8.970458251953126,-0.6925442218780518,0.5142959356307983,1.3322138786315918
1780099075931451400,8.980451416015624,-0.4152749478816986,1.0941057205200195,0.778640866279602
1780099075941443300,8.990443359375,-0.13173750042915344,1.4352282285690308,0.3537447452545166
1780099075951435300,9.000435302734376,0.3372938930988312,0.762104332447052,0.5341097116470337
1780099075961427500,9.010427490234376,0.7109396457672119,0.9735233187675476,0.6059761643409729
1780099075971419400,9.02041943359375,0.6823055148124695,1.566028118133545,0.201823890209198
1780099075981411600,9.03041162109375,0.5265859365463257,1.8222415447235107,-0.2703830599784851
1780099075991403300,9.0404033203125,0.45945632457733154,1.7946131229400635,-0.5517967343330383
1780099076001395500,9.0503955078125,0.46602633595466614,1.5138142108917236,-0.714861273765564
1780099076011387400,9.060387451171875,0.49515455961227417,1.047852873802185,-0.8258168697357178
1780099076021379600,9.070379638671875,0.4453204274177551,0.3451666831970215,-0.8575375080108643
1780099076031371300,9.080371337890625,0.3491966128349304,-0.529080331325531,-0.8257424235343933
1780099076041363200,9.09036328125,0.3385453224182129,-1.352495551109314,-0.7454526424407959
1780099076051355400,9.10035546875,0.38104483485221863,-1.975652813911438,-0.6093932390213013
1780099076061347300,9.110347412109375,0.3971012830734253,-2.3550779819488525,-0.3666874170303345
1780099076071339300,9.12033935546875,0.2868415117263794,-2.450774669647217,-0.06178690120577812
1780099076081331200,9.130331298828125,0.10747013241052628,-2.1637678146362305,0.28057605028152466
1780099076091323400,9.140323486328125,-0.12553715705871582,-1.5387909412384033,0.7129960060119629
1780099076101315300,9.1503154296875,-0.43311360478401184,-0.8043819069862366,1.458712100982666
1780099076111307300,9.160307373046875,-0.73701411485672,-0.20331893861293793,2.4065635204315186
1780099076121299200,9.17029931640625,-0.9627822637557983,0.3818467855453491,3.1054928302764893
1780099076131291400,9.18029150390625,-1.141455888748169,1.0517977476119995,3.4148142337799072
1780099076141283300,9.190283447265625,-1.247090220451355,1.784490942955017,3.4274868965148926
1780099076151275500,9.200275634765624,-1.2190632820129395,2.465183973312378,3.33530330657959
1780099076161267200,9.21026708984375,-1.0333133935928345,2.9980342388153076,3.306352376937866
1780099076171259400,9.22025927734375,-0.7569725513458252,3.286121368408203,3.396653413772583
1780099076181251300,9.230251220703124,-0.5030175447463989,3.1765224933624268,3.513256549835205
1780099076191243500,9.240243408203124,-0.3717462718486786,2.5474600791931152,3.4828410148620605
1780099076201235200,9.250235107421876,-0.34210023283958435,1.4740509986877441,3.159087657928467
1780099076211227400,9.260227294921876,-0.3041591942310333,0.31216248869895935,2.5176689624786377
1780099076221219300,9.27021923828125,-0.1302742213010788,-0.6574103236198425,1.7027771472930908
1780099076231211500,9.28021142578125,0.21526946127414703,-1.3331716060638428,0.9048923850059509
1780099076241203200,9.290203125,0.598256528377533,-1.686428189277649,0.27227044105529785
1780099076251195400,9.3001953125,0.8438472151756287,-1.7468971014022827,-0.10118433833122253
1780099076261187300,9.310187255859375,0.8862434029579163,-1.6129506826400757,-0.20638053119182587
1780099076271179500,9.320179443359375,0.7885528206825256,-1.2489272356033325,-0.0738280788064003
1780099076281171200,9.330171142578125,0.6670002937316895,-0.4917857348918915,0.3070601522922516
1780099076291164400,9.340164306640625,0.5061498284339905,0.6600970029830933,0.9426293969154358
1780099076301156400,9.35015625,0.2932282090187073,1.8343724012374878,1.6633141040802002
1780099076311148300,9.360148193359375,0.10974673926830292,2.3311471939086914,2.187415599822998
1780099076321140200,9.37014013671875,0.051056258380413055,2.0871684551239014,2.4536821842193604
1780099076331132400,9.38013232421875,0.15481163561344147,1.4045838117599487,2.4729697704315186
1780099076341124400,9.390124267578125,0.33183595538139343,0.5159198045730591,2.239140033721924
1780099076351116500,9.400116455078125,0.5248068571090698,-0.39457666873931885,1.7878769636154175
1780099076361108200,9.410108154296875,0.6810536980628967,-1.1144517660140991,1.2357919216156006
1780099076371100400,9.420100341796875,0.7649180293083191,-1.4846432209014893,0.7368454337120056
1780099076381092400,9.43009228515625,0.7602716088294983,-1.3997166156768799,0.4058672785758972
1780099076391084500,9.44008447265625,0.6537312865257263,-0.8298805952072144,0.24389371275901794
1780099076401076200,9.450076171875,0.5042749643325806,0.006949858274310827,0.12655030190944672
1780099076411068400,9.460068359375,0.3292631208896637,0.6905041337013245,-0.015836181119084358
1780099076421060400,9.470060302734375,0.14102612435817719,1.002001166343689,-0.1745840162038803
1780099076431052500,9.480052490234375,-0.05727808177471161,0.9090161919593811,-0.27807414531707764
1780099076441044200,9.490044189453124,-0.2931326925754547,0.4218638837337494,-0.22869622707366943
1780099076451036400,9.500036376953124,-0.48551514744758606,-0.21146608889102936,-0.020766230300068855
1780099076461028400,9.5100283203125,-0.6261306405067444,-0.80815589427948,0.26831912994384766
1780099076471020500,9.5200205078125,-0.7623166441917419,-1.2038087844848633,0.49224627017974854
1780099076481012200,9.53001220703125,-0.9239558577537537,-1.30679190158844,0.5251006484031677
1780099076491004400,9.54000439453125,-1.0647764205932617,-1.1464847326278687,0.271828830242157
1780099076500996400,9.549996337890626,-1.0671969652175903,-0.7231997847557068,-0.3330826461315155
1780099076510988500,9.559988525390626,-0.9494964480400085,-0.1959075927734375,-1.1334037780761719
1780099076520980500,9.56998046875,-0.8514780402183533,0.08789163082838058,-1.8975954055786133
1780099076530972200,9.57997216796875,-0.8473842144012451,0.2097012847661972,-2.4230449199676514
1780099076540964400,9.58996435546875,-0.8329808115959167,0.37767353653907776,-2.610288619995117
1780099076550956300,9.599956298828126,-0.6942371129989624,0.5880634188652039,-2.6873838901519775
1780099076560948500,9.609948486328125,-0.5231908559799194,0.7275062203407288,-2.8741352558135986
1780099076570940200,9.619940185546875,-0.4213075339794159,0.8299335241317749,-3.128589630126953
1780099076580932400,9.629932373046875,-0.4158720076084137,0.987431526184082,-3.3445003032684326
1780099076590924300,9.63992431640625,-0.42368006706237793,1.1201248168945312,-3.451390027999878
1780099076600916500,9.64991650390625,-0.3796481490135193,1.2249555587768555,-3.4183807373046875
1780099076610908200,9.659908203125,-0.12022128701210022,1.021288514137268,-3.3064470291137695
1780099076620900400,9.669900390625,0.25611478090286255,0.47982630133628845,-3.1689984798431396
1780099076630892300,9.679892333984375,0.5190032720565796,-0.251385897397995,-3.0635647773742676
1780099076640884500,9.689884521484375,0.6908639669418335,-0.8545181155204773,-3.0090484619140625
1780099076650876200,9.699876220703125,0.8297998309135437,-1.0604597330093384,-2.973238468170166
1780099076660868400,9.709868408203125,0.9340591430664062,-0.856878936290741,-2.927853584289551
1780099076670860300,9.7198603515625,0.9998726844787598,-0.24294790625572205,-2.8327503204345703
1780099076680852500,9.7298525390625,0.9938480854034424,0.468769907951355,-2.674203634262085
1780099076690845200,9.73984521484375,0.8521305322647095,1.0379184484481812,-2.464337110519409
1780099076700837400,9.74983740234375,0.6324343681335449,1.5413711071014404,-2.1883938312530518
1780099076710829300,9.759829345703125,0.3545427620410919,1.8853617906570435,-1.871795892715454
1780099076720821500,9.769821533203125,0.074698306620121,1.99619722366333,-1.5701433420181274
1780099076730813200,9.779813232421875,-0.14737163484096527,1.7924925088882446,-1.2873042821884155
1780099076740805400,9.789805419921874,-0.2748987078666687,1.4178955554962158,-1.0706238746643066
1780099076750797300,9.79979736328125,-0.3164869546890259,0.7847997546195984,-0.9473390579223633
1780099076760789500,9.80978955078125,-0.29502958059310913,0.047278061509132385,-0.98694908618927
1780099076770781200,9.81978125,-0.20242315530776978,-0.26911643147468567,-1.1666171550750732
1780099076780773400,9.8297734375,-0.0466492734849453,-0.10771635174751282,-1.3763275146484375
1780099076790765300,9.839765380859374,0.1195291131734848,0.33463791012763977,-1.5013999938964844
1780099076800757500,9.849757568359376,0.22044295072555542,0.6942563056945801,-1.515096664428711
1780099076810749200,9.859749267578126,0.2421005666255951,0.8570302724838257,-1.3893022537231445
1780099076820741400,9.869741455078126,0.1848529875278473,0.8417820930480957,-1.1146442890167236
1780099076830736400,9.879736328125,0.14083567261695862,0.7010324001312256,-0.706064760684967
1780099076840728600,9.889728515625,0.15105527639389038,0.5256128907203674,-0.2514706254005432
1780099076850720500,9.899720458984374,0.17685648798942566,0.3387865126132965,0.1682150512933731
1780099076860712400,9.90971240234375,0.2091505080461502,0.1585504412651062,0.5573926568031311
1780099076870704400,9.919704345703124,0.2400626689195633,-0.008033585734665394,0.9557831287384033
1780099076880696600,9.929696533203124,0.22815993428230286,-0.23052658140659332,1.3660601377487183
1780099076890688500,9.9396884765625,0.16843277215957642,-0.5377540588378906,1.7868337631225586
1780099076900680400,9.949680419921876,0.0828198716044426,-0.8968400359153748,2.227321147918701
1780099076910672400,9.95967236328125,0.026967404410243034,-1.4291359186172485,2.6496293544769287
1780099076920664600,9.96966455078125,0.012820426374673843,-2.3623273372650146,3.0100858211517334
1780099076930656500,9.979656494140626,0.009688037447631359,-3.8252344131469727,3.2252821922302246
1780099076940648400,9.9896484375,-0.05574822798371315,-5.590305805206299,2.882152795791626
1780099076950640400,9.999640380859375,-0.2391129583120346,-4.334402561187744,-0.2082551121711731
1780099076960632600,10.009632568359375,0.1929393857717514,-2.2460973262786865,-2.5885398387908936
1780099076970624500,10.01962451171875,0.8309910297393799,-1.2792073488235474,-2.3130745887756348
1780099076980616400,10.029616455078125,0.6586690545082092,-0.9196833968162537,-1.4104938507080078
1780099076990608400,10.0396083984375,0.023588307201862335,-0.77281653881073,-0.6842537522315979
1780099077000600600,10.0496005859375,-0.4645640552043915,-0.5296902060508728,-0.17266717553138733
1780099077010592500,10.059592529296875,-0.7823153138160706,-0.20027032494544983,0.19812962412834167
1780099077020584700,10.069584716796875,-0.9680784940719604,0.065455362200737,0.4968548119068146
1780099077030576400,10.079576416015625,-0.9988633990287781,0.43619439005851746,0.6954898834228516
1780099077040568600,10.089568603515625,-0.901583731174469,1.0758696794509888,0.8333755731582642
1780099077050560500,10.099560546875,-0.724372923374176,1.6667256355285645,0.934055507183075
1780099077060552700,10.109552734375,-0.4093894362449646,1.979396939277649,0.9742923974990845
1780099077070544400,10.11954443359375,0.016159575432538986,1.185426115989685,0.862233579158783
1780099077080536300,10.129536376953125,0.6420655846595764,-1.1090575456619263,0.5145408511161804
1780099077090528500,10.139528564453125,1.3540303707122803,-1.0953994989395142,0.03901973366737366
1780099077100520400,10.1495205078125,1.7105026245117188,1.1145343780517578,-0.3756107687950134
1780099077110512400,10.159512451171874,1.6153331995010376,2.288723945617676,-0.7654348611831665
1780099077120504300,10.16950439453125,1.3482176065444946,2.247316360473633,-0.9847882390022278
1780099077130496500,10.17949658203125,1.241747498512268,1.8153305053710938,-1.0274242162704468
1780099077140488400,10.189488525390624,1.209389090538025,1.284477710723877,-0.963088870048523
1780099077150480400,10.19948046875,1.135352373123169,0.5667218565940857,-0.8436157703399658
1780099077160472300,10.209472412109376,0.9681639671325684,-0.41183459758758545,-0.6896581649780273
1780099077170464500,10.219464599609376,0.7031937837600708,-1.6108713150024414,-0.4706370234489441
1780099077180456400,10.22945654296875,0.40926042199134827,-2.7306268215179443,-0.18617038428783417
1780099077190448600,10.23944873046875,0.11445118486881256,-3.632601022720337,0.21631048619747162
1780099077200440300,10.2494404296875,-0.09933619946241379,-4.128231525421143,0.6585063338279724
1780099077210432500,10.2594326171875,-0.1725253462791443,-4.192770481109619,1.0855507850646973
1780099077220424400,10.269424560546875,-0.17359913885593414,-3.716094970703125,1.5245726108551025
1780099077230416600,10.279416748046875,-0.3717213273048401,-2.4968247413635254,2.2918450832366943
1780099077240408300,10.289408203125,-0.8151317238807678,-0.4568147361278534,3.301389455795288
1780099077250400500,10.299400390625,-1.2861833572387695,1.3796957731246948,3.851348876953125
1780099077260392400,10.309392333984375,-1.7300479412078857,2.7404351234436035,3.827188014984131
1780099077270384600,10.319384521484375,-2.1181538105010986,3.697070360183716,3.5096912384033203
1780099077280377300,10.32937744140625,-2.3282840251922607,4.268204212188721,3.2446134090423584
1780099077290368500,10.339368408203125,-2.2400710582733154,4.592788219451904,3.2345333099365234
1780099077300360400,10.3493603515625,-1.8979119062423706,4.894320964813232,3.474853515625
1780099077310353400,10.359353515625,-1.5362660884857178,4.70997428894043,3.633859157562256
1780099077320345300,10.369345458984375,-1.2205978631973267,3.706923723220825,3.5727076530456543
1780099077330337500,10.379337646484375,-0.9273310899734497,2.1362149715423584,3.2725701332092285
1780099077340329500,10.38932958984375,-0.6061365604400635,0.4299502372741699,2.6384074687957764
1780099077350321400,10.3993212890625,-0.2139214128255844,-0.9431428909301758,1.7474851608276367
1780099077360313300,10.409313232421875,0.1869162917137146,-1.6469873189926147,0.8745424151420593
1780099077370305500,10.419305419921875,0.4720832109451294,-1.8108038902282715,0.23041991889476776
1780099077380297500,10.42929736328125,0.6042132377624512,-1.6397814750671387,-0.08833063393831253
1780099077390289700,10.43928955078125,0.6381934285163879,-1.243862509727478,-0.08198924362659454
1780099077400281300,10.44928125,0.6236440539360046,-0.6778401732444763,0.2494203746318817
1780099077410273500,10.4592734375,0.5329278707504272,-0.1301964819431305,0.8962348699569702
1780099077420265500,10.469265380859374,0.34840378165245056,0.08709084242582321,1.6520349979400635
1780099077430257700,10.479257568359374,0.22442393004894257,-0.09518630802631378,2.1171369552612305
1780099077440249300,10.489249267578124,0.20683853328227997,-0.20018303394317627,2.1476857662200928
1780099077450241500,10.499241455078124,0.20005524158477783,-0.07634274661540985,1.838245153427124
1780099077460233500,10.5092333984375,0.26777222752571106,0.10943830758333206,1.3639137744903564
1780099077470225700,10.5192255859375,0.4135982394218445,0.30074700713157654,0.9001257419586182
1780099077480217300,10.52921728515625,0.5363971590995789,0.3247370421886444,0.5587435960769653
1780099077490209500,10.53920947265625,0.5722039937973022,0.1950153112411499,0.36923861503601074
1780099077500201500,10.549201416015626,0.5609449744224548,0.07203612476587296,0.3298850655555725
1780099077510193700,10.559193603515626,0.5122289061546326,0.061082832515239716,0.37470996379852295
1780099077520185300,10.569185302734375,0.40507104992866516,0.17877565324306488,0.4315785765647888
1780099077530177500,10.579177490234375,0.25646090507507324,0.41248080134391785,0.4584442973136902
1780099077540169500,10.58916943359375,0.10971301048994064,0.724511444568634,0.45612335205078125
1780099077550161400,10.599161376953125,0.00030921492725610733,1.0064395666122437,0.4391053318977356
1780099077560153600,10.609153564453125,-0.052202727645635605,1.117823839187622,0.41732385754585266
1780099077570145300,10.619145263671875,0.008673871867358685,1.0738478899002075,0.35779133439064026
1780099077580137500,10.629137451171875,0.13945052027702332,1.0570141077041626,0.20520392060279846
1780099077590129400,10.63912939453125,0.26306068897247314,1.0291541814804077,0.011447645723819733
1780099077600121600,10.64912158203125,0.3192283511161804,0.8711661696434021,-0.1344190090894699
1780099077610113300,10.65911328125,0.282509982585907,0.5501223206520081,-0.1793077141046524
1780099077620105500,10.66910546875,0.21758104860782623,0.02102942205965519,-0.046860720962285995
1780099077630097400,10.679097412109375,0.1519346684217453,-0.638645350933075,0.21928566694259644
1780099077640089600,10.689089599609375,0.04584765434265137,-1.2210397720336914,0.48818743228912354
1780099077650081300,10.699081298828125,-0.09803842008113861,-1.5163252353668213,0.6574037075042725
1780099077660073500,10.709073486328125,-0.2109159678220749,-1.4720017910003662,0.705785870552063
1780099077670065400,10.7190654296875,-0.2602209150791168,-1.0799254179000854,0.6022698283195496
1780099077680057600,10.7290576171875,-0.2504825294017792,-0.4025944173336029,0.23416052758693695
1780099077690049500,10.739049560546874,-0.15088658034801483,0.40228310227394104,-0.42046087980270386
1780099077700041500,10.74904150390625,0.021236445754766464,1.0391660928726196,-1.212685465812683
1780099077710033400,10.759033447265624,0.17110462486743927,1.1957911252975464,-1.9629747867584229
1780099077720025600,10.769025634765624,0.21113140881061554,0.8772541284561157,-2.5882375240325928
1780099077730017500,10.779017578125,0.1383480578660965,0.4253249168395996,-3.0694613456726074
1780099077740009500,10.789009521484376,-0.035432517528533936,-0.021553782746195793,-3.4450273513793945
1780099077750001400,10.79900146484375,-0.33274680376052856,-0.41905689239501953,-3.641381025314331
1780099077759993600,10.80899365234375,-0.7176724076271057,-0.7033125758171082,-3.570899724960327
1780099077769985500,10.818985595703126,-1.0792887210845947,-0.8322473168373108,-3.236144542694092
1780099077779977500,10.8289775390625,-1.261294960975647,-0.666050910949707,-2.7728989124298096
1780099077789969400,10.838969482421875,-1.282985806465149,-0.2457219362258911,-2.333564519882202
1780099077799961600,10.848961669921875,-1.21415376663208,0.2556394636631012,-2.003108024597168
1780099077809953500,10.85895361328125,-1.0857903957366943,0.5610063672065735,-1.8249397277832031
1780099077819945500,10.868945556640625,-0.7277222871780396,0.31610262393951416,-1.8447972536087036
1780099077829934600,10.8789345703125,-0.1205795556306839,-0.49338406324386597,-2.0733182430267334
1780099077839926800,10.8889267578125,0.46139171719551086,-1.1686288118362427,-2.40164852142334
1780099077849918700,10.898918701171874,0.6792764663696289,-1.2105385065078735,-2.78910493850708
1780099077859910400,10.908910400390624,0.5485581755638123,-0.6676797270774841,-3.1528799533843994
1780099077869902600,10.918902587890624,0.3356362581253052,-0.08465491235256195,-3.304192066192627
1780099077879894500,10.92889453125,0.19394652545452118,0.3631817102432251,-3.1758832931518555
1780099077889886700,10.93888671875,0.2293778955936432,0.981744647026062,-2.8239381313323975
1780099077899878400,10.94887841796875,0.4046911299228668,1.6638853549957275,-2.3747799396514893
1780099077909870600,10.95887060546875,0.566281259059906,2.130143404006958,-1.9784996509552002
1780099077919862500,10.968862548828126,0.5755847096443176,2.345174789428711,-1.6839553117752075
1780099077929854700,10.978854736328126,0.34045758843421936,2.1615962982177734,-1.4228750467300415
1780099077939846400,10.988846435546876,0.04909978061914444,1.518045425415039,-1.103066086769104
1780099077949838600,10.998838623046876,-0.18978770077228546,0.7069185972213745,-0.8277183175086975
1780099077959830500,11.00883056640625,-0.2952297031879425,-0.3975887894630432,-0.627581775188446
1780099077969822700,11.01882275390625,-0.2697235643863678,-1.538605809211731,-0.564250648021698
1780099077979814700,11.028814697265625,-0.11988426744937897,-2.1389729976654053,-0.6543757319450378
1780099077989806600,11.038806640625,0.04704943299293518,-2.0651063919067383,-0.9365270137786865
1780099077999798500,11.048798583984375,0.1935960054397583,-1.3098556995391846,-1.323669672012329
1780099078009790700,11.058790771484375,0.28548604249954224,-0.30676230788230896,-1.4798909425735474
1780099078019782700,11.06878271484375,0.3219362199306488,0.4951556921005249,-1.3972197771072388
1780099078029774600,11.078774658203125,0.3187811076641083,0.853337824344635,-1.1731550693511963
1780099078039766500,11.0887666015625,0.2940981388092041,0.8309893608093262,-0.8599563837051392
1780099078049758700,11.0987587890625,0.2398800104856491,0.6001780033111572,-0.47111397981643677
1780099078059750700,11.108750732421875,0.18706020712852478,0.23651477694511414,-0.04543990641832352
1780099078069742600,11.11874267578125,0.1414501816034317,-0.1893816590309143,0.38383495807647705
1780099078079734500,11.128734619140625,0.10732656717300415,-0.5958002805709839,0.8031869530677795
1780099078089726700,11.138726806640625,0.10704879462718964,-0.9641051888465881,1.2233155965805054
1780099078099718700,11.14871875,0.15463495254516602,-1.343018651008606,1.634264588356018
1780099078109710600,11.158710693359374,0.21249768137931824,-1.7333866357803345,2.0232887268066406
1780099078119702500,11.16870263671875,0.2170945703983307,-2.1997501850128174,2.3883168697357178
1780099078129694700,11.17869482421875,0.14351750910282135,-2.805417537689209,2.721031665802002
1780099078139686700,11.188686767578124,0.022991366684436798,-3.62343168258667,2.9437386989593506
1780099078149678600,11.1986787109375,-0.12227942049503326,-4.303487300872803,2.7734732627868652
1780099078159670500,11.20867041015625,-0.25942447781562805,-2.792182683944702,1.136459469795227
1780099078169662700,11.218662841796874,-0.06562358140945435,-0.14375194907188416,-1.584380865097046
1780099078179654700,11.228654541015626,0.4571293592453003,-0.4321078360080719,-2.4622092247009277
1780099078189646800,11.238646728515626,0.4417172372341156,-1.5163573026657104,-2.1865580081939697
1780099078199638500,11.248638427734376,0.007624105550348759,-1.6784029006958008,-1.63694167137146
1780099078209630500,11.25863037109375,-0.3903842568397522,-0.9226415753364563,-1.0373165607452393
1780099078219622700,11.26862255859375,-0.6795986890792847,-0.10698619484901428,-0.5429790616035461
1780099078229614600,11.278614501953125,-0.970109760761261,0.34243136644363403,-0.23314112424850464
1780099078239606500,11.2886064453125,-1.1925255060195923,0.47487542033195496,-0.02963966503739357
1780099078249598500,11.298598388671875,-1.3027281761169434,0.5608718991279602,0.25389474630355835
1780099078259590700,11.308590576171875,-1.2292699813842773,0.7239486575126648,0.6400728225708008
1780099078269582600,11.31858251953125,-0.9240593910217285,1.0240007638931274,0.8373988270759583
1780099078279574500,11.328574462890625,-0.4840357303619385,1.5208231210708618,0.706520676612854
1780099078289566500,11.33856640625,-0.04513291269540787,1.4700278043746948,0.46464329957962036
1780099078299558700,11.34855859375,0.6446436643600464,-1.209872841835022,0.4689970314502716
1780099078309550600,11.358550537109375,1.241209864616394,-1.0735636949539185,0.41887176036834717
1780099078319542500,11.36854248046875,1.2241666316986084,0.7057514190673828,0.032742179930210114
1780099078329534500,11.378534423828125,0.9485092759132385,1.651642918586731,-0.40314027667045593
1780099078339526700,11.388526611328125,0.8060221672058105,1.8460922241210938,-0.6623576879501343
1780099078349518600,11.3985185546875,0.7894924879074097,1.6412055492401123,-0.7627355456352234
1780099078359510800,11.4085107421875,0.79334557056427,1.1307865381240845,-0.8060819506645203
1780099078369502500,11.41850244140625,0.7388278841972351,0.3243923485279083,-0.8308477401733398
1780099078379494700,11.42849462890625,0.6158702373504639,-0.7431432008743286,-0.8191226124763489
1780099078389486600,11.438486572265624,0.5467766523361206,-1.831949234008789,-0.7596151232719421
1780099078399478800,11.448478759765624,0.5454690456390381,-2.739410638809204,-0.6289268732070923
1780099078409470500,11.458470458984374,0.5147117376327515,-3.435134172439575,-0.44706791639328003
1780099078419462700,11.468462646484374,0.4584897756576538,-3.786440134048462,-0.20862603187561035
1780099078429454600,11.47845458984375,0.3419340252876282,-3.8421578407287598,0.09029189497232437
1780099078439446800,11.48844677734375,0.07897564768791199,-3.5082249641418457,0.6211003661155701
1780099078449438500,11.4984384765625,-0.43544116616249084,-2.76159930229187,1.6322649717330933
1780099078459430700,11.5084306640625,-1.010507345199585,-1.712233543395996,2.7450366020202637
1780099078469422600,11.518422607421876,-1.4745562076568604,-0.5367774367332458,3.4948244094848633
1780099078479414800,11.528414794921876,-1.8220579624176025,0.7610297203063965,3.788837432861328
1780099078489406500,11.538406494140625,-2.022489309310913,2.1508572101593018,3.750962018966675
1780099078499398700,11.548398681640625,-2.0106492042541504,3.4720890522003174,3.5614688396453857
1780099078509390600,11.558390625,-1.8624701499938965,4.441192626953125,3.471677780151367
1780099078519382800,11.5683828125,-1.6533105373382568,4.826456546783447,3.516655445098877
1780099078529374700,11.578374755859375,-1.4307231903076172,4.45817232131958,3.5928943157196045
1780099078539366700,11.58836669921875,-1.1994115114212036,3.3563992977142334,3.4895222187042236
1780099078549358600,11.598358642578125,-0.9579293727874756,1.8465700149536133,2.9955825805664062
1780099078559350500,11.6083505859375,-0.6467602849006653,0.41860532760620117,2.1149368286132812
1780099078569342700,11.6183427734375,-0.2055453211069107,-0.6408204436302185,1.1084259748458862
1780099078579334400,11.62833447265625,0.20876742899417877,-1.2622547149658203,0.2673057019710541
1780099078589326600,11.63832666015625,0.46176379919052124,-1.5269395112991333,-0.26019784808158875
1780099078599318500,11.648318603515625,0.5656262636184692,-1.5434508323669434,-0.4899306297302246
1780099078609310700,11.658310791015625,0.5606951713562012,-1.2824246883392334,-0.46000903844833374
1780099078619302400,11.668302490234375,0.5090631246566772,-0.7698095440864563,-0.19949890673160553
1780099078629294600,11.678294677734375,0.44692838191986084,-0.03514733165502548,0.3017163574695587
1780099078639286500,11.68828662109375,0.3331528306007385,0.7497570514678955,0.985025942325592
1780099078649278700,11.69827880859375,0.18569433689117432,1.0951467752456665,1.5918480157852173
1780099078659270400,11.7082705078125,0.14331386983394623,0.9648945331573486,1.974412441253662
1780099078669262600,11.7182626953125,0.21336698532104492,0.6609044075012207,2.1140518188476562
1780099078679254500,11.728254638671874,0.3055512309074402,0.3002801835536957,2.038630962371826
1780099078689246700,11.738246826171874,0.4104689359664917,-0.10780753195285797,1.818719506263733
1780099078699238700,11.74823876953125,0.528140127658844,-0.486642986536026,1.530746579170227
1780099078709230600,11.758230712890626,0.5981630086898804,-0.7770764231681824,1.2106434106826782
1780099078719222500,11.768222412109376,0.6039630770683289,-0.8737683296203613,0.9029110670089722
1780099078729214700,11.778214599609376,0.5863011479377747,-0.6460466384887695,0.6665664911270142
1780099078739206700,11.78820654296875,0.5669074654579163,-0.13001607358455658,0.5339245796203613
1780099078749198600,11.798198486328126,0.5163725018501282,0.4664206802845001,0.5105654001235962
1780099078759190500,11.8081904296875,0.4401248097419739,0.8821012377738953,0.5624725222587585
1780099078769182700,11.8181826171875,0.39299800992012024,1.0376461744308472,0.5393423438072205
1780099078779174700,11.828174560546875,0.36973369121551514,1.0032011270523071,0.3522508144378662
1780099078789166600,11.83816650390625,0.3036336600780487,0.7772347927093506,0.07207784801721573
1780099078799158500,11.848158447265625,0.16986067593097687,0.32389605045318604,-0.15477846562862396
1780099078809150700,11.858150634765625,0.043182190507650375,-0.36072033643722534,-0.1574721783399582
1780099078819142700,11.868142578125,-0.050518736243247986,-1.2223354578018188,0.14776122570037842
1780099078829134300,11.87813427734375,-0.19522227346897125,-1.89678156375885,0.5726437568664551
1780099078839126000,11.8881259765625,-0.4615466296672821,-1.9280641078948975,0.8887876272201538
1780099078849118200,11.8981181640625,-0.7158024907112122,-1.243420958518982,0.9555019736289978
1780099078859110100,11.908110107421875,-0.8119335770606995,-0.09442414343357086,0.6557387113571167
1780099078869102300,11.918102294921875,-0.6815900206565857,1.010650873184204,-0.010871745645999908
1780099078879094000,11.928093994140625,-0.4066692590713501,1.5545437335968018,-0.8584469556808472
1780099078889086200,11.938086181640625,-0.09260585904121399,1.482612133026123,-1.6878658533096313
1780099078899078100,11.948078125,0.17143696546554565,1.1762555837631226,-2.376338005065918
1780099078909070300,11.9580703125,0.2552099823951721,0.9186041355133057,-2.9150426387786865
1780099078919062000,11.96806201171875,0.1921207755804062,0.7034428119659424,-3.326997995376587
1780099078929054200,11.97805419921875,0.06531652808189392,0.4935239553451538,-3.688654899597168
1780099078939046100,11.988046142578124,-0.15506617724895477,0.31401917338371277,-3.9781391620635986
1780099078949038000,11.9980380859375,-0.5097445845603943,0.1949651539325714,-4.105762004852295
1780099078959030300,12.0080302734375,-0.9131532907485962,0.1426636129617691,-3.9880857467651367
1780099078969022000,12.01802197265625,-1.156794786453247,0.2494702786207199,-3.6304688453674316
1780099078979014100,12.02801416015625,-1.2230607271194458,0.5921807289123535,-3.1323814392089844
1780099078989006000,12.038006103515626,-1.203521966934204,0.9888761043548584,-2.6283631324768066
1780099078998998300,12.047998291015626,-1.134818196296692,1.0817927122116089,-2.199887990951538
1780099079008990000,12.057989990234375,-0.9696900844573975,0.2790304124355316,-1.876413106918335
1780099079018982100,12.067982177734375,-0.5883941054344177,-0.916217565536499,-1.7049363851547241
1780099079028974000,12.07797412109375,-0.08495742827653885,-1.7238411903381348,-1.7487707138061523
1780099079038966300,12.08796630859375,0.3177652657032013,-1.7733429670333862,-2.0089755058288574
1780099079048957200,12.097957275390625,0.414109468460083,-1.0463327169418335,-2.467165470123291
1780099079058949000,12.10794921875,0.19057518243789673,-0.05388602241873741,-2.9311439990997314
1780099079068941000,12.117941162109375,0.01628671959042549,0.955644428730011,-3.081634044647217
1780099079078933200,12.127933349609375,0.009645859710872173,2.0866613388061523,-2.921250343322754
1780099079088925200,12.13792529296875,0.17922911047935486,2.9974253177642822,-2.513993978500366
1780099079098917000,12.147917236328125,0.3014668822288513,3.451477289199829,-2.0107686519622803
1780099079108909000,12.157908935546875,0.17980270087718964,2.9189677238464355,-1.467943549156189
1780099079118901200,12.1679013671875,-0.0062420060858130455,1.7060397863388062,-1.0736143589019775
1780099079128893200,12.17789306640625,-0.1904567927122116,0.1323641836643219,-0.7810304760932922
1780099079138885400,12.187885498046874,-0.29517093300819397,-1.4148157835006714,-0.574674129486084
1780099079148877000,12.197876953125,-0.25402238965034485,-2.5616672039031982,-0.5598297119140625
1780099079158869200,12.207869140625,-0.07372398674488068,-2.986814022064209,-0.7434179186820984
1780099079168861200,12.217861083984374,0.1024148240685463,-2.3139302730560303,-1.213321566581726
1780099079178853000,12.22785302734375,0.2583919167518616,-1.1062781810760498,-1.585378646850586
1780099079188845000,12.237844970703126,0.3254818618297577,-0.17041103541851044,-1.716993808746338
1780099079198837000,12.2478369140625,0.30019062757492065,0.21052032709121704,-1.672206163406372
1780099079208829200,12.2578291015625,0.2388882040977478,0.17331109941005707,-1.4837267398834229
1780099079218821000,12.267821044921876,0.16474659740924835,-0.08723313361406326,-1.1800507307052612
1780099079228813000,12.27781298828125,0.08718174695968628,-0.41219010949134827,-0.7478078007698059
1780099079238805000,12.287804931640625,-0.0020115114748477936,-0.7123129367828369,-0.20442523062229156
1780099079248797200,12.297797119140625,-0.1074008047580719,-0.8664536476135254,0.4083538353443146
1780099079258789000,12.3077890625,-0.22118595242500305,-0.8295867443084717,1.0197373628616333
1780099079268781300,12.31778125,-0.2814708352088928,-0.7023476958274841,1.556456446647644
1780099079278773000,12.32777294921875,-0.24798583984375,-0.6415722370147705,1.9776095151901245
1780099079288765200,12.33776513671875,-0.12023074924945831,-0.6513975262641907,2.307129144668579
1780099079298757000,12.347757080078125,0.04676569253206253,-0.7902020215988159,2.555222272872925
1780099079308749300,12.357749267578125,0.19494612514972687,-1.0693144798278809,2.765362501144409
1780099079318741000,12.367740966796875,0.3283012807369232,-1.5406650304794312,2.9057188034057617
1780099079328733200,12.377733154296875,0.4200591742992401,-1.9929202795028687,2.6096091270446777
1780099079338725000,12.38772509765625,0.32617315649986267,-1.0063141584396362,0.9777247309684753
1780099079348717300,12.39771728515625,0.39810696244239807,-0.6062867641448975,-0.8656753301620483
1780099079358709000,12.407708984375,0.7778745293617249,-1.8859511613845825,-1.7227675914764404
1780099079368701200,12.417701171875,0.9949772357940674,-3.09991455078125,-1.6577296257019043
1780099079378693000,12.427693115234375,0.6684080958366394,-2.9678544998168945,-1.2965033054351807
1780099079388685300,12.437685302734375,0.060745902359485626,-1.74751615524292,-0.8802523016929626
1780099079398677000,12.447677001953124,-0.43956857919692993,-0.3790071904659271,-0.47384774684906006
1780099079408669200,12.457669189453124,-0.7509739995002747,0.6458876729011536,-0.059744082391262054
1780099079418661000,12.4676611328125,-1.09840726852417,1.1078146696090698,0.27052250504493713
1780099079428653300,12.4776533203125,-1.4703280925750732,0.9105150699615479,0.5273578763008118
1780099079438645200,12.487645263671874,-1.6286038160324097,0.4279004633426666,0.9307825565338135
1780099079448637200,12.49763720703125,-1.4721299409866333,0.08915433287620544,1.4070110321044922
1780099079458629000,12.507629150390626,-1.087358832359314,0.10676129162311554,1.7041374444961548
1780099079468621300,12.517621337890626,-0.4930574297904968,0.339688241481781,1.6548207998275757
1780099079478613200,12.52761328125,0.2755716145038605,0.20321319997310638,1.275969386100769
