time,seconds_elapsed,z,y,x
1779989087477796400,0.15979638671875,-1.3559681177139282,-0.6224716901779175,-1.6442965269088745
1779989087494112500,0.176112548828125,-0.144622340798378,1.928807020187378,-3.0059151649475098
1779989087510448400,0.192448486328125,0.38408151268959045,1.8698585033416748,-4.134794235229492
1779989087526793500,0.20879345703125,0.16890424489974976,1.3104586601257324,-4.325384140014648
1779989087543130400,0.22513037109375,0,0.7877107262611389,-3.7311649322509766
1779989087559463200,0.241463134765625,-0.18249599635601044,0.46410486102104187,-2.909245729446411
1779989087575798300,0.25779833984375,-0.2646573781967163,0.07773260027170181,-2.246609687805176
1779989087592139800,0.274139892578125,-0.35613444447517395,-0.14187344908714294,-1.754252314567566
1779989087608469000,0.290468994140625,-0.5149593949317932,-0.13897185027599335,-1.3545936346054077
1779989087624791600,0.30679150390625,-0.5476406812667847,0.02275473065674305,-1.006095051765442
1779989087641138400,0.323138427734375,-0.3819434940814972,0.3159700334072113,-0.6774495840072632
1779989087657470200,0.33947021484375,-0.2791654169559479,0.3920227587223053,-0.4079052805900574
1779989087673806000,0.35580615234375,-0.06475171446800232,0.08765916526317596,-0.1563815027475357
1779989087690146600,0.372146484375,0.10659598559141159,-0.3280346393585205,0.07651086896657944
1779989087706477600,0.3884775390625,0.19608774781227112,-0.9330966472625732,0.2863430976867676
1779989087722799400,0.40479931640625,0.2591595947742462,-1.8686367273330688,0.5494732856750488
1779989087739146500,0.421146484375,0.29626965522766113,-2.71880841255188,0.9476047158241272
1779989087755470000,0.437469970703125,0.48579058051109314,-3.8253908157348633,1.2942707538604736
1779989087771817500,0.4538173828125,0.68325275182724,-5.03047513961792,1.8686367273330688
1779989087788152000,0.470152099609375,1.2079859972000122,-6.739829063415527,2.877786159515381
1779989087804488000,0.486488037109375,1.6647604703903198,-8.454833030700684,4.062406539916992
1779989087820817200,0.502817138671875,1.5777121782302856,-9.58859920501709,4.924643039703369
1779989087837155600,0.519155517578125,1.2602150440216064,-9.969015121459961,5.157993316650391
1779989087853491500,0.535491455078125,1.250288486480713,-9.878301620483398,5.128213882446289
1779989087869827800,0.551827880859375,1.7285959720611572,-9.158550262451172,5.170210838317871
1779989087886161200,0.5681611328125,2.3289237022399902,-7.590764045715332,4.855920314788818
1779989087902496500,0.58449658203125,3.149468421936035,-6.17554235458374,4.347833156585693
1779989087918831600,0.60083154296875,3.726583480834961,-4.916090965270996,3.631746530532837
1779989087935168500,0.61716845703125,3.473227024078369,-3.7358992099761963,2.4663684368133545
1779989087951499500,0.63349951171875,2.4666738510131836,-2.8344147205352783,1.8976528644561768
1779989087967836400,0.64983642578125,1.5271631479263306,-2.082439661026001,2.029752492904663
1779989087984168200,0.666168212890625,1.2838860750198364,-1.4578299522399902,2.356412649154663
1779989088000509400,0.682509521484375,1.5402966737747192,-0.6801984310150146,2.166738986968994
1779989088016840200,0.698840087890625,1.8393152952194214,0.3724750876426697,1.3171781301498413
1779989088033176000,0.715176025390625,1.9068158864974976,1.273043155670166,0.5751296281814575
1779989088049512000,0.731511962890625,1.6019941568374634,0.6337726712226868,0.8651378750801086
1779989088065830700,0.74783056640625,1.5732834339141846,0.7102835774421692,1.4700472354888916
1779989088082179000,0.764178955078125,1.0656543970108032,0.13897185027599335,2.0722076892852783
1779989088098515000,0.780514892578125,0.5334380865097046,-0.07254024595022202,2.562732458114624
1779989088114848500,0.7968486328125,1.1186469793319702,1.4246904850006104,1.758681058883667
1779989088131187500,0.8131875,1.0971139669418335,3.0912835597991943,0.6820310354232788
1779989088147519700,0.829519775390625,0.8289441466331482,4.343557357788086,0.5392413139343262
1779989088163854800,0.845854736328125,0.8713992834091187,4.66090202331543,0.7116580009460449
1779989088180189400,0.862189453125,0.8700248003005981,3.924656391143799,1.6540703773498535
1779989088196525800,0.87852587890625,1.112385630607605,2.7151432037353516,2.7766878604888916
1779989088212847900,0.894847900390625,1.2980886697769165,1.9138407707214355,3.7502543926239014
1779989088229194200,0.9111943359375,1.5222761631011963,1.6417003870010376,3.9258782863616943
1779989088245527800,0.92752783203125,1.244943380355835,0.7151705026626587,3.684586524963379
1779989088261865000,0.943864990234375,0.7107416987419128,-2.0146336555480957,3.6308302879333496
1779989088278198000,0.960197998046875,1.5082262754440308,-2.763096332550049,2.2797491550445557
1779989088294530600,0.976530517578125,0.6383541822433472,-3.298977851867676,0.38011088967323303
1779989088310872000,0.9928720703125,-0.39874228835105896,-1.9627100229263306,-1.028544306755066
1779989088327201300,1.009201171875,-0.3081815242767334,0.24648413062095642,-1.2953397035598755
1779989088343542800,1.025542724609375,1.4602733850479126,1.8944458961486816,-0.0988074541091919
1779989088359868000,1.041867919921875,3.2142202854156494,4.952284336090088,0.39553526043891907
1779989088376202200,1.0582021484375,1.9908097982406616,3.059518575668335,-0.7292203903198242
1779989088392544300,1.074544189453125,0.4092797040939331,0.8717046976089478,0.37888917326927185
1779989088408867300,1.090867431640625,0.17440202832221985,0.6789767146110535,1.9459112882614136
1779989088425212400,1.10721240234375,0.11071932315826416,1.1746938228607178,2.1676552295684814
1779989088441534500,1.123534423828125,-0.06734789162874222,0.04642575979232788,1.0077749490737915
1779989088457884200,1.13988427734375,0.30024027824401855,-0.01863138936460018,-0.10064005106687546
1779989088474217200,1.15621728515625,0.7098253965377808,0.33505958318710327,-0.4219551682472229
1779989088490552600,1.172552490234375,0.619111955165863,0.029932396486401558,-0.47021353244781494
1779989088506887400,1.188887451171875,0.4499022662639618,0.22540926933288574,-0.294437050819397
1779989088523223300,1.205223388671875,1.4946345090866089,1.5815300941467285,0.04382958263158798
1779989088539557000,1.22155712890625,1.468061923980713,0.39996400475502014,-0.8384125232696533
1779989088555890400,1.237890380859375,1.9686659574508667,0.6995934247970581,-0.7591527700424194
1779989088572226800,1.254226806640625,1.7831156253814697,1.7928894758224487,-1.674839735031128
1779989088588562400,1.2705625,2.017840623855591,0.7615962624549866,-1.602452278137207
1779989088604893700,1.286893798828125,2.163073778152466,1.0509936809539795,-1.232573390007019
1779989088621235200,1.303235107421875,1.3545936346054077,0.4554000496864319,-1.9665279388427734
1779989088637569500,1.319569580078125,0.4248567819595337,-0.5894849896430969,-2.593428373336792
1779989088653889000,1.335888916015625,0.7626652717590332,-2.1169536113739014,-2.9918651580810547
1779989088670238500,1.352238525390625,1.6210836172103882,-2.880840539932251,-3.701690673828125
1779989088686555400,1.368555419921875,2.9274189472198486,-0.8961393237113953,-3.5216381549835205
1779989088702902500,1.384902587890625,3.7986655235290527,-0.4755585789680481,-2.6374106407165527
1779989088719231200,1.401231201171875,3.570812702178955,0.36789360642433167,-2.4185681343078613
1779989088735574500,1.417574462890625,3.402977466583252,-0.4434881806373596,-2.339613914489746
1779989088751910000,1.433909912109375,0.9059131741523743,-1.758986473083496,-1.5709927082061768
1779989088768245500,1.45024560546875,0.08903361111879349,-2.2062926292419434,-0.670577347278595
1779989088784581400,1.466581298828125,1.171334147453308,-2.671771764755249,-1.067639708518982
1779989088800914700,1.482914794921875,1.7667750120162964,-3.291189193725586,-1.4034628868103027
1779989088817250000,1.49925,1.9773707389831543,-2.3768765926361084,-0.4260784983634949
1779989088833585000,1.5155849609375,3.0755538940429688,-1.0923798084259033,0.7250970602035522
1779989088849908200,1.531908203125,2.732553005218506,0.6582072973251343,0.29535335302352905
1779989088866254300,1.54825439453125,1.4747813940048218,1.225701093673706,-1.348484992980957
1779989088882589400,1.56458935546875,0.6201809644699097,0.3776674270629883,-1.3084733486175537
1779989088898924000,1.580924072265625,0.07513642311096191,-1.306488037109375,-0.9414960741996765
1779989088915255300,1.59725537109375,-0.26083946228027344,-2.887254476547241,-1.32863187789917
1779989088931596800,1.6135966796875,-0.15195272862911224,-2.3327417373657227,-1.862222671508789
1779989088947925800,1.62992578125,0.020311269909143448,-0.5102251768112183,-1.7197383642196655
1779989088964266800,1.646266845703125,0.12308934330940247,-0.28848111629486084,-1.3608551025390625
1779989088980598000,1.662597900390625,0.17088955640792847,-1.4430164098739624,-0.8371908068656921
1779989088996920300,1.67892041015625,-0.0025961773935705423,-1.7165313959121704,-0.8970556259155273
1779989089013268000,1.69526806640625,-0.29886582493782043,-0.9711230397224426,-1.5729780197143555
1779989089029589800,1.71158984375,-0.6386595964431763,-0.24526239931583405,-1.6581937074661255
1779989089045937400,1.7279375,-0.8211556077003479,-0.05360342562198639,-0.9373727440834045
1779989089062272000,1.74427197265625,-0.9903652667999268,-0.34605515003204346,-0.01542434748262167
1779989089078609400,1.760609375,-1.149953842163086,-0.3436116874217987,0.627358615398407
1779989089094942500,1.7769423828125,-0.9634872078895569,-0.4544837474822998,0.7276932001113892
1779989089111277000,1.793277099609375,-0.19303341209888458,-0.1609629988670349,0.48915034532546997
1779989089127611600,1.809611572265625,0.04948008432984352,0.11316278576850891,0.3436116874217987
1779989089143944000,1.82594384765625,-0.1661553531885147,0.1270599663257599,0.21181751787662506
1779989089160283400,1.842283447265625,-0.2779437005519867,0.4430300295352936,0.4902193546295166
1779989089176617700,1.85861767578125,-0.018936822190880775,0.4564690589904785,1.0421360731124878
1779989089192951300,1.874951416015625,0.4619668424129486,0.2171625941991806,1.216843605041504
1779989089209286100,1.8912861328125,0.8362745046615601,0.39477166533470154,1.3972015380859375
1779989089225616400,1.907616455078125,1.133460521697998,0.8480336666107178,1.533729910850525
1779989089241960000,1.9239599609375,1.483791708946228,0.7831292152404785,1.5975652933120728
1779989089258290700,1.940290771484375,1.8991800546646118,0.5480988621711731,1.4929546117782593
1779989089274626000,1.9566259765625,2.5781567096710205,0.34605515003204346,1.151481032371521
1779989089290957000,1.97295703125,3.199254035949707,-0.15745051205158234,0.5111414790153503
1779989089307286000,1.9892861328125,3.383124351501465,-0.8851437568664551,0.15256360173225403
1779989089323630000,2.005630126953125,3.735135555267334,-1.5908458232879639,0.13576480746269226
1779989089339966000,2.021966064453125,4.0992112159729,-2.545475482940674,0.16294831037521362
1779989089356298200,2.03829833984375,3.2334625720977783,-3.478266716003418,0.17027868330478668
1779989089372622600,2.05462255859375,1.0302242040634155,-2.4492642879486084,0.4502076804637909
1779989089388971300,2.07097119140625,-0.058795779943466187,-0.68325275182724,0.85994553565979
1779989089405305300,2.087305419921875,-0.12140946835279465,0.3321579694747925,1.3686435222625732
1779989089421631500,2.103631591796875,0.18555031716823578,0.33307427167892456,1.761277198791504
1779989089437975600,2.1199755859375,0.8165740966796875,-0.4303545653820038,1.885893702507019
1779989089454308000,2.13630810546875,0.7293730974197388,-0.6322455406188965,1.9529361724853516
1779989089470643500,2.1526435546875,0.41951170563697815,-0.5914703011512756,1.9842430353164673
1779989089486978300,2.168978271484375,0.1693623960018158,-0.32788193225860596,1.9381227493286133
1779989089503311000,2.18531103515625,0.22632557153701782,0.5703954100608826,1.627650499343872
1779989089519651300,2.2016513671875,0.4132503271102905,1.316567301750183,1.1056660413742065
1779989089535979800,2.217979736328125,0.5529857873916626,1.513113260269165,0.395077109336853
1779989089552319500,2.234319580078125,0.30833423137664795,0.8023715019226074,-0.22159136831760406
1779989089568650800,2.250650634765625,0.15012013912200928,0.6876815557479858,-0.2226603776216507
1779989089584988000,2.26698779296875,0.18860463798046112,0.5615378618240356,-0.014966198243200779
1779989089601319700,2.283319580078125,0.2848159074783325,0.5539020895957947,0.10644327104091644
1779989089617646800,2.299646728515625,0.34177911281585693,0.8700248003005981,0.16737708449363708
1779989089633992700,2.31599267578125,0.3732386529445648,1.0900890827178955,0.3119994103908539
1779989089650327000,2.3323271484375,0.3338378667831421,1.0574077367782593,0.5690209865570068
1779989089666661000,2.3486611328125,0.33689218759536743,0.5763513445854187,0.8866708874702454
1779989089682994700,2.36499462890625,0.42730024456977844,0.018325956538319588,1.000749945640564
1779989089699332600,2.38133251953125,0.5766568183898926,-0.32268956303596497,0.9860892295837402
1779989089715664400,2.397664306640625,0.6377432942390442,-0.394618958234787,0.9248499870300293
1779989089732001000,2.4140009765625,0.6114761233329773,-0.32330042123794556,0.8028296232223511
1779989089748335000,2.430335205078125,0.5241223573684692,-0.33948835730552673,0.46379944682121277
1779989089764671700,2.446671630859375,0.2165517359972,-0.34697145223617554,-0.015882495790719986
1779989089781004800,2.4630048828125,-0.2344195395708084,-0.09300423413515091,-0.4355469346046448
1779989089797337000,2.479337158203125,-0.36682456731796265,0.08460483700037003,-0.7301366925239563
1779989089813673200,2.495673095703125,-0.2727513313293457,0.11530081182718277,-1.306793451309204
1779989089830027000,2.512027099609375,-0.12736541032791138,0.2730567753314972,-1.916437029838562
1779989089846341000,2.528341064453125,0.10461067408323288,0.26908615231513977,-2.358245372772217
1779989089862682600,2.5446826171875,0.2321287989616394,0.24098633229732513,-2.7769935131073
1779989089879010600,2.561010498046875,0.10384709388017654,0.8822421431541443,-2.861750841140747
1779989089895359700,2.57735986328125,-0.20402899384498596,1.704466700553894,-2.7313311100006104
1779989089911680300,2.59368017578125,-0.46105054020881653,2.4946210384368896,-2.468353748321533
1779989089928009000,2.610009033203125,-0.5500841736793518,2.4304800033569336,-2.091144561767578
1779989089944352500,2.6263525390625,-0.3830125033855438,1.687362551689148,-1.6925548315048218
1779989089960688000,2.642688232421875,-0.2396118938922882,0.7431175708770752,-1.6751452684402466
1779989089977023000,2.65902294921875,-0.1690569519996643,-0.015882495790719986,-2.035708427429199
1779989089993370000,2.6753701171875,-0.2370157092809677,-0.7052439451217651,-2.393064498901367
1779989090009693000,2.69169287109375,-0.19349156320095062,-0.7457137703895569,-2.6652050018310547
1779989090026027300,2.70802734375,-0.182648703455925,-0.7828238010406494,-2.7685940265655518
1779989090042360000,2.724360107421875,-0.3442225754261017,-0.8177958726882935,-2.794708490371704
1779989090058698000,2.740697998046875,-0.5820018649101257,-1.286940336227417,-2.143984317779541
1779989090075033000,2.757033203125,-0.7661777138710022,-0.4456261992454529,-1.949881911277771
1779989090091366700,2.77336669921875,-0.708450973033905,-0.32421672344207764,-1.7670804262161255
1779989090107701500,2.789701416015625,-0.6583600044250488,-0.6337726712226868,-1.5541938543319702
1779989090124037600,2.80603759765625,-0.6537785530090332,-0.9783006906509399,-1.328937292098999
1779989090140370400,2.822370361328125,-0.5830708742141724,-1.1331549882888794,-0.9593638777732849
1779989090156706600,2.83870654296875,-0.5592471361160278,-1.0482447147369385,-0.4599815309047699
1779989090173027600,2.855027587890625,-0.5653557777404785,-0.9726501703262329,0.029626963660120964
1779989090189369900,2.871369873046875,-0.5540547966957092,-0.6907358765602112,0.3871358633041382
1779989090205712400,2.88771240234375,-0.5732970237731934,-0.39706242084503174,0.5969680547714233
1779989090222049300,2.90404931640625,-0.7067710757255554,0.001527163083665073,0.6320928335189819
1779989090238367500,2.920367431640625,-0.9854783415794373,0.4827362596988678,0.7896960377693176
1779989090254713900,2.9367138671875,-1.2822061777114868,0.47219884395599365,1.2348641157150269
1779989090271070200,2.9530703125,-1.0141890048980713,0.3813326358795166,1.1432342529296875
1779989090287384300,2.96938427734375,-0.06933320313692093,-0.05757404863834381,0.9538660645484924
1779989090303718700,2.98571875,0.4112650156021118,0.8100073337554932,1.7215709686279297
1779989090320051700,3.0020517578125,0.15057829022407532,0.35292738676071167,2.568077564239502
1779989090336388600,3.018388671875,-0.10812314599752426,0.608421802520752,2.364506721496582
1779989090352724000,3.034723876953125,-0.031001411378383636,0.8535314798355103,2.3825271129608154
1779989090369059000,3.05105908203125,0.2275473028421402,0.4862487316131592,2.4833199977874756
1779989090385415400,3.06741552734375,0.6096435189247131,0.32620203495025635,2.400547742843628
1779989090401728800,3.083728759765625,1.0607675313949585,0.2541199326515198,1.9982929229736328
1779989090418064600,3.100064697265625,1.249372124671936,-0.006108652334660292,1.4549282789230347
1779989090434397000,3.11639697265625,1.010829210281372,-0.6171266436576843,1.187827467918396
1779989090450730800,3.132730712890625,0.5670356750488281,-1.3356568813323975,1.3454307317733765
1779989090467066000,3.149066162109375,0.16814066469669342,-2.0221166610717773,1.577254056930542
1779989090483401200,3.165401123046875,0.07437284290790558,-1.9921842813491821,1.507768154144287
1779989090499732700,3.181732666015625,0.1336267739534378,-1.2444852590560913,1.2376129627227783
1779989090516074000,3.198073974609375,-0.04382958263158798,-0.32940909266471863,1.0299187898635864
1779989090532409000,3.2144091796875,-0.1339322030544281,0.4447098970413208,0.997848391532898
1779989090548737800,3.23073779296875,-0.08017606288194656,0.6472117304801941,0.9608910083770752
1779989090565074000,3.247073974609375,-0.23029619455337524,0.29397889971733093,0.9428704977035522
1779989090581397000,3.26339697265625,-0.3222314119338989,-0.2515237629413605,0.9553932547569275
1779989090597741600,3.279741455078125,-0.3032945990562439,-0.2834414839744568,0.8973610401153564
1779989090614082600,3.29608251953125,-0.16691893339157104,0.04612032696604729,0.7805330753326416
1779989090630414000,3.3124140625,0.09926560521125793,0.26374107599258423,0.5714644193649292
1779989090646740000,3.328739990234375,0.3727805018424988,0.3404046595096588,0.38117989897727966
1779989090663082800,3.345082763671875,0.4386012554168701,0.3597996234893799,0.32650747895240784
1779989090679404500,3.361404541015625,0.3674354553222656,0.36193767189979553,0.4340197443962097
1779989090695743000,3.377742919921875,0.304669052362442,0.5161811113357544,0.68951416015625
1779989090712088000,3.394088134765625,0.26221391558647156,0.7921395301818848,0.8538368940353394
1779989090728423000,3.4104228515625,0.22159136831760406,0.8869763612747192,0.9298896193504333
1779989090744758500,3.426758544921875,0.20616702735424042,0.5363397002220154,0.9503536224365234
1779989090761091800,3.443091796875,0.40072759985923767,0.1186605766415596,0.9451612234115601
1779989090777427200,3.45942724609375,0.5032002329826355,-0.14614951610565186,0.9121745228767395
1779989090793761800,3.47576171875,0.4697553813457489,-0.1270599663257599,0.9358455538749695
1779989090810096600,3.4920966796875,0.46273043751716614,-0.03222314268350601,0.855516791343689
1779989090826431000,3.508430908203125,0.2825251817703247,0.058337632566690445,0.6317873597145081
1779989090842753500,3.52475341796875,0.06261368840932846,0.13118331134319305,0.2681698501110077
1779989090859099000,3.541098876953125,-0.17470745742321014,0.26908615231513977,-0.30634891986846924
1779989090875435300,3.557435302734375,-0.30772337317466736,0.3721696436405182,-0.737772524356842
1779989090891770000,3.57377001953125,-0.19349156320095062,0.3104722499847412,-1.1985175609588623
1779989090908106500,3.5901064453125,-0.010537425056099892,0.15577064454555511,-1.7191275358200073
1779989090924438500,3.6064384765625,0.19288070499897003,0.045204028487205505,-2.2872321605682373
1779989090940769800,3.622769775390625,0.4360050559043884,0.5624541640281677,-2.791806936264038
1779989090957109200,3.639109130859375,0.43508878350257874,1.5992451906204224,-3.079066276550293
1779989090973444900,3.65544482421875,-0.11178833991289139,2.454303741455078,-2.8577802181243896
1779989090989778400,3.6717783203125,-0.42302417755126953,2.490039348602295,-2.4098634719848633
1779989091006116900,3.688116943359375,-0.3300199508666992,2.1423044204711914,-1.990657091140747
1779989091022430500,3.704430419921875,-0.2687807083129883,1.6997325420379639,-1.6551393270492554
1779989091038783500,3.720783447265625,-0.5297728776931763,0.7502952218055725,-1.602146863937378
1779989091055117800,3.737117919921875,-0.48380526900291443,-0.1944078654050827,-1.727832317352295
1779989091071456300,3.753456298828125,-0.22892175614833832,-0.24587325751781464,-1.7686076164245605
1779989091087787500,3.76978759765625,-0.07712173461914062,0.22418753802776337,-1.9634735584259033
1779989091104118500,3.786118408203125,-0.20525072515010834,-0.15653422474861145,-2.1543691158294678
1779989091120457500,3.80245751953125,-0.5720753073692322,-0.5239696502685547,-2.350609540939331
1779989091136792800,3.818792724609375,-0.7938193678855896,-0.6108652353286743,-2.456594467163086
1779989091153124900,3.835124755859375,-1.0758863687515259,-0.9697485566139221,-2.227520227432251
1779989091169461500,3.85146142578125,-1.1355985403060913,-1.0850493907928467,-2.2178990840911865
1779989091185782500,3.867782470703125,-0.9732610583305359,-1.5824464559555054,-2.2088887691497803
1779989091202130700,3.884130615234375,-0.8965974450111389,-2.12397837638855,-2.0370829105377197
1779989091218462200,3.900462158203125,-0.8659014701843262,-2.233781576156616,-1.6659822463989258
1779989091234803500,3.916803466796875,-0.7646505832672119,-1.5961909294128418,-1.0739010572433472
1779989091251135200,3.93313525390625,-0.6159048676490784,-1.2290608882904053,-0.49266281723976135
1779989091267458000,3.9494580078125,-0.4306600093841553,-1.1169670820236206,0.0731511116027832
1779989091283803100,3.96580322265625,-0.36529740691185,-0.831845760345459,0.3816380500793457
1779989091300139500,3.982139404296875,-0.4992296099662781,-0.5389358401298523,0.45875978469848633
1779989091316471000,3.998470947265625,-0.7260133624076843,-0.22342395782470703,0.45814892649650574
1779989091332812500,4.0148125,-0.9321803450584412,-0.03222314268350601,0.6385068893432617
1779989091349150500,4.031150390625,-0.8115344643592834,0.25854870676994324,0.6427829265594482
1779989091365477000,4.04747705078125,-0.3197879493236542,0.38988474011421204,0.6650795340538025
1779989091381810000,4.063809814453125,-0.30863967537879944,0.13408492505550385,0.9250026941299438
1779989091398152200,4.080152099609375,-0.2541199326515198,-0.018325956538319588,1.2683089971542358
1779989091414481000,4.09648095703125,-0.13408492505550385,0.13301590085029602,1.3164145946502686
1779989091430817000,4.112817138671875,-0.02535090781748295,0.5383250117301941,1.4647021293640137
1779989091447152000,4.129152099609375,0.18081611394882202,0.8553640842437744,1.5279266834259033
1779989091463487700,4.14548779296875,0.7000515460968018,1.0503827333450317,2.2117903232574463
1779989091479818200,4.161818359375,1.0670288801193237,0.5340489149093628,2.3093760013580322
1779989091496137200,4.17813720703125,0.8758280277252197,0.152105450630188,1.8628336191177368
1779989091512490800,4.19449072265625,0.49953505396842957,-0.038026362657547,1.6201673746109009
1779989091528826600,4.21082666015625,0.2025018334388733,-0.471129834651947,1.8698585033416748
1779989091545171200,4.227171142578125,0.03985895588994026,-0.8732318878173828,2.082897663116455
1779989091561494500,4.24349462890625,-0.07941248267889023,-1.2612839937210083,2.1039726734161377
1779989091577830400,4.259830322265625,-0.2557998299598694,-1.327562928199768,2.023491144180298
1779989091594165000,4.2761650390625,-0.32391130924224854,-1.1267409324645996,1.7345519065856934
1779989091610499600,4.29249951171875,-0.24388794600963593,-0.9854783415794373,1.4845552444458008
1779989091626829800,4.308829833984375,-0.1690569519996643,-0.8634580373764038,1.342529058456421
1779989091643171300,4.32517138671875,-0.06352998316287994,-0.6722571849822998,1.2886202335357666
1779989091659504400,4.34150439453125,-0.11484266817569733,-0.6620252132415771,1.2750284671783447
1779989091675836700,4.357836669921875,-0.15164729952812195,-0.7652614116668701,1.14873206615448
1779989091692173000,4.374173095703125,-0.0806342139840126,-0.3423899710178375,0.9440922141075134
1779989091708507400,4.39050732421875,0.04337143152952194,0.3159700334072113,0.7751879692077637
1779989091724842800,4.4068427734375,0.013744467869400978,0.551305890083313,0.6027712821960449
1779989091741176800,4.4231767578125,0.09392052888870239,0.6331618428230286,0.4729624092578888
1779989091757494800,4.439494873046875,0.2347249686717987,0.6166684627532959,0.4934264123439789
1779989091773850400,4.455850341796875,0.44715335965156555,0.5798638463020325,0.5607742667198181
1779989091790180900,4.472180908203125,0.4999932050704956,0.5065600275993347,0.6065891981124878
1779989091806514400,4.488514404296875,0.45173484086990356,0.5480988621711731,0.6812674403190613
1779989091822850300,4.504850341796875,0.46532660722732544,0.7374670505523682,0.8055785298347473
1779989091839185200,4.52118505859375,0.43707409501075745,0.7298312783241272,0.9321803450584412
1779989091855509000,4.537509033203125,0.36819902062416077,0.37369680404663086,1.0097602605819702
1779989091871841800,4.553841796875,0.43875396251678467,0.12034045159816742,0.9995282292366028
1779989091888189700,4.570189697265625,0.41370847821235657,0.11041389405727386,1.0302242040634155
1779989091904524500,4.586524658203125,0.39614611864089966,0.21349740028381348,1.1146763563156128
1779989091920846000,4.60284619140625,0.4108068645000458,0.25076019763946533,1.1275044679641724
1779989091937193200,4.619193115234375,0.36651915311813354,0.21349740028381348,0.9195048809051514
1779989091953528300,4.6355283203125,0.1569923609495163,0.36010506749153137,0.4786129295825958
1779989091969861600,4.651861572265625,-0.029168816283345222,0.8455902338027954,-0.04993823543190956
1779989091986197200,4.668197265625,-0.1736384481191635,0.8161159753799438,-0.45036038756370544
1779989092002532400,4.684532470703125,-0.08979719132184982,0.5134322643280029,-0.9430232048034668
1779989092018853600,4.700853515625,0.08506298810243607,0.3816380500793457,-1.5387696027755737
1779989092035201300,4.717201171875,0.3113885521888733,0.42928555607795715,-2.1201605796813965
1779989092051532000,4.733531982421875,0.517861008644104,0.6018549799919128,-2.623971700668335
1779989092067875800,4.749875732421875,0.44547349214553833,1.0458012819290161,-2.847701072692871
1779989092084211500,4.76621142578125,0.009468411095440388,1.9634735584259033,-2.64138126373291
1779989092100540400,4.78254052734375,-0.37568211555480957,2.285705089569092,-2.379014730453491
1779989092116873200,4.798873291015625,-0.48777589201927185,2.679865837097168,-2.119244337081909
1779989092133213400,4.81521337890625,-0.6050620079040527,2.517681121826172,-1.7235562801361084
1779989092149544700,4.831544677734375,-0.6808093190193176,0.8910996913909912,-1.6223053932189941
1779989092165878000,4.8478779296875,-0.5085453391075134,-0.8582656979560852,-1.8661932945251465
1779989092182213400,4.86421337890625,-0.021074850112199783,-1.6649131774902344,-2.191326379776001
1779989092198549200,4.88054931640625,0.2542726695537567,-0.9518807530403137,-2.3513729572296143
1779989092214881500,4.896881591796875,0.2197587788105011,-0.43386703729629517,-2.5784621238708496
1779989092231221000,4.913220947265625,-0.030543262138962746,-0.4199698567390442,-2.783102035522461
1779989092247547400,4.92954736328125,-0.36132678389549255,-0.5626068711280823,-2.81181263923645
1779989092263887600,4.9458876953125,-0.7965682744979858,-1.0352638959884644,-2.3820691108703613
1779989092280222500,4.962222412109375,-0.9534079432487488,-0.6574437022209167,-2.1931588649749756
1779989092296557300,4.978557373046875,-0.9662361145019531,-0.6348416805267334,-1.9970711469650269
1779989092312880000,4.994880126953125,-0.8022187948226929,-0.8196284174919128,-1.7563903331756592
1779989092329226800,5.011226806640625,-0.5578727126121521,-0.7843509912490845,-1.5541938543319702
1779989092345559800,5.027559814453125,-0.4108068645000458,-0.60429847240448,-1.2235630750656128
1779989092361895700,5.043895751953125,-0.45524731278419495,-0.42668938636779785,-0.7305948138237
1779989092378228700,5.060228759765625,-0.5021312236785889,-0.23640485107898712,-0.15225815773010254
1779989092394568200,5.076568115234375,-0.5183191895484924,-0.15073099732398987,0.38148534297943115
1779989092410899000,5.09289892578125,-0.479834645986557,-0.07208210229873657,0.8604037165641785
1779989092427234300,5.109234375,-0.45433104038238525,0.13469578325748444,1.1453723907470703
1779989092443571000,5.125571044921875,-0.5028948187828064,0.5180137157440186,1.1023063659667969
1779989092459904000,5.141904052734375,-0.8941540122032166,0.7742717266082764,1.0374019145965576
1779989092476237000,5.158237060546875,-1.1249083280563354,0.8495608568191528,0.7822129726409912
1779989092492573700,5.17457373046875,-0.4573853611946106,0.46563202142715454,0.617584764957428
1779989092508909000,5.190908935546875,-0.21380282938480377,0.4876231849193573,1.2950342893600464
1779989092525241300,5.207241455078125,-0.34926220774650574,-0.39538252353668213,2.091144561767578
1779989092541577500,5.223577392578125,-0.29886582493782043,-0.2591595947742462,2.001652717590332
1779989092557912000,5.239912109375,-0.3471241891384125,0.23029619455337524,2.0453295707702637
1779989092574248200,5.256248291015625,-0.17027868330478668,0.6012440919876099,2.6059510707855225
1779989092590581800,5.272581787109375,0.12018773704767227,0.9958630800247192,2.8296804428100586
1779989092606916000,5.288916015625,0.42638394236564636,1.2443325519561768,2.5867087841033936
1779989092623251000,5.3052509765625,0.6310238242149353,0.6495024561882019,2.3015875816345215
1779989092639586300,5.32158642578125,0.4691445231437683,-0.1927279829978943,2.0749564170837402
1779989092655921000,5.3379208984375,0.20005837082862854,-1.0731375217437744,1.7368426322937012
1779989092672254700,5.354254638671875,0.10659598559141159,-1.6980526447296143,1.3167200088500977
1779989092688588500,5.370588623046875,0.24556782841682434,-1.595579981803894,1.0659598112106323
1779989092704925700,5.38692578125,0.20861047506332397,-0.9810495972633362,1.1853840351104736
1779989092721259500,5.403259521484375,-0.033597588539123535,-0.5470298528671265,1.4474451541900635
1779989092737588200,5.419588134765625,-0.18096883594989777,-0.41370847821235657,1.5981762409210205
1779989092753918700,5.435918701171875,-0.2583959996700287,-0.06994406878948212,1.589624047279358
1779989092770263800,5.452263916015625,-0.056810468435287476,0.04596760869026184,1.3290899991989136
1779989092786597600,5.46859765625,0.01725694350898266,0.045204028487205505,1.0053315162658691
1779989092802932500,5.484932373046875,-0.07116580009460449,0.20815233886241913,0.7774787545204163
1779989092819265300,5.501265380859375,-0.14492778480052948,0.3871358633041382,0.6534730792045593
1779989092835601700,5.5176015625,0.031001411378383636,0.4528038501739502,0.6626361012458801
1779989092851934500,5.5339345703125,0.12278391420841217,0.3729332387447357,0.6759223937988281
1779989092868271400,5.550271240234375,0.18677204847335815,0.42562034726142883,0.5917757153511047
1779989092884605700,5.566605712890625,0.2275473028421402,0.5545129179954529,0.49953505396842957
1779989092900941300,5.58294140625,0.2987131178379059,0.5390886068344116,0.4833471179008484
1779989092917256000,5.599255859375,0.4109596014022827,0.5655084848403931,0.5508477091789246
1779989092933611300,5.615611328125,0.4963280260562897,0.4786129295825958,0.6290385127067566
1779989092949940000,5.63193994140625,0.4807509481906891,0.26419922709465027,0.7058547735214233
1779989092966269700,5.648269775390625,0.5757405161857605,0.13637566566467285,0.8371908068656921
1779989092982613500,5.664613525390625,0.5476406812667847,0.10415252298116684,0.9534079432487488
1779989092998948900,5.680948974609375,0.49785518646240234,0.06627888232469559,1.0627528429031372
1779989093015288600,5.69728857421875,0.42959097027778625,-0.030695978552103043,1.0422887802124023
1779989093031618300,5.713618408203125,0.29016098380088806,-0.016493361443281174,0.740368664264679
1779989093047948300,5.7299482421875,0.08918632566928864,0.08246681094169617,0.22159136831760406
1779989093064291300,5.746291259765625,-0.2278527319431305,0.09682214260101318,-0.39064833521842957
1779989093080601300,5.762601318359375,-0.15195272862911224,0.18555031716823578,-0.7761042714118958
1779989093096960800,5.778960693359375,-0.126143679022789,0.1281289905309677,-1.0207557678222656
1779989093113275400,5.795275390625,-0.005345070734620094,0.003054326167330146,-1.4819591045379639
1779989093129628700,5.811628662109375,0.18539759516716003,-0.11820242553949356,-1.9619464874267578
1779989093145959700,5.827959716796875,0.46792277693748474,0.021074850112199783,-2.42360782623291
1779989093162295600,5.844295654296875,0.37659841775894165,0.8474228382110596,-2.9306259155273438
1779989093178628000,5.860628173828125,0.06459899991750717,1.8458820581436157,-2.9326112270355225
1779989093194967000,5.876967041015625,-0.3251330256462097,2.531883716583252,-2.5535695552825928
1779989093211302400,5.893302490234375,-0.26542094349861145,2.5758659839630127,-2.2770001888275146
1779989093227628800,5.90962890625,-0.0933096632361412,1.6528486013412476,-2.007303237915039
1779989093243969500,5.925969482421875,-0.17501288652420044,0.2730567753314972,-1.9381227493286133
1779989093260301600,5.942301513671875,-0.2021963894367218,-0.6304129362106323,-2.0703749656677246
1779989093276634600,5.958634521484375,0.0731511116027832,-0.964403510093689,-2.163990020751953
1779989093292973800,5.974973876953125,0.18020524084568024,-0.9468411207199097,-2.3072381019592285
1779989093309306600,5.991306640625,0.25182920694351196,-1.15178644657135,-2.457052707672119
1779989093325639700,6.0076396484375,0.01542434748262167,-1.1239920854568481,-2.526538610458374
1779989093341976000,6.02397607421875,-0.2834414839744568,-0.5815436840057373,-2.579531192779541
1779989093358312000,6.04031201171875,-0.5722280144691467,-0.1976149082183838,-2.5195136070251465
1779989093374647300,6.056647216796875,-0.9204211831092834,-0.761443555355072,-2.183537721633911
1779989093390977500,6.0729775390625,-0.9888381361961365,-0.9187413454055786,-1.9656116962432861
1779989093407314400,6.089314453125,-0.8298604488372803,-0.9575312733650208,-1.7666223049163818
1779989093423650600,6.105650634765625,-0.646906316280365,-0.7469354867935181,-1.3516920804977417
1779989093439983900,6.12198388671875,-0.589790403842926,-0.8816312551498413,-0.9825767278671265
1779989093456317200,6.138317138671875,-0.5833762884140015,-0.9804387092590332,-0.5032002329826355
1779989093472653600,6.154653564453125,-0.551916778087616,-0.9399688839912415,0.019853120669722557
1779989093488988400,6.170988525390625,-0.508087158203125,-0.7202101349830627,0.38759398460388184
1779989093505327000,6.1873271484375,-0.5722280144691467,-0.3988949954509735,0.5574145317077637
1779989093521647600,6.203647705078125,-0.7318165898323059,0.0025961773935705423,0.5204572081565857
1779989093537991700,6.21999169921875,-0.864068865776062,0.26572638750076294,0.8306240439414978
1779989093554327600,6.23632763671875,-1.1314750909805298,0.6994407176971436,1.2844969034194946
1779989093570661400,6.252661376953125,-0.6721044778823853,0.545655369758606,1.1827877759933472
1779989093586995500,6.268995361328125,0.864679753780365,0.8694139719009399,1.3014483451843262
1779989093603330800,6.285330810546875,0.850171685218811,1.17240309715271,2.6569583415985107
1779989093619666200,6.301666259765625,-0.10491610318422318,0.6403394937515259,2.806009531021118
1779989093635986200,6.317986083984375,-0.3816380500793457,0.6507241725921631,2.5888469219207764
1779989093652321500,6.334321533203125,-0.17379115521907806,0.5222898125648499,2.4950790405273438
1779989093668668400,6.35066845703125,0.19898934662342072,0.3805690407752991,2.2036964893341064
1779989093685004000,6.367004150390625,0.5516113042831421,0.35384368896484375,1.7362316846847534
1779989093701338000,6.383338134765625,0.7180721163749695,-0.043218716979026794,1.3715451955795288
1779989093717658600,6.39965869140625,0.470671683549881,-0.9599747061729431,1.3446670770645142
1779989093734009300,6.41600927734375,0.23121249675750732,-1.5218180418014526,1.643227458000183
1779989093750332200,6.432332275390625,0.0019853119738399982,-1.761582612991333,1.9882136583328247
1779989093766677000,6.448677001953125,-0.1394299864768982,-1.3724614381790161,1.8000671863555908
1779989093783009800,6.465009765625,-0.2664899528026581,-0.6765332818031311,1.4625641107559204
1779989093799346000,6.481345947265625,-0.244804248213768,-0.1768454909324646,1.2221885919570923
1779989093815679200,6.49767919921875,-0.10613783448934555,-0.1498146951198578,1.0975720882415771
1779989093832015000,6.51401513671875,-0.22586742043495178,-0.471129834651947,1.020297646522522
1779989093848350200,6.53035009765625,-0.3170390725135803,-0.7498371005058289,0.8617781400680542
1779989093864681200,6.54668115234375,-0.2399173229932785,-0.33078351616859436,0.6411030888557434
1779989093881007000,6.563007080078125,-0.06551529467105865,0.3825543522834778,0.5568036437034607
1779989093897346300,6.57934619140625,-0.025045474991202354,0.42791110277175903,0.6017022728919983
1779989093913681400,6.595681396484375,0.11759155988693237,0.21960605680942535,0.5166392922401428
1779989093930023400,6.6120234375,0.16737708449363708,0.11713340878486633,0.4004221558570862
1779989093946355200,6.628355224609375,0.19318613409996033,0.16920967400074005,0.34437528252601624
1779989093962694100,6.644694091796875,0.2197587788105011,0.3289509415626526,0.4184426963329315
1779989093979016200,6.66101611328125,0.285121351480484,0.5271766781806946,0.5296201705932617
1779989093995366000,6.677365966796875,0.39584067463874817,0.6717990636825562,0.65958172082901
1779989094011694000,6.693694091796875,0.44364088773727417,0.7012733221054077,0.8326093554496765
1779989094028034300,6.710034423828125,0.41340306401252747,0.5004513263702393,1.0407617092132568
1779989094044362800,6.72636279296875,0.3911064863204956,0.10751228034496307,1.153160810470581
1779989094060690000,6.74268994140625,0.523511528968811,-0.197004035115242,1.1186469793319702
1779989094077022700,6.759022705078125,0.5053382515907288,-0.3396410644054413,1.1027644872665405
1779989094093368800,6.775368896484375,0.4317290186882019,-0.34376442432403564,1.094059705734253
1779989094109704000,6.791703857421875,0.4092797040939331,-0.25473082065582275,0.8973610401153564
1779989094126038000,6.8080380859375,0.2860376536846161,-0.1014036312699318,0.43997567892074585
1779989094142373600,6.82437353515625,-0.10231992602348328,-0.030695978552103043,-0.14309518039226532
1779989094158706700,6.840706787109375,-0.4712825417518616,0.059406645596027374,-0.6276640295982361
1779989094175043000,6.85704296875,-0.3836233615875244,0.1615738570690155,-1.1775954961776733
1779989094191376100,6.873376220703125,-0.05161811411380768,0.1563815027475357,-1.8710802793502808
1779989094207712800,6.889712646484375,0.2099849283695221,0.30833423137664795,-2.4052820205688477
1779989094224050400,6.906050537109375,0.3533855378627777,0.759916365146637,-2.864499807357788
1779989094240380200,6.922380126953125,0.3266601860523224,1.1482739448547363,-3.6300666332244873
1779989094256715500,6.938715576171875,0.13377949595451355,1.871691107749939,-3.5333971977233887
1779989094273052000,6.955052001953125,-0.11239920556545258,2.6977336406707764,-3.115107297897339
1779989094289386000,6.971385986328125,-0.13500121235847473,2.4474315643310547,-2.5751023292541504
1779989094305718300,6.98771826171875,-0.0010690141934901476,1.765705943107605,-2.0112738609313965
1779989094322058000,7.00405810546875,-0.29856038093566895,0.8706356883049011,-1.7369953393936157
1779989094338388200,7.02038818359375,-0.39584067463874817,-0.152105450630188,-1.877647042274475
1779989094354723000,7.03672314453125,-0.044745877385139465,-0.8110763430595398,-1.9822577238082886
1779989094371060000,7.05306005859375,0.16584990918636322,-0.5186246037483215,-2.263713836669922
1779989094387391500,7.0693916015625,0.24358251690864563,-0.6383541822433472,-2.6064093112945557
1779989094403727400,7.085727294921875,0.0832303911447525,-0.8431467413902283,-2.8046350479125977
1779989094420061700,7.102061767578125,-0.16371189057826996,-0.7002043128013611,-2.8971810340881348
1779989094436395300,7.118395263671875,-0.5949827432632446,-0.6644686460494995,-2.6647469997406006
1779989094452730600,7.134730712890625,-0.877966046333313,-0.8527678847312927,-1.9109392166137695
1779989094469066000,7.15106591796875,-0.7606799602508545,-0.3263547718524933,-1.8180876970291138
1779989094485412600,7.16741259765625,-0.5934556126594543,-0.40133845806121826,-1.6221526861190796
1779989094501721000,7.18372119140625,-0.4668537676334381,-0.6061310172080994,-1.298241376876831
1779989094518068000,7.20006787109375,-0.39354994893074036,-0.6525567770004272,-0.9028588533401489
1779989094534404400,7.216404296875,-0.3643811047077179,-0.5809328556060791,-0.44944411516189575
1779989094550736600,7.232736572265625,-0.38499781489372253,-0.42042800784111023,-0.032528575509786606
1779989094567071500,7.249071533203125,-0.35613444447517395,-0.21670444309711456,0.3223841190338135
1779989094583407400,7.265407470703125,-0.35094207525253296,-0.07238753139972687,0.5742133259773254
1779989094599743000,7.281742919921875,-0.4369213581085205,-0.037110064178705215,0.6873761415481567
1779989094616071200,7.2980712890625,-0.5632177591323853,0.2984076738357544,0.7730499505996704
1779989094632415500,7.31441552734375,-0.735634446144104,0.5734497308731079,1.1901181936264038
1779989094648735200,7.3307353515625,-0.9877691268920898,0.6349944472312927,1.5624406337738037
1779989094665079800,7.347079833984375,-0.7225008606910706,0.7272350788116455,1.187827467918396
1779989094681401900,7.36340185546875,0.15974126756191254,0.5755877494812012,1.0450377464294434
1779989094697749800,7.379749755859375,0.22067506611347198,0.9666942358016968,1.9620991945266724
1779989094714082600,7.39608251953125,-0.23151792585849762,0.4271475374698639,2.3857343196868896
1779989094730419500,7.41241943359375,-0.30711251497268677,0.5658139586448669,2.18048357963562
1779989094746753300,7.428753173828125,-0.2561052441596985,0.6792821288108826,2.3080015182495117
1779989094763087000,7.445087158203125,0.04382958263158798,0.5719226002693176,2.4022276401519775
1779989094779421000,7.4614208984375,0.48976120352745056,0.5206099152565002,2.1484131813049316
1779989094795756300,7.47775634765625,0.8672759532928467,0.45234572887420654,1.6111570596694946
1779989094812084500,7.49408447265625,1.0302242040634155,0.17989981174468994,1.2180652618408203
1779989094828426200,7.51042626953125,0.8840747475624084,-0.6081163287162781,1.3645201921463013
1779989094844757500,7.526757568359375,0.5135849714279175,-1.1238393783569336,1.7366899251937866
1779989094861100000,7.54310009765625,0.17592918872833252,-1.3193162679672241,1.8151860237121582
1779989094877429200,7.55942919921875,-0.09651670604944229,-1.1927143335342407,1.7230981588363647
1779989094893764600,7.5757646484375,-0.2776382565498352,-0.7171558141708374,1.6027576923370361
1779989094910093600,7.592093505859375,-0.3975205719470978,-0.27611109614372253,1.5457944869995117
1779989094926437600,7.608437744140625,-0.4095851480960846,-0.10262536257505417,1.5448782444000244
1779989094942769700,7.624769775390625,-0.2854267954826355,-0.31413745880126953,1.5128077268600464
1779989094959103500,7.641103515625,-0.12538009881973267,-0.6653849482536316,1.480737328529358
1779989094975436300,7.657436279296875,-0.05054909735918045,-0.6875288486480713,1.3252722024917603
1779989094991771400,7.673771484375,0.044287730008363724,-0.2819143235683441,1.0729848146438599
1779989095008108300,7.6901083984375,0.08674286305904388,0.0936150997877121,0.8171849846839905
1779989095024441000,7.706441162109375,0.15653422474861145,0.38988474011421204,0.5865833759307861
1779989095040775700,7.722775634765625,0.15195272862911224,0.4352414906024933,0.5422956347465515
1779989095057108500,7.7391083984375,0.10399980843067169,0.5627595782279968,0.5870414972305298
1779989095073447200,7.755447265625,0.18387043476104736,0.7606799602508545,0.6142250299453735
1779989095089781200,7.77178125,0.22418753802776337,0.8484918475151062,0.6064364910125732
1779989095106110700,7.78811083984375,0.21899518370628357,0.9860892295837402,0.5922338366508484
1779989095122448100,7.8044482421875,0.2541199326515198,1.1140655279159546,0.6192646622657776
1779989095138783500,7.820783447265625,0.24373523890972137,0.9552405476570129,0.7870998978614807
1779989095155120400,7.837120361328125,0.19685132801532745,0.5870414972305298,0.9969320893287659
1779989095171447000,7.853447021484375,0.24633140861988068,0.14767667651176453,1.023046612739563
1779989095187792100,7.869792236328125,0.3413209617137909,-0.1716531366109848,1.0016663074493408
1779989095204123100,7.886123046875,0.42638394236564636,-0.270766019821167,0.9402743577957153
1779989095220454000,7.902453857421875,0.44577890634536743,-0.2790127098560333,0.7350236177444458
1779989095236793900,7.9187939453125,0.37400224804878235,-0.36193767189979553,0.33689218759536743
1779989095253126400,7.93512646484375,0.14324790239334106,-0.4098905920982361,-0.156686931848526
1779989095269458200,7.951458251953125,-0.12217304855585098,-0.33948835730552673,-0.6727153658866882
1779989095285792500,7.96779248046875,-0.2370157092809677,-0.09514226019382477,-1.0926852226257324
1779989095302130000,7.9841298828125,-0.1837177276611328,0.0025961773935705423,-1.5864170789718628
1779989095318464500,8.000464599609375,0.02519819140434265,-0.07528914511203766,-2.1401662826538086
1779989095334797800,8.0167978515625,0.32879820466041565,-0.40882155299186707,-2.649780750274658
1779989095351138600,8.033138671875,0.5618433356285095,-0.3897320330142975,-3.012787342071533
1779989095367467300,8.04946728515625,0.6006332635879517,0.6195700764656067,-3.1945197582244873
1779989095383801300,8.06580126953125,0.38209620118141174,1.8015943765640259,-3.2120821475982666
1779989095400137200,8.08213720703125,0.021074850112199783,2.499049663543701,-3.171765089035034
1779989095416470800,8.098470703125,-0.19532416760921478,2.272571325302124,-2.7702739238739014
1779989095432805000,8.11480517578125,-0.43279802799224854,1.4309518337249756,-2.1815524101257324
1779989095449140700,8.131140625,-0.5723807215690613,0.5572618246078491,-1.986533761024475
1779989095465473300,8.147473388671875,-0.4011857509613037,-0.19074267148971558,-1.9168951511383057
1779989095481809000,8.163808837890626,-0.304669052362442,-0.4303545653820038,-1.9998201131820679
1779989095498140000,8.180139892578126,-0.3500257730484009,-0.7064656615257263,-2.2204952239990234
1779989095514481700,8.196481689453124,-0.3292563557624817,-0.327271044254303,-2.3739750385284424
1779989095530812400,8.2128125,-0.6172793507575989,-0.26145032048225403,-2.403143882751465
1779989095547134000,8.229134033203126,-0.6241515874862671,-0.5256495475769043,-2.481945514678955
1779989095563481900,8.24548193359375,-0.7388415336608887,-0.9789115786552429,-2.63496732711792
1779989095579817200,8.261817138671875,-1.191950798034668,-1.7371480464935303,-2.1390974521636963
1779989095596137700,8.2781376953125,-0.9340129494667053,-0.9938777685165405,-1.8380935192108154
1779989095612485400,8.2944853515625,-0.7209737300872803,-0.9237809777259827,-1.6675094366073608
1779989095628804600,8.3108046875,-0.5936083197593689,-1.120937705039978,-1.4143058061599731
1779989095645146600,8.327146728515626,-0.5621487498283386,-1.0265589952468872,-0.99876469373703
1779989095661487400,8.3434873046875,-0.5871942043304443,-0.9378308653831482,-0.46639561653137207
1779989095677823700,8.35982373046875,-0.588874101638794,-0.7273877859115601,0.1342376321554184
1779989095694157800,8.37615771484375,-0.4948008358478546,-0.3173444867134094,0.694248378276825
1779989095710493700,8.39249365234375,-0.31841349601745605,0.15577064454555511,1.1282681226730347
1779989095726826800,8.40882666015625,-0.1690569519996643,0.4925101101398468,1.3368785381317139
1779989095743157500,8.425157470703125,-0.39904773235321045,0.9656252264976501,1.337336778640747
1779989095759499300,8.441499267578125,-0.7305948138237,1.171334147453308,1.4691308736801147
1779989095775830800,8.457830810546875,-0.7359399199485779,1.1175779104232788,1.3909401893615723
1779989095792163800,8.474163818359376,0.08155050873756409,0.5934556126594543,1.3605495691299438
1779989095808500000,8.4905,0.504574716091156,0.9169087409973145,1.4986051321029663
1779989095824821200,8.5068212890625,0.03222314268350601,0.3683517575263977,2.3716843128204346
1779989095841165600,8.52316552734375,-0.3962988257408142,0.10384709388017654,2.1927008628845215
1779989095857506300,8.53950634765625,-0.4340197443962097,0.49128836393356323,2.104888916015625
1779989095873851000,8.555850830078125,-0.1941024363040924,0.5876523852348328,2.4182627201080322
1779989095890171000,8.5721708984375,-0.010231993161141872,0.5248859524726868,2.5303566455841064
1779989095906505000,8.5885048828125,0.2393064647912979,0.48090365529060364,2.155743360519409
1779989095922845000,8.604844970703125,0.644768238067627,0.42378777265548706,1.507768154144287
1779989095939175000,8.6211748046875,0.8341364860534668,-0.16798794269561768,1.1601858139038086
1779989095955508700,8.6375087890625,0.770301103591919,-0.8469646573066711,1.4401148557662964
1779989095971846000,8.653845947265625,0.35781431198120117,-1.3209960460662842,1.6311628818511963
1779989095988180200,8.67018017578125,0.12202033400535583,-1.1105530261993408,1.4013248682022095
1779989096004511700,8.68651171875,0.027488935738801956,-0.5215262174606323,1.291369080543518
1779989096020850400,8.702850341796875,-0.02519819140434265,0.062460970133543015,1.2571606636047363
1779989096037184300,8.719184326171876,-0.056810468435287476,0.2857322096824646,1.231351613998413
1779989096053517800,8.735517822265624,-0.14263702929019928,0.011301007121801376,1.2634220123291016
1779989096069852200,8.75185205078125,-0.01114829070866108,-0.6217080950737,1.280220866203308
1779989096086185700,8.768185791015625,0.18112154304981232,-0.9477574229240417,1.2654073238372803
1779989096102521300,8.784521240234374,0.23655757308006287,-0.6404922008514404,1.1137601137161255
1779989096118856200,8.800856201171875,0.2590068578720093,-0.17821992933750153,0.7974845767021179
1779989096135191600,8.817191650390624,0.21991148591041565,-0.04077525436878204,0.5514585971832275
1779989096151523300,8.8335234375,0.29474249482154846,-0.15851953625679016,0.49464812874794006
1779989096167860500,8.849860595703126,0.3246748745441437,-0.05497787147760391,0.5537493228912354
1779989096184194300,8.8661943359375,0.3286454975605011,0.34208452701568604,0.6667594313621521
1779989096200528400,8.8825283203125,0.3245221674442291,0.7391469478607178,0.7718282341957092
1779989096216863500,8.898863525390626,0.289702832698822,0.9970847964286804,0.7353290319442749
1779989096233198600,8.915198486328125,0.26679539680480957,0.9291260242462158,0.6878342628479004
1779989096249532200,8.9315322265625,0.3078760802745819,0.543059229850769,0.7405213713645935
1779989096265865000,8.947864990234375,0.45814892649650574,0.07070764899253845,0.7835873961448669
1779989096282201900,8.964201904296875,0.3533855378627777,-0.3121521472930908,0.7128797173500061
1779989096298524000,8.98052392578125,0.37919458746910095,-0.2854267954826355,0.5845980644226074
1779989096314870500,8.99687060546875,0.57436603307724,-0.1999056488275528,0.38117989897727966
1779989096331205000,9.013205078125,0.5093088746070862,-0.3055853247642517,0.1540907621383667
1779989096347538700,9.02953857421875,0.3413209617137909,-0.37720927596092224,-0.17730364203453064
1779989096363875000,9.045875,0.09605856239795685,-0.3455969989299774,-0.5876523852348328
1779989096380206800,9.062206787109375,-0.08338310569524765,-0.37827831506729126,-1.0204503536224365
1779989096396542500,9.07854248046875,-0.08246681094169617,-0.2603813111782074,-1.5531249046325684
1779989096412877600,9.094877685546875,0.07880161702632904,-0.21838432550430298,-2.014939069747925
1779989096429204500,9.11120458984375,0.16340644657611847,-0.27550023794174194,-2.330756425857544
1779989096445533200,9.127533203125,0.12767083942890167,-0.03436116874217987,-2.613586902618408
1779989096461868000,9.143867919921876,-0.09285151958465576,0.6765332818031311,-2.7933340072631836
1779989096478215700,9.160215576171876,-0.44577890634536743,1.6685783863067627,-2.755307674407959
1779989096494550500,9.176550537109375,-0.7409795522689819,2.1473441123962402,-2.5610525608062744
1779989096510884600,9.192884521484375,-0.7948883771896362,1.7174476385116577,-2.1647536754608154
1779989096527218400,9.209218505859376,-0.8052731156349182,0.5621487498283386,-1.7629570960998535
1779989096543552300,9.22555224609375,-0.6485861539840698,-0.575893223285675,-1.7253888845443726
1779989096559889000,9.241888916015625,-0.2961169183254242,-1.2116512060165405,-1.9216293096542358
1779989096576222000,9.258221923828126,0.039095375686883926,-1.175152063369751,-2.182774305343628
1779989096592555500,9.274555419921874,0.28909197449684143,-0.37690386176109314,-2.412001371383667
1779989096608888600,9.290888671875,0.32360586524009705,0.13759739696979523,-2.5634961128234863
1779989096625226000,9.30722607421875,0.0507018156349659,0.020005837082862854,-2.5254695415496826
1779989096641547000,9.323547119140626,-0.46150869131088257,-0.11575896292924881,-2.428189277648926
1779989096657895200,9.339895263671876,-0.8382598161697388,0.03848451003432274,-2.34786057472229
1779989096674229500,9.3562294921875,-0.8807149529457092,-0.038637228310108185,-2.353052854537964
1779989096690565000,9.372565185546875,-0.8077165484428406,-0.37598755955696106,-2.3600778579711914
1779989096706886400,9.388886474609375,-0.7029531598091125,-0.7768678665161133,-2.1229095458984375
1779989096723231700,9.405231689453124,-0.5954409241676331,-1.0039570331573486,-1.836719036102295
1779989096739562000,9.42156201171875,-0.28267788887023926,-0.6389650702476501,-1.1933252811431885
1779989096755907000,9.437906982421875,-0.3376557528972626,-0.6438519954681396,-0.4885394871234894
1779989096772236000,9.454236083984375,-0.3023782968521118,-0.4967861473560333,-0.056352317333221436
1779989096788571100,9.470571044921876,-0.280539870262146,-0.1342376321554184,0.31459560990333557
1779989096804905700,9.48690576171875,-0.28619036078453064,0.06475171446800232,0.6629415154457092
1779989096821243600,9.50324365234375,-0.30833423137664795,-0.003054326167330146,0.988990843296051
1779989096837570600,9.519570556640625,-0.35735616087913513,-0.07162395119667053,1.0923798084259033
1779989096853909500,9.535909423828125,-0.4398229718208313,0.054367005825042725,1.268919825553894
1779989096870243300,9.552243408203125,-0.6319400668144226,0.4473060667514801,2.0448713302612305
1779989096886579000,9.568578857421874,-0.5383250117301941,0.8426886200904846,1.8272507190704346
1779989096902909200,9.5849091796875,-0.017867809161543846,0.5531384944915771,0.5120577812194824
1779989096919250200,9.601250244140624,-0.5490151643753052,0.7684684991836548,1.9582812786102295
1779989096935580200,9.617580078125,-0.4277583956718445,-0.48029279708862305,2.737898111343384
1779989096951916500,9.63391650390625,-0.16004669666290283,0.9271407127380371,2.383901596069336
1779989096968251000,9.6502509765625,-0.27290403842926025,1.5092953443527222,2.451707601547241
1779989096984583200,9.666583251953124,-0.1391245573759079,1.1456778049468994,2.596940755844116
1779989097000919600,9.68291943359375,0.19364428520202637,0.7305948138237,2.317470073699951
1779989097017255200,9.699255126953124,0.5264131426811218,0.6411030888557434,1.7536413669586182
1779989097033588200,9.715588134765625,0.8654433488845825,0.31184670329093933,1.6325373649597168
1779989097049919700,9.731919677734375,1.0775662660598755,0.4303545653820038,1.4605787992477417
1779989097066247200,9.7482470703125,1.591151237487793,0.12278391420841217,1.8471038341522217
1779989097082595300,9.76459521484375,1.8280142545700073,-0.031612277030944824,2.054645299911499
1779989097098926300,9.78092626953125,1.7599027156829834,-0.17333301901817322,2.1068742275238037
1779989097115259600,9.797259765625,1.3712397813796997,-0.01771509274840355,2.269669771194458
1779989097131594800,9.8135947265625,0.7383833527565002,-0.23869559168815613,2.4601070880889893
1779989097147929900,9.829929931640624,0.25182920694351196,-0.7748825550079346,2.486985206604004
1779989097164264400,9.846264404296875,0,-0.6940956115722656,2.0867156982421875
1779989097180598500,9.8625986328125,0.11698069423437119,-0.5453499555587769,1.5476270914077759
1779989097196933400,9.878933349609374,0.25274550914764404,-0.5830708742141724,1.2275336980819702
1779989097213268500,9.8952685546875,-0.00733038317412138,-0.08827003091573715,0.880104124546051
1779989097229600800,9.911600830078125,-0.23121249675750732,0.3055853247642517,0.6075055003166199
1779989097245935600,9.927935546875,-0.2863430976867676,0.3568980097770691,0.5919284224510193
1779989097262271200,9.944271240234375,-0.3101668357849121,0.41141775250434875,0.5710062980651855
1779989097278608100,9.960608154296875,-0.2571742534637451,0.6774495840072632,0.4738787114620209
1779989097294939600,9.976939697265625,-0.18799377977848053,1.0045678615570068,0.34697145223617554
1779989097311276500,9.993276611328126,-0.05513058975338936,1.1870639324188232,0.2028072625398636
1779989097327607600,10.009607666015626,0.027947084978222847,1.1965322494506836,0.15347988903522491
1779989097343944400,10.0259443359375,0.038637228310108185,1.246165156364441,0.24526239931583405
1779989097360276700,10.04227685546875,0.019089538604021072,1.281595230102539,0.39477166533470154
1779989097376612900,10.05861279296875,0.04199698567390442,1.1267409324645996,0.5006040930747986
1779989097392947000,10.074947021484375,0.01466076634824276,0.7373143434524536,0.5729916095733643
1779989097409282000,10.091281982421876,0.14614951610565186,0.41722095012664795,0.5584835410118103
1779989097425611000,10.107611083984375,0.17470745742321014,0.3637702465057373,0.5169447064399719
1779989097441940200,10.123940185546875,0.42348232865333557,0.11942415684461594,0.8784242272377014
1779989097458285000,10.14028515625,0.5803219676017761,0.35445454716682434,1.0590876340866089
1779989097474620700,10.15662060546875,0.34315356612205505,0.7903069257736206,1.2069170475006104
1779989097490952200,10.1729521484375,-0.18555031716823578,0.052839845418930054,1.521665334701538
1779989097507287800,10.189287841796874,-0.4486805200576782,-0.2926044464111328,1.3859004974365234
1779989097523622400,10.205622314453125,-0.41202861070632935,0.3851505517959595,1.0219775438308716
1779989097539964700,10.221964599609375,-0.31551191210746765,0.917061448097229,0.7941248416900635
1779989097556291300,10.238291259765624,0.09834930300712585,-0.10567969083786011,0.6203336715698242
1779989097572613000,10.254613037109374,0.26862800121307373,-0.6374378800392151,0.15913039445877075
1779989097588959500,10.27095947265625,0.2718350291252136,-0.42119157314300537,-0.3933972120285034
1779989097605282800,10.28728271484375,0.2727513313293457,-0.40164390206336975,-0.8203920125961304
1779989097621624600,10.30362451171875,0.22647829353809357,-0.3553708493709564,-1.1441506147384644
1779989097637959200,10.319959228515625,0.08949175477027893,-0.1693623960018158,-1.4563027620315552
1779989097654303200,10.33630322265625,-0.1621847152709961,0.09407325088977814,-1.7357735633850098
1779989097670634000,10.352634033203126,-0.40653082728385925,0.1365283876657486,-2.0667097568511963
1779989097686955300,10.368955322265625,-0.5777258276939392,0.03222314268350601,-2.467742919921875
1779989097703300600,10.385300537109375,-0.698677122592926,0.08933904021978378,-2.724764347076416
1779989097719636200,10.40163623046875,-0.6307183504104614,0.39156460762023926,-2.786309003829956
1779989097735970300,10.41797021484375,-0.5123631954193115,0.9676105380058289,-2.5978572368621826
1779989097752303600,10.4343037109375,-0.4586070775985718,0.9182831645011902,-2.380847215652466
1779989097768626700,10.450626708984375,-0.5229006409645081,0.4381431043148041,-2.2145392894744873
1779989097784974300,10.466974365234375,-0.4943426847457886,-0.19379699230194092,-1.9437731504440308
1779989097801307000,10.483306884765625,-0.260992169380188,-0.816421389579773,-1.5300647020339966
1779989097817642200,10.499642333984376,-0.04688390716910362,-1.6303993463516235,-0.915534257888794
1779989097833980700,10.515980712890626,-0.0529925599694252,-2.1424572467803955,-0.8773552179336548
1779989097850311700,10.532311767578125,-0.265573650598526,-1.7377588748931885,-1.826945185661316
1779989097866645500,10.5486455078125,-0.3274237811565399,-0.7038694620132446,-2.216830015182495
1779989097882981400,10.5649814453125,-0.2834414839744568,0.1915062516927719,-1.9953913688659668
1779989097899315500,10.5813154296875,-0.2935207486152649,0.2444988191127777,-1.8002198934555054
1779989097915648300,10.597648193359374,-0.49235737323760986,-0.19822576642036438,-1.8503108024597168
1779989097931985000,10.61398486328125,-0.7226535677909851,-0.3985895812511444,-1.7938058376312256
1779989097948319000,10.630319091796874,-0.7837401032447815,-0.2658790946006775,-1.427744746208191
1779989097964649700,10.646649658203126,-0.7877107262611389,-0.1638645976781845,-1.1102476119995117
1779989097980990500,10.662990478515624,-0.8101600408554077,-0.03451388701796532,-0.806647539138794
1779989097997320200,10.6793203125,-0.7660250067710876,-0.044287730008363724,-0.4789183437824249
1779989098013660000,10.695659912109376,-0.6349944472312927,-0.05207626149058342,-0.2444988191127777
1779989098029992400,10.711992431640626,-0.5393940210342407,-0.056810468435287476,0.07819075137376785
1779989098046321200,10.728321044921875,-0.3920227587223053,-0.11041389405727386,0.4265366494655609
1779989098062657500,10.744657470703125,-0.25503623485565186,-0.17088955640792847,0.79840087890625
1779989098078997200,10.760997314453125,-0.13179416954517365,-0.21823160350322723,1.1725558042526245
1779989098095332600,10.77733251953125,-0.02977968007326126,-0.31810808181762695,1.4689781665802002
1779989098111666000,10.793666015625,0.004734205547720194,-0.5381723046302795,1.5810719728469849
1779989098127996700,10.80999658203125,-0.033597588539123535,-0.7929030656814575,1.5037975311279297
1779989098144332300,10.826332275390625,-0.06185010448098183,-0.8776606321334839,1.1665998697280884
1779989098160666400,10.842666259765625,-0.20799961686134338,-1.0314459800720215,0.6872233748435974
1779989098177000700,10.859000732421874,-0.29596421122550964,-1.0586295127868652,0.1488984078168869
1779989098193335300,10.875335205078125,-0.3695734739303589,-0.8886561989784241,-0.24404066801071167
1779989098209670000,10.891669921875,-0.3349068760871887,-0.684474527835846,-0.2819143235683441
1779989098226002700,10.908002685546874,-0.2018909603357315,-0.7441865801811218,-0.260992169380188
1779989098242338800,10.9243388671875,-0.08399397134780884,-0.7218900322914124,-0.03695734590291977
1779989098258673400,10.94067333984375,0.057879481464624405,-0.6188064813613892,0.3891211748123169
1779989098275007700,10.9570078125,0.040622539818286896,0.026572637259960175,0.4758640229701996
1779989098291341800,10.973341796875,-0.34605515003204346,1.4836390018463135,0.4178318381309509
1779989098307676700,10.9896767578125,-0.7973318696022034,2.099543809890747,0.8941540122032166
1779989098324008700,11.0060087890625,-0.8211556077003479,2.146427869796753,0.5293147563934326
1779989098340348700,11.0223486328125,-0.651029646396637,1.6473509073257446,0.32498031854629517
1779989098356679400,11.038679443359374,-0.6104071140289307,0.6272059082984924,0.5968153476715088
1779989098373014500,11.0550146484375,-0.29856038093566895,0.21609358489513397,1.130406141281128
1779989098389345000,11.071344970703125,0.42898011207580566,0.865290641784668,1.2699888944625854
1779989098405684000,11.08768408203125,1.2823588848114014,1.2921327352523804,1.16293466091156
1779989098422020000,11.10402001953125,1.5590808391571045,0.2597704529762268,1.0587822198867798
1779989098438339000,11.120339111328125,1.3906347751617432,-0.8885034918785095,1.2724323272705078
1779989098454687200,11.136687255859375,0.7506006956100464,-1.2947288751602173,1.7148514986038208
1779989098471019500,11.15301953125,0.09636399149894714,-0.7205155491828918,1.4801265001296997
1779989098487355000,11.16935498046875,-0.3205515444278717,-0.22770002484321594,0.9619600176811218
1779989098503689500,11.185689453125,-0.6316346526145935,-0.33689218759536743,0.96883225440979
1779989098520025900,11.20202587890625,-0.8872817754745483,-0.3943135142326355,1.3573426008224487
1779989098536357400,11.218357421875,-1.0279334783554077,-0.289244681596756,1.683239221572876
1779989098552693200,11.234693359375,-1.0062477588653564,0.34406983852386475,1.8472565412521362
1779989098569028400,11.2510283203125,-0.513126790523529,0.5180137157440186,1.653917670249939
1779989098585363500,11.267363525390625,-0.06414084881544113,0.3585779070854187,1.151481032371521
1779989098601683500,11.283683349609374,0.014508049935102463,0.19089539349079132,1.035722017288208
1779989098618031000,11.300031005859376,-0.06505715101957321,0.3911064863204956,1.2014192342758179
1779989098634363100,11.316363037109374,0.02825251780450344,0.7289149761199951,1.189049243927002
1779989098650700500,11.332700439453125,0.08261952549219131,1.4358386993408203,0.987463653087616
1779989098667033300,11.349033447265626,0.09056077152490616,1.9840903282165527,0.8597928285598755
1779989098683369500,11.365369384765625,0.1736384481191635,1.8043432235717773,0.927446186542511
1779989098699699500,11.381699462890625,0.3784310221672058,1.0813841819763184,1.0010554790496826
1779989098716042500,11.39804248046875,0.5988006591796875,0.3602577745914459,1.1232284307479858
1779989098732371200,11.41437109375,0.702800452709198,0.1927279829978943,1.1316279172897339
1779989098748693500,11.430693603515625,0.6667594313621521,0.5227479338645935,0.888350784778595
1779989098765041200,11.447041259765625,0.5233588218688965,0.8425359129905701,0.7342600226402283
1779989098781385500,11.463385498046875,0.3604104816913605,0.84574294090271,0.6530149579048157
1779989098797710000,11.4797099609375,0.17409659922122955,0.8752171993255615,0.5783366560935974
1779989098814034400,11.496034423828124,0.11438451707363129,0.9443976879119873,0.5256495475769043
1779989098830377000,11.512376953125,0.19165897369384766,0.7962628602981567,0.24342979490756989
1779989098846713300,11.52871337890625,0.1745547503232956,0.3604104816913605,0.08307767659425735
1779989098863051300,11.54505126953125,0.1281289905309677,0.02977968007326126,-0.1518000066280365
1779989098879381500,11.561381591796875,-0.028099801391363144,0.05665775015950203,-0.7079927921295166
1779989098895714300,11.57771435546875,-0.168751522898674,0.03649919852614403,-1.3921618461608887
1779989098912050000,11.5940498046875,-0.30573806166648865,0.009926560334861279,-2.071749448776245
1779989098928384800,11.610384765625,-0.36193767189979553,-0.15974126756191254,-2.6781859397888184
1779989098944718800,11.62671875,-0.34987306594848633,-0.48288896679878235,-3.0754010677337646
1779989098961052200,11.64305224609375,-0.2532036304473877,-0.5623014569282532,-3.3677000999450684
1779989098977385000,11.659385009765625,-0.13316862285137177,-0.4161519408226013,-3.6245689392089844
1779989098993725400,11.675725341796875,0.10048733651638031,-0.15393804013729095,-3.754988670349121
1779989099010055400,11.692055419921875,0.26481008529663086,0.19303341209888458,-3.6662604808807373
1779989099026392300,11.708392333984374,0.25641068816185,0.6296493411064148,-3.377626657485962
1779989099042723800,11.724723876953124,0.24678955972194672,0.9443976879119873,-2.9860620498657227
1779989099059050200,11.74105029296875,0.31871894001960754,0.7509061098098755,-2.6983444690704346
1779989099075399200,11.757399169921875,0.3816380500793457,0.3608686327934265,-2.6190848350524902
1779989099091726800,11.773726806640624,0.15454891324043274,0.0630718395113945,-2.7951667308807373
1779989099108065000,11.79006494140625,-0.4311181604862213,0.1511891484260559,-3.065016269683838
1779989099124384300,11.80638427734375,-0.7266241908073425,0.38240164518356323,-3.193603515625
1779989099140731400,11.8227314453125,-0.8860600590705872,-0.21868975460529327,-3.126102924346924
1779989099157065000,11.83906494140625,-1.2276864051818848,-1.116508960723877,-2.9798007011413574
1779989099173402600,11.855402587890625,-1.4256067276000977,-1.54640531539917,-2.8182268142700195
1779989099189735000,11.87173486328125,-1.3406964540481567,-1.663996934890747,-2.439337730407715
1779989099206070500,11.888070556640624,-1.2750284671783447,-1.4245377779006958,-1.9375118017196655
1779989099222728000,11.90472802734375,-1.129184365272522,-1.515709400177002,-1.4888312816619873
1779989099238742500,11.920742431640624,-0.9721920490264893,-1.5184582471847534,-0.9923505783081055
1779989099255071200,11.9370712890625,-0.9567676782608032,-1.3046554327011108,-0.38438695669174194
1779989099271406800,11.95340673828125,-0.9198103547096252,-0.949895441532135,0.20097467303276062
1779989099287738400,11.96973828125,-0.9054549932479858,-0.3882048726081848,0.7951938509941101
1779989099304078600,11.98607861328125,-0.8281805515289307,-0.060322944074869156,1.255022644996643
1779989099320408000,12.002407958984374,-0.637132465839386,-0.03298672288656235,1.4830280542373657
1779989099336746800,12.018746826171874,-0.35475999116897583,-0.12522737681865692,1.7130188941955566
1779989099353074700,12.03507470703125,-0.13286319375038147,0.14523321390151978,2.0957260131835938
1779989099369404000,12.05140380859375,-0.10415252298116684,0.8210029006004333,1.7392860651016235
1779989099385746200,12.06774609375,-0.38576140999794006,0.7211264371871948,1.4413365125656128
1779989099402080300,12.084080322265624,-0.16661348938941956,0.016951510682702065,2.3069326877593994
1779989099418416600,12.100416748046875,-0.702800452709198,0.10766500234603882,2.629469394683838
1779989099434752000,12.116751953125,-1.0137308835983276,-0.28420504927635193,2.5923593044281006
1779989099451084800,12.133084716796875,-0.8910996913909912,0.10018189996480942,2.6169466972351074
1779989099467418600,12.149418701171875,-0.5233588218688965,0.4671591818332672,2.5689938068389893
1779989099483754500,12.16575439453125,-0.09162978827953339,0.608727216720581,2.3742804527282715
1779989099500088300,12.18208837890625,0.39996400475502014,0.9905179738998413,2.135584831237793
1779989099516423400,12.19842333984375,1.3365731239318848,1.0621418952941895,1.8522961139678955
1779989099532757200,12.21475732421875,2.1337523460388184,0.6096435189247131,1.1088731288909912
1779989099549093000,12.231093017578125,2.3545801639556885,-0.7840455174446106,0.4014911949634552
1779989099565423000,12.247423095703125,2.0509800910949707,-2.616335868835449,0.3585779070854187
1779989099581747000,12.263746826171875,1.163851022720337,-1.8800904750823975,0.9364564418792725
1779989099598090800,12.2800908203125,0.014813481830060482,-0.32391130924224854,1.5897767543792725
1779989099614432500,12.2964326171875,-0.8431467413902283,0.8210029006004333,1.843591332435608
1779989099630758700,12.312758544921875,-1.0193814039230347,1.2793045043945312,1.616044044494629
1779989099647103200,12.329103271484374,-0.9240863919258118,1.0965031385421753,1.3700180053710938
1779989099663428900,12.345428955078125,-0.9248499870300293,0.7973318696022034,1.400255799293518
1779989099679769900,12.361769775390625,-0.9584475755691528,0.5361869931221008,1.5341880321502686
1779989099696100600,12.3781005859375,-0.6249151229858398,0.07131851464509964,1.4211779832839966
1779989099712434200,12.39443408203125,-0.09269879758358002,-0.4245513379573822,0.9352346658706665
1779989099728767200,12.410767333984374,0.26740625500679016,-0.9159924387931824,0.3425426781177521
1779989099745091800,12.427091796875,0.30344730615615845,-0.6293439269065857,-0.03833179548382759
1779989099761428500,12.443428466796876,0.1472185254096985,-0.3549126982688904,-0.22678372263908386
1779989099777773000,12.45977294921875,-0.12339477986097336,0.26022860407829285,-0.3937026560306549
1779989099794106600,12.476106689453125,-0.32940909266471863,1.0862711668014526,-0.4401284158229828
1779989099810438400,12.4924384765625,-0.18310685455799103,1.1395691633224487,-0.4014911949634552
1779989099826780000,12.50877978515625,-0.056352317333221436,0.6165157556533813,-0.33567044138908386
1779989099843112000,12.52511181640625,-0.0027488935738801956,0.7718282341957092,-0.15790866315364838
1779989099859440000,12.541440185546875,0.12308934330940247,0.9295842051506042,0.27947086095809937
1779989099875781000,12.557781005859376,0.27351492643356323,0.056810468435287476,0.7339546084403992
1779989099892116000,12.574115966796874,0.4605923891067505,-0.42378777265548706,1.1311696767807007
1779989099908448000,12.590447998046875,0.5732970237731934,-0.4740314185619354,1.3161091804504395
1779989099924782600,12.606782470703125,0.5858197808265686,-0.4112650156021118,1.2386820316314697
1779989099941117200,12.6231171875,0.52702397108078,-0.28588494658470154,1.1059715747833252
1779989099957448200,12.6394482421875,0.33597588539123535,-0.3121521472930908,1.0245736837387085
1779989099973785000,12.65578515625,0.10033461451530457,-0.41813725233078003,0.9576839804649353
1779989099990121200,12.672121337890625,-0.16539175808429718,-0.0679587572813034,0.9181304574012756
1779989100006451200,12.688451171875,-0.3225368559360504,0.4489859640598297,0.8932377099990845
1779989100022785300,12.704785400390625,-0.17852537333965302,0.4899139404296875,0.7254024744033813
1779989100039124500,12.72112451171875,0.26282477378845215,0.08750644326210022,0.44516804814338684
1779989100055462100,12.737462158203124,0.5624541640281677,-0.17150041460990906,-0.020616702735424042
1779989100071791600,12.75379150390625,0.6427829265594482,0.002138028386980295,-0.6472117304801941
1779989100088137000,12.770136962890625,0.6249151229858398,0.07483099400997162,-1.34283447265625
1779989100104460500,12.78646044921875,0.4833471179008484,-0.058795779943466187,-1.8979582786560059
1779989100120788500,12.80278857421875,0.251676470041275,-0.22296582162380219,-2.3545801639556885
1779989100137130000,12.8191298828125,0.0659734457731247,-0.08491026610136032,-2.685363531112671
1779989100153464300,12.83546435546875,-0.01710422709584236,0.5190827250480652,-2.8606820106506348
1779989100169797600,12.851797607421876,-0.042760565876960754,1.3539828062057495,-2.886032819747925
1779989100186130700,12.868130615234374,0.020463986322283745,1.8567248582839966,-2.643824815750122
1779989100202466600,12.884466552734375,0.0656680166721344,2.110539436340332,-2.2284364700317383
1779989100218801700,12.9008017578125,0.016798794269561768,2.0444133281707764,-1.9536998271942139
1779989100235119900,12.917119873046875,-0.19715675711631775,1.1855367422103882,-1.877341628074646
1779989100251456800,12.933456787109375,-0.3367394804954529,0.182648703455925,-1.742034912109375
1779989100267807200,12.94980712890625,-0.41141775250434875,-0.35659259557724,-1.839773416519165
1779989100284136200,12.96613623046875,-0.5480988621711731,-0.4027129113674164,-2.5329527854919434
1779989100300462800,12.982462890625,-0.717308521270752,-0.380721777677536,-2.8956539630889893
1779989100316806100,12.99880615234375,-0.8866708874702454,-0.759305477142334,-2.858696699142456
1779989100333129500,13.01512939453125,-1.0103710889816284,-1.0723739862442017,-2.7766878604888916
1779989100349477000,13.03147705078125,-1.0097602605819702,-1.2779301404953003,-2.8073840141296387
1779989100365808000,13.04780810546875,-0.9494373202323914,-1.3419182300567627,-2.8377745151519775
1779989100382145300,13.064145263671875,-0.855516791343689,-1.2394455671310425,-2.7421741485595703
1779989100398465500,13.080465576171875,-0.7493789196014404,-1.0793988704681396,-2.473088026046753
1779989100414814000,13.09681396484375,-0.6194173693656921,-1.1846203804016113,-2.2204952239990234
1779989100431145500,13.1131455078125,-0.41493022441864014,-1.0832167863845825,-1.9162843227386475
1779989100447482400,13.129482421875,-0.2515237629413605,-0.8448266386985779,-1.5526667833328247
1779989100463816200,13.145816162109375,-0.1469130963087082,-0.626747727394104,-1.1447614431381226
1779989100480151600,13.162151611328126,-0.09254608303308487,-0.45204028487205505,-0.6067419052124023
1779989100496484400,13.178484375,-0.021838432177901268,-0.40103304386138916,-0.01771509274840355
1779989100512819500,13.1948193359375,0.03573561832308769,-0.361174076795578,0.5439754724502563
1779989100529153500,13.211153564453125,0.08643743395805359,-0.3223841190338135,1.0971139669418335
1779989100545487400,13.2274873046875,0.12339477986097336,-0.5632177591323853,1.5143349170684814
1779989100561817600,13.243817626953126,0.1459967941045761,-0.6921103000640869,1.8478673696517944
1779989100578161400,13.260161376953125,0.16920967400074005,0.16462817788124084,1.3196216821670532
1779989100594488300,13.27648828125,-0.03451388701796532,0.17592918872833252,0.8778133392333984
1779989100610827000,13.292826904296875,-0.07360926270484924,-0.2819143235683441,1.3029755353927612
1779989100627158800,13.30915869140625,0.017867809161543846,-0.3378084897994995,2.006692409515381
1779989100643504000,13.325504150390625,0.12965615093708038,-1.4049900770187378,1.524261474609375
1779989100659828200,13.341828125,-0.03222314268350601,-0.9019425511360168,1.6308574676513672
1779989100676166400,13.35816650390625,-0.32421672344207764,0.4677700698375702,2.0841195583343506
1779989100692495600,13.37449560546875,-0.22663100063800812,2.06854248046875,2.540283203125
1779989100708831200,13.390831298828125,0.3562871515750885,3.0248520374298096,2.691166877746582
1779989100725163500,13.40716357421875,1.0309878587722778,2.7739391326904297,2.693915843963623
1779989100741561000,13.42356103515625,1.4121677875518799,1.8361082077026367,2.425440549850464
1779989100757835500,13.43983544921875,1.574352502822876,0.685390830039978,2.0025689601898193
1779989100774168600,13.45616845703125,1.4665347337722778,-0.4323398768901825,1.6536122560501099
1779989100790504000,13.47250390625,1.0257954597473145,-1.5231925249099731,1.3741413354873657
1779989100806838000,13.488838134765626,0.46792277693748474,-1.9196439981460571,1.3851369619369507
1779989100823171300,13.50517138671875,-0.044287730008363724,-1.2898420095443726,1.7162258625030518
1779989100839504600,13.521504638671875,-0.660192608833313,-0.44516804814338684,2.04960560798645
1779989100855839700,13.53783984375,-1.057865858078003,0.4109596014022827,2.1839959621429443
1779989100872175600,13.554175537109375,-1.03037691116333,0.9147707223892212,2.071902275085449
1779989100888510200,13.57051025390625,-0.790154218673706,0.7499898076057434,1.8828394412994385
1779989100904842000,13.586842041015625,-0.4381431043148041,-0.3043636083602905,1.5386168956756592
1779989100921180000,13.603179931640625,-0.21288654208183289,-0.7777841687202454,1.2994630336761475
1779989100937513500,13.619513427734375,-0.30115658044815063,-0.5480988621711731,1.2651019096374512
1779989100953846000,13.635845947265626,-0.30024027824401855,0.32620203495025635,1.2803735733032227
1779989100970180400,13.652180419921875,-0.12232576310634613,0.8361217975616455,1.0992519855499268
1779989100986495000,13.668494873046875,0.08964447677135468,0.8978192210197449,0.8144360780715942
1779989101002850600,13.6848505859375,0.22403483092784882,0.7203628420829773,0.5797111392021179
1779989101019174100,13.701174072265625,0.19883663952350616,0.656680166721344,0.3885102868080139
1779989101035516400,13.717516357421875,0.11560624837875366,0.892779529094696,0.30970868468284607
1779989101051853300,13.733853271484374,0.14065171778202057,1.154382586479187,0.40133845806121826
1779989101068187400,13.7501875,0.2515237629413605,1.2860240936279297,0.5827654600143433
1779989101084523300,13.766523193359374,0.3985895812511444,1.0309878587722778,0.7837401032447815
1779989101100854000,13.78285400390625,0.5516113042831421,0.517250120639801,1.0386236906051636
1779989101117189000,13.799189208984375,0.6079636216163635,0.1713477075099945,1.2331842184066772
1779989101133525000,13.81552490234375,0.41233405470848083,-0.06750060617923737,1.3122912645339966
1779989101149859000,13.831859130859375,0.2402227520942688,-0.22128593921661377,1.3284791707992554
1779989101166189800,13.84818994140625,0.21624629199504852,-0.03405573591589928,1.1876747608184814
1779989101182526200,13.864526123046875,0.017867809161543846,-0.0354301854968071,0.8651378750801086
1779989101198864000,13.88086376953125,-0.11957687139511108,-0.38087448477745056,0.4222606122493744
1779989101215195400,13.8971953125,-0.11789698898792267,-0.49617528915405273,-0.11010845750570297
1779989101231531500,13.913531494140624,0.06322455406188965,-0.38698312640190125,-0.8171849846839905
1779989101247862300,13.9298623046875,0.23090706765651703,-0.5470298528671265,-1.6528486013412476
1779989101264202800,13.94620263671875,0.36132678389549255,-0.5907067060470581,-2.4127650260925293
1779989101280529400,13.962529296875,0.4248567819595337,-0.38576140999794006,-3.0308079719543457
1779989101296857000,13.978857177734374,0.4862487316131592,-0.260992169380188,-3.5466835498809814
1779989101313202200,13.9952021484375,0.5206099152565002,-0.04856378585100174,-3.8041632175445557
1779989101329527800,14.01152783203125,0.3908010423183441,1.0016663074493408,-3.799276351928711
1779989101345871000,14.02787109375,0.24526239931583405,2.2033908367156982,-3.3899967670440674
1779989101362200300,14.044200439453125,-0.031001411378383636,2.543184757232666,-2.63191294670105
1779989101378540000,14.0605400390625,-0.48029279708862305,1.807397484779358,-1.995696783065796
1779989101394874000,14.0768740234375,-0.6081163287162781,0.5068654417991638,-1.69622004032135
1779989101411208700,14.093208740234376,-0.6771441102027893,-0.6533203721046448,-1.5981762409210205
1779989101427541200,14.109541259765624,-0.7985535860061646,-1.4023939371109009,-1.578781247138977
1779989101443874300,14.125874267578125,-0.8689557909965515,-1.9587393999099731,-2.487596035003662
1779989101460212700,14.142212646484374,-0.7024950385093689,-1.4926491975784302,-3.1662673950195312
1779989101476545300,14.158545166015625,-0.7252497673034668,-0.955545961856842,-3.123353958129883
1779989101492878800,14.17487890625,-0.8675813674926758,-1.0051788091659546,-3.0589077472686768
1779989101509214000,14.1912138671875,-0.9657779335975647,-1.0661125183105469,-2.959489345550537
1779989101525544000,14.2075439453125,-0.9908234477043152,-0.8058840036392212,-2.7174339294433594
1779989101541886200,14.22388623046875,-0.9582948684692383,-0.5607742667198181,-2.3973405361175537
1779989101558214700,14.240214599609375,-0.8301658630371094,-0.4554000496864319,-2.0673208236694336
1779989101574539300,14.256539306640626,-0.6495024561882019,-0.589790403842926,-1.7201964855194092
1779989101590884600,14.272884521484375,-0.4902193546295166,-0.764345109462738,-1.280220866203308
1779989101607207200,14.289207275390625,-0.3830125033855438,-0.8210029006004333,-0.7447974681854248
1779989101623553300,14.30555322265625,-0.35063666105270386,-0.6585127115249634,-0.2002110779285431
1779989101639885300,14.32188525390625,-0.26374107599258423,-0.33567044138908386,0.42042800784111023
1779989101656226600,14.3382265625,-0.0705549344420433,-0.09865473955869675,1.0461066961288452
1779989101672545500,14.354545654296874,0.13729196786880493,-0.08368854224681854,1.5682437419891357
1779989101688890600,14.370890625,0.20097467303276062,-0.05451972410082817,1.9437731504440308
1779989101705224200,14.38722412109375,0.10002918541431427,0.6000223755836487,1.7146987915039062
1779989101721538000,14.4035380859375,-0.13988813757896423,0.6969972252845764,1.6812539100646973
1779989101737894700,14.419894775390626,-0.03894266113638878,0.7371616363525391,1.8313740491867065
1779989101754227700,14.436227783203124,0.04612032696604729,1.4045319557189941,2.4915666580200195
1779989101770563000,14.45256298828125,-0.11789698898792267,0.06276640295982361,2.085494041442871
1779989101786897400,14.4688974609375,-0.24816401302814484,0.09162978827953339,2.1177170276641846
1779989101803231700,14.485231689453125,-0.23335053026676178,0.49296826124191284,2.358856201171875
1779989101819565800,14.50156591796875,-0.0032070425804704428,0.8717046976089478,2.6650524139404297
1779989101835901200,14.517901123046874,0.5099197626113892,1.2904528379440308,2.713463306427002
1779989101852232200,14.534232177734374,1.161102056503296,1.479362964630127,2.398104190826416
1779989101868568600,14.550568603515625,1.463022232055664,1.0065531730651855,1.8990273475646973
1779989101884902700,14.566902587890626,1.3242031335830688,-0.2243402600288391,1.4749341011047363
1779989101901236200,14.583236328125,1.114981770515442,-1.4213306903839111,1.2652546167373657
1779989101917564700,14.599564697265626,0.6910412907600403,-1.8978055715560913,1.348484992980957
1779989101933906400,14.615906494140624,0.2125810980796814,-1.799150824546814,1.5146403312683105
1779989101950229000,14.63222900390625,-0.32360586524009705,-1.3385584354400635,1.633148193359375
1779989101966574600,14.64857470703125,-0.8805622458457947,-0.7072292566299438,1.7043139934539795
1779989101982895900,14.664895751953125,-1.0768027305603027,0.07971791177988052,1.7056884765625
1779989101999243300,14.6812431640625,-0.8828529715538025,0.7212791442871094,1.57313072681427
1779989102015575000,14.697574951171875,-0.5067127346992493,0.5887213945388794,1.3535246849060059
1779989102031917600,14.71391748046875,-0.039706241339445114,-0.14737124741077423,0.9917397499084473
1779989102048246800,14.730246826171875,0.05115996301174164,-0.48517972230911255,0.6517932415008545
1779989102064580600,14.74658056640625,-0.009010262787342072,-0.1846340149641037,0.5726861953735352
1779989102080912400,14.762912353515626,-0.07956519722938538,0.1719585657119751,0.5079344511032104
1779989102097249300,14.779249267578125,-0.11560624837875366,0.3101668357849121,0.42119157314300537
1779989102113583400,14.795583251953126,-0.08704829961061478,0.29764407873153687,0.270766019821167
1779989102129913300,14.811913330078125,-0.00733038317412138,0.34544429183006287,0.07742717117071152
1779989102146245000,14.8282451171875,0.04398229718208313,0.4973970353603363,-0.029626963660120964
1779989102162584800,14.844584716796875,0.13148874044418335,0.6615670323371887,0.058337632566690445
1779989102178918700,14.860918701171874,0.21792617440223694,0.6795876026153564,0.152105450630188
1779989102195255000,14.877255126953125,0.2698497176170349,0.8432994484901428,0.294895201921463
1779989102211574500,14.893574462890625,0.33139440417289734,1.104138970375061,0.5998696684837341
1779989102227923200,14.909923095703125,0.3497203588485718,0.9966266751289368,0.9381362795829773
1779989102244257500,14.926257568359375,0.35216382145881653,0.6252205967903137,1.2924381494522095
1779989102260591900,14.942591796875,0.3929390609264374,-0.013591751456260681,1.5587754249572754
1779989102276925000,14.958925048828124,0.25671613216400146,-0.49586987495422363,1.6410894393920898
1779989102293258800,14.9752587890625,-0.018325956538319588,-0.5386304259300232,1.5143349170684814
1779989102309583600,14.99158349609375,-0.21441370248794556,-0.10186178237199783,1.2455542087554932
1779989102325927700,15.007927734375,-0.3605632185935974,-0.1492038369178772,0.8553640842437744
1779989102342261000,15.024260986328125,-0.36942076683044434,-0.39248090982437134,0.4473060667514801
1779989102358603500,15.040603515625,-0.43020185828208923,-0.5378668308258057,0.14492778480052948
1779989102374931700,15.056931640625,-0.34926220774650574,-0.5552765130996704,-0.31780263781547546
1779989102391267000,15.07326708984375,-0.08155050873756409,-0.7331910133361816,-1.009149432182312
1779989102407598300,15.089598388671876,0.28695395588874817,-0.8804095387458801,-1.6549866199493408
1779989102423933200,15.10593310546875,0.5583308339118958,-0.7582364678382874,-2.214233875274658
1779989102440269000,15.12226904296875,0.7363980412483215,-0.5606215596199036,-2.688112497329712
1779989102456603100,15.13860302734375,0.8684976696968079,-0.3735440969467163,-3.1702380180358887
1779989102472936200,15.154936279296875,0.8434522151947021,0.23396138846874237,-3.606701135635376
1779989102489271600,15.171271484375,0.6246097087860107,1.2713632583618164,-3.6752707958221436
1779989102505603000,15.18760302734375,0.4303545653820038,1.6780468225479126,-3.372739791870117
1779989102521941500,15.20394140625,0.2970332205295563,1.9588921070098877,-2.662761688232422
1779989102538274000,15.220274169921876,0.0024434609804302454,1.9886717796325684,-2.0726656913757324
1779989102554609200,15.236609130859375,-0.27488934993743896,1.4998269081115723,-1.8379408121109009
1779989102570942700,15.252942626953125,-0.5670356750488281,0.37980547547340393,-1.7620408535003662
1779989102587284700,15.26928466796875,-0.7632761001586914,-0.5737552046775818,-1.8144224882125854
1779989102603609300,15.285609375,-0.903164267539978,-1.2739595174789429,-2.543031930923462
1779989102619946000,15.301946044921875,-0.7680103182792664,-1.7777706384658813,-3.107318878173828
1779989102636278500,15.318278564453125,-0.7570147514343262,-1.479668378829956,-3.0726521015167236
1779989102652614400,15.334614501953125,-0.816726803779602,-1.1505646705627441,-3.0921998023986816
1779989102668946000,15.35094580078125,-0.8428413271903992,-0.9847147464752197,-3.1703906059265137
1779989102685282300,15.3672822265625,-0.8462010622024536,-0.8425359129905701,-3.0755538940429688
1779989102701629200,15.383629150390625,-0.6956228017807007,-0.9419541954994202,-2.7768406867980957
1779989102717948700,15.39994873046875,-0.5352706909179688,-1.0151053667068481,-2.3663392066955566
1779989102734288100,15.4162880859375,-0.38240164518356323,-0.8225300312042236,-1.8193094730377197
1779989102750620000,15.432619873046875,-0.3562871515750885,-0.6963863968849182,-1.214552879333496
1779989102766952700,15.44895263671875,-0.3880521357059479,-0.5577199459075928,-0.5760459303855896
1779989102783288300,15.465288330078126,-0.3911064863204956,-0.342237263917923,0.08032877743244171
1779989102799620000,15.4816201171875,-0.2770273983478546,-0.051770828664302826,0.6569855809211731
1779989102815954200,15.4979541015625,-0.13057245314121246,0.010537425056099892,1.1227703094482422
1779989102832279800,15.51427978515625,-0.06918048858642578,-0.14905111491680145,1.4501941204071045
1779989102848624400,15.530624267578125,-0.08048149943351746,-0.3355177342891693,1.8037323951721191
1779989102864959200,15.546959228515625,-0.20631973445415497,-0.33429601788520813,2.536923408508301
1779989102881286100,15.5632861328125,-0.3423899710178375,0.6783658266067505,2.705369472503662
1779989102897624300,15.579624267578126,-0.2252565622329712,1.2450960874557495,2.342057466506958
1779989102913966600,15.595966552734374,0.07284568250179291,1.2388347387313843,2.4796547889709473
1779989102930293500,15.61229345703125,0.03634648025035858,1.7686076164245605,2.9219212532043457
1779989102946631400,15.62863134765625,-0.3527746796607971,0.49617528915405273,2.3072381019592285
1779989102962966500,15.644966552734376,-0.2675589919090271,0.7101308703422546,2.1952970027923584
1779989102979298800,15.661298828125,-0.003054326167330146,1.0948232412338257,2.356260061264038
1779989102995631600,15.677631591796874,0.31902438402175903,1.5143349170684814,2.531578302383423
1779989103011967700,15.6939677734375,0.6916521787643433,2.1305453777313232,2.3348796367645264
1779989103028302600,15.710302490234374,1.0280861854553223,2.339308500289917,2.0482311248779297
1779989103044624100,15.7266240234375,1.3463469743728638,1.3527610301971436,2.0532708168029785
1779989103060969500,15.742969482421875,1.3232868909835815,-0.22632557153701782,1.832901120185852
1779989103077301200,15.75930126953125,0.99876469373703,-1.2353222370147705,1.5445728302001953
1779989103093642500,15.775642578125,0.48380526900291443,-1.3700180053710938,1.5326608419418335
1779989103109974000,15.79197412109375,0.033597588539123535,-0.9280570149421692,1.702786922454834
1779989103126306800,15.808306884765624,-0.36010506749153137,-0.3243694305419922,1.8064812421798706
1779989103142642400,15.824642333984375,-0.7625125646591187,0.13805554807186127,1.6859880685806274
1779989103158977000,15.84097705078125,-1.0253373384475708,0.6194173693656921,1.5192219018936157
1779989103175313700,15.857313720703125,-0.9535606503486633,0.9663888216018677,1.315956473350525
1779989103191642600,15.873642578125,-0.37430769205093384,0.782976508140564,0.9844093322753906
1779989103207976400,15.8899765625,0.13072516024112701,0.24938572943210602,0.4746423065662384
1779989103224315400,15.9063154296875,0.22663100063800812,-0.2200642079114914,0.2542726695537567
1779989103240647200,15.922647216796875,0.1417207419872284,-0.14248432219028473,0.460897833108902
1779989103256984000,15.938984130859374,-0.10461067408323288,0.056352317333221436,0.5792529582977295
1779989103273313800,15.955313720703124,-0.30573806166648865,0.14416420459747314,0.5633704662322998
1779989103289650700,15.971650634765625,-0.3029891550540924,0.23655757308006287,0.42867469787597656
1779989103305983700,15.987983642578126,-0.11698069423437119,0.4356996417045593,0.30573806166648865
1779989103322315500,16.0043154296875,0.0025961773935705423,0.6539312601089478,0.21380282938480377
1779989103338658800,16.020658935546876,0.0633772686123848,0.8449793457984924,0.17730364203453064
1779989103354984000,16.03698388671875,0.20066922903060913,0.9947940707206726,0.3107776939868927
1779989103371323600,16.05332373046875,0.32681289315223694,0.8481863737106323,0.545655369758606
1779989103387652000,16.069652099609375,0.38667771220207214,0.5593998432159424,0.7988590002059937
1779989103403990300,16.085990234375,0.4054618179798126,0.40026944875717163,1.078940749168396
1779989103420323300,16.1023232421875,0.5334380865097046,0.14844025671482086,1.301142930984497
1779989103436646400,16.118646484375,0.6362161636352539,-0.3124575614929199,1.2507466077804565
1779989103452979700,16.134979736328123,0.44196099042892456,-0.5306891798973083,1.0841331481933594
1779989103469327600,16.15132763671875,0.1999056488275528,-0.1768454909324646,0.8910996913909912
1779989103485658600,16.16765869140625,0.15317445993423462,0.0607810914516449,0.6536257863044739
1779989103501994200,16.183994140625,-0.03756821155548096,-0.2076941877603531,0.34147366881370544
1779989103518332400,16.20033251953125,-0.13561208546161652,-0.4824308156967163,0.06490442901849747
1779989103534664200,16.216664306640624,-0.11988230794668198,-0.5829181671142578,-0.39965859055519104
1779989103550998000,16.232998046875,0.04444044828414917,-0.5468770861625671,-1.0858129262924194
1779989103567332600,16.24933251953125,0.21578814089298248,-0.4688390791416168,-1.7765488624572754
1779989103583666400,16.26566650390625,0.45494189858436584,-0.30085113644599915,-2.3353378772735596
1779989103600001000,16.2820009765625,0.5948300361633301,-0.30405816435813904,-2.833193063735962
1779989103616336000,16.2983359375,0.47907108068466187,-0.11010845750570297,-3.2867605686187744
1779989103632668200,16.314668212890624,0.1866193264722824,0.4645630121231079,-3.4932329654693604
1779989103649001500,16.33100146484375,0.0832303911447525,0.9743300676345825,-3.3366987705230713
1779989103665342700,16.3473427734375,-0.10354165732860565,1.4501941204071045,-2.875495433807373
1779989103681659000,16.363658935546876,-0.3637702465057373,1.7881553173065186,-2.3380868434906006
1779989103698007300,16.38000732421875,-0.3387247920036316,1.6297885179519653,-1.8831448554992676
1779989103714339300,16.39633935546875,-0.318566232919693,0.9071348905563354,-1.6742289066314697
1779989103730674700,16.4126748046875,-0.422871470451355,-0.37690386176109314,-1.8926132917404175
1779989103747009300,16.42900927734375,-0.4680754840373993,-1.1187996864318848,-2.386650562286377
1779989103763342600,16.445342529296877,-0.5227479338645935,-1.3617713451385498,-2.8234190940856934
1779989103779668500,16.46166845703125,-0.5195409059524536,-1.447597861289978,-3.1277828216552734
1779989103796012000,16.478011962890626,-0.5325217843055725,-1.485318899154663,-3.2313244342803955
1779989103812345300,16.494345458984377,-0.6482807397842407,-1.3002266883850098,-3.2817208766937256
1779989103828681500,16.510681396484376,-0.7628179788589478,-1.074817419052124,-3.2375857830047607
1779989103844991700,16.52699169921875,-0.7406741380691528,-1.1151344776153564,-3.1364874839782715
1779989103861348900,16.543348876953125,-0.5824599862098694,-1.1281154155731201,-2.825557231903076
1779989103877667000,16.5596669921875,-0.41370847821235657,-1.1661417484283447,-2.4190263748168945
1779989103894019300,16.576019287109375,-0.21563543379306793,-0.903775155544281,-1.9016234874725342
1779989103910350600,16.5923505859375,-0.1872301995754242,-0.6641632318496704,-1.3028228282928467
1779989103926686000,16.60868603515625,-0.20143280923366547,-0.5842925906181335,-0.6524040699005127
1779989103943008500,16.625008544921876,-0.2028072625398636,-0.3147483170032501,0.076052725315094
1779989103959350800,16.641350830078125,-0.13836097717285156,-0.03649919852614403,0.7849618196487427
1779989103975689200,16.657689208984376,-0.027183502912521362,-0.052839845418930054,1.3611605167388916
1779989103992022500,16.6740224609375,0.040164388716220856,-0.09575312584638596,1.7230981588363647
1779989104008357000,16.690357177734374,0.018478672951459885,0.08017606288194656,1.7374534606933594
1779989104024686600,16.7066865234375,-0.2562579810619354,0.31749722361564636,1.9294178485870361
1779989104041027600,16.723027587890623,-0.327271044254303,0.4639521539211273,2.4269676208496094
1779989104057356300,16.739356201171876,-0.14324790239334106,1.3026701211929321,2.806009531021118
1779989104073692000,16.75569189453125,0.037110064178705215,0.9089674949645996,2.626567840576172
1779989104090033200,16.772033203125,-0.008857546374201775,0.656680166721344,2.317164659500122
1779989104106347800,16.78834765625,0.06001751124858856,1.107040524482727,2.3855814933776855
1779989104122696700,16.80469677734375,0.17852537333965302,1.5445728302001953,2.67757511138916
1779989104139034400,16.821034423828124,0.44837507605552673,2.1363484859466553,2.889545440673828
1779989104155366100,16.8373662109375,0.8846855759620667,2.3680191040039062,2.7206411361694336
1779989104171698200,16.8536982421875,1.2754865884780884,1.942704200744629,2.295020818710327
1779989104188034800,16.870034912109375,1.3765848875045776,0.5598580241203308,1.746311068534851
1779989104204358100,16.886358154296875,1.178053617477417,-1.1140655279159546,1.2090550661087036
1779989104220691700,16.902691650390626,0.727082371711731,-1.7794504165649414,1.035722017288208
1779989104237033000,16.919032958984374,0.23671028017997742,-1.5265522003173828,1.2263119220733643
1779989104253372200,16.9353720703125,-0.25961771607398987,-0.9863946437835693,1.4813482761383057
1779989104269702700,16.95170263671875,-0.7757988572120667,-0.4112650156021118,1.6056592464447021
1779989104286039600,16.96803955078125,-1.0097602605819702,0.15134187042713165,1.632842779159546
1779989104302371600,16.98437158203125,-0.8825475573539734,0.5748242139816284,1.5303701162338257
1779989104318708500,17.00070849609375,-0.4859432876110077,0.5850561857223511,1.310916781425476
1779989104335043300,17.017043212890623,-0.0354301854968071,0.08032877743244171,0.8788823485374451
1779989104351375600,17.033375732421874,0.003817907767370343,-0.36590829491615295,0.4795292317867279
1779989104367709400,17.04970947265625,-0.11591167747974396,-0.15836681425571442,0.5132794976234436
1779989104384047400,17.06604736328125,-0.24358251690864563,0.23640485107898712,0.6186537742614746
1779989104400371000,17.082370849609376,-0.33399057388305664,0.33735033869743347,0.5112941861152649
1779989104416723200,17.09872314453125,-0.36850446462631226,0.3599523603916168,0.38179078698158264
1779989104433050600,17.115050537109376,-0.28435778617858887,0.6145304441452026,0.25732699036598206
1779989104449380900,17.131380859375,-0.18005253374576569,0.8845328688621521,0.2073887437582016
1779989104465713700,17.147713623046876,0.00427605677396059,0.8463537693023682,0.20922134816646576
1779989104482054100,17.16405419921875,0.260992169380188,0.6178901791572571,0.23167064785957336
1779989104498382800,17.1803828125,0.3845396637916565,0.6041457056999207,0.3988949954509735
1779989104514717700,17.1967177734375,0.44913867115974426,0.8428413271903992,0.6177374720573425
1779989104531050500,17.213050537109375,0.4573853611946106,1.0088438987731934,0.8185594081878662
1779989104547386000,17.22938623046875,0.46273043751716614,0.7973318696022034,1.1323914527893066
1779989104563719400,17.245719482421876,0.46899178624153137,0.2921462953090668,1.4689781665802002
1779989104580056600,17.262056640625,0.4586070775985718,-0.2912299931049347,1.5891659259796143
1779989104596390000,17.278389892578126,0.2125810980796814,-0.6624833345413208,1.5073100328445435
1779989104612723200,17.29472314453125,0.06169738993048668,-0.37751471996307373,1.315040111541748
1779989104629042000,17.3110419921875,0.15363261103630066,-0.37262779474258423,0.9578366875648499
1779989104645412600,17.32741259765625,0.13561208546161652,-0.7666358947753906,0.5748242139816284
1779989104661712400,17.34371240234375,0.015882495790719986,-0.9388998746871948,0.17608191072940826
1779989104678060800,17.360060791015623,0.04199698567390442,-0.7070765495300293,-0.46761733293533325
1779989104694391800,17.376391845703125,0.11163562536239624,-0.4259257912635803,-1.2631165981292725
1779989104710728200,17.392728271484376,0.11423180252313614,-0.31520646810531616,-1.8272507190704346
1779989104727063000,17.40906298828125,0.1391245573759079,-0.21823160350322723,-2.073734760284424
1779989104743396600,17.425396728515626,0.1892155110836029,-0.01237002108246088,-2.2145392894744873
1779989104759729400,17.4417294921875,0.22403483092784882,0.33796119689941406,-2.426203966140747
1779989104776052200,17.45805224609375,0.17516560852527618,0.7489207983016968,-2.644282817840576
1779989104792398600,17.474398681640626,0.06887505948543549,0.9640980958938599,-2.791959524154663
1779989104808733200,17.490733154296876,0.013591751456260681,0.7289149761199951,-2.7099509239196777
1779989104825065700,17.507065673828127,0.053297992795705795,0.4841107130050659,-2.4443771839141846
1779989104841388800,17.523388916015627,0.05757404863834381,0.5287038683891296,-2.1879665851593018
1779989104857736400,17.539736328125,0.07009678333997726,0.2587014436721802,-2.09083890914917
1779989104874068700,17.55606884765625,0.05711590126156807,-0.26343563199043274,-2.183232307434082
1779989104890403600,17.572403564453126,0.04596760869026184,-0.5109887719154358,-2.4717135429382324
1779989104906738200,17.58873828125,-0.0039706239476799965,-0.4277583956718445,-2.690861463546753
1779989104923071500,17.605071533203127,-0.2941316068172455,-0.5051855444908142,-2.749962568283081
1779989104939387100,17.62138720703125,-0.5722280144691467,-0.641255795955658,-2.74385404586792
1779989104955739000,17.63773876953125,-0.5879577994346619,-0.8512406945228577,-2.822197437286377
1779989104972073700,17.65407373046875,-0.6174320578575134,-1.0616837739944458,-3.0298917293548584
1779989104988409900,17.670409912109374,-0.5771149396896362,-0.912938117980957,-3.1140382289886475
1779989105004743700,17.68674365234375,-0.485027015209198,-0.8976664543151855,-3.064863681793213
1779989105021078300,17.703078369140623,-0.36453384160995483,-1.125366449356079,-2.869692087173462
1779989105037409300,17.7194091796875,-0.28557950258255005,-1.158505916595459,-2.557387351989746
1779989105053746400,17.735746337890625,-0.25854870676994324,-0.9863946437835693,-2.196976900100708
1779989105070077400,17.752077392578126,-0.2952006161212921,-0.8432994484901428,-1.788002610206604
1779989105086416100,17.768416015625,-0.3341432809829712,-0.7699956297874451,-1.2498302459716797
1779989105102743800,17.784743896484375,-0.41004329919815063,-0.6507241725921631,-0.5931501388549805
1779989105119082000,17.80108203125,-0.4558582007884979,-0.4366159439086914,0.029474247246980667
1779989105135418400,17.81741845703125,-0.44058656692504883,-0.23487769067287445,0.6010913848876953
1779989105151747800,17.833747802734376,-0.4138612151145935,-0.275958389043808,1.115287184715271
1779989105168085200,17.850085205078123,-0.4534147381782532,-0.41233405470848083,1.5902349948883057
1779989105184420400,17.86642041015625,-0.46502116322517395,-0.40515637397766113,2.018451452255249
1779989105200753700,17.882753662109376,-0.508087158203125,0.3462078869342804,1.991573452949524
1779989105217083400,17.89908349609375,-0.5526803135871887,0.9103419184684753,1.8272507190704346
1779989105233430300,17.91543017578125,-0.11652254313230515,0.48517972230911255,1.7484490871429443
1779989105249759000,17.931759033203125,-0.07513642311096191,0.5965099334716797,1.927890658378601
1779989105266089200,17.948089111328127,-0.3727805018424988,0.021074850112199783,1.9448422193527222
1779989105282424000,17.964424072265626,-0.5587889552116394,0.3604104816913605,2.230116367340088
1779989105298754600,17.980754638671876,-0.413555771112442,0.9188940525054932,2.584876298904419
1779989105315095300,17.99709521484375,-0.12370020896196365,1.1977540254592896,2.858543872833252
1779989105331427000,18.013427001953126,0.2845104932785034,1.680795669555664,2.861750841140747
1779989105347761200,18.02976123046875,0.8194757103919983,1.7318029403686523,2.5390613079071045
1779989105364095000,18.046094970703123,1.1426234245300293,1.2455542087554932,2.2290472984313965
1779989105380431400,18.062431396484374,1.1125383377075195,0.2370157092809677,1.993406057357788
1779989105396763100,18.07876318359375,1.0242682695388794,-0.9305005073547363,1.7730363607406616
1779989105413097200,18.09509716796875,0.7389942407608032,-1.5462526082992554,1.5042556524276733
1779989105429431000,18.11143115234375,0.4564690589904785,-1.877036213874817,1.5377005338668823
1779989105445766000,18.127765869140624,0.036041051149368286,-1.7011070251464844,1.9573649168014526
1779989105462101500,18.1441015625,-0.5019785165786743,-1.1345294713974,2.283108949661255
1779989105478434300,18.160434326171874,-0.9808968901634216,-0.384845107793808,2.3122775554656982
1779989105494769700,18.176769775390625,-1.171334147453308,0.2961169183254242,2.031737804412842
1779989105511105300,18.193105224609376,-0.9656252264976501,0.7611380815505981,1.5913039445877075
1779989105527437600,18.2094375,-0.370947927236557,0.5725334286689758,1.140179991722107
1779989105543771000,18.22577099609375,0.07880161702632904,-0.05314527451992035,0.6264423131942749
1779989105560107500,18.242107421875,0.058184914290905,-0.6860016584396362,0.41111230850219727
1779989105576438800,18.258438720703126,-0.09957103431224823,-0.11041389405727386,0.6185010671615601
1779989105592774400,18.2747744140625,-0.19226983189582825,0.5540547966957092,0.6032294034957886
1779989105609109000,18.29110888671875,-0.23915374279022217,0.6982190012931824,0.45265114307403564
1779989105625441300,18.307441162109374,-0.13744467496871948,0.5725334286689758,0.19654589891433716
1779989105641763300,18.323763427734374,-0.038637228310108185,0.6959282159805298,-0.010842857882380486
1779989105658113500,18.340113525390624,-0.04612032696604729,0.6762278079986572,-0.06001751124858856
1779989105674436400,18.356436279296876,-0.02474004216492176,0.5766568183898926,0.02428189292550087
1779989105690779400,18.372779296875,0.025656340643763542,0.5247332453727722,0.078343465924263
1779989105707115800,18.38911572265625,0.0832303911447525,0.5054910182952881,0.09743300825357437
1779989105723447600,18.405447509765626,0.14645494520664215,0.4495968222618103,0.21349740028381348
1779989105739779300,18.421779296875,0.25366178154945374,0.2863430976867676,0.3865249752998352
1779989105756114700,18.43811474609375,0.3459024429321289,0.08674286305904388,0.5213735103607178
1779989105772437500,18.4544375,0.46700647473335266,0.17623461782932281,0.8069530129432678
1779989105788784400,18.470784423828125,0.6114761233329773,0.2588541507720947,1.102917194366455
1779989105805119700,18.48711962890625,0.6079636216163635,0.11224649101495743,1.2289081811904907
1779989105821455600,18.50345556640625,0.35842517018318176,-0.08048149943351746,1.239292860031128
1779989105837787400,18.519787353515625,0.026572637259960175,0.056352317333221436,1.3055717945098877
1779989105854119700,18.53611962890625,-0.04184427112340927,0.6600399017333984,1.4300355911254883
1779989105870452700,18.55245263671875,0.09941831976175308,0.11682797968387604,1.288467526435852
1779989105886789400,18.568789306640625,0.14034628868103027,-0.7473936080932617,0.9387471675872803
1779989105903124500,18.58512451171875,0.3078760802745819,-0.6939429044723511,0.40515637397766113
1779989105919457500,18.60145751953125,0.37919458746910095,-0.22098049521446228,-0.251218318939209
1779989105935789300,18.617789306640624,0.37751471996307373,-0.04001167416572571,-0.7913759350776672
1779989105952126700,18.634126708984375,0.3903428912162781,-0.11575896292924881,-1.280220866203308
1779989105968455400,18.650455322265625,0.33399057388305664,-0.2768746614456177,-1.7140878438949585
1779989105984799500,18.666799560546874,0.2590068578720093,-0.25793784856796265,-2.1587977409362793
1779989106001114600,18.683114501953124,0.1563815027475357,-0.022602014243602753,-2.651613235473633
1779989106017455600,18.69945556640625,0.1837177276611328,0.20326541364192963,-3.160311460494995
1779989106033802500,18.715802490234374,0.347276896238327,0.7122688889503479,-3.4125986099243164
1779989106050137600,18.7321376953125,0.4309654235839844,1.6369661092758179,-3.2924108505249023
1779989106066462500,18.74846240234375,0.32589662075042725,2.5889995098114014,-2.9379563331604004
1779989106082786300,18.764786376953126,0.168751522898674,3.092658042907715,-2.244471549987793
1779989106099121200,18.78112109375,0.00366519158706069,2.5670084953308105,-1.7565430402755737
1779989106115466200,18.79746630859375,-0.3266601860523224,0.9285151958465576,-1.6560556888580322
1779989106131795200,18.813795166015623,-0.5745187401771545,-0.34025195240974426,-2.255161762237549
1779989106148141600,18.8301416015625,-0.4277583956718445,-0.7312057018280029,-3.318678140640259
1779989106164470300,18.84647021484375,-0.3539963960647583,-0.9326385259628296,-3.738342523574829
1779989106180804400,18.862804443359376,-0.4607451260089874,-0.8588765263557434,-3.484375476837158
1779989106197136600,18.87913671875,-0.5983424782752991,-0.9541715383529663,-3.419471025466919
1779989106213473500,18.8954736328125,-0.68325275182724,-0.911410927772522,-3.411835193634033
1779989106229806600,18.911806640625,-0.7385360598564148,-0.7869471311569214,-3.333644390106201
1779989106246142000,18.928141845703124,-0.6670648455619812,-0.879187822341919,-3.0312659740448
1779989106262473200,18.94447314453125,-0.5404630303382874,-1.081842303276062,-2.6247353553771973
1779989106278809300,18.960809326171876,-0.3367394804954529,-1.1383473873138428,-2.1288654804229736
1779989106295138800,18.977138916015626,-0.22892175614833832,-1.120937705039978,-1.5688546895980835
1779989106311480800,18.993480712890626,-0.24388794600963593,-1.017396092414856,-0.8672759532928467
1779989106327811000,19.00981103515625,-0.27061331272125244,-0.7673994898796082,-0.07406741380691528
1779989106344146700,19.026146728515624,-0.22937989234924316,-0.3851505517959595,0.7458664774894714
1779989106360480000,19.04247998046875,-0.09483683109283447,-0.18188512325286865,1.4358386993408203
1779989106376814300,19.058814453125,0.033139441162347794,-0.3556762933731079,1.8771889209747314
1779989106393145900,19.075145751953126,0.05390885844826698,-0.4011857509613037,2.2730295658111572
1779989106409482500,19.091482421875,0.03222314268350601,0.3205515444278717,2.0952677726745605
1779989106425815300,19.107815185546876,-0.11636982858181,0.5438227653503418,2.088548183441162
1779989106442151000,19.12415087890625,-0.012675453908741474,0.8929322957992554,2.1390974521636963
1779989106458482700,19.140482666015625,-0.25045475363731384,1.9265162944793701,2.8327348232269287
1779989106474819000,19.156819091796876,-0.5287038683891296,0.39904773235321045,2.286621332168579
1779989106491153200,19.173153076171875,-0.675616979598999,0.14126259088516235,2.274709463119507
1779989106507487200,19.1894873046875,-0.47540587186813354,0.27947086095809937,2.4323127269744873
1779989106523820500,19.205820556640624,-0.11407908797264099,0.3257438838481903,2.5505151748657227
1779989106540156400,19.222156494140624,0.24587325751781464,0.6317873597145081,2.4164302349090576
1779989106556489700,19.23848974609375,0.7648032903671265,1.0604621171951294,2.04349684715271
1779989106572823600,19.254823486328124,1.190729022026062,0.513126790523529,1.6004669666290283
1779989106589157000,19.2711572265625,1.078635334968567,-1.10139000415802,1.3324497938156128
1779989106605491000,19.287490966796874,0.7200574278831482,-1.695609211921692,1.3309226036071777
1779989106621811700,19.303811767578125,0.33719760179519653,-1.3756685256958008,1.4767667055130005
1779989106638145500,19.3201455078125,-0.4109596014022827,-0.9057604670524597,1.6760615110397339
1779989106654496800,19.336496826171874,-0.9929614663124084,-0.2623666226863861,1.7495180368423462
1779989106670815500,19.3528154296875,-1.130711555480957,0.3735440969467163,1.5749633312225342
1779989106687162600,19.36916259765625,-0.902553379535675,0.7861835956573486,1.3675745725631714
1779989106703497500,19.38549755859375,-0.42791110277175903,0.6754642724990845,1.1160508394241333
1779989106719830000,19.401830078125,-0.22876903414726257,0.04214970022439957,0.9283624291419983
1779989106736163800,19.418163818359375,-0.24159720540046692,-0.21212296187877655,0.9147707223892212
1779989106752499500,19.43449951171875,-0.20402899384498596,-0.11988230794668198,0.9491318464279175
1779989106768832800,19.450832763671876,-0.17852537333965302,-0.005345070734620094,0.8370380997657776
1779989106785169400,19.46716943359375,-0.21578814089298248,-0.03741549700498581,0.7021896243095398
1779989106801501400,19.48350146484375,-0.21135938167572021,-0.05864306539297104,0.6094908118247986
1779989106817836000,19.4998359375,-0.1319468915462494,0.23671028017997742,0.5859724879264832
1779989106834160000,19.51616015625,-0.005803219974040985,0.5077817440032959,0.5424483418464661
1779989106850503200,19.532503173828125,0.10170906037092209,0.5027421116828918,0.4567744731903076
1779989106866835700,19.548835693359376,0.1485929638147354,0.6798930168151855,0.5218316316604614
1779989106883175200,19.565175048828124,0.22189679741859436,1.023352026939392,0.6815729141235352
1779989106899504600,19.581504638671873,0.31230485439300537,1.1888965368270874,0.8440630435943604
1779989106915838700,19.597838623046876,0.3455969989299774,0.9711230397224426,1.0283915996551514
1779989106932174600,19.614174560546875,0.379652738571167,0.3901901841163635,1.2454015016555786
1779989106948509200,19.63050927734375,0.35521814227104187,-0.21120665967464447,1.355051875114441
1779989106964842800,19.6468427734375,0.13439035415649414,-0.37629300355911255,1.3359622955322266
1779989106981176600,19.663176513671875,0.10644327104091644,0.15103642642498016,1.0485502481460571
1779989106997493500,19.679493408203125,0.18066339194774628,0.21319197118282318,0.603687584400177
1779989107013850000,19.69585009765625,0.05864306539297104,-0.06414084881544113,0.20983220636844635
1779989107030175200,19.71217529296875,-0.021991148591041565,-0.33307427167892456,-0.11178833991289139
1779989107046517000,19.72851708984375,0.004886921960860491,-0.5410739183425903,-0.4308127164840698
1779989107062846700,19.7448466796875,0.0607810914516449,-0.5879577994346619,-0.9024006724357605
1779989107079181800,19.761181884765627,0.21624629199504852,-0.5632177591323853,-1.4952454566955566
1779989107095515000,19.777514892578125,0.5126686692237854,-0.37430769205093384,-2.13818097114563
1779989107111843800,19.79384375,0.7573201656341553,-0.15561792254447937,-2.7815749645233154
1779989107128185900,19.810185791015623,0.926224410533905,0.21823160350322723,-3.3701436519622803
1779989107144522500,19.8265224609375,0.9515753388404846,0.598953366279602,-3.620751142501831
1779989107160852500,19.8428525390625,0.9156870245933533,1.0923798084259033,-3.536909818649292
1779989107177185500,19.859185546875,0.7490735054016113,1.3723087310791016,-3.132211446762085
1779989107193518800,19.875518798828125,0.3842342495918274,1.4862351417541504,-2.158034086227417
1779989107209857000,19.89185693359375,0.07406741380691528,1.595274567604065,-1.3390166759490967
1779989107226188800,19.908188720703127,-0.003512475173920393,1.5037975311279297,-1.3335188627243042
1779989107242522400,19.9245224609375,-0.006108652334660292,0.9515753388404846,-1.8507689237594604
1779989107258857700,19.940857666015624,0.05955936014652252,0.4486805200576782,-2.439643144607544
1779989107275191600,19.957191650390627,-0.02932153269648552,-0.31123584508895874,-2.72965145111084
1779989107291526100,19.973526123046874,-0.3274237811565399,-1.0850493907928467,-2.7177395820617676
1779989107307859000,19.98985888671875,-0.4282165467739105,-1.5635095834732056,-2.7453811168670654
1779989107324193800,20.00619384765625,-0.5002986192703247,-1.5334244966506958,-2.8382327556610107
1779989107340526600,20.022526611328125,-0.5207626223564148,-1.1325441598892212,-2.8852691650390625
1779989107356862200,20.0388623046875,-0.4885394871234894,-0.8498662710189819,-2.9023735523223877
1779989107373183000,20.055182861328124,-0.4631885588169098,-0.8542950749397278,-2.8548786640167236
1779989107389539600,20.07153955078125,-0.4031710624694824,-0.9750936627388,-2.643824815750122
1779989107405862700,20.087862548828124,-0.35323283076286316,-1.0152580738067627,-2.323273181915283
1779989107422199000,20.104198974609375,-0.42012256383895874,-0.8906415104866028,-1.9387335777282715
1779989107438531300,20.12053125,-0.46150869131088257,-0.6159048676490784,-1.3807082176208496
1779989107454866700,20.13686669921875,-0.5584835410118103,-0.5108360648155212,-0.7447974681854248
1779989107471199000,20.153198974609374,-0.6927211880683899,-0.46761733293533325,-0.0809396430850029
1779989107487535400,20.169535400390625,-0.7635815739631653,-0.2727513313293457,0.6342308521270752
1779989107503866600,20.18586669921875,-0.7257078886032104,-0.01878410577774048,1.321912407875061
1779989107520203000,20.202203125,-0.6493497490882874,0.01618792861700058,1.933235764503479
1779989107536536800,20.218536865234373,-0.5682573914527893,-0.03833179548382759,2.431396484375
1779989107552871700,20.23487158203125,-0.4323398768901825,0.5047274231910706,2.3460280895233154
1779989107569191000,20.25119091796875,-0.46379944682121277,1.1873693466186523,1.6977472305297852
1779989107585538800,20.267538818359377,-0.22342395782470703,0.7728972434997559,1.4324790239334106
1779989107601872100,20.2838720703125,-0.11331550031900406,0.9451612234115601,1.780824899673462
1779989107618208000,20.3002080078125,-0.5091561675071716,0.5612324476242065,1.8626807928085327
1779989107634540500,20.31654052734375,-0.7489207983016968,0.14614951610565186,1.9879082441329956
1779989107650863000,20.332863037109377,-0.5621487498283386,0.12507465481758118,2.189035654067993
1779989107667196700,20.34919677734375,-0.29168814420700073,0.2629774808883667,2.380694627761841
1779989107683544800,20.365544921875,-0.01038470957428217,0.49693888425827026,2.2934935092926025
1779989107699877000,20.381877197265624,0.3061962127685547,0.816726803779602,1.952478051185608
1779989107716211000,20.3982109375,0.6834055185317993,0.8487972617149353,1.988824486732483
1779989107732538400,20.414538330078123,0.8532260060310364,0.42562034726142883,1.9747745990753174
1779989107748881200,20.430881103515624,0.888350784778595,-0.30024027824401855,1.6612480878829956
1779989107765215000,20.447215087890626,0.7483099102973938,-0.9323330521583557,1.3658946752548218
1779989107781533200,20.463533203125,0.4024074673652649,-1.588249683380127,1.2052371501922607
1779989107797879800,20.4798798828125,-0.09896016865968704,-1.9701931476593018,1.3168727159500122
