time,seconds_elapsed,z,y,x
1779111801080630300,0.05963037109375,0.0023584477603435516,-0.17430582642555237,0.07045301049947739
1779111801090621200,0.06962109375,0.00382052268832922,-0.246883362531662,0.0974247083067894
1779111801100612400,0.0796123046875,0.0088629350066185,-0.23521709442138672,0.10904470086097717
1779111801110602500,0.0896025390625,0.009614745154976845,-0.18125292658805847,0.10080301761627197
1779111801120593400,0.099593505859375,0.0057508330792188644,-0.13531117141246796,0.07749606668949127
1779111801130583300,0.109583251953125,0.0018213381990790367,-0.12583164870738983,0.0517190657556057
1779111801140574200,0.11957421875,-0.004432895220816135,-0.1637972742319107,0.03567040339112282
1779111801150564000,0.129564208984375,-0.022525079548358917,-0.19520846009254456,0.025966910645365715
1779111801160555300,0.13955517578125,-0.02560790628194809,-0.12877413630485535,0.025798339396715164
1779111801170546200,0.149546142578125,-0.02259773388504982,0.019008126109838486,0.022742362692952156
1779111801180536300,0.159536376953125,-0.01736430637538433,0.13328294456005096,0.0055415453389286995
1779111801190527200,0.16952734375,-0.014427372254431248,0.173219695687294,-0.0244432520121336
1779111801200517000,0.17951708984375,-0.005769617855548859,0.15027377009391785,-0.04099123552441597
1779111801210508300,0.18950830078125,-0.00324920192360878,0.08961653709411621,-0.03580046817660332
1779111801220498400,0.19949853515625,-0.004081103019416332,0.01877022162079811,-0.014495663344860077
1779111801230489300,0.2094892578125,-0.010149648413062096,-0.03700382634997368,0.010572938248515129
1779111801240479200,0.219479248046875,-0.013388306833803654,-0.06260062009096146,0.024588724598288536
1779111801250470400,0.229470458984375,-0.008601807989180088,-0.06254842132329941,0.025716040283441544
1779111801260461300,0.23946142578125,-0.004629041999578476,-0.03770647943019867,0.01465529203414917
1779111801270451200,0.249451171875,-0.0036316877231001854,-0.0009844189044088125,0.00346202589571476
1779111801280442000,0.259442138671875,-0.007308730389922857,0.028867604210972786,-0.007383978459984064
1779111801290432300,0.269432373046875,-0.009539660066366196,0.0398869663476944,-0.01206421758979559
1779111801300423400,0.27942333984375,-0.013436487875878811,0.032337237149477005,-0.009687613695859909
1779111801310413300,0.289413330078125,-0.011182654649019241,0.011401062831282616,-0.00238176342099905
1779111801320404200,0.299404296875,-0.010074570775032043,-0.01217307522892952,0.004028761759400368
1779111801330395100,0.30939501953125,-0.01041572168469429,-0.02710515260696411,0.012322643771767616
1779111801340385300,0.31938525390625,-0.008676858618855476,-0.03030642680823803,0.013819707557559013
1779111801350376400,0.32937646484375,-0.00394681841135025,-0.02398647926747799,0.01259998045861721
1779111801360366300,0.339366455078125,-0.0015707165002822876,-0.00781418289989233,0.007728035561740398
1779111801370357200,0.349357177734375,0.0026429370045661926,0.005957288667559624,0.0045703258365392685
1779111801380347100,0.35934716796875,0.01150562521070242,0.019427606835961342,0.0025559542700648308
1779111801390338300,0.36933837890625,0.014211130328476429,0.029625115916132927,0.001019044080749154
1779111801400328400,0.379328369140625,0.016429103910923004,0.03213651478290558,0.0017653258983045816
1779111801410319400,0.3893193359375,0.01809597760438919,0.029217956587672234,0.0017147258622571826
1779111801420310300,0.399310302734375,0.019338659942150116,0.02030613087117672,0.00294857588596642
1779111801430300200,0.409300048828125,0.018447566777467728,0.006177527830004692,0.0006875521503388882
1779111801440291300,0.419291259765625,0.01857834681868553,-0.006750285625457764,-0.0031224526464939117
1779111801450281500,0.429281494140625,0.01492741797119379,-0.011225727386772633,-0.005160036962479353
1779111801460272400,0.4392724609375,0.010582090355455875,-0.006641371175646782,-0.0060942517593503
1779111801470262300,0.44926220703125,0.004283181391656399,0.0013302688021212816,-0.005999709479510784
1779111801480253200,0.459253173828125,-0.0007489575073122978,0.005390635691583157,-0.003553115762770176
1779111801490244400,0.469244384765625,-0.004401216749101877,-0.004101403057575226,-0.0005954090738669038
1779111801500234200,0.479234130859375,-0.005039281211793423,-0.024426637217402458,0.004883377347141504
1779111801510225400,0.489225341796875,-0.00363872479647398,-0.045516207814216614,0.00975003745406866
1779111801520215300,0.49921533203125,-0.006936251185834408,-0.055941686034202576,0.01302705705165863
1779111801530206200,0.509206298828125,-0.011294247582554817,-0.04899189993739128,0.010227276012301445
1779111801540196000,0.519196044921875,-0.015413341112434864,-0.023959016427397728,0.004002316854894161
1779111801550187300,0.529187255859375,-0.023941848427057266,0.0005721586057916284,-0.010229082778096199
1779111801560177400,0.539177490234375,-0.03398498147726059,0.010099237784743309,-0.018156083300709724
1779111801570168300,0.549168212890625,-0.03670007362961769,0.0013467589160427451,-0.019492723047733307
1779111801580159200,0.5591591796875,-0.035815656185150146,-0.02056090719997883,-0.016739195212721825
1779111801590149400,0.5691494140625,-0.03649023175239563,-0.048522498458623886,-0.007366732228547335
1779111801600140300,0.579140380859375,-0.03838967904448509,-0.06901479512453079,0.002037005266174674
1779111801610130400,0.58913037109375,-0.04170984402298927,-0.08015666157007217,0.011596421711146832
1779111801620121600,0.59912158203125,-0.03741925582289696,-0.08642648160457611,0.01854291744530201
1779111801630111500,0.609111572265625,-0.023413160815835,-0.09297572821378708,0.024464722722768784
1779111801640102400,0.619102294921875,-0.004139947704970837,-0.08782821893692017,0.027843374758958817
1779111801650093300,0.62909326171875,0.013150359503924847,-0.06904547661542892,0.025864912196993828
1779111801660083500,0.63908349609375,0.024254877120256424,-0.03111124224960804,0.015688203275203705
1779111801670074400,0.649074462890625,0.030531946569681168,0.010670026764273643,0.002296497579663992
1779111801680064500,0.659064453125,0.032797496765851974,0.04385776445269585,-0.008791789412498474
1779111801690055400,0.669055419921875,0.032261934131383896,0.052701856940984726,-0.012710630893707275
1779111801700045300,0.67904541015625,0.03196445852518082,0.042521923780441284,-0.009533213451504707
1779111801710036500,0.689036376953125,0.03223876282572746,0.018208326771855354,-0.0005122883012518287
1779111801720026400,0.6990263671875,0.030483044683933258,-0.0029285666532814503,0.011462364345788956
1779111801730017500,0.709017578125,0.02705981582403183,-0.01158224232494831,0.0181125421077013
1779111801740008400,0.719008544921875,0.0220559760928154,-0.003318198025226593,0.018056752160191536
1779111801749998300,0.728998291015625,0.022990476340055466,0.016599051654338837,0.013624453917145729
1779111801759989500,0.738989501953125,0.021302705630660057,0.03945138677954674,0.006131758447736502
1779111801769979400,0.7489794921875,0.01367994025349617,0.06142353266477585,0.0024139857850968838
1779111801779970300,0.75897021484375,0.008432947099208832,0.07244162261486053,0.006317553576081991
1779111801789960400,0.76896044921875,-0.0006585530936717987,0.0720682442188263,0.009847307577729225
1779111801799951400,0.778951416015625,-0.00992524903267622,0.06177884340286255,0.012381882406771183
1779111801809942500,0.788942626953125,-0.013132493942975998,0.04612691327929497,0.015129998326301575
1779111801819932400,0.798932373046875,-0.011878879740834236,0.03285142034292221,0.013967498205602169
1779111801829923300,0.80892333984375,-0.005801013205200434,0.02407124638557434,0.00888858363032341
1779111801839913500,0.81891357421875,-0.003801703918725252,0.028741702437400818,0.002808737102895975
1779111801849904400,0.828904296875,-0.0013292254880070686,0.046602994203567505,-0.006208726204931736
1779111801859894500,0.83889453125,-0.004564739763736725,0.06456295400857925,-0.015231838449835777
1779111801869885400,0.848885498046875,-0.007323508150875568,0.07709366083145142,-0.02126496471464634
1779111801879875300,0.858875244140625,-0.007417517714202404,0.06841575354337692,-0.016962893307209015
1779111801889866200,0.8688662109375,-0.011959006078541279,0.03662026673555374,-0.010008846409618855
1779111801899857400,0.878857421875,-0.005641138181090355,-0.008111611008644104,0.002431584754958749
1779111801909847600,0.88884765625,0.002115052193403244,-0.04896636679768562,0.009511066600680351
1779111801919838500,0.89883837890625,0.005470168776810169,-0.06042313948273659,0.009892351925373077
1779111801929828400,0.908828369140625,0.00842467974871397,-0.0385921448469162,0.0006940594175830483
1779111801939819300,0.9188193359375,0.010248762555420399,0.004209761507809162,-0.012898080982267857
1779111801949809400,0.928809326171875,0.010683923028409481,0.04193716496229172,-0.02836252562701702
1779111801959800600,0.938800537109375,0.010670783929526806,0.05813781917095184,-0.04027649387717247
1779111801969791500,0.94879150390625,0.012482798658311367,0.042315445840358734,-0.03907913714647293
1779111801979781400,0.958781494140625,0.014943682588636875,0.004626485053449869,-0.027739252895116806
1779111801989772300,0.968772216796875,0.01717327907681465,-0.036800581961870193,-0.010413791984319687
1779111801999762200,0.97876220703125,0.01737160235643387,-0.06247516721487045,0.005922204349189997
1779111802009753300,0.98875341796875,0.020464066416025162,-0.06259314715862274,0.014066150411963463
1779111802019743500,0.998743408203125,0.023911289870738983,-0.04533827304840088,0.011367878876626492
1779111802029734400,1.008734375,0.028069283813238144,-0.017590001225471497,0.003953371196985245
1779111802039724300,1.018724365234375,0.027060948312282562,0.007168952841311693,-0.008202762342989445
1779111802049715500,1.028715576171875,0.0266185961663723,0.02397269941866398,-0.013662508688867092
1779111802059706400,1.038706298828125,0.025454215705394745,0.0273337010294199,-0.010649948380887508
1779111802069696500,1.048696533203125,0.02218438684940338,0.014745737425982952,0.0017928724410012364
1779111802079687400,1.0586875,0.02049555629491806,-0.005837576929479837,0.010713950730860233
1779111802089677300,1.06867724609375,0.01916344463825226,-0.030470484867691994,0.01878439448773861
1779111802099668500,1.07866845703125,0.015077919699251652,-0.046321988105773926,0.020451677963137627
1779111802109658400,1.088658447265625,0.0087462542578578,-0.047757964581251144,0.019967781379818916
1779111802119649500,1.0986494140625,0.006576704792678356,-0.037765275686979294,0.017945000901818275
1779111802129639400,1.108639404296875,0.005229146219789982,-0.021748226135969162,0.01821504533290863
1779111802139630300,1.11863037109375,0.002720603719353676,-0.005323455668985844,0.018603356555104256
1779111802149621500,1.12862158203125,0.0007879482582211494,0.007120165042579174,0.01886514574289322
1779111802159611400,1.138611328125,-0.0005406197160482407,0.01285592745989561,0.018392270430922508
1779111802169602300,1.148602294921875,-0.0026138899847865105,0.013066316954791546,0.015095275826752186
1779111802179592400,1.158592529296875,-0.006788364611566067,0.011134442873299122,0.01568361185491085
1779111802189583400,1.168583251953125,-0.012353305704891682,0.013071093708276749,0.01393311470746994
1779111802199573500,1.178573486328125,-0.015452723950147629,0.009733105078339577,0.011390285566449165
1779111802209564400,1.188564453125,-0.018815496936440468,0.002890911651775241,0.0137085672467947
1779111802219555300,1.198555419921875,-0.017094379290938377,-0.006354055367410183,0.011542467400431633
1779111802229545500,1.20854541015625,-0.015258662402629852,-0.01629616692662239,0.010825011879205704
1779111802239536600,1.21853662109375,-0.010802233591675758,-0.018023086711764336,0.007813278585672379
1779111802249526500,1.228526611328125,-0.00930899940431118,-0.009705502539873123,0.001515967771410942
1779111802259517400,1.238517333984375,-0.007649634499102831,0.004068990238010883,-0.0036569638177752495
1779111802269507300,1.24850732421875,-0.007465876638889313,0.022775033488869667,-0.009291945956647396
1779111802279498200,1.258498291015625,-0.005694963037967682,0.03760739415884018,-0.011815658770501614
1779111802289488400,1.26848828125,-0.006563685834407806,0.040828753262758255,-0.012408478185534477
1779111802299479600,1.2784794921875,-0.008294844068586826,0.03353918343782425,-0.01017384696751833
1779111802309470500,1.288470458984375,-0.010270909406244755,0.02067079022526741,-0.004797724541276693
1779111802319460400,1.29846044921875,-0.007105560041964054,0.002919909544289112,-0.0007436948944814503
1779111802329451300,1.308451171875,-0.002556081861257553,-0.01517813466489315,-0.0011905734427273273
1779111802339441400,1.31844140625,0.0018282895907759666,-0.0275760218501091,-0.0032750663813203573
1779111802349432600,1.3284326171875,0.0038190018385648727,-0.025384772568941116,-0.007796581368893385
1779111802359422500,1.33842236328125,-0.0010169250890612602,-0.009718600660562515,-0.014789811335504055
1779111802369413400,1.348413330078125,-0.004869986325502396,0.008552281185984612,-0.019815461710095406
1779111802379403300,1.3584033203125,-0.008281962014734745,0.019403964281082153,-0.021256526932120323
1779111802389394400,1.36839453125,-0.00593332014977932,0.017922978848218918,-0.0193070936948061
1779111802399385300,1.37838525390625,-0.004414838273078203,0.004589424002915621,-0.01220445055514574
1779111802409375500,1.38837548828125,-0.0010438086465001106,-0.01810496859252453,-0.004568368662148714
1779111802419366400,1.398366455078125,0.003793134354054928,-0.03341733664274216,-0.0013291885843500495
1779111802429356300,1.408356201171875,0.004912194795906544,-0.03586078807711601,-0.0015624815132468939
1779111802439347500,1.418347412109375,0.0035109100863337517,-0.026004284620285034,-0.005488325841724873
1779111802449337600,1.428337646484375,-0.0009610699489712715,-0.006456416100263596,-0.010401325300335884
1779111802459328500,1.43832861328125,-0.0038494630716741085,0.005130385514348745,-0.015846019610762596
1779111802469319400,1.4483193359375,-0.00796697661280632,0.0029830788262188435,-0.01941385678946972
1779111802479309300,1.458309326171875,-0.006499399431049824,-0.010921245440840721,-0.016478611156344414
1779111802489300500,1.468300537109375,-0.004051954485476017,-0.03059880994260311,-0.009221764281392097
1779111802499290400,1.478290283203125,-0.0013272995129227638,-0.04401217773556709,-0.000879516126587987
1779111802509281300,1.48828125,0.003179567866027355,-0.04148297384381294,0.006636989768594503
1779111802519271400,1.498271484375,0.0049510858952999115,-0.027690965682268143,0.005425870418548584
1779111802529262300,1.508262451171875,0.005134310573339462,-0.005933206528425217,-0.000448796694399789
1779111802539252500,1.51825244140625,0.006544771604239941,0.01139429397881031,-0.009130428545176983
1779111802549243400,1.528243408203125,0.0034134266898036003,0.01934116519987583,-0.014335842803120613
1779111802559234300,1.538234375,0.0034345798194408417,0.020410966128110886,-0.013805096969008446
1779111802569224400,1.548224365234375,0.002624180167913437,0.015136576257646084,-0.009655625559389591
1779111802579215600,1.558215576171875,-0.001245676539838314,0.0036421376280486584,-0.0035001749638468027
1779111802589205500,1.56820556640625,-0.0027572866529226303,-0.012979716062545776,0.0033353606704622507
1779111802599196400,1.578196533203125,-0.0005000438541173935,-0.023284992203116417,0.005500236991792917
1779111802609186300,1.588186279296875,-0.0012678327038884163,-0.02859107404947281,0.004006203263998032
1779111802619177200,1.59817724609375,0.0007530646398663521,-0.0244026817381382,0.0004269785131327808
1779111802629168400,1.60816845703125,-0.0011220667511224747,-0.012472516857087612,-0.0009498758008703589
1779111802639158500,1.618158447265625,0.000013784505426883698,0.0012390752090141177,-0.002560870721936226
1779111802649149400,1.6281494140625,-0.0016648061573505402,0.014580979943275452,-0.0015438094269484282
1779111802659139300,1.638139404296875,-0.005259575787931681,0.020006965845823288,0.001811413443647325
1779111802669130200,1.648130126953125,-0.006296610925346613,0.017945945262908936,0.006178731564432383
1779111802679120400,1.658120361328125,-0.007453749887645245,0.010552671737968922,0.008264215663075447
1779111802689111600,1.668111572265625,-0.007808216847479343,0.0004925803514197469,0.009645064361393452
1779111802699101400,1.678101318359375,-0.007148074917495251,-0.005977672059088945,0.009716200642287731
1779111802709092400,1.68809228515625,-0.006898802705109119,-0.01110505498945713,0.008545475080609322
1779111802719083300,1.698083251953125,-0.0070423828437924385,-0.009371808730065823,0.0033109383657574654
1779111802729073400,1.708073486328125,-0.005479906219989061,-0.003689422272145748,0.002432627836242318
1779111802739064600,1.718064697265625,-0.005307917017489672,0.002987747313454747,0.0016328730853274465
1779111802749054500,1.728054443359375,-0.0037379832938313484,0.008050416596233845,0.005597254727035761
1779111802759045400,1.73804541015625,-0.00442863442003727,0.010114858858287334,0.006197466980665922
1779111802769035300,1.74803515625,-0.0032898662611842155,0.009058915078639984,0.006864056456834078
1779111802779026400,1.7580263671875,-0.004169415682554245,0.003888961160555482,0.005847059190273285
1779111802789016600,1.7680166015625,-0.005015235859900713,-0.002394767478108406,0.004480058327317238
1779111802799007500,1.778007568359375,-0.004423215053975582,-0.00979249645024538,0.003122379072010517
1779111802808998400,1.787998291015625,-0.0021379562094807625,-0.015090854838490486,0.0037769838236272335
1779111802818988300,1.79798828125,-0.00015501119196414948,-0.01436922699213028,0.006893041078001261
1779111802828979500,1.8079794921875,-0.0007454343140125275,-0.008792833425104618,0.007556168362498283
1779111802838969300,1.81796923828125,-0.0003339741379022598,0.0001114011975005269,0.006484030745923519
1779111802848960500,1.82796044921875,0.0011358242481946945,0.007125635165721178,0.005986552219837904
1779111802858950400,1.837950439453125,0.0024605747312307358,0.01726885698735714,0.0036659378092736006
1779111802868941300,1.84794140625,0.0021047769114375114,0.02232326939702034,0.0009135607979260385
1779111802878931500,1.857931396484375,0.002027580514550209,0.017823532223701477,0.0006792963249608874
1779111802888922400,1.86792236328125,0.00179375521838665,0.009120853617787361,0.0004689066263381392
1779111802898913300,1.877913330078125,0.002372921444475651,0.0002557744737714529,-0.0005582342855632305
1779111802908903400,1.8879033203125,0.002260802313685417,-0.003840167075395584,-0.00007433790597133338
1779111802918894600,1.89789453125,0.0006416533142328262,-0.004488933831453323,-0.002732925582677126
1779111802928884500,1.907884521484375,-0.0005778074264526367,-0.00032641313737258315,-0.002575799124315381
1779111802938875400,1.91787548828125,-0.0025549381971359253,0.00231624161824584,-0.0033185547217726707
1779111802948865500,1.927865478515625,-0.00360715389251709,0.004837456159293652,-0.0039784861728549
1779111802958856400,1.9378564453125,-0.003506898880004883,0.005372270476073027,-0.002178527181968093
1779111802968847600,1.94784765625,-0.004128213971853256,0.006665768101811409,-0.0021526943892240524
1779111802978837500,1.95783740234375,-0.004174672998487949,0.0031356962863355875,-0.0030772723257541656
1779111802988828400,1.967828369140625,-0.006377107463777065,-0.002852155128493905,-0.005378243513405323
1779111802998818300,1.977818359375,-0.00686254957690835,-0.008333832025527954,-0.007455235347151756
1779111803008809200,1.987809326171875,-0.007264420390129089,-0.01474512554705143,-0.006371861323714256
1779111803018799400,1.99779931640625,-0.005619455594569445,-0.015677109360694885,-0.002675314899533987
1779111803028790500,2.00779052734375,-0.00534807937219739,-0.015164450742304325,-0.0021506722550839186
1779111803038780400,2.017780517578125,-0.0031598880887031555,-0.01048894040286541,-0.0013588565634563565
1779111803048771300,2.027771240234375,-0.0022408319637179375,-0.007395146414637566,-0.005702738184481859
1779111803058762200,2.03776220703125,-0.0007545324042439461,0.0014336799504235387,-0.007523974869400263
1779111803068752600,2.047752685546875,-0.002427796833217144,0.006828711833804846,-0.007664856500923634
1779111803078743600,2.05774365234375,0.0016817804425954819,0.008158336393535137,-0.009745310060679913
1779111803088733400,2.0677333984375,0.0011017434298992157,0.006657111924141645,-0.007566578220576048
1779111803098724400,2.077724365234375,0.003892807289958,0.0038665286265313625,-0.00368989328853786
1779111803108714200,2.08771435546875,0.002543116919696331,-0.0009793590288609266,-0.001756171928718686
1779111803118705400,2.097705322265625,0.00235749501734972,-0.002493898617103696,-0.0014150210190564394
1779111803128696300,2.1076962890625,0.004126367159187794,-0.0037242788821458817,-0.00021659853518940508
1779111803138686500,2.1176865234375,0.0021371450275182724,-0.002609561663120985,-0.00009464091999689117
1779111803148677400,2.127677490234375,0.0037925662472844124,-0.003427951131016016,-0.002482164651155472
1779111803158667300,2.137667236328125,0.00307435542345047,-0.002624228596687317,-0.003954848274588585
1779111803168658400,2.147658447265625,0.0008636657148599625,0.0002173642278648913,-0.005807342939078808
1779111803178648600,2.157648681640625,-0.002182982861995697,0.0011539252009242773,-0.008326464332640171
1779111803188639500,2.167639404296875,-0.002333184704184532,0.0026900365483015776,-0.005418824963271618
1779111803198629400,2.17762939453125,-0.0030221184715628624,0.0032117613591253757,-0.0035118707455694675
1779111803208620300,2.187620361328125,-0.004173669032752514,0.002104152925312519,0.001671972218900919
1779111803218611500,2.197611572265625,-0.0071928780525922775,-0.00004291807999834418,0.0049901846796274185
1779111803228601300,2.207601318359375,-0.006372091826051474,-0.007868084125220776,0.0067886169999837875
1779111803238592500,2.217592529296875,-0.006113579962402582,-0.01464289054274559,0.0034530970733612776
1779111803248582400,2.22758251953125,-0.0036679990589618683,-0.019664546474814415,0.0028608101420104504
1779111803258573600,2.237573486328125,-0.00038245413452386856,-0.017876695841550827,-0.0029384505469352007
1779111803268563500,2.2475634765625,0.0026926985010504723,-0.007006737869232893,-0.004641541745513678
1779111803278554400,2.257554443359375,0.001605452038347721,0.00892514269798994,-0.005385966505855322
1779111803288544500,2.26754443359375,0.002946087159216404,0.026732901111245155,-0.004020297899842262
1779111803298535400,2.277535400390625,0.00913300272077322,0.030726289376616478,0.0011655668495222926
1779111803308526600,2.287526611328125,0.012953841127455235,0.028736108914017677,0.004271877929568291
1779111803318516500,2.2975166015625,0.012221981771290302,0.024513237178325653,0.003475183853879571
1779111803328507400,2.30750732421875,0.007615511305630207,0.01800154335796833,0.0029036696068942547
1779111803338497300,2.317497314453125,0.006062072701752186,0.012422028928995132,0.001227245549671352
1779111803348488400,2.327488525390625,0.0028351210057735443,0.003692186903208494,-0.002086525782942772
1779111803358478300,2.337478271484375,0.0003233281895518303,-0.0013917481992393732,-0.0017881867242977023
1779111803368469500,2.347469482421875,0.001392587088048458,-0.005873848218470812,-0.0005647304933518171
1779111803378460400,2.35746044921875,0.003012898378074169,-0.005140281748026609,0.002756554400548339
1779111803388450300,2.3674501953125,0.002411291003227234,0.0005783239612355828,0.0014816992916166782
1779111803398441200,2.377441162109375,-0.0011789165437221527,0.010987555608153343,-0.0005162041634321213
1779111803408431600,2.387431640625,-0.0017834538593888283,0.01866518147289753,-0.006052383221685886
1779111803418422500,2.397422607421875,-0.0006457716226577759,0.015473077073693275,-0.008613497950136662
1779111803428412400,2.407412353515625,-0.0008100885897874832,0.007619148585945368,-0.006829978432506323
1779111803438403300,2.4174033203125,-0.001254378817975521,-0.0039445627480745316,0.00023847159172873944
1779111803448393500,2.4273935546875,-0.0011371998116374016,-0.011297816410660744,0.004663846455514431
1779111803458384600,2.437384521484375,0.0015459759160876274,-0.009581010788679123,0.006203742697834969
1779111803468375600,2.44737548828125,0.0003371667116880417,-0.0007829918176867068,0.0024960897862911224
1779111803478365400,2.457365478515625,0.0017250468954443932,0.011417757719755173,-0.004661711398512125
1779111803488356400,2.4673564453125,0.004557052627205849,0.017155539244413376,-0.012598464265465736
1779111803498346200,2.47734619140625,0.003659866750240326,0.014843659475445747,-0.019491391256451607
1779111803508337400,2.48733740234375,0.002280348911881447,0.009284044615924358,-0.017860472202301025
1779111803518327600,2.49732763671875,-0.00318793673068285,0.004275734536349773,-0.012518617324531078
1779111803528318500,2.507318359375,-0.005485179368406534,0.004047767259180546,-0.003438836196437478
1779111803538308400,2.517308349609375,-0.010109424591064453,-0.0002940628328360617,0.005553730763494968
1779111803548299300,2.52729931640625,-0.010308895260095596,-0.006233444437384605,0.008698923513293266
1779111803558290400,2.53729052734375,-0.007952711544930935,-0.012532282620668411,0.0083755012601614
1779111803568280600,2.547280517578125,-0.005465851631015539,-0.012215899303555489,0.0018499576253816485
1779111803578271500,2.557271484375,-0.0007748762145638466,-0.00555309047922492,-0.0023713181726634502
1779111803588261400,2.567261474609375,0.0013569844886660576,0.00839441642165184,-0.005449666175991297
1779111803598252300,2.577252197265625,0.0028558429330587387,0.01484761293977499,-0.006691126152873039
1779111803608242400,2.587242431640625,0.006547783501446247,0.010411052964627743,-0.007239204831421375
1779111803618233000,2.597233154296875,0.006736786104738712,-0.0011449342127889395,-0.009459328837692738
1779111803628223200,2.60722314453125,0.0010133860632777214,-0.005988425109535456,-0.007517617661505938
1779111803638214100,2.617214111328125,-0.0020999666303396225,-0.002145536243915558,-0.004907115362584591
1779111803648205300,2.627205322265625,-0.005415868014097214,0.005181885324418545,-0.002727318089455366
1779111803658195200,2.6371953125,-0.010750672779977322,0.007049958687275648,-0.0016729163471609354
1779111803668186000,2.64718603515625,-0.009855584241449833,0.0026877010241150856,-0.002410079352557659
1779111803678176300,2.65717626953125,-0.007755592931061983,-0.017002534121274948,0.001962666166946292
1779111803688167200,2.667167236328125,0.0017044879496097565,-0.04421684518456459,0.003417018335312605
1779111803698157000,2.677156982421875,0.005330318585038185,-0.059655290096998215,0.0008233953267335892
1779111803708148200,2.687148193359375,0.01101883128285408,-0.053525760769844055,-0.002611283678561449
1779111803718139100,2.69713916015625,0.01331695169210434,-0.015567652881145477,-0.008492724038660526
1779111803728129000,2.70712890625,0.012513475492596626,0.0370207205414772,-0.009520703926682472
1779111803738120200,2.7171201171875,0.008424497209489346,0.07854444533586502,-0.006836460437625647
1779111803748110000,2.727110107421875,0.009804547764360905,0.08593631535768509,-0.00441804388538003
1779111803758101200,2.737101318359375,0.011149627156555653,0.06140049919486046,0.0032299214508384466
1779111803768091100,2.747091064453125,0.007350095547735691,0.019918303936719894,0.006813471205532551
1779111803778082000,2.75708203125,-0.00007372256368398666,-0.022805264219641685,0.01150432601571083
1779111803788072200,2.767072265625,-0.005374478176236153,-0.05136287212371826,0.01387427281588316
1779111803798063400,2.7770634765625,-0.007719305343925953,-0.05932481214404106,0.013930833898484707
1779111803808054300,2.78705419921875,0.0008171917870640755,-0.04836270958185196,0.011650368571281433
1779111803818044200,2.797044189453125,0.00912380963563919,-0.026141691952943802,0.010337373241782188
1779111803828035000,2.80703515625,0.009507570415735245,0.012057892046868801,0.007985269650816917
1779111803838025200,2.817025146484375,0.005550410598516464,0.0563402958214283,0.0010089956922456622
1779111803848016400,2.827016357421875,0.0015807021409273148,0.08314501494169235,-0.008335770107805729
1779111803858006300,2.83700634765625,0.00046019628643989563,0.06966328620910645,-0.01878066547214985
1779111803867997200,2.8469970703125,-0.0006463471800088882,0.023732012137770653,-0.021145019680261612
1779111803877987000,2.856987060546875,0.003510306589305401,-0.027926964685320854,-0.012110196985304356
1779111803887978000,2.86697802734375,0.004997416399419308,-0.06227774918079376,0.006424338556826115
1779111803897969200,2.87696923828125,0.0046790605410933495,-0.06326921284198761,0.02164001576602459
1779111803907959300,2.886959228515625,-0.0012334240600466728,-0.02853493019938469,0.027612153440713882
1779111803917950200,2.8969501953125,-0.0014777770265936852,0.017057258635759354,0.021121973171830177
1779111803927940000,2.906940185546875,-0.0033457186073064804,0.05489251762628555,0.0094650499522686
1779111803937931000,2.916930908203125,-0.0029468517750501633,0.06469208002090454,-0.00201359111815691
1779111803947921200,2.926921142578125,0.0032503241673111916,0.038196027278900146,-0.0028199960943311453
1779111803957912300,2.936912353515625,0.0070497868582606316,-0.00034804613096639514,0.001241935882717371
1779111803967902200,2.946902099609375,0.002275538630783558,-0.02995813637971878,0.006754412781447172
1779111803977893000,2.95689306640625,0.002382200211286545,-0.037165962159633636,0.008395827375352383
1779111803987884300,2.96688427734375,0.004122575744986534,-0.029580743983387947,0.009106358513236046
1779111803997874200,2.976874267578125,0.007328956387937069,-0.006554665509611368,0.004606494680047035
1779111804007865000,2.986864990234375,0.007837352342903614,0.0164361372590065,0.0006306616123765707
1779111804017855200,2.996855224609375,0.005245904438197613,0.033135026693344116,-0.0027665828820317984
1779111804027846100,3.00684619140625,0.005640319548547268,0.038788650184869766,0.0006987223168835044
1779111804037836000,3.0168359375,0.003032941371202469,0.030238358303904533,0.0023253096733242273
1779111804047827200,3.0268271484375,-0.0016233297064900398,0.015181112103164196,0.006652147509157658
1779111804057818000,3.036818115234375,-0.001230902038514614,-0.006164973601698875,0.007315079681575298
1779111804067808300,3.046808349609375,0.00016592536121606827,-0.025243593379855156,0.006866070907562971
1779111804077799200,3.056799072265625,0.0024436526000499725,-0.0359804667532444,0.004322069231420755
1779111804087789000,3.0667890625,0.005044496618211269,-0.03199557587504387,-0.000006100221071392298
1779111804097780200,3.0767802734375,0.00520922988653183,-0.014350545592606068,-0.004725732374936342
1779111804107770000,3.08677001953125,0.007414592429995537,0.007864212617278099,-0.010580425150692463
1779111804117761000,3.096760986328125,0.007125223986804485,0.026805687695741653,-0.013581297360360622
1779111804127751200,3.106751220703125,0.003301190212368965,0.032892342656850815,-0.010986845940351486
1779111804137742300,3.116742431640625,0.0034715812653303146,0.022176939994096756,-0.006905558984726667
1779111804147733200,3.126733154296875,0.0016121622174978256,0.00590688968077302,0.0036754461470991373
1779111804157723100,3.13672314453125,-0.0016549685969948769,-0.013297981582581997,0.009330978617072105
1779111804167714000,3.146714111328125,0.0012886235490441322,-0.027219923213124275,0.012255395762622356
1779111804177704200,3.1567041015625,0.0018378840759396553,-0.03136991709470749,0.01015014573931694
1779111804187695400,3.1666953125,0.0007201554253697395,-0.023885635659098625,0.004443257115781307
1779111804197685200,3.176685302734375,-0.004640674218535423,-0.008184428326785564,-0.002346227178350091
1779111804207676200,3.18667626953125,-0.0036118952557444572,0.0006324992282316089,-0.006583050359040499
1779111804217666000,3.196666015625,-0.0034719696268439293,-0.0012234480818733573,-0.005733258090913296
1779111804227657000,3.206656982421875,-0.00048523396253585815,-0.01021108403801918,-0.004160395357757807
1779111804237648100,3.216648193359375,0.001065344549715519,-0.017614824697375298,-0.0020049973390996456
1779111804247638300,3.22663818359375,0.008345095440745354,-0.019214052706956863,-0.001137872226536274
1779111804257629200,3.236629150390625,0.009515977464616299,-0.006568575277924538,0.002235309686511755
1779111804267619000,3.246619140625,0.0048245517536997795,0.01705925725400448,0.004689146298915148
1779111804277610000,3.25660986328125,0.0030330102890729904,0.03479383885860443,0.0021918066777288914
1779111804287600400,3.266600341796875,-0.0005321633070707321,0.036136604845523834,0.0017116386443376541
1779111804297591300,3.27659130859375,-0.0022678272798657417,0.021520575508475304,0.00225131050683558
1779111804307581200,3.286581298828125,-0.002779953181743622,-0.0031022136099636555,0.005576533265411854
1779111804317572000,3.296572021484375,-0.002935608848929405,-0.022999318316578865,0.012071838602423668
1779111804327563000,3.30656298828125,0.0005123857408761978,-0.03289775550365448,0.011824963614344597
1779111804337553200,3.31655322265625,0.0011165477335453033,-0.028981318697333336,0.008338375017046928
1779111804347544300,3.32654443359375,0.004440438933670521,-0.013275060802698135,-0.00007774664118187502
1779111804357534200,3.3365341796875,0.006834251806139946,0.006998436991125345,-0.008779107592999935
1779111804367525000,3.346525146484375,0.006772732362151146,0.024236014112830162,-0.011910186149179935
1779111804377515000,3.356514892578125,0.005028164014220238,0.02981814369559288,-0.0117150554433465
1779111804387506200,3.366506103515625,0.002483779564499855,0.024307530373334885,-0.006965573877096176
1779111804397497000,3.3764970703125,0.0015950202941894531,0.011208138428628445,0.0005083506694063544
1779111804407487200,3.3864873046875,0.0013010073453187943,-0.0036815949715673923,0.004286311101168394
1779111804417478100,3.39647802734375,0.0018079252913594246,-0.015399566851556301,0.003895033150911331
1779111804427468000,3.406468017578125,0.0029245885089039803,-0.014282903634011745,0.004760560113936663
1779111804437459200,3.416459228515625,0.00487726554274559,-0.00325690396130085,0.003030882216989994
1779111804447449000,3.426448974609375,0.005891930311918259,0.009890856221318245,0.00009075255366042256
1779111804457440300,3.436440185546875,0.0048686061054468155,0.020263580605387688,-0.0022398880682885647
1779111804467430100,3.44643017578125,0.004504285752773285,0.022049231454730034,-0.0031608091667294502
1779111804477421300,3.45642138671875,0.006997467018663883,0.019992060959339142,-0.00016041338676586747
1779111804487412200,3.466412109375,0.0048597464337944984,0.012615371495485306,0.0009695659391582012
1779111804497402000,3.476402099609375,0.004829396493732929,0.0038458905182778835,0.0015788477612659335
1779111804507393000,3.48639306640625,0.003870658576488495,-0.00035551219480112195,0.00047070655273273587
1779111804517383200,3.496383056640625,0.0015388727188110352,-0.005209585651755333,-0.00000771296618040651
1779111804527374300,3.506374267578125,-0.0007048407569527626,-0.0007887379033491015,0.0005680624744854867
1779111804537364200,3.5163642578125,-0.0022057462483644485,0.0022450434044003487,0.0011715422151610255
1779111804547355100,3.526355224609375,-0.00040757935494184494,0.0030469209887087345,0.001990996766835451
1779111804557345000,3.536344970703125,-0.0005330489948391914,0.004930103197693825,0.0010729115456342697
1779111804567336200,3.546336181640625,-0.001901913434267044,0.007311502005904913,0.00046864032628946006
1779111804577327400,3.556327392578125,0.0018485980108380318,0.0059381406754255295,0.0006319783278740942
1779111804587317200,3.566317138671875,0.00043206289410591125,0.0031711163464933634,0.0008567490731365979
1779111804597308200,3.57630810546875,0.0017248159274458885,0.002141906414180994,0.0018900253344327211
1779111804607298000,3.586298095703125,0.00004995428025722504,-0.00021126249339431524,0.00023274015984497964
1779111804617288700,3.596288818359375,-0.0001825038343667984,0.0008121288847178221,0.0011428361758589745
1779111804627278800,3.60627880859375,-0.00008396618068218231,0.00008934701327234507,0.002839802298694849
1779111804637269800,3.616269775390625,0.001177075318992138,-0.0029773442074656487,0.0020068595185875893
1779111804647259600,3.626259765625,0.000715816393494606,-0.005569132510572672,0.0014028545701876283
1779111804657250600,3.63625048828125,0.0006147222593426704,-0.007426339201629162,0.0028481672052294016
1779111804667241700,3.64624169921875,0.0014259209856390953,-0.009354201145470142,0.005886301398277283
1779111804677231900,3.65623193359375,0.0015810029581189156,-0.0077066570520401,0.005047773011028767
1779111804687222800,3.666222900390625,0.0015873946249485016,-0.0044208490289747715,0.0012429149355739355
1779111804697212700,3.676212646484375,0.0028213225305080414,0.0012488679494708776,-0.0009964362252503633
1779111804707203600,3.68620361328125,0.004862901754677296,0.007678271271288395,-0.002999665914103389
1779111804717193700,3.69619384765625,0.002166011370718479,0.01163196936249733,-0.003996195271611214
1779111804727185000,3.706184814453125,0.00307281780987978,0.009366950951516628,-0.0031943172216415405
1779111804737174800,3.7161748046875,0.0021373201161623,0.0013262832071632147,-0.0003953755076508969
1779111804747165700,3.726165771484375,-0.0009410278871655464,-0.00401974655687809,-0.0004137513169553131
1779111804757156600,3.736156494140625,-0.002742673270404339,-0.009037377312779427,0.0021307191345840693
1779111804767146500,3.746146484375,-0.002280348911881447,-0.008818198926746845,0.0021509591024369
1779111804777137700,3.7561376953125,-0.0022799214348196983,-0.0076696602627635,0.0002238807501271367
1779111804787127800,3.7661279296875,0.0003576735034584999,-0.004760422743856907,-0.0016299455892294645
1779111804797118700,3.77611865234375,0.0018118992447853088,0.0004042662912979722,-0.005248540081083775
1779111804807108600,3.786108642578125,-0.00002062227576971054,0.0028138943016529083,-0.004217364359647036
1779111804817099800,3.796099853515625,0.0010739043354988098,0.005736170336604118,-0.003539987839758396
1779111804827089700,3.806089599609375,0.0017335694283246994,0.002156083006411791,-0.00034233034239150584
1779111804837080800,3.816080810546875,0.00039612967520952225,0.0012045354815199971,0.0016798079013824463
1779111804847071700,3.82607177734375,0.0006294222548604012,-0.001729469047859311,-0.0014312968123704195
1779111804857061600,3.8360615234375,0.0007069362327456474,-0.00035789981484413147,-0.0025285675656050444
1779111804867052800,3.846052734375,0.0015556858852505684,0.003367596073076129,-0.001944269984960556
1779111804877042700,3.856042724609375,-0.0008445475250482559,0.003526391927152872,-0.002443462610244751
1779111804887033600,3.86603369140625,0.0005951570346951485,0.0018568563973531127,-0.00045754347229376435
1779111804897023700,3.876023681640625,0.0007201386615633965,-0.0011046594008803368,-0.002212161896750331
1779111804907014700,3.8860146484375,0.0014293389394879341,-0.002364334650337696,0.0008637890568934381
1779111804917004800,3.8960048828125,0.0012976424768567085,-0.002192848362028599,0.001298308721743524
1779111804926995700,3.90599560546875,0.00018843542784452438,0.0007720488356426358,0.00016460102051496506
1779111804936986600,3.915986572265625,0.0014549829065799713,0.002426230115815997,-0.00032143332646228373
1779111804946976800,3.925976806640625,0.0003132857382297516,0.004950374364852905,0.00003463130269665271
1779111804956967700,3.9359677734375,0.0009081671014428139,0.006685546599328518,-0.0008957983227446675
1779111804966957800,3.945957763671875,0.0020373472943902016,0.008257078006863594,0.0005761308129876852
1779111804976948700,3.95594873046875,0.002263003960251808,0.004187081474810839,0.003132333979010582
1779111804986938600,3.965938720703125,0.0011988049373030663,0.002744446974247694,0.003501181723549962
1779111805006295800,3.9852958984375,0.0020638909190893173,0.0014414031757041812,0.0006170419510453939
1779111805016286700,3.99528662109375,0.0011429693549871445,0.0029058754444122314,0.00043221862870268524
1779111805026276600,4.005276611328125,0.0017678430303931236,0.006352693773806095,-0.000500102003570646
1779111805036267800,4.015267822265625,0.000608302652835846,0.009084830991923809,0.0001443829678464681
1779111805046257700,4.025257568359375,0.001319163478910923,0.007367653772234917,-0.00030469350167550147
1779111805056248600,4.03524853515625,0.0016544554382562637,0.005865097977221012,-0.0010013764258474112
1779111805066239500,4.045239501953125,0.0010384470224380493,0.004008178599178791,0.0005383214447647333
1779111805076230000,4.05522998046875,-0.0008167112246155739,0.0017143979202955961,0.0021940087899565697
1779111805086220800,4.065220703125,-0.0011106515303254128,0.000586620531976223,0.003670881036669016
1779111805096210700,4.075210693359375,0.000247294083237648,-0.0001702497829683125,0.0009243631502613425
1779111805106201600,4.08520166015625,-0.0016684234142303467,-0.0010485704988241196,0.0001922829105751589
1779111805116191700,4.095191650390625,-0.0025573866441845894,-0.00326352147385478,0.0007201214320957661
1779111805126183000,4.105182861328125,-0.002234966494143009,-0.0018803882412612438,0.0006148251704871655
1779111805136172800,4.1151728515625,-0.0018195128068327904,-0.003762178122997284,0.0005434524500742555
1779111805146163700,4.125163818359375,-0.0029725907370448112,-0.004216902423650026,0.00015828077448531985
1779111805156154600,4.135154541015625,-0.000247378833591938,-0.003781741950660944,0.0009191458811983466
1779111805166144500,4.14514453125,0.00020262040197849274,-0.0021627540700137615,0.001268592313863337
1779111805176135700,4.1551357421875,0.0027944091707468033,0.0006372933275997639,0.0024739389773458242
1779111805186125800,4.165125732421875,0.00366052333265543,0.002189024817198515,0.0022007066290825605
1779111805196116700,4.17511669921875,0.007000126875936985,0.004070548340678215,-0.00017589834169484675
1779111805206106600,4.185106689453125,0.006257624365389347,0.008513335138559341,-0.0012543537886813283
1779111805216097500,4.19509765625,0.005863741971552372,0.01145959086716175,-0.0026112343184649944
1779111805226088000,4.205087890625,0.006924426183104515,0.010908141732215881,-0.004900228697806597
1779111805236078800,4.215078857421875,0.005426663905382156,0.0063394890166819096,-0.0023611709475517273
1779111805246069800,4.22506982421875,0.005210076458752155,-0.0010713606607168913,-0.00023718374723102897
1779111805256059600,4.2350595703125,0.005050019361078739,-0.006147345528006554,0.002134094713255763
1779111805266050800,4.24505078125,0.0032774750143289566,-0.0055408417247235775,0.002631276845932007
1779111805276040700,4.255040771484375,0.00507644098252058,-0.005701696500182152,0.0009620074997656047
1779111805286031600,4.265031494140625,0.002134726382791996,0.00020124134607613087,-0.00044285861076787114
1779111805296021800,4.275021728515625,0.0032516559585928917,0.00297092879191041,-0.0020452826283872128
1779111805306012700,4.2850126953125,0.003672434017062187,0.004853827878832817,-0.004834195598959923
1779111805316002600,4.29500244140625,0.0025424547493457794,0.008791843429207802,-0.0012029752833768725
1779111805325993700,4.30499365234375,0.0028527984395623207,0.008286446332931519,0.0009279712685383856
1779111805335984600,4.314984619140625,0.0023822179064154625,0.009111491963267326,0.0026534334756433964
1779111805346600000,4.325599853515625,0.001960989087820053,0.006097706500440836,-0.000007230148185044527
1779111805356589800,4.33558984375,0.0013165045529603958,0.0018907113699242473,-0.0020860936492681503
1779111805366580700,4.345580810546875,0.0014625433832406998,-0.0005385410040616989,-0.0005995029350742698
1779111805376570600,4.355570556640625,-0.0014573466032743454,-0.0012077933643013239,-0.0009371917694807053
1779111805386561500,4.3655615234375,-0.0037295548245310783,-0.002633959986269474,0.0010588979348540306
1779111805396552700,4.375552734375,-0.0017838487401604652,-0.0010134263429790735,-0.00013100248179398477
1779111805406542800,4.38554296875,0.0028596213087439537,0.002218083944171667,-0.0005759304040111601
1779111805416533800,4.39553369140625,-0.0014744075015187263,0.006071944255381823,-0.0028659827075898647
1779111805426523600,4.405523681640625,-0.001634129323065281,0.006386341527104378,-0.0029134657233953476
1779111805436514600,4.4155146484375,-0.0006450312212109566,0.00528512429445982,-0.0003078290610574186
1779111805446504700,4.425504638671875,0.0014660703018307686,0.003925327677279711,0.0038545543793588877
1779111805456495900,4.435495849609375,0.0010751187801361084,0.0017250238452106714,0.006844218820333481
1779111805466485800,4.44548583984375,-0.001606580801308155,-0.0019650133326649666,0.006425635423511267
1779111805476476700,4.4554765625,-0.0014185616746544838,-0.006169878412038088,0.001823959406465292
1779111805486467600,4.465467529296875,-0.0021149693056941032,-0.00902610458433628,-0.0015432131476700306
1779111805496457700,4.475457763671875,-0.002954130992293358,-0.008892945945262909,-0.0006798162939958274
1779111805506448600,4.48544873046875,0.004553576000034809,-0.008640226908028126,0.001145918620750308
1779111805516438800,4.495438720703125,0.006372782401740551,-0.005483581684529781,0.0023589886259287596
1779111805526429700,4.5054296875,0.008569872006773949,-0.00010183535050600767,0.0031833231914788485
1779111805536419600,4.515419677734375,0.008008211851119995,0.012928479351103306,0.0033822613768279552
1779111805546410800,4.52541064453125,0.006423277780413628,0.026561930775642395,-0.0008826765115372837
1779111805556401700,4.535401611328125,0.002539590932428837,0.032993465662002563,-0.0042417217046022415
1779111805566391800,4.545391845703125,0.0003841714933514595,0.03320038318634033,-0.004374059848487377
1779111805576382700,4.5553828125,-0.0021490268409252167,0.016198232769966125,-0.00506674824282527
1779111805586372600,4.56537255859375,-0.002502734772861004,-0.012063720263540745,-0.0014565223827958107
1779111805596363800,4.57536376953125,-0.003315798006951809,-0.03595254197716713,0.0012226176913827658
1779111805606353700,4.585353759765625,0.0002715121954679489,-0.0428917333483696,0.0032624260056763887
1779111805616344800,4.5953447265625,0.0007639313116669655,-0.0298563614487648,0.0020506877917796373
1779111805626336000,4.6053359375,-0.0016309190541505814,0.0018145060166716576,0.0008198823197744787
1779111805636326100,4.615326171875,-0.002280198037624359,0.0308552123606205,-0.00129067269153893
1779111805646317000,4.625317138671875,-0.0037045376375317574,0.04166647046804428,-0.005097229033708572
1779111805656307000,4.635306884765625,-0.0019497806206345558,0.02937304973602295,-0.004842098336666822
1779111805666298000,4.645298095703125,-0.00133549515157938,0.0012720469385385513,-0.0014105798909440637
1779111805676288000,4.6552880859375,-0.002159210853278637,-0.022603990510106087,0.0026534039061516523
1779111805686279200,4.665279052734375,-0.00149576086550951,-0.035959258675575256,0.004980697762221098
1779111805696269000,4.67526904296875,-0.0001492667943239212,-0.030483534559607506,0.004612648859620094
1779111805706260000,4.685260009765625,0.0007085856050252914,-0.013989381492137909,-0.00005261927435640246
1779111805716251100,4.695251220703125,-0.00014282669872045517,0.005305486731231213,-0.003915534354746342
1779111805726241000,4.705240966796875,0.000140349380671978,0.018501607701182365,-0.007615148089826107
1779111805736232000,4.71523193359375,0.0009843045845627785,0.022393550723791122,-0.00976911187171936
1779111805746222000,4.72522216796875,0.0008700070902705193,0.01731978729367256,-0.007384258322417736
1779111805756213000,4.735212890625,0.0005184691399335861,0.008606457151472569,-0.0059370966628193855
1779111805766203000,4.745202880859375,-0.0013758540153503418,-0.0027710688300430775,-0.0008479758398607373
1779111805776194000,4.755194091796875,0.0004324326291680336,-0.013585100881755352,0.0030056182295084
1779111805786185000,4.76518505859375,0.0007232502102851868,-0.017365723848342896,0.00405730027705431
1779111805796175000,4.775175048828125,0.0007195211946964264,-0.0166032612323761,0.005168371368199587
1779111805806166000,4.785166015625,0.0020644022151827812,-0.004234178923070431,0.0012046087067574263
1779111805816156200,4.79515625,0.001370915211737156,0.01184066105633974,-0.004204537719488144
1779111805826147000,4.80514697265625,0.001169595867395401,0.0207624863833189,-0.008854237385094166
1779111805836137000,4.815136962890625,-0.0010594697669148445,0.022044001147150993,-0.009293925017118454
1779111805846127900,4.8251279296875,-0.002147587016224861,0.0166765283793211,-0.009209977462887764
1779111805856119000,4.835119140625,-0.0031952736899256706,0.0082950284704566,-0.006955611519515514
1779111805866109200,4.845109130859375,-0.005436690989881754,-0.006995017174631357,-0.00288716540671885
1779111805876100000,4.85510009765625,-0.004195391666144133,-0.014377299696207047,-0.000682334357406944
1779111805886090000,4.865090087890625,-0.006623483262956142,-0.01532554067671299,-0.0008400445221923292
1779111805896081000,4.875080810546875,-0.006573149468749762,-0.008654056116938591,0.00019059880287386477
1779111805906071000,4.885071044921875,-0.003383675590157509,-0.0005048630991950631,0.00006290448072832078
1779111805916062200,4.895062255859375,-0.00576960202306509,0.004392690025269985,0.00024160258180927485
1779111805926053000,4.90505322265625,-0.002519083209335804,0.006456395611166954,-0.0018134512938559055
1779111805936043000,4.91504296875,-0.0013592764735221863,0.005731217097491026,-0.004116286989301443
1779111805946034000,4.925033935546875,-0.00034040026366710663,0.0028284192085266113,-0.00561506999656558
1779111805956023800,4.93502392578125,0.0009267320856451988,-0.0007937460904940963,-0.002702104626223445
1779111805966015000,4.945014892578125,-0.0026718955487012863,-0.00393672613427043,-0.002699959324672818
1779111805976005000,4.955005126953125,-0.0010670749470591545,-0.006426248699426651,-0.0031569579150527716
1779111805985996000,4.96499609375,0.00026676803827285767,-0.004956694785505533,-0.004212793428450823
1779111805995986000,4.97498583984375,-0.0015460457652807236,-0.0029769008979201317,-0.005826136097311974
1779111806005977000,4.98497705078125,-0.000687742605805397,-0.00039570420631207526,-0.006553539074957371
1779111806015968000,4.994968017578125,-0.0015010712668299675,0.00211112922988832,-0.005514906253665686
1779111806025958100,5.004958251953125,-0.0028817206621170044,0.000920285820029676,-0.004752364009618759
1779111806035949000,5.014948974609375,-0.0006377408280968666,0.0004973758477717638,-0.0027613849379122257
1779111806045939000,5.02493896484375,-0.002884170040488243,0.00006474804831668735,-0.0003885666374117136
1779111806055930000,5.03493017578125,-0.002077498473227024,-0.00035017242771573365,0.0012061342131346464
1779111806065920000,5.044919921875,-0.0007288744673132896,0.0012115051504224539,-0.0010674063814803958
1779111806075911200,5.0549111328125,-0.00017387140542268753,-0.00030436605447903275,-0.0012690076837316155
1779111806085902000,5.064902099609375,0.00036400649696588516,0.0012275931658223271,-0.004372172523289919
1779111806095892000,5.07489208984375,0.001354968175292015,0.0005887008737772703,-0.00353833707049489
1779111806105883100,5.084883056640625,0.0006875805556774139,-0.0009020931902341545,-0.0013996029738336802
1779111806115873000,5.094873046875,0.0003938339650630951,0.0020015512127429247,0.004009011201560497
1779111806125864000,5.104864013671875,0.002985273487865925,-0.0004281640867702663,0.0050885556265711784
1779111806135854000,5.11485400390625,0.003499530255794525,-0.001189029193483293,0.004691744688898325
1779111806145845000,5.124844970703125,0.004782173782587051,-0.0008610498043708503,0.0033928416669368744
1779111806155836200,5.134836181640625,0.004947023466229439,0.005275672301650047,-0.00045169753138907254
1779111806165826000,5.144825927734375,0.005833923816680908,0.012379487976431847,-0.006951703689992428
1779111806175817000,5.15481689453125,0.004720455035567284,0.017474915832281113,-0.009106733836233616
1779111806185807000,5.16480712890625,0.0013077640905976295,0.015461023896932602,-0.01126999780535698
1779111806195798300,5.17479833984375,0.0035821041092276573,0.010469194501638412,-0.006141548044979572
1779111806205788200,5.1847880859375,0.0041990382596850395,0.0021297631319612265,-0.002910313894972205
1779111806215779000,5.194779052734375,0.0030932947993278503,-0.003185107372701168,0.0016407620860263705
1779111806225770000,5.20477001953125,0.00039654504507780075,-0.00347399921156466,0.0011924586724489927
1779111806235759900,5.214759765625,-0.0021430449560284615,0.00034284323919564486,-0.0006592372665181756
1779111806245751000,5.2247509765625,-0.0036237267777323723,0.004301793407648802,-0.005249316804111004
1779111806255741200,5.2347412109375,-0.004956638440489769,0.0036032460629940033,-0.007373187690973282
1779111806265732000,5.244732177734375,-0.0011734366416931152,0.0016438888851553202,-0.004731749650090933
1779111806275722000,5.254721923828125,0.0003493586555123329,-0.00636663381010294,-0.0006738915690220892
1779111806285713000,5.264712890625,0.0001560291275382042,-0.009521445259451866,0.003969243261963129
1779111806295703000,5.274703125,0.002712131477892399,-0.007036981638520956,0.0054861800745129585
1779111806305694200,5.284694091796875,0.003582170233130455,-0.0012296619825065136,0.0015168247045949101
1779111806315685000,5.29468505859375,0.0030490048229694366,0.007381935603916645,-0.0025852422695606947
1779111806325675000,5.304675048828125,0.005411994643509388,0.014383980073034763,-0.007550000678747892
1779111806335666000,5.314666015625,0.003055363893508911,0.018213605508208275,-0.010970031842589378
1779111806345656000,5.324656005859375,0.001603192649781704,0.019824150949716568,-0.013116215355694294
1779111806355647000,5.33464697265625,0.0022380901500582695,0.017746085301041603,-0.00870415661484003
1779111806365637000,5.34463720703125,-0.001957154832780361,0.009662797674536705,-0.00396789750084281
1779111806375628000,5.3546279296875,-0.002273538149893284,0.000018426100723445415,0.0017882586689665914
1779111806385619000,5.364618896484375,-0.00149517972022295,-0.008848948404192924,0.00897230114787817
1779111806395609000,5.374609130859375,-0.003994290251284838,-0.014792591333389282,0.012423758395016193
1779111806405600000,5.38460009765625,-0.0004974920302629471,-0.01671205461025238,0.012492388486862183
1779111806415590100,5.394590087890625,0.0008077230304479599,-0.016546672210097313,0.007260874845087528
1779111806425581000,5.4045810546875,0.001643170602619648,-0.006861806381493807,-0.0002725463127717376
1779111806435571000,5.414571044921875,0.003599529154598713,0.00182143016718328,-0.0022475465666502714
1779111806445562000,5.42456201171875,0.005009007640182972,0.009318163618445396,-0.00615153182297945
1779111806455553000,5.434552978515625,0.003299257718026638,0.0163252055644989,-0.006519847083836794
1779111806465543000,5.44454296875,0.002128484658896923,0.01804041676223278,-0.0026335532311350107
1779111806475534000,5.4545341796875,0.0033165207132697105,0.01217613648623228,0.000306842994177714
1779111806485524000,5.46452392578125,0.0017364667728543282,0.005999200511723757,0.0038656252436339855
1779111806495515100,5.47451513671875,0.0008094208315014839,-0.003333314787596464,0.0057098641991615295
1779111806505505000,5.484505126953125,0.00286273006349802,-0.007772078737616539,0.007044604048132896
1779111806515496000,5.494495849609375,0.0035194652155041695,-0.009083152748644352,0.004979589022696018
1779111806525486000,5.504486083984375,0.005068025551736355,-0.008207648992538452,0.004215606488287449
1779111806535477000,5.51447705078125,0.006314651109278202,-0.0015904929023236036,0.0010917186737060547
1779111806545468200,5.52446826171875,0.0041924817487597466,0.0031231180764734745,-0.0031781126745045185
1779111806555458000,5.5344580078125,0.0031264182180166245,0.008586326614022255,-0.002340015722438693
1779111806565449000,5.544448974609375,0.0016393037512898445,0.008337675593793392,0.00041785213397815824
1779111806575439000,5.554439208984375,-0.001433451659977436,0.004147990606725216,0.003971574362367392
1779111806585430300,5.56443017578125,-0.0029803067445755005,-0.0015177462482824922,0.006517327390611172
1779111806595420200,5.574420166015625,-0.0016639064997434616,-0.006871499121189117,0.0083389300853014
1779111806605411000,5.5844111328125,-0.0026783039793372154,-0.009541584178805351,0.008272883482277393
1779111806615401700,5.594401611328125,0.0001851264387369156,-0.010061965323984623,0.005944481119513512
1779111806625391600,5.6043916015625,0.00012265611439943314,-0.008303471840918064,0.002776096807792783
1779111806635382800,5.6143828125,0.004274523817002773,-0.0025992467999458313,-0.0010143803665414453
1779111806645373000,5.624373046875,0.00398873258382082,0.00220968434587121,-0.00357297295704484
1779111806655363800,5.63436376953125,0.0037378622218966484,0.007702719885855913,-0.0022419251035898924
1779111806665353700,5.644353759765625,0.0022205132991075516,0.0056420182809233665,0.0005628446233458817
1779111806675344600,5.6543447265625,0.002108394168317318,0.0007125072879716754,0.0033431847114115953
1779111806685334800,5.664334716796875,0.004386469721794128,-0.0042205387726426125,0.0026944014243781567
1779111806695326000,5.674325927734375,0.0037579629570245743,-0.009624091908335686,-0.00007715025276411325
1779111806705316900,5.68431689453125,0.004786529578268528,-0.0116812102496624,0.0010200797114521265
1779111806715306800,5.694306640625,0.005574558861553669,-0.010079052299261093,0.0013234136858955026
1779111806725297700,5.704297607421875,0.005425524897873402,-0.010172180831432343,0.0017439418006688356
1779111806735287800,5.714287841796875,0.00439062062650919,-0.007022459991276264,0.0011937327217310667
1779111806745278700,5.72427880859375,0.0026239491999149323,-0.0019713654182851315,0.00030415807850658894
1779111806755268900,5.734268798828125,0.007301258854568005,0.001183148822747171,0.00033105601323768497
1779111806765259800,5.744259765625,0.00891552958637476,0.004624997265636921,0.00014958612155169249
1779111806775249700,5.754249755859375,0.00837597344070673,0.00865009892731905,0.003507033223286271
1779111806785240800,5.76424072265625,0.007421762682497501,0.012850436381995678,0.005244213156402111
1779111806795231700,5.774231689453125,0.006873683072626591,0.011375045403838158,0.0062008211389184
1779111806805222000,5.784221923828125,0.006576825864613056,0.006590789649635553,0.0031340254936367273
1779111806815212800,5.794212890625,0.004527525044977665,-0.0017552910139784217,-0.0005030534230172634
1779111806825202700,5.80420263671875,0.000014962628483772278,-0.007046721410006285,-0.004174603149294853
1779111806835193900,5.81419384765625,0.000009636394679546356,-0.012612727470695972,-0.004559429828077555
1779111806845183700,5.824183837890625,-0.0029569892212748528,-0.016983307898044586,-0.0012555691646412015
1779111806855174700,5.834174560546875,-0.002902660518884659,-0.02091226913034916,0.0024696604814380407
1779111806865165800,5.844165771484375,0.005388437770307064,-0.024754995480179787,0.00505752582103014
1779111806875155700,5.85415576171875,0.007672631181776524,-0.019090985879302025,0.005317450501024723
1779111806885147000,5.86414697265625,0.0042673684656620026,0.0032282210886478424,0.006289965007454157
1779111806895136800,5.87413671875,0.001639626920223236,0.030627619475126266,0.000870432355441153
1779111806905127700,5.884127685546875,-0.0026488611474633217,0.04715413227677345,-0.007400280795991421
1779111806915117800,5.894117919921875,-0.003396676853299141,0.04632056504487991,-0.014147398993372917
1779111806925108700,5.904108642578125,-0.004091882146894932,0.029654448851943016,-0.01431457418948412
1779111806935099000,5.914098876953125,-0.001614343374967575,0.0017514462815597653,-0.004517603665590286
1779111806945089800,5.92408984375,-0.004218615125864744,-0.027363091707229614,0.010471293702721596
1779111806955080700,5.934080810546875,-0.008680741302669048,-0.0398477204144001,0.020987849682569504
1779111806965070800,5.94407080078125,-0.010075682774186134,-0.038880184292793274,0.024874597787857056
1779111806975062000,5.95406201171875,-0.005864426493644714,-0.03085954114794731,0.0208569522947073
1779111806985052000,5.964052001953125,0.0021432312205433846,-0.02586490660905838,0.010499306954443455
1779111806995042800,5.974042724609375,0.01354848500341177,-0.01238345168530941,0.0006346922018565238
1779111807005032700,5.98403271484375,0.015147014521062374,0.008019862696528435,-0.00892306212335825
1779111807015023600,5.994023681640625,0.012149360962212086,0.03436997905373573,-0.01700895093381405
1779111807025013800,6.004013671875,0.011748905293643475,0.051204729825258255,-0.021566318348050117
1779111807035005000,6.0140048828125,0.004470218904316425,0.05966319516301155,-0.016506845131516457
1779111807044995800,6.023995849609375,-0.0012262007221579552,0.05028600990772247,-0.006879366468638182
1779111807054985700,6.03398583984375,-0.0062478575855493546,0.020316926762461662,0.003574339672923088
1779111807064976600,6.0439765625,-0.010709648951888084,-0.020721975713968277,0.008840927854180336
1779111807074966800,6.053966796875,-0.008857420645654202,-0.05520724877715111,0.013932093046605587
1779111807084958000,6.0639580078125,-0.0020694779232144356,-0.06728914380073547,0.013165519572794437
1779111807094947800,6.07394775390625,-0.0015261927619576454,-0.053628988564014435,0.00903389137238264
1779111807104938800,6.083938720703125,0.0036701560020446777,-0.022339968010783195,0.004551295656710863
1779111807114929700,6.0939296875,0.005739166401326656,0.010951410047709942,-0.00390930101275444
1779111807124919800,6.103919921875,0.008931008167564869,0.035991646349430084,-0.009811874479055405
1779111807134910700,6.11391064453125,0.009191998280584812,0.04167057201266289,-0.011125344783067703
1779111807144900900,6.12390087890625,0.00813762005418539,0.03658585995435715,-0.009306499734520912
1779111807154891800,6.133891845703125,0.002881605178117752,0.02058691903948784,-0.003550077322870493
1779111807164881700,6.143881591796875,-0.001860298216342926,0.0011414114851504564,0.0030624298378825188
1779111807174872800,6.153872802734375,-0.00402278546243906,-0.020013675093650818,0.007288866676390171
1779111807184863000,6.163863037109375,-0.0016556764021515846,-0.03839002177119255,0.010973730124533176
1779111807194854000,6.17385400390625,0.0021656928583979607,-0.041417770087718964,0.009932434186339378
1779111807204844800,6.1838447265625,-0.00011143367737531662,-0.02870442345738411,0.0036399883683770895
1779111807214834700,6.193834716796875,0.0007287943735718727,0.0031131613068282604,-0.005429406650364399
1779111807224825900,6.203825927734375,0.0014714254066348076,0.030598336830735207,-0.016772232949733734
1779111807234815700,6.213815673828125,0.0006160186603665352,0.04272796958684921,-0.021723583340644836
1779111807244806700,6.223806640625,-0.001595967449247837,0.03366224095225334,-0.01867550052702427
1779111807254796800,6.233796875,-0.001625794917345047,0.013923957012593746,-0.008827930316329002
1779111807264787700,6.24378759765625,-0.01720258966088295,-0.006235168315470219,0.0008977618417702615
1779111807274777900,6.25377783203125,-0.01733335107564926,-0.026396896690130234,0.010111766867339611
1779111807284768800,6.263768798828125,-0.008485859259963036,-0.04447586461901665,0.01798037253320217
1779111807294759700,6.273759765625,-0.009186271578073502,-0.04364202916622162,0.025107789784669876
1779111807304749800,6.283749755859375,-0.006141592748463154,-0.026495659723877907,0.030531084164977074
1779111807314741000,6.293740966796875,-0.0007220599800348282,-0.0015215991297736764,0.02515895664691925
1779111807324731000,6.30373095703125,0.007592701353132725,0.01695389673113823,0.010031950660049915
1779111807334721800,6.3137216796875,0.012416484765708447,0.028763150796294212,-0.0038982462137937546
1779111807344711700,6.323711669921875,0.016155101358890533,0.03452344611287117,-0.016131022945046425
1779111807354702600,6.33370263671875,0.01619691029191017,0.030299939215183258,-0.024131691083312035
1779111807364692700,6.343692626953125,0.011887545697391033,0.021394511684775352,-0.022742601111531258
1779111807374684000,6.353683837890625,0.01205106358975172,0.009397238492965698,-0.02022618055343628
1779111807384674800,6.3636748046875,0.009850846603512764,-0.0012883162125945091,-0.01404781173914671
1779111807394664700,6.373664794921875,0.00609925203025341,-0.007909201085567474,-0.010183830745518208
1779111807404655600,6.383655517578125,0.0003726053982973099,-0.00561106763780117,-0.004356842488050461
1779111807414645800,6.393645751953125,-0.0014165062457323074,0.0009307216387242079,-0.0018396226223558187
1779111807424637000,6.403636962890625,-0.007478488143533468,0.01331343874335289,0.0012654825113713741
1779111807434626800,6.413626708984375,-0.009153882972896099,0.012854576110839844,0.003822117345407605
1779111807444617700,6.42361767578125,-0.008701927028596401,-0.003461967222392559,0.00901820044964552
1779111807454607600,6.433607666015625,-0.005914662498980761,-0.023636210709810257,0.012531176209449768
1779111807464598800,6.443598876953125,-0.0037892586551606655,-0.033842723816633224,0.01448198314756155
1779111807474590000,6.45358984375,0.0002952311187982559,-0.027995489537715912,0.010264335200190544
1779111807484579800,6.463579833984375,0.0016357237473130226,-0.007567660883069038,0.0015852886717766523
1779111807494570800,6.47357080078125,0.0017398539930582047,0.014467866159975529,-0.003119185334071517
1779111807504560600,6.483560546875,-0.0011129938066005707,0.027073530480265617,-0.006427817977964878
1779111807514551800,6.4935517578125,0.0008135363459587097,0.023313945159316063,-0.004014194943010807
1779111807524542000,6.5035419921875,0.0005260193720459938,0.010586443357169628,-0.000756107154302299
1779111807534532900,6.513532958984375,0.0007816832512617111,-0.004812487401068211,0.0030953562818467617
1779111807544522800,6.523522705078125,0.000751744955778122,-0.014828983694314957,0.003945954144001007
1779111807554513700,6.533513671875,-0.00022696703672409058,-0.016581343486905098,0.0009214021265506744
1779111807564504800,6.5435048828125,0.0006560366600751877,-0.01274374034255743,-0.004267743322998285
1779111807574494700,6.55349462890625,-0.004130995366722345,-0.0035371920093894005,-0.004604633431881666
1779111807584486000,6.56348583984375,-0.004457125440239906,0.004408431239426136,-0.003178761573508382
1779111807594475800,6.573475830078125,-0.004079755395650864,0.007963218726217747,0.0019161319360136986
1779111807604466700,6.583466796875,-0.0033425800502300262,0.004427770618349314,0.003627354046329856
1779111807614456800,6.593456787109375,-0.0032347217202186584,-0.001212804694660008,0.003330145264044404
1779111807624448300,6.6034482421875,-0.004056806676089764,-0.004807190969586372,0.0007915238384157419
1779111807634438400,6.6134384765625,-0.004102080594748259,-0.0053254421800374985,-0.0011770848650485277
1779111807644429600,6.6234296875,-0.0035958411172032356,-0.00885653868317604,-0.005020956043154001
1779111807654420500,6.63342041015625,-0.004654980730265379,-0.01251891814172268,-0.005134140606969595
1779111807664410400,6.643410400390625,-0.007042256183922291,-0.014781242236495018,-0.003770782146602869
1779111807674401300,6.6534013671875,-0.004484289791435003,-0.014746354892849922,-0.00044023292139172554
1779111807684391200,6.66339111328125,-0.005252114497125149,-0.012756112962961197,0.0013229520991444588
1779111807694382300,6.67338232421875,-0.0015212921425700188,-0.006732042878866196,0.0021876804530620575
1779111807704372500,6.68337255859375,-0.00029009487479925156,-0.0023074978962540627,0.0027484558522701263
1779111807714363400,6.69336328125,0.00441278051584959,0.0024731424637138844,0.000698354619089514
1779111807724353300,6.703353271484375,0.005713397637009621,0.007553511299192905,-0.0016283707227557898
1779111807734344200,6.71334423828125,0.007164819166064262,0.009599884040653706,-0.0016257076058536768
1779111807744335400,6.72333544921875,0.0066536711528897285,0.008557482622563839,-0.003602635348215699
1779111807754325500,6.733325439453125,0.0038496283814311028,0.005851976573467255,-0.004253511782735586
1779111807764316400,6.74331640625,0.001095120795071125,0.0012545620556920767,-0.006202146876603365
1779111807774306300,6.753306396484375,0.002701539546251297,-0.0060020191594958305,-0.004707847256213427
1779111807784297200,6.763297119140625,0.0011395607143640518,-0.009996699169278145,-0.0017054933123290539
1779111807794287400,6.773287353515625,0.0019494276493787766,-0.012959199957549572,-0.0006543435738421977
1779111807804278300,6.7832783203125,0.0005513392388820648,-0.008429817855358124,0.00016023876378312707
1779111807814268400,6.793268310546875,0.0015729274600744247,-0.00045551516814157367,-0.0004032861324958503
1779111807824259300,6.80325927734375,-0.0014334265142679214,0.007056504022330046,-0.0020208267960697412
1779111807834249200,6.813249267578125,-0.00024139601737260818,0.007742800749838352,-0.004129517823457718
1779111807844240400,6.823240478515625,0.0005673160776495934,0.00138465769123286,-0.004761853720992804
1779111807854231300,6.833231201171875,-0.0017488347366452217,-0.005130233243107796,-0.0036571745295077562
1779111807864221400,6.843221435546875,-0.0023551099002361298,-0.00827990286052227,0.001142037333920598
1779111807874212400,6.85321240234375,-0.003134617581963539,-0.010430139489471912,0.0024808081798255444
1779111807884202200,6.8632021484375,-0.005316037684679031,-0.012281608767807484,0.004485682584345341
1779111807894193400,6.873193359375,-0.005139470100402832,-0.013958334922790527,0.004847872536629438
1779111807904183300,6.883183349609375,-0.0026219766587018967,-0.014057599939405918,0.0040287235751748085
1779111807914174200,6.89317431640625,0.0003090985119342804,-0.008682276122272015,0.001218822319060564
1779111807924164400,6.903164306640625,0.0020670145750045776,-0.0037178155034780502,-0.0006074010161682963
1779111807934155300,6.9131552734375,0.0010912325233221054,0.007012592628598213,-0.0024053009692579508
1779111807944146400,6.923146484375,0.00007953401654958725,0.01477937400341034,-0.0036675455048680305
1779111807954136300,6.93313623046875,0.000463828444480896,0.016616422683000565,-0.006872393656522036
1779111807964127200,6.943127197265625,-0.0008160518482327461,0.011159544810652733,-0.005918621551245451
1779111807974117400,6.953117431640625,-0.0020696017891168594,0.0006690864684060216,-0.0024921984877437353
1779111807984108500,6.963108642578125,-0.002310679294168949,-0.008554750122129917,0.00137892528437078
1779111807994098400,6.973098388671875,-0.002543172799050808,-0.011546279303729534,0.0023472504690289497
1779111808004089300,6.98308935546875,-0.0033820969983935356,-0.010585278272628784,0.004080381244421005
1779111808014079200,6.993079345703125,-0.0034305667504668236,-0.00353429326787591,0.002035606186836958
1779111808024070100,7.003070068359375,-0.0025973906740546227,0.0003485447959974408,0.0006734698545187712
1779111808034061300,7.013061279296875,-0.0023209545761346817,0.002471084240823984,0.0007728057680651546
1779111808044051500,7.023051513671875,0.0013197679072618484,0.00022919371258467436,0.0018569156527519226
1779111808054042400,7.03304248046875,0.003100357949733734,-0.0015737663488835096,0.0021091171074658632
1779111808064032300,7.0430322265625,-0.00043049734085798264,-0.003170536132529378,0.0035804198123514652
1779111808074023200,7.053023193359375,0.0017586210742592812,-0.001287148566916585,0.002529802732169628
1779111808084013300,7.063013427734375,0.0015919432044029236,-0.0009074434638023376,0.0021519940346479416
1779111808094004500,7.07300439453125,-0.000007018446922302246,0.0012848706683143973,-0.0005668270750902593
1779111808103994400,7.082994384765625,0.001040029339492321,0.0013527710689231753,-0.0022208935115486383
1779111808113985300,7.0929853515625,0.002165215089917183,-0.0016129249706864357,-0.000708750681951642
1779111808123975200,7.10297509765625,0.0009564300999045372,-0.0015731804305687547,0.0010556093184277415
1779111808133966300,7.11296630859375,0.002759123221039772,-0.0024336478672921658,0.0021472389344125986
1779111808143957500,7.12295751953125,0.003729218617081642,-0.005074379034340382,0.0028149564750492573
1779111808153947400,7.132947509765625,0.0035190945491194725,-0.0034812758676707745,0.0009853646624833345
1779111808163938300,7.142938232421875,0.0033446913585066795,-0.0014914947096258402,-0.0005331144784577191
1779111808173928200,7.15292822265625,0.0032845037057995796,-0.0005524640437215567,0.0006024573813192546
1779111808183919400,7.16291943359375,0.0035637114197015762,0.0031744453590363264,-0.00020606262842193246
1779111808193909500,7.172909423828125,0.004365854896605015,0.005423484370112419,-0.001766142318956554
1779111808203900400,7.182900390625,0.004528467543423176,0.005378999747335911,-0.000852655153721571
1779111808213890300,7.192890380859375,0.0039694709703326225,0.0030210367403924465,-0.003021799959242344
1779111808223881200,7.202881103515625,0.003174726851284504,0.0031928319949656725,-0.0036881694104522467
1779111808233872400,7.212872314453125,0.0010649701580405235,0.002681771293282509,-0.004025325179100037
1779111808243862300,7.2228623046875,0.00001519080251455307,-0.0005206704372540116,-0.0018216932658106089
1779111808253853400,7.232853515625,-0.001935308799147606,-0.005283733829855919,0.00023266917560249567
1779111808263843300,7.24284326171875,-0.003261243924498558,-0.0075651612132787704,0.001891521387733519
1779111808273834200,7.252834228515625,-0.008233100175857544,-0.011405971832573414,0.0012504985788837075
1779111808283824400,7.262824462890625,-0.006779722403734922,-0.010769098065793514,-0.002079949015751481
1779111808293815300,7.272815185546875,-0.006317131221294403,-0.009829801507294178,-0.00624859519302845
1779111808303805400,7.282805419921875,-0.006619950290769339,-0.009345075115561485,-0.007658918853849173
1779111808313796400,7.29279638671875,-0.008274039253592491,-0.006187098100781441,-0.007178484927862883
1779111808323786200,7.3027861328125,-0.00977240689098835,-0.005765663459897041,-0.005895295180380344
1779111808333777400,7.31277734375,-0.004925719927996397,-0.007641860283911228,-0.0048004696145653725
1779111808343768300,7.322768310546875,-0.005102765280753374,-0.008749827742576599,-0.0005356758483685553
1779111808353758200,7.33275830078125,-0.005121141206473112,-0.008199086412787437,0.0024992625694721937
1779111808363749400,7.342749267578125,-0.0028854086995124817,-0.004438803531229496,0.002814721316099167
1779111808373739300,7.3527392578125,-0.0001514079049229622,-0.0018326343270018697,-0.000029001908842474222
1779111808383730400,7.36273046875,0.002256963402032852,0.0015534516423940659,-0.000020291598048061132
1779111808393720300,7.37272021484375,0.004405868239700794,0.004885332193225622,-0.003239254467189312
1779111808403711200,7.382711181640625,0.00503019243478775,0.011318507604300976,-0.0029078952502459288
1779111808413701400,7.392701416015625,0.006037132814526558,0.011724639683961868,-0.001129436306655407
1779111808423692300,7.4026923828125,0.010608021169900894,0.009354340843856335,0.003110458143055439
1779111808433682400,7.412682373046875,0.011522017419338226,0.0048402827233076096,0.006432484835386276
1779111808443673300,7.42267333984375,0.009722622111439705,0.003008838277310133,0.009110802784562111
1779111808453664300,7.432664306640625,0.009565494954586029,0.005776129197329283,0.007449256721884012
1779111808463654400,7.442654296875,0.008745617233216763,0.012092696502804756,0.005564553197473288
1779111808473645600,7.4526455078125,0.00680577103048563,0.016298359259963036,0.00022757844999432564
1779111808483635500,7.462635498046875,0.004186466336250305,0.01869329996407032,-0.004044727422297001
1779111808493626400,7.47262646484375,0.0017757723107933998,0.017028024420142174,-0.004276688676327467
1779111808503616300,7.4826162109375,0.0014879535883665085,0.009041010402143002,-0.004139652941375971
1779111808513607200,7.492607177734375,-0.00031047966331243515,0.0021034758538007736,-0.00025543285300955176
1779111808523597300,7.502597412109375,-0.004040181636810303,-0.005340417847037315,0.0010204954305663705
1779111808533588500,7.51258837890625,-0.00403698580339551,-0.0072315288707613945,0.0008338078041560948
1779111808543579400,7.522579345703125,-0.005193664692342281,-0.006390746217221022,-0.0034925451036542654
1779111808553569300,7.5325693359375,-0.00592017499729991,-0.0037563475780189037,-0.008349885232746601
1779111808563560200,7.542560302734375,-0.0077225081622600555,0.0012707472778856754,-0.01043290738016367
1779111808573550300,7.55255029296875,-0.00865141861140728,0.004627129063010216,-0.009432890452444553
1779111808583541500,7.56254150390625,-0.010464828461408615,0.0019236815860494971,-0.0038092411123216152
1779111808593531400,7.572531494140625,-0.010994797572493553,-0.0051619247533380985,0.0021663596853613853
1779111808603522300,7.582522216796875,-0.01117378007620573,-0.01178970281034708,0.0050591714680194855
1779111808613512200,7.59251220703125,-0.008490378968417645,-0.01699937880039215,0.006040546111762524
1779111808623502600,7.602502685546875,-0.007768696174025536,-0.016200032085180283,0.0012081851018592715
1779111808633492500,7.612492431640625,-0.003754513803869486,-0.008278991095721722,-0.004380192141979933
1779111808643483600,7.622483642578125,-0.001024189405143261,0.006101648788899183,-0.010193104855716228
1779111808653474600,7.632474609375,0.0012855706736445427,0.01691780984401703,-0.011348383501172066
1779111808663464400,7.64246435546875,0.00027129147201776505,0.022403636947274208,-0.009865911677479744
1779111808673455400,7.652455322265625,0.0010702405124902725,0.019868573173880577,-0.0068243155255913734
1779111808683445500,7.662445556640625,-0.0015316428616642952,0.010566191747784615,-0.0009198682382702827
1779111808693436700,7.672436767578125,-0.0028760069981217384,-0.002286755945533514,0.002640511840581894
1779111808703426600,7.682426513671875,-0.004846218042075634,-0.012033829465508461,0.003510400652885437
1779111808713417500,7.69241748046875,-0.0071266829036176205,-0.016043219715356827,0.0035809744149446487
1779111808723407600,7.70240771484375,-0.006272187922149897,-0.01613268256187439,0.0002071262279059738
1779111808733398500,7.7123984375,-0.0027972953394055367,-0.008504590019583702,-0.0005745115340687335
1779111808743388700,7.722388671875,-0.002877495251595974,0.002388599794358015,-0.0026097933296114206
1779111808753379600,7.732379638671875,-0.003940096125006676,0.014592002145946026,-0.0034833101090043783
1779111808763370500,7.74237060546875,-0.0062783570028841496,0.021918458864092827,-0.004193981643766165
1779111808773360400,7.7523603515625,-0.00610392028465867,0.0195343978703022,-0.0040211426094174385
1779111808783351300,7.762351318359375,-0.0056833066046237946,0.00881918054074049,-0.004339414183050394
1779111808793341700,7.772341796875,-0.005121911875903606,-0.006883350200951099,-0.003382007824257016
1779111808803332600,7.78233251953125,-0.0033525722101330757,-0.022226693108677864,-0.0014135476667433977
1779111808813322500,7.792322509765625,-0.0034471144899725914,-0.027641696855425835,0.000626700057182461
1779111808823313400,7.8023134765625,-0.0024037370458245277,-0.022370245307683945,-0.0005225879140198231
1779111808833303600,7.812303466796875,-0.0013019870966672897,-0.015198885463178158,-0.004355676006525755
1779111808843294700,7.822294677734375,0.000935923308134079,-0.0027692061848938465,-0.006406301632523537
1779111808853284600,7.83228466796875,0.0004696045070886612,0.010265902616083622,-0.012345683760941029
1779111808863275500,7.842275634765625,0.0011431286111474037,0.01563543640077114,-0.011628454551100731
1779111808873266400,7.852266357421875,0.00034710951149463654,0.011430838145315647,-0.009239332750439644
1779111808883256300,7.86225634765625,0.0005140900611877441,0.0016367973294109106,-0.006391614209860563
1779111808893247500,7.87224755859375,0.0007322030141949654,-0.0062157995998859406,-0.0012522462056949735
1779111808903237600,7.882237548828125,0.0026632873341441154,-0.010955559089779854,0.0037494907155632973
1779111808913228500,7.892228515625,0.003707512281835079,-0.010909220203757286,0.005085598677396774
1779111808923218400,7.902218505859375,0.0006925864145159721,-0.006721727084368467,0.0033421216066926718
1779111808933209600,7.912209716796875,-0.0000429786741733551,0.000797708285972476,0.000539677101187408
1779111808943199700,7.92219970703125,-0.0011728107929229736,0.00831503327935934,-0.002248808741569519
1779111808953190700,7.932190673828125,-0.0022873440757393837,0.009407461620867252,-0.003290637396275997
1779111808963180500,7.9421806640625,-0.001595030538737774,0.006721725221723318,-0.005233618896454573
1779111808973171500,7.95217138671875,-0.0013841083273291588,0.0028667994774878025,-0.0017906844150274992
1779111808983162600,7.96216259765625,-0.0012215469032526016,-0.0026284288614988327,-0.00016888012760318816
1779111808993152500,7.972152587890625,-0.00268442090600729,-0.005734740290790796,0.002733699046075344
1779111809005016600,7.9840166015625,-0.0019134487956762314,-0.004749972838908434,0.002893981523811817
1779111809015006500,7.99400634765625,0.00009297672659158707,-0.002774173393845558,0.0014433575561270118
1779111809024997400,8.003997314453125,0.001850377768278122,0.0026696249842643738,0.00041679496644064784
1779111809034987500,8.013987548828124,0.0016019046306610107,0.006386332213878632,-0.0018311792518943548
1779111809044978700,8.023978759765624,0.002297251485288143,0.008675686083734035,-0.0026276044081896544
1779111809054968600,8.033968505859375,0.003422969952225685,0.01035640761256218,-0.0015809821197763085
1779111809064959500,8.04395947265625,0.0019783778116106987,0.007303779479116201,-0.00033871945925056934
1779111809074949400,8.053949462890625,0.0028721345588564873,0.0018618764588609338,0.0003068307996727526
1779111809084940500,8.0639404296875,0.0036689341068267822,-0.0025446584913879633,0.0022463700734078884
1779111809094930700,8.0739306640625,0.002554134465754032,-0.0038842284120619297,0.0051409597508609295
1779111809104921600,8.083921630859376,0.0011936994269490242,-0.0047593554481863976,0.0037465535569936037
1779111809114912500,8.09391259765625,0.00381531473249197,-0.001914300606586039,0.003499678336083889
1779111809124902400,8.10390234375,0.002177123911678791,0.002425810322165489,0.002063639694824815
1779111809134893600,8.1138935546875,0.001906546764075756,0.007861056365072727,0.0010678840335458517
1779111809144883700,8.1238837890625,0.0009536314755678177,0.011397529393434525,0.000037679230445064604
1779111809154874600,8.13387451171875,0.0004241950809955597,0.00992187112569809,0.00222360179759562
1779111809164864500,8.143864501953125,-0.0006963163614273071,0.0045508285984396935,0.0009443290182389319
1779111809174855400,8.15385546875,0.0006832005456089973,-0.0038732828106731176,0.0018271669978275895
1779111809184845600,8.163845458984374,-0.001435871236026287,-0.007608300074934959,0.003676745342090726
1779111809194836700,8.173836669921876,-0.0011264113709330559,-0.009063450619578362,0.004161707125604153
1779111809204826600,8.18382666015625,-0.0006583994254469872,-0.005788617301732302,0.005893257446587086
1779111809214817500,8.193817626953125,-0.0019343197345733643,-0.004105233121663332,0.004511076956987381
1779111809224808400,8.203808349609375,0.00023178383708000183,-0.0016237804666161537,0.00327535392716527
1779111809234798300,8.21379833984375,0.0005233995616436005,0.0030865524895489216,0.0007671889616176486
1779111809244789500,8.22378955078125,0.0007585501298308372,0.0015734448097646236,-0.0003277768846601248
1779111809254779600,8.233779541015625,0.0007265917956829071,-0.0005213976255618036,-0.00009395134838996455
1779111809264770600,8.2437705078125,0.0026187673211097717,-0.0032972104381769896,0.0004722367157228291
1779111809274760400,8.253760498046875,0.00414023082703352,-0.0074498774483799934,0.0028570974245667458
1779111809284751600,8.263751708984374,0.002503063529729843,-0.00872737541794777,0.004265220370143652
1779111809294741500,8.273741455078126,0.0024873511865735054,-0.007143060676753521,0.003665742464363575
1779111809304732700,8.283732666015625,0.0032797828316688538,-0.0008218329166993499,0.003106549382209778
1779111809315347500,8.294347412109374,0.0011252481490373611,0.0014459105441346765,0.0019106961553916335
1779111809325337600,8.304337646484376,0.0041402122005820274,0.0035775043070316315,0.0008230612147599459
1779111809335328500,8.31432861328125,0.007223757915198803,0.003320725169032812,0.0012580257607623935
1779111809345318700,8.324318603515625,0.0060109542682766914,0.0033071432262659073,0.0008393768221139908
1779111809355309600,8.3343095703125,0.004777737893164158,0.0029533212073147297,0.000755322864279151
1779111809365299500,8.344299560546874,0.004890390671789646,0.0011474316706880927,-0.0012558962916955352
1779111809375290600,8.35429052734375,0.004955709911882877,-0.001827708794735372,-0.0014389337738975883
1779111809385281500,8.364281494140625,0.005403121002018452,-0.004470096901059151,0.00366022065281868
1779111809395271400,8.374271484375,0.0027160095050930977,-0.008401752449572086,0.006203186698257923
1779111809405262600,8.3842626953125,0.0020054783672094345,-0.009434526786208153,0.007005330640822649
1779111809415252500,8.39425244140625,0.00405341200530529,-0.005376001819968224,0.004656633362174034
1779111809425243600,8.40424365234375,0.0024906685575842857,0.0008949432522058487,0.002870185300707817
1779111809435233500,8.414233642578125,0.0010374188423156738,0.010102689266204834,0.0030217748135328293
1779111809445224400,8.424224365234375,0.001724247820675373,0.013937640935182571,0.004843909293413162
1779111809455214600,8.434214599609374,-0.0007220488041639328,0.008831338956952095,0.007043743506073952
1779111809465205500,8.44420556640625,0.0017778603360056877,0.003073317464441061,0.009079995565116405
1779111809475195600,8.454195556640625,0.0012633269652724266,0.00019534083548933268,0.00863883551210165
1779111809485186600,8.4641865234375,0.0034159598872065544,0.0027272081933915615,0.007095800247043371
1779111809495177500,8.474177490234375,0.0031422218307852745,0.0066244169138371944,0.0035355137661099434
1779111809505167400,8.48416748046875,0.002260715700685978,0.008589030243456364,-0.00241132453083992
1779111809515158500,8.494158447265624,-0.001967020332813263,0.008966001681983471,-0.00381661974824965
1779111809525148700,8.504148681640626,-0.003093005158007145,0.003506254870444536,-0.006497357506304979
1779111809535139600,8.5141396484375,-0.005832950118929148,-0.00256819068454206,-0.005210581235587597
1779111809545129500,8.52412939453125,-0.006858000531792641,-0.006929383147507906,-0.002830513985827565
1779111809555120400,8.534120361328124,-0.0072217402048408985,-0.0090635372325778,-0.00004328085924498737
1779111809565110500,8.544110595703126,-0.008191397413611412,-0.010622551664710045,0.001583910547196865
1779111809575101700,8.554101806640626,-0.003499452956020832,-0.007577658165246248,0.001732906443066895
1779111809585091600,8.564091552734375,-0.004783628974109888,-0.0026129931211471558,-0.00005540615529753268
1779111809595082500,8.57408251953125,-0.004920393694192171,0.0020387303084135056,-0.0023615467362105846
1779111809605073400,8.584073486328125,-0.0010580113157629967,0.004103745333850384,-0.0036300101783126593
1779111809615067400,8.5940673828125,0.0012662000954151154,0.001104175578802824,-0.003263333812355995
1779111809625058600,8.60405859375,0.0030555780977010727,-0.0037888502702116966,0.00019877571321558207
1779111809635048700,8.614048583984374,0.0040705641731619835,-0.007349926978349686,0.0030762909445911646
1779111809645039600,8.62403955078125,0.0010982109233736992,-0.007016765419393778,0.004005201626569033
1779111809655029500,8.634029541015625,0.0008250577375292778,-0.0049335286021232605,0.0046143680810928345
1779111809665020400,8.6440205078125,0.001917487010359764,-0.00025462062330916524,0.00525086373090744
1779111809675010600,8.654010498046874,0.00391521118581295,-0.000561037624720484,0.003259186865761876
1779111809685001700,8.664001708984374,0.006306462921202183,-0.004609042778611183,0.0010500946082174778
1779111809694992600,8.67399267578125,0.00785535853356123,-0.0044292788952589035,-0.0010178498923778534
1779111809704982500,8.683982421875,0.007453220896422863,0.0009452463127672672,-0.004358519334346056
1779111809714973400,8.693973388671875,0.004559534601867199,0.012369491159915924,-0.004936676472425461
1779111809724963300,8.70396337890625,0.0027997177094221115,0.019884131848812103,-0.004049311392009258
1779111809734954500,8.71395458984375,0.0007804911583662033,0.01771528460085392,-0.0025525286328047514
1779111809744944600,8.723944580078125,0.0003181658685207367,0.00703654158860445,-0.0009509034571237862
1779111809754935600,8.733935546875,0.0014862865209579468,-0.006254128646105528,0.0013998389476910233
1779111809764925400,8.743925537109375,0.001987759955227375,-0.016162419691681862,0.0046041542664170265
1779111809774916600,8.75391650390625,0.00019593164324760437,-0.013976138085126877,0.005524002481251955
1779111809784906800,8.76390673828125,-0.0021881302818655968,-0.005077717825770378,0.0021718814969062805
1779111809794897700,8.773897705078125,-0.002717462368309498,0.001817749347537756,-0.00029289734084159136
1779111809804888600,8.783888671875,-0.00420590303838253,0.004481709562242031,-0.0007387105142697692
1779111809814878500,8.79387841796875,-0.0037023499608039856,0.002843229565769434,-0.0018193902214989066
1779111809824869600,8.80386962890625,-0.0004469025880098343,-0.0013027796521782875,-0.0016223163111135364
1779111809834859500,8.813859619140626,0.0006922008469700813,-0.0051307352259755135,0.000028193797334097326
1779111809844850400,8.823850341796875,0.00007514655590057373,-0.003030566032975912,-0.0010144338011741638
1779111809854840600,8.833840576171875,-0.0016292044892907143,0.0015217181062325835,-0.00014072905469220132
1779111809864831500,8.84383154296875,-0.0010992353782057762,0.0067598894238471985,-0.0017162550939247012
1779111809874821400,8.8538212890625,0.00033419951796531677,0.005286342464387417,0.0006256189662963152
1779111809884812500,8.8638125,0.0008870717138051987,0.0014961319975554943,0.00437694787979126
1779111809894803500,8.873803466796875,0.0006034132093191147,-0.004132859408855438,0.006979866418987513
1779111809904793600,8.883793701171875,0.0016018319875001907,-0.004809301812201738,0.00809173658490181
1779111809914784500,8.893784423828125,0.0012910589575767517,-0.00319598987698555,0.004209826234728098
1779111809924774700,8.903774658203124,0.002321169711649418,0.002228070516139269,-0.0003702780813910067
1779111809934765600,8.913765625,0.0031944559887051582,0.005091705825179815,-0.005541510414332151
1779111809944755500,8.92375537109375,0.0031419917941093445,0.00856127217411995,-0.005912222433835268
1779111809954746400,8.933746337890625,0.0015924572944641113,0.006583793088793755,-0.0029790319968014956
1779111809964736500,8.943736572265625,0.002202853560447693,0.0011346990941092372,-0.0005512944189831614
1779111809974727700,8.953727783203124,0.0026383167132735252,-0.0026808730326592922,0.003301061922684312
1779111809984718600,8.963718505859376,0.0017919642850756645,-0.006738731637597084,0.005351163446903229
1779111809994708500,8.97370849609375,0.0010214755311608315,-0.007578365039080381,0.005536425393074751
1779111810004699400,8.983699462890625,0.00034769531339406967,-0.00816026609390974,0.0032485038973391056
1779111810014689500,8.993689453125,0.0005090758204460144,-0.0025320113636553288,0.0010718627599999309
1779111810024680700,9.0036806640625,0.002529350109398365,-0.00023636635160073638,-0.003161764470860362
1779111810034670600,9.013670654296876,0.0028797565028071404,0.0017024136614054441,-0.003496900200843811
1779111810044661500,9.02366162109375,0.0009361812844872475,0.0004952027229592204,-0.004888401832431555
1779111810054651400,9.0336513671875,0.00016214512288570404,-0.0014774519950151443,-0.004899782128632069
1779111810064642300,9.043642333984375,0.00008837506175041199,-0.0035288850776851177,-0.004878743551671505
1779111810074633500,9.053633544921874,-0.0009828731417655945,-0.0007539222715422511,-0.0039036895614117384
1779111810084623600,9.06362353515625,-0.0014214953407645226,0.0016213511116802692,0.0012053188402205706
1779111810094614500,9.073614501953125,0.0016155187040567398,0.0058295042254030704,0.0039821891114115715
1779111810104604400,9.0836044921875,0.0006735585629940033,0.006782915908843279,0.007902095094323158
1779111810114595600,9.093595703125,-0.0005676141008734703,0.0036023533903062344,0.006651671137660742
1779111810124585700,9.103585693359374,-0.0001308554783463478,0.0010337346466258168,0.005557910539209843
1779111810134576600,9.11357666015625,-0.00008263532072305679,-0.003527758177369833,0.0005153954261913896
1779111810144566500,9.12356640625,0.001181568019092083,-0.0073914723470807076,-0.0017850431613624096
1779111810154557400,9.133557373046875,0.0026780646294355392,-0.010863629169762135,-0.001897013164125383
1779111810164547300,9.14354736328125,0.00022316258400678635,-0.005521860904991627,-0.0026573457289487123
1779111810174538500,9.15353857421875,-0.002300102263689041,-0.0004181366821285337,-0.0015384897124022245
1779111810184529700,9.16352978515625,-0.003454849123954773,0.0014314285945147276,-0.0021930946968495846
1779111810194519600,9.17351953125,-0.0036070803180336952,0.0027914210222661495,-0.004303242079913616
1779111810204510500,9.183510498046875,-0.0002538934350013733,0.002404463477432728,-0.0026387665420770645
1779111810214500400,9.193500244140624,-0.000769500620663166,0.0016604071715846658,-0.0022527880501002073
1779111810224491500,9.203491455078124,0.00083212461322546,0.0007789008086547256,0.0027813853230327368
1779111810234481700,9.213481689453126,0.0026308419182896614,-0.0017015980556607246,0.0022113823797553778
1779111810244472600,9.22347265625,0.001829231157898903,-0.0010440635960549116,0.0005077584064565599
1779111810254462500,9.23346240234375,0.003106287680566311,-0.0015009187627583742,0.0009625477832742035
1779111810264453600,9.24345361328125,0.003857298754155636,-0.0017483264673501253,0.0003532165428623557
1779111810274443500,9.253443603515626,0.0016556233167648315,-0.0006008792552165687,-0.0005647685029543936
1779111810284434400,9.263434326171875,0.0010665319859981537,-0.0008834406617097557,-0.0022034114226698875
1779111810294425600,9.273425537109375,0.0005150660872459412,0.00007214921060949564,0.0005221548490226269
1779111810304415500,9.28341552734375,-0.00021091196686029434,0.0014050612226128578,0.00011415852350182831
1779111810314406700,9.29340673828125,0.0008525587618350983,0.0027056264225393534,-0.0010774184484034777
1779111810324396500,9.303396484375,0.001631266437470913,0.003626014804467559,-0.0012944660848006606
1779111810334387500,9.313387451171875,0.001702016219496727,0.0014774588635191321,-0.001370772602967918
1779111810344377600,9.323377685546875,0.00205142330378294,-0.0000021934974938631058,-0.00205041142180562
1779111810354368500,9.333368408203125,0.0017979275435209274,-0.0010547363199293613,-0.001383461756631732
1779111810364358400,9.3433583984375,-0.0013382108882069588,-0.0014704556670039892,-0.001195975230075419
1779111810374349600,9.353349609375,-0.00028981734067201614,-0.0016681744018569589,-0.00013107909762766212
1779111810384339500,9.36333935546875,-0.0016778567805886269,-0.002235960215330124,0.0011565593304112554
1779111810394330600,9.37333056640625,-0.004727702587842941,-0.0007216162048280239,0.00247353152371943
1779111810404321500,9.383321533203125,-0.0030501773580908775,-0.0023647865746170282,0.0022077481262385845
1779111810414311700,9.393311767578124,-0.002238260582089424,-0.005052396096289158,-0.0006511163664981723
1779111810424302600,9.403302490234376,0.0006089247763156891,-0.006303548812866211,-0.0010700315469875932
1779111810434292500,9.41329248046875,0.001953509636223316,-0.006173690780997276,-0.003577898722141981
1779111810444283400,9.423283447265625,0.0034842947497963905,-0.000492901774123311,-0.004373118281364441
1779111810454273500,9.4332734375,0.0036620665341615677,0.004228832665830851,-0.0028361380100250244
1779111810464264700,9.4432646484375,0.0035523446276783943,0.005059472285211086,0.0004757692222483456
1779111810474254600,9.453254638671876,0.0009438693523406982,0.004387668799608946,0.0015784198185428977
1779111810484245500,9.46324560546875,0.00008579902350902557,0.0001513785682618618,0.0007605630671605468
1779111810494235400,9.4732353515625,-0.0007578181102871895,-0.0028032553382217884,-0.00102836056612432
1779111810504226600,9.4832265625,-0.0024294843897223473,-0.0002732525172177702,-0.0008645762572996318
1779111810514217700,9.4932177734375,-0.0016000373288989067,-0.0016703975852578878,-0.0010368122020736337
1779111810524207600,9.50320751953125,-0.0017856592312455177,-0.0032914639450609684,-0.0003369334735907614
1779111810534198500,9.513198486328125,-0.0017866073176264763,-0.002985752187669277,0.00022754653764422983
1779111810544188400,9.5231884765625,-0.001352778635919094,-0.004352220334112644,0.002268060576170683
1779111810554179300,9.533179443359375,0.0008907141163945198,-0.003174029290676117,0.003536924021318555
1779111810564169700,9.543169677734374,-0.0005801497027277946,0.0015139331808313727,0.004603520035743713
1779111810574160600,9.55316064453125,-0.0027175741270184517,0.005019852891564369,0.001997139072045684
1779111810584150500,9.563150634765625,-0.0004115430638194084,0.005549289286136627,0.001021623145788908
1779111810594141400,9.573141357421875,0.000670027919113636,-0.00010435708099976182,0.0009998321766033769
1779111810604131600,9.583131591796874,0.0015105213969945908,-0.00384583231061697,0.0013889200054109097
1779111810614122800,9.593122802734374,0.0031928177922964096,-0.00368768023326993,0.001827323460020125
1779111810624110300,9.6031103515625,0.0075862351804971695,-0.0000442095915786922,0.00115860381629318
1779111810634100500,9.6131005859375,0.0033996254205703735,0.008689380250871181,0.0015627150423824787
1779111810644091400,9.62309130859375,-0.0014390721917152405,0.017062624916434288,-0.0004980390076525509
1779111810654081300,9.633081298828126,0.0015919171273708344,0.01269434578716755,-0.0017697301227599382
1779111810664072400,9.643072509765625,-0.0016315728425979614,0.0012776408111676574,0.0003389607882127166
1779111810674062600,9.6530625,-0.0011769644916057587,-0.00992567464709282,0.005451204255223274
1779111810684053500,9.663053466796875,0.0008393153548240662,-0.020114397630095482,0.010342099703848362
1779111810694043400,9.67304345703125,0.0026842448860406876,-0.018459590151906013,0.009882155805826187
1779111810704034300,9.683034423828126,0.0018972810357809067,-0.008972344920039177,0.0055795530788600445
1779111810714024200,9.693024169921875,0.0031320592388510704,0.008441482670605183,-0.0012686953414231539
1779111810724015400,9.703015380859375,0.003117945045232773,0.018840061500668526,-0.007356415037065744
1779111810734006500,9.713006591796875,0.003840147517621517,0.024607831612229347,-0.012432368472218513
1779111810743996400,9.722996337890624,0.001984989270567894,0.020379263907670975,-0.011141002178192139
1779111810753987300,9.7329873046875,-0.0004004696384072304,0.00939428061246872,-0.0051231044344604015
1779111810763977500,9.7429775390625,0.00008582416921854019,-0.004472799599170685,0.004047490656375885
1779111810773968400,9.752968505859375,-0.002679205499589443,-0.013566378504037857,0.011676844209432602
1779111810783958500,9.76295849609375,-0.0034629739820957184,-0.017367243766784668,0.016023123636841774
1779111810793949400,9.772949462890624,0.0009294562041759491,-0.014436657540500164,0.012577321380376816
1779111810803939300,9.782939208984375,0.002916174940764904,-0.009916740469634533,0.0048658717423677444
1779111810813930500,9.792930419921875,0.0066733593121171,0.00007827446097508073,-0.0033836374059319496
1779111810823920400,9.80292041015625,0.009011615999042988,0.012175151146948338,-0.006545608397573233
1779111810833911300,9.812911376953124,0.005969621241092682,0.02323726750910282,-0.010647909715771675
1779111810843902500,9.82290234375,0.0059027764946222305,0.02635423094034195,-0.009189562872052193
1779111810853892400,9.832892333984375,0.0018517281860113144,0.018202748149633408,-0.005614818539470434
1779111810863883500,9.842883544921875,-0.00044178683310747147,0.0036989059299230576,-0.0024443247821182013
1779111810873873400,9.852873291015625,-0.002700338140130043,-0.011517987586557865,0.0021572730038315058
1779111810883864300,9.8628642578125,-0.000533323734998703,-0.020914684981107712,0.004321091342717409
1779111810893854500,9.8728544921875,-0.0002565281465649605,-0.02044825442135334,0.003529169363901019
1779111810903845400,9.882845458984375,0.0009829066693782806,-0.01238020695745945,0.0030127824284136295
1779111810913835500,9.89283544921875,-0.00035820528864860535,0.0014324513031169772,-0.0016426813090220094
1779111810923826400,9.902826416015625,-0.000981917604804039,0.013253157958388329,-0.004492529667913914
1779111810933816300,9.91281640625,-0.0004672771319746971,0.016860123723745346,-0.005954715423285961
1779111810943807500,9.922807373046876,-0.00042892806231975555,0.011298111639916897,-0.00519598089158535
1779111810953797400,9.93279736328125,0.0009881779551506042,0.0009889540961012244,-0.0017044825945049524
1779111810963788500,9.94278857421875,0.0009410399943590164,-0.005728337448090315,-0.00020006300474051386
1779111810973779500,9.952779541015625,-0.00192225631326437,-0.006513220723718405,0.0001299725117860362
1779111810983769300,9.962769287109374,-0.0010008029639720917,-0.005180308595299721,-0.0014862999087199569
1779111810993760300,9.97276025390625,-0.003325209952890873,-0.0036633722484111786,-0.003855181625112891
1779111811003750400,9.98275048828125,-0.006439243908971548,-0.003754185978323221,-0.006029652897268534
1779111811013741600,9.992741455078125,-0.007039810065180063,-0.005705885589122772,-0.003453897312283516
1779111811023731500,10.0027314453125,-0.00444668997079134,-0.005520795937627554,-0.001837624702602625
1779111811033722400,10.012722412109374,-0.006146569736301899,-0.004397171083837748,-0.0015508763026446104
1779111811043712300,10.022712158203126,-0.008968722075223923,-0.002494342625141144,-0.002171126427128911
1779111811053703400,10.032703369140625,-0.0028268788009881973,-0.0016427570953965187,-0.002168721053749323
1779111811063693600,10.042693603515625,-0.0017829202115535736,-0.003119746223092079,-0.0020667221397161484
1779111811073684500,10.0526845703125,0.00011953059583902359,-0.002559665124863386,-0.00014274341810960323
1779111811083675400,10.06267529296875,0.0001155361533164978,-0.0047213532961905,0.0005310363485477865
1779111811093665300,10.072665283203126,0.0028052907437086105,-0.001460782834328711,-0.001378278131596744
1779111811103656400,10.082656494140625,0.0009360173717141151,0.0019986634142696857,-0.0012464516330510378
1779111811113646600,10.092646484375,0.00029280781745910645,0.006781626492738724,-0.00017281260807067156
1779111811123637500,10.102637451171875,0.002853170968592167,0.003718192456290126,0.005202245432883501
1779111811133627400,10.11262744140625,0.0024389363825321198,0.0002738452749326825,0.008196421898901463
1779111811143618300,10.122618408203126,-0.0013850964605808258,-0.0061212037689983845,0.011935765855014324
1779111811153608400,10.1326083984375,0.00065651535987854,-0.01285250298678875,0.010781251825392246
1779111811163599600,10.142599609375,0.004652055911719799,-0.014155321754515171,0.0032285270281136036
1779111811173589500,10.152589599609374,0.008040686137974262,-0.006200125906616449,-0.001245275605469942
1779111811183580400,10.162580322265624,0.008894228376448154,0.004945735912770033,-0.007939930073916912
1779111811193570300,10.1725703125,0.00904173031449318,0.019672013819217682,-0.013946517370641232
1779111811203561200,10.182561279296875,0.007830524817109108,0.03138885647058487,-0.01556119229644537
1779111811213551600,10.192551513671875,0.005401548929512501,0.03005659021437168,-0.014630048535764217
1779111811223542500,10.20254248046875,0.0007399525493383408,0.01854907162487507,-0.007109548430889845
1779111811233533400,10.212533447265624,-0.0006958935409784317,0.0024082334712147713,-0.001049595419317484
1779111811243523300,10.2225234375,-0.0018096277490258217,-0.012609065510332584,0.004576865117996931
1779111811253514500,10.232514404296875,-0.004117920063436031,-0.015853645280003548,0.004534590989351273
1779111811263504400,10.24250439453125,-0.0035112518817186356,-0.01087060384452343,0.0014778146287426353
1779111811273495600,10.25249560546875,-0.004914700519293547,-0.003234683535993099,-0.0009667337872087955
1779111811283485400,10.2624853515625,-0.0027548763900995255,0.010911495424807072,-0.0044930255971848965
1779111811293476400,10.272476318359375,-0.003793146461248398,0.016601450741291046,-0.007518273778259754
1779111811303466200,10.28246630859375,-0.0017483718693256378,0.0193847194314003,-0.008205102756619453
1779111811313457400,10.29245751953125,-0.002799444831907749,0.016544334590435028,-0.005198471713811159
1779111811323447600,10.302447509765624,-0.004604268819093704,0.012321626767516136,-0.003259690711274743
1779111811333438500,10.3124384765625,-0.0059060221537947655,0.006993440445512533,-0.00028653768822550774
1779111811343429400,10.322429443359376,-0.007718835957348347,0.0027166702784597874,0.0006045560585334897
1779111811353419300,10.332419189453125,-0.005844810511916876,-0.002989050932228565,0.00011995644308626652
1779111811363410400,10.342410400390625,-0.005974772851914167,-0.003085723612457514,-0.0023139065597206354
1779111811373400600,10.352400634765624,-0.00416418444365263,-0.002548615448176861,-0.0049516670405864716
1779111811383391500,10.3623916015625,-0.001697830855846405,0.0007220125989988446,-0.006492571905255318
1779111811393381400,10.37238134765625,-0.0024435706436634064,0.003161560744047165,-0.007559975143522024
1779111811403372500,10.38237255859375,0.00048004742711782455,0.0040609100833535194,-0.00699485233053565
1779111811413362400,10.392362548828125,0.000293550081551075,0.003295375034213066,-0.0066933040507137775
1779111811423353300,10.402353271484374,-0.0005533350631594658,-0.0025726340245455503,-0.004061568528413773
1779111811433343500,10.412343505859376,0.001661159098148346,-0.008201082237064838,-0.002295171841979027
1779111811443334400,10.42233447265625,0.001618015579879284,-0.012744701467454433,-0.0002842188987415284
1779111811453324300,10.43232421875,0.00010562408715486526,-0.014664437621831894,-0.0002852308680303395
1779111811463315500,10.4423154296875,0.001363968476653099,-0.014664703980088234,-0.0008727242238819599
1779111811473305300,10.452305419921874,0.0026916470378637314,-0.014278068207204342,-0.0005795474862679839
1779111811483296500,10.462296630859376,0.0026588905602693558,-0.014136387966573238,-0.003468544688075781
1779111811493287400,10.472287353515625,0.003705056384205818,-0.012668777257204056,-0.0034678110387176275
1779111811503277300,10.48227734375,0.005296827293932438,-0.010545970872044563,-0.007758430205285549
1779111811513268500,10.4922685546875,0.002637225203216076,-0.008815336972475052,-0.008288029581308365
1779111811523258400,10.50225830078125,0.005628488026559353,-0.0052704038098454475,-0.01060471311211586
1779111811533249300,10.512249267578126,0.0031956154853105545,-0.001776379649527371,-0.012699084356427193
1779111811543239400,10.522239501953125,0.0029801661148667336,0.003247673623263836,-0.01503361202776432
1779111811553230600,10.532230712890625,0.002268100157380104,0.005063628777861595,-0.01243230327963829
1779111811563220500,10.542220458984374,-0.0011221040040254593,0.0017972616478800774,-0.007889749482274055
1779111811573211400,10.55221142578125,-0.0026628244668245316,-0.003987304866313934,-0.004241864196956158
1779111811583201500,10.562201416015625,-0.004626106936484575,-0.009777016937732697,0.0005427707219496369
1779111811593192400,10.5721923828125,-0.007475141901522875,-0.01680602878332138,0.0022203486878424883
1779111811603182300,10.582182373046875,-0.008073288016021252,-0.017685670405626297,-0.00010246035526506603
1779111811613173500,10.592173583984374,-0.00920613668859005,-0.009668849408626556,-0.000020426581613719463
1779111811623166700,10.602166748046875,-0.00948337186127901,-0.0033403802663087845,-0.002209545113146305
1779111811633158000,10.612157958984374,-0.009205110371112823,0.00032285996712744236,-0.002180611016228795
1779111811643148800,10.622148681640626,-0.006599740125238895,0.0007758636493235826,-0.0017750115366652608
1779111811653139000,10.632138916015625,-0.003973215352743864,-0.002802545204758644,0.0016967019764706492
1779111811663129900,10.6421298828125,-0.0006684986874461174,0.000245974981226027,0.007002783939242363
1779111811673120000,10.6521201171875,0.0021423520520329475,0.004997240379452705,0.008408650755882263
1779111811683111000,10.66211083984375,0.0037389174103736877,0.01477263867855072,0.005423779133707285
1779111811693101000,10.67210107421875,0.005774970166385174,0.022625280544161797,-0.0007722710142843425
1779111811703092000,10.682092041015625,0.007095632143318653,0.028683172538876534,-0.00620591826736927
1779111811713081900,10.692081787109375,0.007949336431920528,0.024426927790045738,-0.006681980565190315
1779111811723073000,10.702072998046875,0.0036259600892663,0.014995607547461987,-0.0023886982817202806
1779111811733063000,10.71206298828125,0.0027134306728839874,0.002500904258340597,0.003402808913961053
1779111811743053800,10.7220537109375,0.0022210124880075455,-0.00832404661923647,0.011278042569756508
1779111811753044000,10.7320439453125,0.0017277179285883904,-0.012032906524837017,0.012078133411705494
1779111811763035000,10.742034912109375,0.00452164001762867,-0.00654652900993824,0.009344931691884995
1779111811773024800,10.752024658203124,0.006521387957036495,0.006872105877846479,0.0063050189055502415
1779111811783016000,10.762015869140624,0.0059943487867712975,0.021298449486494064,-0.0017355966847389936
1779111811793006800,10.7720068359375,0.005279744043946266,0.028885386884212494,-0.006537198554724455
1779111811802997000,10.7819970703125,0.0005214735865592957,0.024144427850842476,-0.0071425349451601505
1779111811812988000,10.79198779296875,0.000314551405608654,0.0088585140183568,-0.002663769293576479
1779111811822978000,10.80197802734375,-0.0006460510194301605,-0.012677138671278954,0.00611400930210948
1779111811832969000,10.811968994140624,0.00113670714199543,-0.02689022570848465,0.013217286206781864
1779111811842958800,10.821958740234376,0.003259778954088688,-0.027952026575803757,0.016909493133425713
1779111811852949800,10.83194970703125,0.0034966152161359787,-0.014162923209369183,0.013745289295911789
1779111811862940000,10.84193994140625,0.003442552872002125,0.008031594567000866,0.0033038335386663675
1779111811872931000,10.85193115234375,0.005203582346439362,0.02688012644648552,-0.008080106228590012
1779111811882921000,10.8619208984375,0.0056102462112903595,0.033456798642873764,-0.011421308852732182
1779111811892911900,10.871911865234376,0.0045775072649121284,0.02659740298986435,-0.009052992798388004
1779111811902901800,10.88190185546875,0.002391851507127285,0.009377935901284218,-0.0009204974630847573
1779111811912893000,10.891892822265625,-0.00167909637093544,-0.007557309698313475,0.007966110482811928
1779111811922883000,10.901883056640624,0.0012799417600035667,-0.023591935634613037,0.011539273895323277
1779111811932874000,10.9118740234375,0.004312609322369099,-0.03118998371064663,0.011589142493903637
1779111811942865000,10.921864990234376,0.002247593365609646,-0.02746475301682949,0.007738745305687189
1779111811952854800,10.931854736328125,0.004490488208830357,-0.017072800546884537,0.007156397681683302
1779111811962845700,10.941845703125,0.004487558268010616,-0.003050725907087326,0.0024250256828963757
1779111811972836000,10.951836181640624,0.007739829830825329,0.006807200610637665,-0.00038735836278647184
1779111811982827000,10.961826904296874,0.004218067042529583,0.0136094456538558,-0.0015045544132590294
1779111811992817000,10.97181689453125,0.001146615482866764,0.01632549799978733,-0.002362058265134692
1779111812002807800,10.981807861328125,0.0023423749953508377,0.01065829023718834,-0.0036510282661765814
1779111812012798000,10.9917978515625,0.0008309120312333107,0.00048813142348080873,-0.001329567632637918
1779111812022789000,11.0017890625,-0.0013805767521262169,-0.0089088324457407,0.0029314900748431683
1779111812032779000,11.011779052734376,-0.0009293584153056145,-0.01472583319991827,0.005994847044348717
1779111812042770000,11.02177001953125,0.001884537748992443,-0.018452927470207214,0.007610054221004248
1779111812052759800,11.031759765625,0.004740229807794094,-0.016864486038684845,0.008083777502179146
1779111812062750700,11.041750732421875,0.0073312195017933846,-0.005793461110442877,0.006107445806264877
1779111812072741000,11.0517412109375,0.0056120725348591805,0.006871591322124004,-0.00025743141304701567
1779111812082732000,11.06173193359375,0.002981136552989483,0.01728588342666626,-0.00385216623544693
1779111812092722000,11.071721923828125,0.001729670912027359,0.01953369379043579,-0.008750956505537033
1779111812102712800,11.081712890625,0.0003456268459558487,0.01528834830969572,-0.006367693189531565
1779111812112703700,11.091703857421875,0.0006188647821545601,0.003766309702768922,-0.0017309145769104362
1779111812122694000,11.10169384765625,-0.000705258920788765,-0.007876764051616192,0.003708591917529702
1779111812132685000,11.11168505859375,-0.0021050460636615753,-0.014829851686954498,0.004027406219393015
1779111812142675000,11.121675048828125,0.0019315071403980255,-0.013627700507640839,0.005708127282559872
1779111812152665900,11.131665771484375,0.0012134024873375893,-0.004514710046350956,0.003367191879078746
1779111812162655700,11.14165576171875,0.0014845123514533043,0.006011434365063906,-0.00018120399909093976
1779111812172647000,11.15164697265625,0.0025605838745832443,0.014258730225265026,-0.0019592856988310814
1779111812182637000,11.161636962890626,0.00217469222843647,0.01388588733971119,-0.0029893964529037476
1779111812192628000,11.1716279296875,0.001971629448235035,0.007660037837922573,-0.0038579984102398157
1779111812202617900,11.181617919921875,0.0021306201815605164,0.0004756283015012741,-0.0008638064609840512
1779111812212608800,11.19160888671875,0.0009637456387281418,-0.006849976722151041,0.0015996857546269894
1779111812222599000,11.201598876953126,0.0005112746730446815,-0.010789858177304268,0.003633275395259261
1779111812232590000,11.211590087890626,0.0025295596569776535,-0.008673167787492275,0.0019150114385411143
1779111812242580000,11.221580078125,0.001779613085091114,-0.0022661350667476654,0.0012241874355822802
1779111812252571000,11.23157080078125,0.002428739331662655,0.005185637157410383,-0.001268109306693077
1779111812262560800,11.241560791015624,0.0010161986574530602,0.010679738596081734,-0.002413002075627446
1779111812272552000,11.251552001953126,0.00039130356162786484,0.009898819029331207,-0.0011908942833542824
1779111812282542800,11.26154296875,0.0005090152844786644,0.002577789593487978,-0.00044414392323233187
1779111812292533000,11.271532958984375,0.005144559778273106,-0.004827853292226791,0.0017693554982542992
1779111812302524000,11.28152392578125,0.0020102858543395996,-0.005028921645134687,0.00355633650906384
1779111812312513800,11.291513671875,0.0018146466463804245,-0.0014387310948222876,0.0026209221687167883
1779111812322505000,11.3015048828125,0.002281499095261097,0.0024681263603270054,0.0002629593655001372
1779111812332494800,11.311494873046875,0.004036644473671913,0.006809957325458527,-0.0015538315055891871
1779111812342486000,11.321486083984375,0.0021324846893548965,0.006176390685141087,-0.001294439542107284
1779111812352476000,11.331475830078125,0.003007986582815647,0.003393466817215085,-0.0010259757982566953
1779111812362466800,11.341466796875,0.00042578577995300293,0.00080247747246176,-0.000022230364265851676
1779111812372457000,11.35145703125,0.0037276558578014374,-0.002476125955581665,0.001005191239528358
1779111812382447900,11.36144775390625,0.0032046111300587654,-0.002528057899326086,0.003624942619353533
1779111812392438000,11.37143798828125,0.0016270102933049202,-0.001342649688012898,0.004593491554260254
1779111812402429000,11.381428955078125,0.0015212828293442726,-0.0009807260939851403,0.0055024283938109875
1779111812412418800,11.391418701171874,0.0012899814173579216,-0.0015696000773459673,0.002824688795953989
1779111812422410000,11.401409912109376,0.0018990468233823776,-0.003644735086709261,0.002524550538510084
1779111812432400000,11.41139990234375,0.002078135497868061,-0.003028527833521366,-0.0014879655791446567
1779111812442391000,11.42139111328125,0.0030206283554434776,-0.0011643151519820094,-0.00053402129560709
1779111812452382000,11.4313818359375,0.001292916014790535,0.003394661471247673,-0.0017844962421804667
1779111812462371800,11.441371826171874,0.000529121607542038,0.004483628086745739,-0.0007967298151925206
1779111812472363000,11.451363037109376,0.001334063708782196,0.0047308579087257385,0.0006596074672415853
1779111812482353000,11.461352783203125,0.00036573782563209534,0.0019531811121851206,0.0018505729967728257
1779111812492343800,11.47134375,0.0004437081515789032,-0.0014526419108733535,0.0020697424188256264
1779111812502334000,11.481333984375,0.0008794013410806656,-0.004394103307276964,0.003525159787386656
1779111812512324900,11.491324951171874,0.0014118878170847893,-0.004935711156576872,0.003202402265742421
1779111812522315000,11.50131494140625,-0.000802263617515564,-0.007100594695657492,0.0005086149321869016
1779111812532306000,11.511305908203125,0.0010468913242220879,-0.005413135979324579,0.0007432567654177547
1779111812542295800,11.5212958984375,-0.0006447490304708481,-0.0006178483599796891,-0.0005981775466352701
1779111812552287000,11.531286865234375,0.000989651307463646,0.0024117324501276016,-0.0023780541960150003
1779111812562276900,11.54127685546875,-0.00027668196707963943,0.0036285310052335262,-0.001909604063257575
1779111812572268000,11.55126806640625,-0.00009214133024215698,0.005889990832656622,-0.0012926788767799735
1779111812582258000,11.5612578125,-0.0004255687817931175,0.005070535931736231,0.0002391713351244107
1779111812592248800,11.571248779296875,0.0006437115371227264,0.001759130391292274,0.0005679859314113855
1779111812602239000,11.581239013671874,0.0009454479441046715,-0.0006387798930518329,0.0020846561528742313
1779111812612230000,11.59122998046875,0.000502418726682663,-0.0031356806866824627,0.001170410425402224
1779111812622216000,11.6012158203125,0.001224401406943798,-0.004633176140487194,0.0006537572480738163
1779111812632207000,11.61120703125,0.0032249074429273605,-0.0012655153404921293,-0.0009042007150128484
1779111812642198000,11.621197998046876,0.004414008930325508,-0.0003770847397390753,-0.0011755768209695816
1779111812652188200,11.631188232421875,0.0031830351799726486,0.00012315053027123213,0.0010327075142413378
1779111812662179000,11.641178955078125,0.0026298966258764267,0.000943670398555696,0.0022367225028574467
1779111812672169000,11.6511689453125,0.0005557425320148468,0.0027993470430374146,0.0006090247770771384
1779111812682160000,11.66116015625,-0.0011145919561386108,0.002631301525980234,-0.0011257582809776068
1779111812692150000,11.67114990234375,-0.0009631393477320671,0.0008705436484888196,-0.0009874631650745869
1779111812702141000,11.681140869140625,-0.0007016165181994438,-0.002775856526568532,0.00018113196711055934
1779111812712131000,11.691131103515625,-0.003984639886766672,-0.008341250941157341,0.000835487968288362
1779111812722122000,11.7011220703125,-0.0015638265758752823,-0.007821667939424515,0.0026240667793899775
1779111812732112000,11.71111181640625,-0.0010746652260422707,-0.004745217971503735,0.003582846838980913
1779111812742103000,11.72110302734375,-0.0012230034917593002,0.0007563399849459529,0.0016677678795531392
1779111812752093200,11.73109326171875,-0.00037928298115730286,0.007145723327994347,0.0003023567551281303
1779111812762084000,11.741083984375,-0.00048687495291233063,0.010415020398795605,-0.0024383021518588066
1779111812772074000,11.751073974609374,0.0009478023275732994,0.00852735061198473,-0.004359489306807518
1779111812782065200,11.761065185546874,0.0006601810455322266,0.002794097177684307,-0.0025762366130948067
