time,seconds_elapsed,z,y,x
1779989358649586200,0.126586181640625,-1.5822696685791016,0.09433603286743164,-0.1168561577796936
1779989358665913900,0.142913818359375,-1.663212776184082,-1.30891752243042,-0.18168586492538452
1779989358682261500,0.159261474609375,0.9047527313232422,-2.7086737155914307,1.161172866821289
1779989358698588700,0.175588623046875,2.963226318359375,-2.69122576713562,1.4868948459625244
1779989358714922500,0.191922607421875,1.9965276718139648,-2.219221591949463,0.7956880927085876
1779989358731250400,0.20825048828125,-0.5035333633422852,-2.3064990043640137,0.6671083569526672
1779989358747593700,0.22459375,-3.897925853729248,-2.466853618621826,-2.03953218460083
1779989358763918600,0.240918701171875,-6.419582366943359,-2.9166057109832764,-3.072817802429199
1779989358780256500,0.257256591796875,-7.914536476135254,-2.575181245803833,-3.5406672954559326
1779989358796585200,0.273585205078125,-8.56180191040039,-3.4049649238586426,-3.5372655391693115
1779989358812909000,0.289908935546875,-10.601285934448242,-4.749342918395996,-2.589735507965088
1779989358829259500,0.306259521484375,-10.657845497131348,-5.944374084472656,-2.290686845779419
1779989358845567000,0.32256689453125,-9.46155834197998,-8.374480247497559,-1.302390456199646
1779989358861917000,0.3389169921875,-10.349433898925781,-9.683246612548828,-1.9880380630493164
1779989358878251300,0.355251220703125,-12.124825477600098,-11.017269134521484,-2.3805694580078125
1779989358894584000,0.371583984375,-11.074996948242188,-13.036953926086426,-2.1284844875335693
1779989358910916900,0.387916748046875,-7.812526702880859,-14.745253562927246,-0.5154252052307129
1779989358927249400,0.40424951171875,-6.034721374511719,-13.450685501098633,1.2748374938964844
1779989358943583200,0.420583251953125,-2.4330906867980957,-12.231761932373047,5.355077743530273
1779989358959915000,0.4369150390625,3.7464075088500977,-11.110498428344727,10.54286003112793
1779989358976246500,0.45324658203125,9.801046371459961,-7.890692710876465,16.279197692871094
1779989358992579300,0.469579345703125,9.249720573425293,-1.2347675561904907,20.616029739379883
1779989359008914400,0.48591455078125,7.210221767425537,4.216031551361084,21.92529296875
1779989359025246500,0.50224658203125,4.351683616638184,4.541396141052246,20.92223358154297
1779989359041576700,0.51857666015625,-3.0364649295806885,1.9262062311172485,18.603103637695312
1779989359057915000,0.534914794921875,-2.822706460952759,2.767880916595459,18.163768768310547
1779989359074242000,0.551241943359375,-3.9413418769836426,6.679922103881836,16.918479919433594
1779989359090568200,0.567568115234375,-7.841680526733398,15.064886093139648,18.577913284301758
1779989359106911000,0.583910888671875,-5.860751152038574,5.628190040588379,11.66016674041748
1779989359123227000,0.600226806640625,-4.763103008270264,1.9200010299682617,6.897787094116211
1779989359139576800,0.616576904296875,-3.704948663711548,0.5871155261993408,3.9675111770629883
1779989359155909400,0.632909423828125,-2.3873562812805176,-1.3381319046020508,3.3635921478271484
1779989359172243200,0.6492431640625,-0.4068124294281006,-2.4241838455200195,2.2606382369995117
1779989359188574200,0.66557421875,-0.09206652641296387,-2.0878119468688965,0.4019031524658203
1779989359204908300,0.681908203125,-0.31864655017852783,-2.752775192260742,-0.4172506332397461
1779989359221241600,0.69824169921875,0.546654462814331,-2.3498640060424805,-1.0460610389709473
1779989359237571300,0.7145712890625,-1.1102478504180908,-2.5882458686828613,0.5434627532958984
1779989359253908200,0.730908203125,3.498776912689209,-2.307211399078369,0.4844636917114258
1779989359270239500,0.747239501953125,-3.6467647552490234,-2.787346601486206,-0.9485034942626953
1779989359286571300,0.7635712890625,2.9622442722320557,-4.272554397583008,1.8548078536987305
1779989359302905000,0.779905029296875,-0.3577382564544678,1.6292979717254639,1.8014907836914062
1779989359319238400,0.79623828125,-5.843282699584961,-0.48368215560913086,-4.670783042907715
1779989359335570400,0.8125703125,8.809555053710938,-3.8425188064575195,0.6146745681762695
1779989359351903000,0.828903076171875,-11.44539737701416,4.462763786315918,-6.269938945770264
1779989359368237300,0.8452373046875,6.981966495513916,-1.9059209823608398,-3.7639243602752686
1779989359384568000,0.861568115234375,-3.940493583679199,3.5677101612091064,-5.509368896484375
1779989359400902100,0.877902099609375,-7.4046311378479,-0.9682283401489258,-8.023934364318848
1779989359417233700,0.894233642578125,1.8495502471923828,0.057810306549072266,-3.714090585708618
1779989359433563000,0.91056298828125,-2.4909117221832275,3.571974754333496,-4.108595848083496
1779989359449900500,0.926900634765625,-1.4962501525878906,4.038856506347656,0.45173120498657227
1779989359466232300,0.943232421875,-4.372203826904297,1.470517635345459,-4.439395904541016
1779989359482566000,0.95956591796875,-4.291731834411621,3.0199782848358154,-7.040327072143555
1779989359498899500,0.9758994140625,3.4371190071105957,1.7920246124267578,-2.3028981685638428
1779989359515231000,0.99223095703125,1.6583666801452637,0.7255897521972656,4.200532913208008
1779989359531565000,1.00856494140625,0.1211240291595459,-0.7010579109191895,2.9694571495056152
1779989359547898000,1.024898193359375,-2.759406805038452,1.222313404083252,1.7138376235961914
1779989359564230700,1.041230712890625,-4.265805244445801,5.5695600509643555,9.684496879577637
1779989359580562200,1.057562255859375,-3.7930126190185547,-2.090048313140869,9.297354698181152
1779989359596895200,1.073895263671875,-6.697774410247803,-0.5281634330749512,4.997069835662842
1779989359613229000,1.09022900390625,-2.788565158843994,1.9589076042175293,1.6477560997009277
1779989359629549000,1.106549072265625,-0.39530500769615173,4.162069797515869,3.964961528778076
1779989359645892000,1.12289208984375,-0.9077322483062744,1.047633171081543,3.7601757049560547
1779989359662227000,1.13922705078125,2.1419079303741455,6.218164443969727,6.073103427886963
1779989359678564900,1.15556494140625,2.952691078186035,5.836570739746094,4.136446475982666
1779989359694889500,1.171889404296875,-0.6726179122924805,-0.0880575180053711,2.1212658882141113
1779989359711227100,1.18822705078125,2.165802001953125,5.727349281311035,1.4020230770111084
1779989359727562800,1.204562744140625,-0.12576407194137573,4.366386413574219,-0.2991466522216797
1779989359743880000,1.2208798828125,2.0099406242370605,3.7108864784240723,-3.4643614292144775
1779989359760223200,1.23722314453125,-3.905722141265869,6.032667636871338,-5.678879737854004
1779989359776556000,1.25355615234375,-5.863888263702393,5.273501873016357,-7.86585807800293
1779989359792890400,1.269890380859375,-4.258879661560059,4.817795753479004,-9.400190353393555
1779989359809223000,1.286222900390625,-0.7792971730232239,6.315359592437744,-8.451350212097168
1779989359825553700,1.3025537109375,2.8550174236297607,5.861300945281982,-3.7857892513275146
1779989359841892600,1.318892578125,12.302607536315918,-6.519283294677734,2.8903989791870117
1779989359858220800,1.335220703125,1.4731532335281372,5.235940456390381,-4.451495170593262
1779989359874555100,1.35155517578125,2.9796690940856934,4.478703022003174,-2.05437970161438
1779989359890886100,1.36788623046875,6.440306663513184,4.465534687042236,0.8686604499816895
1779989359907219500,1.384219482421875,-0.9432752132415771,5.470624923706055,0.5776108503341675
1779989359923553500,1.400553466796875,-7.836432456970215,-32.861392974853516,10.1953706741333
1779989359939873000,1.416873046875,-0.16676771640777588,-26.977962493896484,7.676229953765869
1779989359956217900,1.4332177734375,-1.3671092987060547,-6.073800086975098,1.0407434701919556
1779989359972550700,1.449550537109375,-1.0202473402023315,4.017310619354248,-1.3474105596542358
1779989359988873200,1.465873291015625,-0.6998316049575806,7.335528373718262,-1.152712345123291
1779989360005214500,1.48221435546875,0.7602337598800659,4.8571062088012695,-0.9162578582763672
1779989360021552000,1.49855224609375,11.209333419799805,-2.4393863677978516,-1.2474253177642822
1779989360037883600,1.514883544921875,10.540999412536621,-4.188495635986328,0.22161155939102173
1779989360054218500,1.531218505859375,-1.8875830173492432,-1.939518928527832,-1.503361701965332
1779989360070549200,1.54754931640625,-13.710979461669922,-0.6765937805175781,-2.2246832847595215
1779989360086880800,1.563880859375,-7.518135070800781,-0.0014066696166992188,-1.4502673149108887
1779989360103214800,1.58021484375,2.3161048889160156,-0.14891719818115234,-0.523273229598999
1779989360119548000,1.5965478515625,0.7181737422943115,-1.2991514205932617,1.2616345882415771
1779989360135880200,1.612880126953125,-1.7143763303756714,-0.05424976348876953,1.046928882598877
1779989360152212500,1.62921240234375,-1.838054895401001,-0.3670816421508789,0.9261837005615234
1779989360168545800,1.6455458984375,-1.2603445053100586,-0.2667560577392578,0.7869212627410889
1779989360184879000,1.661879150390625,-0.30821073055267334,0.24110698699951172,0.7516375780105591
1779989360201212000,1.6782119140625,-1.0542793273925781,0.4197273254394531,1.0186283588409424
1779989360217545000,1.694544921875,-1.8135122060775757,0.31664466857910156,0.8448381423950195
1779989360233877500,1.71087744140625,-2.1375832557678223,0.4019641876220703,0.6318577527999878
1779989360250210300,1.727210205078125,-2.4122772216796875,0.6532659530639648,0.4516373872756958
1779989360266541800,1.743541748046875,-2.334362030029297,0.8325414657592773,0.28924810886383057
1779989360282871800,1.759871826171875,-2.2007336616516113,1.1024770736694336,0.1359466314315796
1779989360299212000,1.7762119140625,-1.5296353101730347,1.243931770324707,0.10340428352355957
1779989360315541800,1.792541748046875,-0.2543209195137024,1.148040771484375,0.28510451316833496
1779989360331875000,1.808875,-0.3255292773246765,1.2251653671264648,0.4300287961959839
1779989360348207000,1.82520703125,-1.439035415649414,0.5389890670776367,0.7502644062042236
1779989360364553000,1.841552978515625,-1.548232078552246,0.21213817596435547,1.3389108180999756
1779989360380873500,1.85787353515625,-1.286510944366455,0.04840564727783203,2.0965514183044434
1779989360397193200,1.874193115234375,-1.1505388021469116,-0.2797975540161133,1.9501690864562988
1779989360413539000,1.8905390625,-1.275940179824829,-1.2567052841186523,2.326624870300293
1779989360429870800,1.906870849609375,-1.0498038530349731,-2.8005380630493164,3.069309711456299
1779989360446205200,1.923205078125,-0.8077835440635681,-4.135531425476074,3.200948715209961
1779989360462533000,1.939533203125,-2.238572120666504,-6.591753005981445,2.1366991996765137
1779989360478873600,1.95587353515625,-3.285356044769287,-9.729105949401855,1.4606342315673828
1779989360495203000,1.972203125,-4.148001670837402,-10.969236373901367,1.6538910865783691
1779989360511536000,1.9885361328125,-3.8046064376831055,-7.768135070800781,1.3554502725601196
1779989360527869000,2.004868896484375,-3.7359700202941895,-6.001229286193848,0.9977774620056152
1779989360544199200,2.02119921875,-3.057889461517334,-4.431553840637207,0.9580927491188049
1779989360560535000,2.03753515625,-2.503664255142212,-2.7901086807250977,0.9955545663833618
1779989360576866000,2.053865966796875,-3.1682324409484863,-2.1244354248046875,0.5882031917572021
1779989360593194200,2.0701943359375,-3.5439233779907227,-3.168858528137207,0.2824542820453644
1779989360609530000,2.086530029296875,-2.4637646675109863,-4.834874153137207,0.007327258586883545
1779989360625863200,2.10286328125,-0.45025312900543213,-5.574558258056641,-0.22955310344696045
1779989360642201600,2.11920166015625,1.970473289489746,-5.003876686096191,-0.8043307065963745
1779989360658531600,2.135531494140625,3.610617160797119,-2.6419677734375,-0.8177751302719116
1779989360674860800,2.15186083984375,3.6609385013580322,-1.340951919555664,-0.6896785497665405
1779989360691197000,2.168197021484375,3.2717154026031494,-0.6205940246582031,-0.20785582065582275
1779989360707523600,2.184523681640625,2.5161211490631104,0.35831546783447266,0.5813758373260498
1779989360723862000,2.200862060546875,0.860335111618042,0.20134544372558594,0.8881981372833252
1779989360740196400,2.2171962890625,-0.6310839653015137,-1.729506492614746,1.2702025175094604
1779989360756508700,2.2335087890625,0.7460322380065918,-3.092304229736328,1.9162611961364746
1779989360772861700,2.24986181640625,1.8892898559570312,-1.1164960861206055,1.6054202318191528
1779989360789194800,2.26619482421875,5.226922035217285,0.661858081817627,2.656977415084839
1779989360805524700,2.282524658203125,6.709590911865234,2.7910852432250977,2.793386459350586
1779989360821863400,2.298863525390625,6.401150226593018,5.446325778961182,1.510956883430481
1779989360838193400,2.315193359375,5.909017562866211,5.912761688232422,0.6185200810432434
1779989360854524400,2.3315244140625,6.128823280334473,6.157383918762207,0.03654742240905762
1779989360870857700,2.347857666015625,6.221288681030273,6.280622482299805,-0.32147181034088135
1779989360887192000,2.364192138671875,6.248859405517578,7.160528182983398,-0.34559154510498047
1779989360903519700,2.380519775390625,6.459958076477051,7.180588722229004,-0.41558122634887695
1779989360919860700,2.39686083984375,5.8853254318237305,6.393385410308838,-0.33558106422424316
1779989360936191200,2.413191162109375,3.4922125339508057,5.734811782836914,-0.2030785083770752
1779989360952523000,2.42952294921875,0.20496749877929688,5.15825080871582,0.15970027446746826
1779989360968853200,2.445853271484375,-2.2340526580810547,4.654821395874023,1.222880482673645
1779989360985178400,2.462178466796875,-2.5356550216674805,4.108100891113281,2.843118190765381
1779989361001524000,2.47852392578125,-0.9784584045410156,2.817847728729248,4.018983840942383
1779989361017854500,2.4948544921875,2.582350969314575,0.24537420272827148,2.1543447971343994
1779989361034187800,2.511187744140625,-7.440338134765625,-7.5050249099731445,-1.2116745710372925
1779989361050510600,2.527510498046875,-6.777595520019531,-15.563284873962402,-2.1728172302246094
1779989361066851800,2.543851806640625,0.5456299781799316,-11.479537963867188,0.9878526926040649
1779989361083186000,2.56018603515625,-1.315290927886963,-0.5788683891296387,-0.2948702573776245
1779989361099519700,2.576519775390625,3.018373727798462,3.896249771118164,-0.9892101287841797
1779989361115850500,2.5928505859375,4.910183906555176,4.670665740966797,-1.4517936706542969
1779989361132187000,2.609186767578125,5.248490810394287,3.787379264831543,-1.497664451599121
1779989361148515800,2.625515869140625,5.396883964538574,2.1114373207092285,-2.018470525741577
1779989361164850200,2.64185009765625,3.7081382274627686,-0.7470417022705078,-2.73862886428833
1779989361181183500,2.65818359375,1.4190893173217773,-4.97819709777832,-2.443544626235962
1779989361197513200,2.67451318359375,1.2143402099609375,-7.403011322021484,0.062273263931274414
1779989361213849000,2.69084912109375,1.0786757469177246,-8.863402366638184,2.117126941680908
1779989361230183400,2.707183349609375,0.16331148147583008,-6.710540771484375,2.339874267578125
1779989361246509000,2.723509033203125,0.94603431224823,-2.2455530166625977,2.225551128387451
1779989361262851800,2.739851806640625,1.8929083347320557,-0.02476215362548828,1.4111908674240112
1779989361279175400,2.756175537109375,1.7893117666244507,0.6337680816650391,0.34631145000457764
1779989361295506400,2.77250634765625,0.19687044620513916,0.9798555374145508,-0.43910717964172363
1779989361311845600,2.788845703125,0.19304466247558594,1.6488351821899414,-0.6513333320617676
1779989361328189200,2.805189208984375,0.3336278796195984,2.5510997772216797,0.26716601848602295
1779989361344510500,2.821510498046875,-0.006455719470977783,3.166900634765625,0.6318199634552002
1779989361360831500,2.83783154296875,-0.905510663986206,3.636085033416748,0.24852728843688965
1779989361377176600,2.854176513671875,-1.2038042545318604,3.6291966438293457,-0.5962899923324585
1779989361393510700,2.8705107421875,-0.7870992422103882,3.1469039916992188,-0.745233416557312
1779989361409830700,2.88683056640625,-0.7489028573036194,2.810988426208496,-0.8711336851119995
1779989361426177800,2.903177734375,-1.2288473844528198,2.4768500328063965,-0.7024176120758057
1779989361442509000,2.919509033203125,-1.2894498109817505,1.80377197265625,-0.7909276485443115
1779989361458842000,2.935842041015625,-1.7673258781433105,1.621922492980957,-0.7519369125366211
1779989361475175000,2.9521748046875,-1.3289713859558105,1.1575031280517578,0.11313474178314209
1779989361491506400,2.96850634765625,-0.31157851219177246,-0.05710315704345703,1.4696719646453857
1779989361507849700,2.984849609375,-1.0606476068496704,-1.0695371627807617,2.929823398590088
1779989361524173300,3.00117333984375,-1.77326500415802,-1.2789192199707031,4.495889663696289
1779989361540506400,3.01750634765625,-0.5426712036132812,-0.7538642883300781,5.883891582489014
1779989361556835600,3.033835693359375,2.2961416244506836,-0.6078853607177734,4.769944667816162
1779989361573174000,3.050174072265625,2.3826417922973633,-2.801189422607422,0.6525112390518188
1779989361589504500,3.06650439453125,-0.21922791004180908,-7.090488433837891,-1.9435555934906006
1779989361605838800,3.0828388671875,-0.8072081804275513,-9.963129043579102,-2.9557383060455322
1779989361622167800,3.099167724609375,-2.1046319007873535,-10.361053466796875,-2.9437737464904785
1779989361638490600,3.11549072265625,-3.412078380584717,-9.664999008178711,-2.811628818511963
1779989361654836500,3.13183642578125,-3.3565213680267334,-7.160804748535156,-3.1034021377563477
1779989361671154000,3.14815380859375,-3.9886832237243652,-4.309118270874023,-3.374908447265625
1779989361687504000,3.16450390625,-5.103278160095215,-2.1749534606933594,-2.5862011909484863
1779989361703835100,3.180835205078125,-5.6223673820495605,-2.035175323486328,-1.8008084297180176
1779989361720164900,3.197164794921875,-5.383525371551514,-3.421293258666992,-1.338215947151184
1779989361736503300,3.21350341796875,-3.824275493621826,-4.623016357421875,-1.1495270729064941
1779989361752831500,3.22983154296875,-1.413432002067566,-4.492961883544922,-0.25603747367858887
1779989361769153500,3.246153564453125,4.032222747802734,-4.180681228637695,0.11031723022460938
1779989361785495000,3.2624951171875,4.87239933013916,-4.578509330749512,1.5720727443695068
1779989361801835500,3.27883544921875,4.442356586456299,-2.987354278564453,1.299070119857788
1779989361818165200,3.295165283203125,5.268749237060547,-0.17527389526367188,0.17103838920593262
1779989361834498000,3.311498046875,4.562115669250488,1.9773578643798828,-0.5155680179595947
1779989361850814700,3.327814697265625,2.4680843353271484,2.9572277069091797,-0.02020406723022461
1779989361867166500,3.34416650390625,1.165590763092041,-0.11016082763671875,0.501233696937561
1779989361883494000,3.360493896484375,0.7729430198669434,-0.4960823059082031,1.1265031099319458
1779989361899833300,3.376833251953125,2.009352207183838,0.3408083915710449,2.749500036239624
1779989361916168700,3.393168701171875,3.4096896648406982,1.5679316520690918,3.4299020767211914
1779989361932494800,3.409494873046875,4.844330787658691,3.4184038639068604,3.1244864463806152
1779989361948827100,3.4258271484375,5.095114231109619,4.8910722732543945,2.1818623542785645
1779989361965156400,3.44215625,4.9581298828125,5.389956474304199,1.0313327312469482
1779989361981499000,3.458498779296875,5.1395440101623535,6.035521507263184,0.9292972087860107
1779989361997826600,3.47482666015625,5.162867069244385,6.2223429679870605,0.940644383430481
1779989362014159600,3.49115966796875,5.055983543395996,5.301003456115723,1.0628427267074585
1779989362030493200,3.5074931640625,4.70620059967041,5.2428879737854,1.0460121631622314
1779989362046824400,3.523824462890625,4.025382041931152,4.816734313964844,0.7701799869537354
1779989362063157800,3.54015771484375,2.521892547607422,4.568405628204346,-0.022299528121948242
1779989362079491800,3.556491943359375,0.9402732849121094,3.806232213973999,0.10723590850830078
1779989362095824000,3.572823974609375,-0.28527307510375977,3.703275680541992,0.8244947195053101
1779989362112157000,3.589156982421875,-1.4859886169433594,4.086751937866211,1.874967098236084
1779989362128490200,3.605490234375,-3.6085495948791504,4.065591812133789,3.153399705886841
1779989362144822800,3.62182275390625,-0.4488081932067871,5.114663600921631,4.519435882568359
1779989362161155300,3.6381552734375,2.0169873237609863,2.6521787643432617,3.316521167755127
1779989362177488400,3.65448828125,-5.2227959632873535,-5.170746803283691,-0.1862800121307373
1779989362193820200,3.670820068359375,-11.363710403442383,-18.746681213378906,-9.32327651977539
1779989362210154500,3.687154541015625,-4.2821364402771,-18.77861785888672,-2.972027540206909
1779989362226485800,3.70348583984375,-1.6091599464416504,-1.1127042770385742,-0.1920865774154663
1779989362242819300,3.7198193359375,3.573538303375244,5.350144863128662,0.09842681884765625
1779989362259146000,3.73614599609375,2.929417133331299,5.919496059417725,-0.6682753562927246
1779989362275483100,3.752483154296875,3.9245145320892334,3.166008472442627,-1.6513713598251343
1779989362291822300,3.768822265625,5.370635986328125,0.16549301147460938,-2.2709240913391113
1779989362308151600,3.785151611328125,3.9259817600250244,-3.5143327713012695,-2.726363182067871
1779989362324482800,3.80148291015625,1.5283470153808594,-6.652812957763672,-1.5345869064331055
1779989362340817700,3.817817626953125,0.8176741600036621,-6.652987480163574,1.3950117826461792
1779989362357150200,3.834150146484375,0.6648561954498291,-4.428646087646484,2.789750099182129
1779989362373483000,3.85048291015625,0.4640854597091675,-2.7728166580200195,2.8516347408294678
1779989362389814500,3.866814453125,0.32819366455078125,-1.3259210586547852,1.263862133026123
1779989362406151200,3.883151123046875,1.6397597789764404,-0.13538074493408203,-0.015180826187133789
1779989362422469000,3.89946923828125,1.1946475505828857,0.5380582809448242,0.5622199773788452
1779989362438815200,3.915815185546875,0.36565732955932617,1.5833377838134766,-0.4885817766189575
1779989362455147500,3.9321474609375,-1.3073782920837402,3.639163017272949,-1.5425841808319092
1779989362471481000,3.948481201171875,-1.5366244316101074,4.413084983825684,-0.6414661407470703
1779989362487813000,3.964813232421875,-0.2871817350387573,5.045837879180908,0.4101681113243103
1779989362504146400,3.981146484375,-0.5364714860916138,5.31669282913208,1.0740916728973389
1779989362520479000,3.99747900390625,-1.135301113128662,5.084873676300049,1.2289481163024902
1779989362536807700,4.0138076171875,-1.0465198755264282,4.169078826904297,0.8581068515777588
1779989362553143600,4.0301435546875,-1.6099869012832642,2.9590415954589844,0.15812814235687256
1779989362569493500,4.046493408203125,-1.386465311050415,2.4766316413879395,-0.2586127519607544
1779989362585797600,4.062797607421875,-0.7825947999954224,1.3533782958984375,0.13540375232696533
1779989362602143200,4.079143310546875,0.2796367406845093,0.5895624160766602,-0.41552746295928955
1779989362618478000,4.09547802734375,-0.022153407335281372,-0.4175853729248047,-1.3020991086959839
1779989362634808600,4.11180859375,-1.556249976158142,-1.8810205459594727,-0.17787885665893555
1779989362651142400,4.128142333984375,-2.18873929977417,-2.412904739379883,2.272908926010132
1779989362667474200,4.14447412109375,-1.519864797592163,-2.4202890396118164,3.5626823902130127
1779989362683808300,4.160808349609375,-1.835776925086975,-4.235506057739258,1.9725463390350342
1779989362700138500,4.177138427734375,-3.4500892162323,-7.131957054138184,-0.12736356258392334
1779989362716475100,4.19347509765625,-3.725123643875122,-9.245682716369629,-1.4591145515441895
1779989362732806700,4.209806640625,-3.4535133838653564,-11.443575859069824,-0.6688064336776733
1779989362749140000,4.226139892578125,-1.0383448600769043,-11.065752029418945,0.785959780216217
1779989362765469200,4.24246923828125,0.7881066799163818,-6.917261123657227,0.1944839358329773
1779989362781807900,4.258807861328125,-0.15513211488723755,-2.8440256118774414,-2.48652982711792
1779989362798140400,4.275140380859375,-2.9244492053985596,-1.2673873901367188,-2.941406726837158
1779989362814471400,4.291471435546875,-4.676311492919922,-0.6880273818969727,-2.5365538597106934
1779989362830802400,4.307802490234375,-5.932457447052002,-2.525083541870117,-1.8910291194915771
1779989362847136300,4.32413623046875,-5.792167663574219,-4.320404052734375,-0.1943908929824829
1779989362863470000,4.340469970703125,-3.1150546073913574,-5.216192245483398,1.0565474033355713
1779989362879802600,4.356802734375,1.6973048448562622,-5.830840110778809,2.2389094829559326
1779989362896137700,4.3731376953125,4.133824348449707,-5.160496711730957,1.3286819458007812
1779989362912468700,4.38946875,4.5495805740356445,-3.8514699935913086,0.38443005084991455
1779989362928802000,4.405802001953125,6.749941825866699,-1.3040685653686523,0.39229607582092285
1779989362945139200,4.42213916015625,6.513771057128906,1.2844767570495605,0.7306435108184814
1779989362961465900,4.4384658203125,3.4774012565612793,1.9168758392333984,-0.04187917709350586
1779989362977800400,4.454800537109375,0.8483335971832275,0.11559772491455078,-0.29550909996032715
1779989362994132000,4.471132080078125,0.7138466835021973,-0.04451274871826172,0.6288460493087769
1779989363010466000,4.487466064453125,2.382974147796631,0.9962611198425293,1.998046636581421
1779989363026797000,4.503797119140625,4.765592098236084,2.2415218353271484,2.9049460887908936
1779989363043140600,4.520140625,4.868965148925781,4.368675231933594,2.8755650520324707
1779989363059470600,4.536470703125,6.022446155548096,6.059952735900879,1.9010438919067383
1779989363075796500,4.55279638671875,5.922490119934082,6.722800254821777,1.1559334993362427
1779989363094171600,4.571171630859375,6.4925456047058105,6.845953464508057,0.7334433794021606
1779989363110491000,4.587490966796875,6.516748428344727,6.238273620605469,0.6296247243881226
1779989363126838000,4.603838134765625,6.107527732849121,5.039740562438965,0.34902501106262207
1779989363143170600,4.620170654296875,4.570245265960693,3.8396050930023193,0.32906627655029297
1779989363159506400,4.63650634765625,3.335890293121338,3.8739700317382812,0.3775296211242676
1779989363175837700,4.652837646484375,2.2506260871887207,3.8558249473571777,-0.032499074935913086
1779989363192170500,4.66917041015625,0.6837387084960938,3.459130048751831,0.09982776641845703
1779989363208503300,4.68550341796875,-0.2872042655944824,3.125723361968994,1.0722225904464722
1779989363224834800,4.701834716796875,-2.4695348739624023,3.127269744873047,2.1777279376983643
1779989363241169400,4.71816943359375,-4.625156879425049,2.918579578399658,3.3994197845458984
1779989363257502000,4.734501953125,-5.116250514984131,2.011864185333252,4.218427658081055
1779989363273834800,4.750834716796875,-2.8727822303771973,-3.179379940032959,3.19197416305542
1779989363290168600,4.76716845703125,-8.924376487731934,-11.679738998413086,-2.3194212913513184
1779989363306500400,4.783500244140625,-6.042459964752197,-15.751298904418945,-6.375475883483887
1779989363322833400,4.79983349609375,-3.890085220336914,-5.661062240600586,-1.7697526216506958
1779989363339165200,4.816165283203125,4.470519542694092,2.541703224182129,0.2475574016571045
1779989363355501300,4.832501220703125,4.968218803405762,4.934108734130859,0.27941596508026123
1779989363371832600,4.84883251953125,3.664367914199829,3.8712334632873535,-0.9554740190505981
1779989363388165600,4.86516552734375,3.919511318206787,2.4724721908569336,-1.081665277481079
1779989363404496600,4.88149658203125,3.2882778644561768,0.1360616683959961,-0.9218175411224365
1779989363420831000,4.8978310546875,2.3525452613830566,-4.08371639251709,-0.5668160915374756
1779989363437164000,4.9141640625,1.1928625106811523,-7.463558197021484,0.11271882057189941
1779989363453485000,4.930485107421875,1.1021122932434082,-7.64527702331543,1.939344048500061
1779989363469828600,4.94682861328125,0.6410789489746094,-5.110233306884766,2.330503225326538
1779989363486162700,4.96316259765625,0.6956064701080322,-2.4165172576904297,2.516061305999756
1779989363502494200,4.979494140625,0.8239407539367676,-0.33989906311035156,2.249455451965332
1779989363518815700,4.995815673828125,1.6174331903457642,0.04709625244140625,0.6597295999526978
1779989363535160000,5.01216015625,1.2056325674057007,-0.09918880462646484,0.3288085460662842
1779989363551494400,5.028494384765625,0.46465039253234863,0.09969520568847656,0.13206040859222412
1779989363567827500,5.044827392578125,-0.6620067358016968,1.6308550834655762,0.0650339126586914
1779989363584175400,5.06117529296875,-1.1385762691497803,2.510220527648926,-0.2529420852661133
1779989363600491500,5.077491455078125,-0.8136502504348755,3.3998594284057617,-0.1757146120071411
1779989363616805400,5.093805419921875,-1.1630477905273438,4.044831275939941,-0.37863337993621826
1779989363633159200,5.1101591796875,-1.2196252346038818,4.431406021118164,-0.3719295263290405
1779989363649490200,5.126490234375,-1.2616173028945923,4.389121055603027,-0.6289854049682617
1779989363665824800,5.14282470703125,-1.3279228210449219,4.522085189819336,-0.7158854007720947
1779989363682157600,5.159157470703125,-1.8452426195144653,4.8022050857543945,-0.6718736886978149
1779989363698477300,5.175477294921875,-2.4981863498687744,5.013099670410156,-0.14771747589111328
1779989363714822100,5.191822265625,-1.4613194465637207,5.0171709060668945,0.8735124468803406
1779989363731155200,5.2081552734375,-0.19105517864227295,4.278957366943359,1.274751901626587
1779989363747484200,5.224484130859375,-0.07486827671527863,2.100722312927246,0.5669779777526855
1779989363763820300,5.2408203125,-1.0280157327651978,-0.9410533905029297,0.2446359395980835
1779989363780159500,5.257159423828125,-0.12211917340755463,-2.0996360778808594,2.009958505630493
1779989363796488200,5.27348828125,0.09982532262802124,-1.5099925994873047,3.25943660736084
1779989363812820500,5.289820556640625,-1.5835230350494385,-1.4511823654174805,2.1209099292755127
1779989363829154300,5.306154296875,-4.489993572235107,-3.6034955978393555,1.8332393169403076
1779989363845487000,5.322487060546875,-1.9180701971054077,-4.195810317993164,2.666476249694824
1779989363861818400,5.338818359375,0.018260866403579712,-4.339055061340332,2.083643913269043
1779989363878152700,5.355152587890625,-0.8704695701599121,-5.959408760070801,1.2741107940673828
1779989363894484500,5.371484375,-2.2723326683044434,-8.159061431884766,0.9288803935050964
1779989363910818000,5.387818115234375,-2.154019355773926,-9.740272521972656,0.7533994913101196
1779989363927151900,5.40415185546875,-1.8232183456420898,-10.009851455688477,1.0775644779205322
1779989363943481600,5.420481689453125,-1.9285725355148315,-10.123117446899414,1.4001927375793457
1779989363959818800,5.43681884765625,-2.4833314418792725,-8.369379997253418,1.7121025323867798
1779989363976147500,5.4531474609375,-3.150299072265625,-5.177441596984863,1.5497583150863647
1779989363992484400,5.469484375,-4.043839931488037,-1.5267601013183594,0.8224281072616577
1779989364008816000,5.485816162109375,-5.262335777282715,0.19759368896484375,0.5424438714981079
1779989364025147400,5.5021474609375,-6.376072883605957,-0.4398183822631836,1.0004116296768188
1779989364041481700,5.518481689453125,-6.579736709594727,-1.3712244033813477,1.6621909141540527
1779989364057815000,5.53481494140625,-5.0658345222473145,-3.005618095397949,2.4447851181030273
1779989364074148600,5.551148681640625,-2.5392489433288574,-3.5567760467529297,2.9050068855285645
1779989364090479000,5.56747900390625,1.420840859413147,-4.858707427978516,3.448975086212158
1779989364106802200,5.58380224609375,4.3954877853393555,-5.11363410949707,3.655435562133789
1779989364123145000,5.60014501953125,6.389037609100342,-4.121462821960449,2.749539852142334
1779989364139480800,5.616480712890625,6.508431434631348,-0.6966581344604492,0.8656296730041504
1779989364155812600,5.6328125,4.314953327178955,2.1768040657043457,0.18304026126861572
1779989364172145200,5.649145263671875,4.450955390930176,3.1129331588745117,0.7043904662132263
1779989364188468000,5.665468017578125,0.9156315326690674,1.5710740089416504,2.813420295715332
1779989364204809700,5.681809814453125,-2.783949851989746,-3.8992347717285156,2.5608038902282715
1779989364221143600,5.6981435546875,-2.0144124031066895,-4.1421966552734375,0.2223358154296875
1779989364237476900,5.714476806640625,1.9524550437927246,-4.495849609375,-0.17606735229492188
1779989364253809700,5.7308095703125,4.93654203414917,-4.308611869812012,-0.27679336071014404
1779989364270142700,5.747142822265625,3.944497585296631,-3.734302043914795,0.16687476634979248
1779989364286462500,5.76346240234375,4.9698333740234375,-1.6613755226135254,0.955504834651947
1779989364302808600,5.77980859375,8.272618293762207,0.8593487739562988,0.16672003269195557
1779989364319141400,5.796141357421875,8.603025436401367,3.811177968978882,0.0794227123260498
1779989364335480800,5.812480712890625,8.097264289855957,6.298694133758545,1.5643577575683594
1779989364351794200,5.828794189453125,7.999319553375244,7.525630474090576,1.7964916229248047
1779989364368138800,5.845138671875,8.035472869873047,7.0872344970703125,1.165463924407959
1779989364384471800,5.861471923828125,6.085714340209961,5.595582485198975,0.810476541519165
1779989364400805600,5.8778056640625,4.808488845825195,4.423798561096191,0.4923219680786133
1779989364417131300,5.89413134765625,4.087077617645264,3.6608903408050537,-0.23839950561523438
1779989364433459200,5.910459228515625,3.2218785285949707,3.6866493225097656,-0.17488574981689453
1779989364449804500,5.926804443359375,2.3588509559631348,3.8463895320892334,1.0252234935760498
1779989364466137900,5.943137939453125,0.03574657440185547,2.685934543609619,1.5955407619476318
1779989364482470400,5.959470458984375,-4.900016784667969,-0.01206064224243164,3.264110565185547
1779989364498802000,5.975802001953125,-9.32422161102295,-2.857719898223877,3.050809860229492
1779989364515123700,5.992123779296875,-13.767194747924805,-5.902759075164795,2.29990291595459
1779989364531469300,6.00846923828125,-9.144951820373535,-9.167282104492188,2.8074796199798584
1779989364547799300,6.02479931640625,8.062228202819824,-8.851888656616211,-3.287015914916992
1779989364564139000,6.041138916015625,3.8936948776245117,3.34800124168396,-7.709484100341797
1779989364580456000,6.0574560546875,-3.8536291122436523,4.022396087646484,-6.365531921386719
1779989364627424300,6.10442431640625,5.26653528213501,1.8293938636779785,1.3263911008834839
1779989364643757800,6.1207578125,0.7179746627807617,-2.9278650283813477,-1.3703994750976562
1779989364660089600,6.137089599609375,1.4238085746765137,-7.263028144836426,0.45061302185058594
1779989364676418300,6.153418212890625,0.9514966011047363,-7.446318626403809,2.957455635070801
1779989364692758300,6.16975830078125,0.7615270614624023,-5.771468639373779,3.6082253456115723
1779989364709088500,6.186088623046875,0.4249086380004883,-1.8737330436706543,1.6909804344177246
1779989364725421800,6.202421875,-0.05655050277709961,0.12929725646972656,0.1678100824356079
1779989364741748700,6.218748779296875,1.249450922012329,0.5322604179382324,-0.2942373752593994
1779989364758087700,6.235087646484375,2.419506072998047,0.15158653259277344,-0.20000910758972168
1779989364774420700,6.251420654296875,1.357839584350586,-0.8758468627929688,0.260120153427124
1779989364790754300,6.26775439453125,0.430880069732666,-1.2961416244506836,1.107344627380371
1779989364807087000,6.284087158203125,-0.1320478916168213,-1.6393156051635742,1.6533112525939941
1779989364823417900,6.30041796875,-0.345104455947876,-2.6896276473999023,1.200093150138855
1779989364839753000,6.3167529296875,-0.5873186588287354,-3.377002716064453,2.372896909713745
1779989364856084200,6.333084228515625,-0.27086520195007324,-1.4956092834472656,5.010634422302246
1779989364872418000,6.34941796875,0.7863231897354126,0.7425785064697266,5.702337265014648
1779989364888751900,6.365751953125,1.5641276836395264,2.0388436317443848,3.2441608905792236
1779989364905082400,6.382082275390625,-1.2730354070663452,2.8675808906555176,3.6732821464538574
1779989364921416000,6.398416015625,-1.7381106615066528,3.207435131072998,4.7594895362854
1779989364937749800,6.414749755859375,0.20400190353393555,1.9651613235473633,2.4696459770202637
1779989364954084900,6.4310849609375,0.2434234619140625,1.9439263343811035,-1.0990149974822998
1779989364970413000,6.4474130859375,-0.5024446249008179,0.19922733306884766,-2.2886152267456055
1779989364986742500,6.463742431640625,-0.48907917737960815,-0.7810916900634766,-0.5043922662734985
1779989365003083800,6.480083740234375,0.3586738407611847,0.6138219833374023,-0.45882701873779297
1779989365019414500,6.49641455078125,-0.6504896283149719,2.1822657585144043,-1.9816288948059082
1779989365035747000,6.5127470703125,-1.084380030632019,2.3471927642822266,-2.797266721725464
1779989365052068600,6.529068603515625,-1.3541738986968994,2.275773048400879,-1.0351688861846924
1779989365068412700,6.54541259765625,-0.7138890624046326,2.9788289070129395,1.2386889457702637
1779989365084745500,6.561745361328125,-0.01838812232017517,2.356217384338379,2.587594985961914
1779989365101077500,6.578077392578125,1.43049156665802,0.03536796569824219,2.783374071121216
1779989365117411000,6.5944111328125,1.6747558116912842,-1.1619014739990234,2.0726468563079834
1779989365133745000,6.610744873046875,-0.29639744758605957,-2.284420967102051,1.9555768966674805
1779989365150083000,6.6270830078125,-2.1550498008728027,-2.9223766326904297,2.5465316772460938
1779989365166412300,6.643412353515625,-3.041532516479492,-3.201504707336426,2.894235610961914
1779989365182743800,6.659743896484375,-2.6253862380981445,-3.4961185455322266,3.1710598468780518
1779989365199075300,6.676075439453125,-0.6549155116081238,-3.7046165466308594,3.9465856552124023
1779989365215410400,6.692410400390625,1.584928274154663,-4.804476737976074,5.511275291442871
1779989365231742700,6.70874267578125,1.8355594873428345,-5.49090576171875,6.531282424926758
1779989365248073500,6.725073486328125,1.3797242641448975,-4.353287696838379,1.8944779634475708
1779989365264409000,6.7414091796875,-0.7529686689376831,-7.079474449157715,-0.3904474973678589
1779989365280729300,6.757729248046875,-1.4757188558578491,-9.171939849853516,-1.1705671548843384
1779989365297054000,6.774053955078125,-1.9495396614074707,-6.523333549499512,-1.5122418403625488
1779989365313407200,6.7904072265625,-3.6021323204040527,-3.0376405715942383,0.31291162967681885
1779989365329739000,6.806739013671875,-4.765809059143066,-1.9444704055786133,2.1258819103240967
1779989365346072800,6.82307275390625,-4.972208499908447,-2.201448440551758,2.344553232192993
1779989365362404400,6.839404296875,-4.389963626861572,-2.60958194732666,2.6917996406555176
1779989365378727400,6.8557275390625,-2.85384202003479,-3.527411460876465,2.205749750137329
1779989365395070500,6.872070556640625,-0.6236619353294373,-4.969354629516602,1.4915778636932373
1779989365411409000,6.888408935546875,1.6906518936157227,-6.010178565979004,0.7765803933143616
1779989365427734300,6.904734375,3.4645800590515137,-5.815117835998535,0.4044719934463501
1779989365444070400,6.9210703125,6.612812519073486,-5.663421630859375,0.21640467643737793
1779989365460409000,6.9374091796875,7.399422645568848,-3.926630973815918,-0.4799727201461792
1779989365476736500,6.953736572265625,5.618624687194824,-1.2505254745483398,-0.8918739557266235
1779989365493068300,6.970068359375,3.4164044857025146,0.8631820678710938,-0.8758134841918945
1779989365509393700,6.9863935546875,2.2441272735595703,1.5823893547058105,0.4534827470779419
1779989365525734400,7.002734375,1.381096363067627,-2.6509342193603516,2.049102306365967
1779989365542075400,7.019075439453125,-1.4744858741760254,-5.597275733947754,0.6972256302833557
1779989365558407700,7.03540771484375,0.4901618957519531,-5.7163801193237305,0.3486088514328003
1779989365574731800,7.051731689453125,2.3407142162323,-4.051680564880371,0.9174818396568298
1779989365591069000,7.06806884765625,5.792613983154297,-1.3063488006591797,1.143693208694458
1779989365607400000,7.08439990234375,7.3874640464782715,0.5033044815063477,0.4448903203010559
1779989365623733200,7.100733154296875,9.229822158813477,1.9721250534057617,-0.058602869510650635
1779989365640066800,7.11706689453125,10.047879219055176,3.3831284046173096,-0.2834375500679016
1779989365656403700,7.13340380859375,9.68350601196289,4.968801021575928,-0.7554463744163513
1779989365672732400,7.149732421875,8.13542366027832,6.07866096496582,-0.6198887825012207
1779989365689066000,7.16606591796875,6.817755222320557,6.9663310050964355,-0.5506901741027832
1779989365705395700,7.182395751953125,4.821251392364502,8.467238426208496,-0.5646457672119141
1779989365721733400,7.1987333984375,3.1161117553710938,4.8441009521484375,0.8558672070503235
1779989365738065700,7.215065673828125,1.3035011291503906,2.6269614696502686,2.086958885192871
1779989365754396200,7.231396240234375,0.8607621192932129,2.0867910385131836,2.6981759071350098
1779989365770730800,7.247730712890625,0.0867757797241211,1.483375072479248,2.879833221435547
1779989365787061500,7.2640615234375,-1.3992905616760254,1.193974494934082,2.609309673309326
1779989365803394800,7.280394775390625,-2.6175222396850586,-0.01887369155883789,2.5614891052246094
1779989365819729000,7.29672900390625,2.2675371170043945,-1.942805290222168,1.901510238647461
1779989365836062500,7.3130625,-4.312355041503906,-5.466471195220947,-0.42331206798553467
1779989365852394200,7.329394287109375,-2.364518165588379,-11.11408805847168,0.5472311973571777
1779989365868728000,7.34572802734375,3.061195135116577,-8.526402473449707,-3.607326030731201
1779989365885062700,7.362062744140625,0.7860574722290039,-0.36203956604003906,-4.574749946594238
1779989365901394000,7.378393798828125,3.4610068798065186,3.2689080238342285,-4.26912784576416
1779989365917713400,7.39471337890625,4.250621318817139,3.559504270553589,-3.649078369140625
1779989365934061300,7.411061279296875,3.59124755859375,1.4989800453186035,-3.1300532817840576
1779989365950399700,7.427399658203125,2.7538280487060547,-1.393845558166504,-2.7438201904296875
1779989365966723800,7.443723876953125,1.0362157821655273,-6.0076398849487305,-2.928974151611328
1779989365983059200,7.46005908203125,1.8883042335510254,-8.630748748779297,-1.8093184232711792
1779989365999378700,7.476378662109375,2.221480369567871,-8.602959632873535,-0.35115325450897217
1779989366015723500,7.4927236328125,1.4072024822235107,-6.627959251403809,1.0761194229125977
1779989366032055600,7.5090556640625,1.4265241622924805,-4.221693992614746,2.5087733268737793
1779989366048376600,7.52537646484375,2.4474546909332275,-2.1872997283935547,3.1130247116088867
1779989366064723200,7.54172314453125,3.2941062450408936,-0.5409440994262695,2.3410162925720215
1779989366081057300,7.558057373046875,3.1221232414245605,0.7858943939208984,1.5690652132034302
1779989366097387300,7.57438720703125,2.3344614505767822,1.6590328216552734,1.6352089643478394
1779989366113721600,7.5907216796875,1.9594745635986328,2.697140693664551,0.7789942026138306
1779989366130059000,7.60705908203125,-1.4336475133895874,3.6771469116210938,-1.6558347940444946
1779989366146391800,7.623391845703125,-1.4644114971160889,2.5139012336730957,-4.193454265594482
1779989366162719500,7.639719482421875,-2.5553927421569824,4.392629623413086,-4.690555095672607
1779989366179058400,7.656058349609375,-1.2674064636230469,5.162168979644775,-1.8859035968780518
1779989366195386400,7.672386474609375,-1.0837585926055908,5.578139305114746,-0.1487414836883545
1779989366211700700,7.68870068359375,-0.9932102560997009,5.393454074859619,0.03925752639770508
1779989366228059400,7.705059326171875,-1.4244738817214966,4.825079917907715,-0.4688751697540283
1779989366244381000,7.721380859375,-1.5635151863098145,3.4708333015441895,-1.0359313488006592
1779989366260721700,7.7377216796875,-2.0204148292541504,2.2273082733154297,-1.2619948387145996
1779989366277034800,7.75403466796875,-1.4456654787063599,1.720862865447998,-0.647032618522644
1779989366293379600,7.770379638671875,0.6756567358970642,1.2363719940185547,0.5236891508102417
1779989366309721300,7.786721435546875,2.6576361656188965,-0.14926910400390625,3.2385354042053223
1779989366326056200,7.80305615234375,2.875422954559326,-0.957942008972168,4.99678373336792
1779989366342381800,7.8193818359375,1.0254549980163574,-1.8625612258911133,4.170065402984619
1779989366358716400,7.83571630859375,-1.3149065971374512,-3.9174985885620117,1.738196611404419
1779989366375040300,7.852040283203125,-1.5735502243041992,-5.972261428833008,0.9140369296073914
1779989366391380700,7.868380615234375,-3.165724039077759,-7.710733413696289,-0.21416544914245605
1779989366407710000,7.8847099609375,-2.789215564727783,-8.971465110778809,-0.5278910398483276
1779989366424053200,7.90105322265625,-1.7246828079223633,-7.850949287414551,-0.025490760803222656
1779989366440379100,7.917379150390625,-0.9557181596755981,-7.107187271118164,-0.5111937522888184
1779989366456712400,7.93371240234375,-0.9011601805686951,-6.727174758911133,-0.18115592002868652
1779989366473050000,7.950050048828125,-1.450042724609375,-5.4528656005859375,-0.2375335693359375
1779989366489380000,7.966380126953125,-0.8487756252288818,-2.5809831619262695,-2.238744020462036
1779989366505709300,7.982709228515625,-1.369497537612915,-0.3037385940551758,-2.567073345184326
1779989366522052900,7.999052978515625,-2.3104963302612305,-0.20339107513427734,-2.6082921028137207
1779989366538378000,8.0153779296875,-3.2872302532196045,-1.0411453247070312,-2.4075846672058105
1779989366554710500,8.03171044921875,-4.006115913391113,-2.6518783569335938,-1.7385042905807495
1779989366571043800,8.0480439453125,-3.83150577545166,-3.3216238021850586,-0.7318251132965088
1779989366587379200,8.064379150390625,-3.0553574562072754,-4.241018295288086,0.2974863052368164
1779989366603713500,8.080713623046876,-1.1380083560943604,-5.104552268981934,-0.42502617835998535
1779989366620046000,8.097046142578124,3.4474496841430664,-4.417536735534668,-0.750495433807373
1779989366636380000,8.1133798828125,5.315287113189697,-2.9763307571411133,-0.17265582084655762
1779989366652708900,8.129708984375,6.887936592102051,-1.3001947402954102,-0.41897666454315186
1779989366669044000,8.1460439453125,4.926900863647461,0.7856922149658203,-0.3956505060195923
1779989366685372000,8.162371826171874,2.1726338863372803,0.7305340766906738,-1.308207392692566
1779989366701710300,8.17871044921875,0.8976969718933105,-0.29625606536865234,-1.854853630065918
1779989366718043100,8.195043212890624,-3.9848432540893555,1.9563183784484863,-0.08077895641326904
1779989366734373600,8.21137353515625,2.1805033683776855,-1.0334162712097168,1.05306077003479
1779989366750706700,8.227706787109375,4.695544242858887,0.09195756912231445,3.534198045730591
1779989366767040300,8.244040283203125,4.924492359161377,2.9611048698425293,2.3919355869293213
1779989366783372300,8.260372314453125,4.808319091796875,4.723904609680176,1.6425955295562744
1779989366799704800,8.276704833984375,5.681458473205566,5.451659202575684,0.9095882177352905
1779989366816026600,8.293026611328125,6.1185455322265625,5.9226579666137695,0.4869101643562317
1779989366838569700,8.31556982421875,6.476633548736572,6.673155307769775,0.15521323680877686
1779989366854817000,8.331817138671875,6.228424072265625,5.947768688201904,0.5568575859069824
1779989366871163100,8.3481630859375,5.388882637023926,5.4847846031188965,0.1311814785003662
1779989366887484200,8.364484130859376,2.750185489654541,4.443600654602051,-0.716194748878479
1779989366903828000,8.380827880859375,0.7436027526855469,3.70578670501709,-1.1492739915847778
1779989366920163800,8.397163818359376,0.15344572067260742,3.6632723808288574,-0.026049017906188965
1779989366936495400,8.413495361328126,-0.8707170486450195,3.66294002532959,1.136606216430664
1779989366952828400,8.429828369140624,-1.7057299613952637,2.990220546722412,2.431349515914917
1779989366969161200,8.4461611328125,-2.01707124710083,1.2268166542053223,3.261678695678711
1779989366985492500,8.462492431640625,-4.082510471343994,-6.058384418487549,-0.2133617401123047
1779989367001827300,8.478827392578125,-8.119316101074219,-15.591394424438477,-4.395342826843262
1779989367018160000,8.49516015625,-1.2932605743408203,-15.647891998291016,-3.211862564086914
1779989367034491600,8.51149169921875,-1.917719841003418,-2.231814384460449,-0.3065495491027832
1779989367050826000,8.527825927734375,3.2102017402648926,4.198238372802734,0.12205660343170166
1779989367067158800,8.54415869140625,3.169416904449463,5.374685764312744,-1.1853702068328857
1779989367083490600,8.560490478515625,3.033409595489502,4.175206661224365,-1.9600791931152344
1779989367099825000,8.576824951171876,3.7650604248046875,2.473473072052002,-1.9386327266693115
1779989367116159200,8.5931591796875,3.4442758560180664,0.8038215637207031,-2.0267181396484375
1779989367132477400,8.6094775390625,1.4558048248291016,-3.167862892150879,-2.44744873046875
1779989367148823800,8.62582373046875,0.7771017551422119,-6.219463348388672,-1.8101705312728882
1779989367165155600,8.642155517578125,0.28257083892822266,-6.451437950134277,-0.6002733111381531
1779989367181489200,8.6584892578125,0.10047292709350586,-6.8875322341918945,1.1939172744750977
1779989367197812500,8.6748125,0.13938331604003906,-6.039856910705566,3.9837749004364014
1779989367214156500,8.691156494140625,1.7049697637557983,-2.360724449157715,3.184671401977539
1779989367230488300,8.70748828125,1.3773044347763062,-0.12602710723876953,2.7457261085510254
1779989367246820900,8.72382080078125,1.8605427742004395,2.0963850021362305,2.583868980407715
1779989367263151600,8.740151611328125,1.860414743423462,3.0025477409362793,1.6022894382476807
1779989367279489300,8.7564892578125,1.3209431171417236,4.205446243286133,0.7051002979278564
1779989367295820300,8.7728203125,-0.5855697393417358,4.496105670928955,-0.20036399364471436
1779989367312151600,8.789151611328125,-0.607143759727478,4.33403205871582,-1.1193134784698486
1779989367328486000,8.80548583984375,-0.4804360866546631,4.480495452880859,-0.16182100772857666
1779989367344817700,8.821817626953125,0.24608129262924194,3.742730140686035,0.6150044202804565
1779989367361132000,8.838132080078125,-0.6153690218925476,3.3706483840942383,0.18951857089996338
1779989367377485300,8.8544853515625,-1.8232440948486328,3.021988868713379,-1.491847276687622
1779989367393818000,8.870818115234375,-2.006425380706787,3.1528425216674805,-1.963168740272522
1779989367410150700,8.887150634765625,-2.0800371170043945,2.371781349182129,-1.4444040060043335
1779989367426482400,8.903482421875,-0.6137811541557312,1.7771978378295898,-1.1411104202270508
1779989367442811100,8.91981103515625,1.0104169845581055,1.1577167510986328,-1.2634351253509521
1779989367459136500,8.936136474609375,0.728611946105957,0.082275390625,-1.2672816514968872
1779989367475484200,8.952484130859375,-0.33006027340888977,-1.7289466857910156,0.6418538689613342
1779989367491815700,8.968815673828125,-0.9007639288902283,-2.9304351806640625,2.8555922508239746
1779989367508142300,8.985142333984374,-0.9824388027191162,-4.230310440063477,4.395907402038574
1779989367524480500,9.00148046875,-0.6944635510444641,-5.175864219665527,3.4197444915771484
1779989367540814600,9.017814697265624,-1.4009501934051514,-5.792285919189453,1.0295233726501465
1779989367557134600,9.034134521484376,-1.491287350654602,-6.385878562927246,0.22875547409057617
1779989367573480700,9.050480712890625,-1.2591935396194458,-7.516875267028809,0.07867634296417236
1779989367589812700,9.066812744140625,-1.591834545135498,-8.208293914794922,-0.6536418199539185
1779989367606139400,9.083139404296874,-3.309863805770874,-7.646056175231934,-1.0818578004837036
1779989367622479600,9.099479736328124,-3.210129976272583,-6.099015235900879,-1.2814699411392212
1779989367638811000,9.115810791015624,-2.8732173442840576,-4.046277046203613,-1.5463887453079224
1779989367655145500,9.1321455078125,-3.821211814880371,-2.384881019592285,-2.3521413803100586
1779989367671468800,9.14846875,-4.535250186920166,-1.4664087295532227,-2.270836353302002
1779989367687811600,9.1648115234375,-4.612810134887695,-1.3287982940673828,-1.614295244216919
1779989367704145700,9.181145751953125,-4.12712287902832,-2.0101633071899414,-1.0352952480316162
1779989367720477400,9.1974775390625,-2.3604025840759277,-2.8396997451782227,0.07501065731048584
1779989367736810500,9.213810546875,0.2977350950241089,-3.337942123413086,0.3638789653778076
1779989367753143300,9.230143310546875,2.0336296558380127,-4.193389892578125,-0.39023399353027344
1779989367769483800,9.24648388671875,2.8441364765167236,-3.5661420822143555,-1.5598561763763428
1779989367785809200,9.26280908203125,3.8493404388427734,-1.836690902709961,-1.854568362236023
1779989367802139600,9.2791396484375,4.2516374588012695,0.0020647048950195312,-1.5112141370773315
1779989367818477300,9.295477294921875,3.784376859664917,1.760831356048584,-1.5906295776367188
1779989367834806300,9.31180615234375,2.240812301635742,1.912445068359375,-1.8655145168304443
1779989367851126500,9.32812646484375,0.22826671600341797,0.1114044189453125,-1.3617453575134277
1779989367867462000,9.3444619140625,1.1495294570922852,-0.20155715942382812,0.3135489225387573
1779989367883806700,9.360806640625,3.5683727264404297,-0.15101337432861328,1.826140284538269
1779989367900139800,9.377139892578125,5.148411273956299,0.6495609283447266,3.3091392517089844
1779989367916473000,9.39347314453125,4.401824951171875,1.5953493118286133,3.510830879211426
1779989367932805600,9.4098056640625,4.250218391418457,3.0433897972106934,2.1756856441497803
1779989367949137200,9.42613720703125,5.050407409667969,3.911972999572754,0.8547566533088684
1779989367965471500,9.442471435546874,5.777476787567139,4.6726789474487305,0.05955147743225098
1779989367981804500,9.458804443359375,5.738494873046875,5.392255783081055,0.2027595043182373
1779989367998137300,9.475137451171875,6.019492149353027,5.820236682891846,-0.04726386070251465
1779989368014469400,9.491469482421875,5.229136943817139,4.792159080505371,-0.2212672233581543
1779989368030802400,9.507802490234376,4.041825294494629,3.682389974594116,-0.3821420669555664
1779989368047136300,9.52413623046875,2.3455095291137695,3.434532642364502,-0.6551594734191895
1779989368063468000,9.540468017578124,1.4640111923217773,3.27908992767334,-0.9048266410827637
1779989368079802600,9.556802734375,1.308565616607666,3.533902883529663,-0.7742167711257935
1779989368096135000,9.573135009765625,0.4364895820617676,4.0926971435546875,0.014500021934509277
1779989368112454400,9.589454345703125,-1.473738670349121,3.9473679065704346,1.5315741300582886
1779989368128801300,9.60580126953125,-3.3732309341430664,3.5488226413726807,4.02207612991333
1779989368145132500,9.622132568359374,-4.31863260269165,2.5583059787750244,6.501443386077881
1779989368161467000,9.638466796875,-2.6448922157287598,-0.26757192611694336,7.189517974853516
1779989368177800200,9.65480029296875,-2.4298009872436523,-3.7567391395568848,1.6814355850219727
1779989368194137300,9.671137451171875,-7.846097469329834,-9.584543228149414,-3.3452391624450684
1779989368210464500,9.687464599609376,-7.58862829208374,-8.35964584350586,-5.080437660217285
1779989368226799000,9.703799072265625,1.1413512229919434,-1.385871410369873,-1.4468917846679688
1779989368243119000,9.720119140625,3.6458420753479004,3.549921989440918,-1.5326048135757446
1779989368259464700,9.736464599609375,2.701413631439209,4.955876350402832,-1.962479591369629
1779989368275798000,9.752798095703126,3.979397773742676,3.6263904571533203,-1.406862497329712
1779989368292130600,9.769130615234374,5.736758708953857,2.0113368034362793,-0.9452341794967651
1779989368308462300,9.78546240234375,4.920798301696777,-0.033229827880859375,-1.0825799703598022
1779989368324795100,9.801795166015625,1.188366413116455,-4.534512519836426,-2.5368096828460693
1779989368375836400,9.85283642578125,0.740891695022583,-4.691841125488281,0.5615310668945312
1779989368392168400,9.86916845703125,0.11194443702697754,-4.660187721252441,2.542081832885742
1779989368408500000,9.8855,0.37657904624938965,-3.5070104598999023,3.46587872505188
1779989368424837400,9.90183740234375,1.945335030555725,-2.662285804748535,1.5224171876907349
1779989368441168400,9.91816845703125,2.9145936965942383,-1.6432905197143555,1.6226601600646973
1779989368457501000,9.9345009765625,2.2448923587799072,-0.620121955871582,2.1888351440429688
1779989368473833000,9.9508330078125,0.9943917393684387,0.08192634582519531,1.6506813764572144
1779989368490166500,9.96716650390625,-2.406435012817383,1.3106164932250977,0.38731276988983154
1779989368506499600,9.98349951171875,-1.256548523902893,0.9826507568359375,-1.1911758184432983
1779989368522832600,9.99983251953125,-1.4856915473937988,1.7450551986694336,-1.037777066230774
1779989368539163600,10.01616357421875,-0.24770298600196838,2.534992218017578,-0.35477375984191895
1779989368555501600,10.03250146484375,-0.08366967737674713,3.577868938446045,-0.14164221286773682
1779989368571831600,10.04883154296875,-0.2306215614080429,4.465301036834717,-1.3194643259048462
1779989368588164000,10.0651640625,-0.6643675565719604,5.534550666809082,-2.2588560581207275
1779989368604499000,10.0814990234375,-0.8423277139663696,5.558821201324463,-2.0554113388061523
1779989368620830500,10.09783056640625,-1.0061261653900146,4.913389682769775,-1.23617422580719
1779989368637162500,10.11416259765625,-1.6847481727600098,3.460637092590332,-0.17075669765472412
1779989368653496000,10.13049609375,-0.8854334354400635,1.9058527946472168,1.185410976409912
1779989368669820200,10.146820068359375,-0.4566810429096222,2.023090362548828,2.419847011566162
1779989368686171400,10.16317138671875,0.30430376529693604,2.9360809326171875,3.3766660690307617
1779989368702495200,10.1794951171875,1.2286180257797241,2.724061965942383,3.497725486755371
1779989368718828300,10.195828369140624,-0.4672948718070984,0.44088077545166016,1.2799654006958008
1779989368735162400,10.212162353515625,-2.6768953800201416,-2.110915184020996,-0.7997068762779236
1779989368751492400,10.228492431640625,-1.1805617809295654,-2.402316093444824,-1.0735931396484375
1779989368767828000,10.244827880859376,1.6189723014831543,-0.12878990173339844,0.13479745388031006
1779989368784160300,10.26116015625,0.9737746119499207,0.5939455032348633,0.11995178461074829
1779989368800495400,10.277495361328125,-0.9842756986618042,-0.8478775024414062,0.013039052486419678
1779989368816823000,10.293822998046876,-1.8957788944244385,-3.4019689559936523,-0.841850221157074
1779989368833159400,10.310159423828125,-2.020066976547241,-5.11696720123291,-0.9905622005462646
1779989368849502200,10.326502197265626,-2.7389824390411377,-5.655658721923828,-0.85847008228302
1779989368865822500,10.342822509765625,-3.3343915939331055,-7.498366355895996,1.2979989051818848
1779989368882160600,10.35916064453125,-1.0420551300048828,-8.762008666992188,7.736450672149658
1779989368898492000,10.375491943359375,1.6050148010253906,-9.172327995300293,10.229192733764648
1779989368914822400,10.391822509765625,0.5243191719055176,-7.239185333251953,3.8021326065063477
1779989368931162000,10.408162109375,-3.6141257286071777,-6.897849082946777,0.18562018871307373
1779989368947490800,10.42449072265625,-4.381943702697754,-4.517324447631836,0.6222071051597595
1779989368963823000,10.440822998046874,-4.051586151123047,-2.871893882751465,3.4441823959350586
1779989368980154400,10.457154296875,-5.337311744689941,-0.8859348297119141,6.430975914001465
1779989368996488400,10.473488525390625,-6.97871732711792,0.3243999481201172,7.846810817718506
1779989369012821000,10.489821044921875,-5.653669357299805,1.1261377334594727,8.175542831420898
1779989369029155600,10.506155517578126,0.26832354068756104,0.49682140350341797,7.605260372161865
1779989369045484000,10.522484130859375,4.3713579177856445,-2.7015438079833984,8.393486022949219
1779989369061824500,10.538824462890625,7.749248504638672,-6.214402198791504,6.449184417724609
1779989369078152000,10.55515185546875,7.227677345275879,-6.035920143127441,2.529768943786621
1779989369094487000,10.571487060546875,7.758880138397217,-1.9782323837280273,-0.8728551268577576
1779989369110817800,10.58781787109375,7.638776779174805,0.2165546417236328,-2.2187936305999756
1779989369127153400,10.6041533203125,5.272826194763184,0.8371362686157227,-1.8397190570831299
1779989369143484400,10.620484375,3.2003211975097656,0.8716831207275391,-0.41006219387054443
1779989369159819000,10.636819091796875,0.6214146614074707,0.3973655700683594,1.8792352676391602
1779989369176154400,10.653154296875,-8.039366722106934,-2.1599502563476562,5.782140254974365
1779989369192484400,10.669484375,0.7620326280593872,-4.454134941101074,6.638427734375
1779989369208817200,10.685817138671876,3.1742732524871826,-3.311306953430176,5.546167373657227
1779989369225147600,10.702147705078126,5.215900421142578,-2.204216957092285,5.162042140960693
1779989369241472500,10.718472412109374,7.781001091003418,-1.3929939270019531,4.669157028198242
1779989369257803800,10.7348037109375,6.932197570800781,0.37661170959472656,4.6369781494140625
1779989369274148900,10.75114892578125,3.040398120880127,0.7412052154541016,4.961106777191162
1779989369290482700,10.767482666015624,2.2166786193847656,0.46312618255615234,5.648223876953125
1779989369306814200,10.783814208984374,3.642986297607422,0.1318511962890625,6.378340721130371
1779989369323148300,10.800148193359375,4.708517074584961,-0.4089517593383789,7.140735626220703
1779989369339480800,10.816480712890625,5.599864959716797,-1.443892478942871,6.725809574127197
1779989369355812600,10.8328125,5.619956970214844,-2.1469993591308594,4.630381107330322
1779989369372146400,10.849146484375,4.754278182983398,-2.9085140228271484,2.578287124633789
1779989369388480800,10.865480712890625,4.798230171203613,-4.303656578063965,1.6449923515319824
1779989369404813600,10.8818134765625,4.66873836517334,-4.9480881690979,0.8848781585693359
1779989369421147400,10.8981474609375,4.628086090087891,-4.0078301429748535,0.7174583673477173
1779989369437478000,10.914477783203125,4.948861122131348,-3.220716953277588,0.5825599431991577
1779989369453812200,10.930812255859376,4.395942687988281,-1.4902458190917969,0.2816426753997803
1779989369470148600,10.947148681640625,4.340258598327637,-0.11223220825195312,0.08485615253448486
1779989369486476300,10.963476318359374,4.113442897796631,0.8888382911682129,-0.18144607543945312
1779989369502811100,10.97981103515625,5.132821083068848,1.1113190650939941,-0.00643765926361084
1779989369519127800,10.9961279296875,5.226606369018555,0.7949657440185547,0.11795961856842041
1779989369535473400,11.012473388671875,5.007210731506348,0.3596949577331543,-0.00935053825378418
1779989369551811600,11.0288115234375,4.111625671386719,-0.014506340026855469,0.45559555292129517
1779989369568130300,11.04513037109375,2.9403676986694336,0.8881211280822754,0.4507675766944885
1779989369584476200,11.06147607421875,2.3497066497802734,2.287289619445801,0.31426292657852173
1779989369600809000,11.07780908203125,1.2521734237670898,4.1762590408325195,0.6571170091629028
1779989369617133600,11.094133544921876,0.7784337997436523,4.126336097717285,1.3597314357757568
1779989369633475300,11.110475341796874,-1.3476643562316895,3.359896659851074,1.8636589050292969
1779989369649807400,11.126807373046875,-1.6947970390319824,2.04378604888916,3.3769044876098633
1779989369666144000,11.14314404296875,-3.0081686973571777,0.9316935539245605,4.095766067504883
1779989369682472000,11.159471923828125,-6.578180313110352,-1.93157958984375,7.4687323570251465
1779989369698806300,11.17580615234375,-6.679107666015625,-6.764054775238037,8.487608909606934
1779989369715140000,11.19214013671875,4.594292640686035,-10.995917320251465,0.05008918046951294
1779989369731472100,11.20847216796875,8.830458641052246,-9.463809967041016,-13.115546226501465
1779989369747805700,11.2248056640625,-3.7483644485473633,1.9157042503356934,-16.54361915588379
1779989369764116500,11.241116455078124,-5.7331390380859375,2.315093517303467,-7.036390781402588
1779989369780477200,11.257477294921875,5.723378658294678,6.245881080627441,3.3087515830993652
1779989369796802800,11.273802734375,9.607654571533203,2.767618179321289,2.949164390563965
1779989369813136100,11.29013623046875,3.469733238220215,-3.999997615814209,-0.43818140029907227
1779989369829449000,11.306448974609374,-0.6829819679260254,-8.243315696716309,-0.11502891778945923
1779989369845804000,11.322803955078125,-3.463825225830078,-7.202444076538086,1.569348692893982
1779989369862138600,11.339138671875,0.23245477676391602,-3.5222301483154297,2.6166741847991943
1779989369878469600,11.3554697265625,1.7396786212921143,-1.191232681274414,1.255829095840454
1779989369894802000,11.371802001953125,2.010220527648926,0.3090944290161133,-0.2349594533443451
1779989369911140600,11.388140625,2.2616732120513916,0.9612417221069336,-1.0467028617858887
1779989369927467300,11.40446728515625,2.492577075958252,1.12003755569458,-0.9868959188461304
1779989369943800000,11.420800048828125,2.0421009063720703,1.2302026748657227,-0.52788245677948
1779989369960132900,11.4371328125,1.566847801208496,0.7480592727661133,0.4978421926498413
1779989369976466000,11.4534658203125,0.7837200164794922,0.43706512451171875,0.9335682392120361
1779989369992799200,11.46979931640625,-0.3436393737792969,-0.09824275970458984,1.6785471439361572
1779989370009140500,11.486140380859375,-0.5264885425567627,-0.23232555389404297,2.2597711086273193
1779989370025462500,11.502462646484375,-0.5747840404510498,-0.8038387298583984,3.1158905029296875
1779989370041802200,11.51880224609375,-0.6479511260986328,-0.2586193084716797,3.7561910152435303
1779989370058140200,11.53514013671875,-0.3517751693725586,0.5402193069458008,4.408448219299316
1779989370074464000,11.551464111328125,0.6468247175216675,1.1040706634521484,4.095642566680908
1779989370090797300,11.56779736328125,2.089139223098755,1.4870128631591797,3.1375741958618164
1779989370107132200,11.584132080078126,2.366518259048462,1.941056728363037,1.9851378202438354
1779989370123463000,11.600462890625,2.2938551902770996,1.8186397552490234,1.113013744354248
1779989370139796700,11.616796630859374,2.216240644454956,0.5416126251220703,-0.4791829288005829
1779989370156131000,11.633131103515625,1.661340594291687,-0.4621410369873047,-2.5401508808135986
1779989370172462800,11.649462890625,-0.03380692005157471,-1.1823692321777344,-3.6249489784240723
1779989370188795000,11.665794921875,-0.3852044343948364,-1.056121826171875,-3.1138627529144287
1779989370205129500,11.68212939453125,-0.2010589838027954,0.06960773468017578,-1.910262942314148
1779989370221449200,11.69844921875,-0.534110426902771,0.8293380737304688,-0.7388775944709778
1779989370237781500,11.714781494140626,-0.7442642450332642,0.524052619934082,-0.13446474075317383
1779989370254128400,11.73112841796875,-0.9476063251495361,0.11458969116210938,0.6146820783615112
1779989370270460400,11.74746044921875,-0.6077165603637695,0.1978902816772461,1.5229237079620361
1779989370286791400,11.76379150390625,0.31986385583877563,0.17116832733154297,2.485348701477051
1779989370303127800,11.7801279296875,0.0931239128112793,0.11020565032958984,2.4408369064331055
1779989370319458800,11.796458740234375,-1.073645830154419,-0.13228797912597656,2.267306327819824
1779989370335779600,11.812779541015624,-1.7385730743408203,-1.3247671127319336,2.8815109729766846
1779989370352127200,11.829127197265626,-1.8685939311981201,-2.3184051513671875,3.418308973312378
1779989370368445400,11.845445556640625,-1.3487768173217773,-2.6934738159179688,2.9729933738708496
1779989370384790500,11.86179052734375,-1.4968103170394897,-4.13718318939209,1.778410792350769
1779989370401122800,11.878122802734374,-1.4634649753570557,-6.157110214233398,0.9524480104446411
1779989370417456000,11.8944560546875,-0.2006334364414215,-7.7530622482299805,1.5086336135864258
1779989370433787100,11.910787109375,0.10837149620056152,-6.59146785736084,-0.8889928460121155
1779989370450124000,11.9271240234375,-0.988506555557251,-5.473732948303223,-3.4977657794952393
1779989370466448400,11.943448486328125,-1.43870210647583,-3.7433605194091797,-3.315227746963501
1779989370482788900,11.959788818359375,-2.824890375137329,-2.0873184204101562,-0.2633613348007202
1779989370499124500,11.97612451171875,-3.7890398502349854,-1.0054473876953125,1.3471369743347168
1779989370515454500,11.992454345703125,-3.4750754833221436,-1.1263933181762695,1.150273323059082
1779989370531785500,12.008785400390625,-3.8297548294067383,-2.420431137084961,0.5122913122177124
1779989370548125200,12.025125244140625,-4.078309059143066,-4.84824275970459,0.172459214925766
1779989370564463000,12.041463134765625,-2.6905243396759033,-4.8734941482543945,0.21994715929031372
1779989370580784600,12.05778466796875,0.8991683721542358,-3.260197639465332,0.6076145172119141
1779989370597116200,12.0741162109375,4.2196760177612305,-2.15716552734375,0.31025010347366333
1779989370613456000,12.090455810546874,3.178048610687256,-1.163351058959961,0.6560897827148438
1779989370629786000,12.1067861328125,2.856140613555908,0.9018516540527344,-1.4507083892822266
1779989370646120700,12.12312060546875,5.463343620300293,1.937443733215332,-1.9303916692733765
1779989370662438100,12.139438232421876,4.246295928955078,2.4243016242980957,-1.3517156839370728
1779989370678785000,12.155784912109375,1.1454603672027588,2.176255702972412,-2.547227621078491
1779989370695119000,12.172119140625,0.7141697406768799,2.099508762359619,-2.611356735229492
1779989370711448800,12.18844873046875,1.8931751251220703,1.125173568725586,-1.103354573249817
1779989370727771000,12.20477099609375,3.4257149696350098,-0.8492345809936523,0.3312269449234009
1779989370744117000,12.221116943359375,3.6294894218444824,-2.6188712120056152,1.0299160480499268
1779989370760448800,12.23744873046875,4.066394329071045,-3.50154447555542,0.7920576333999634
1779989370776782600,12.253782470703126,4.164463520050049,-2.440187931060791,-0.07611781358718872
1779989370793117000,12.270116943359374,4.333660125732422,0.43279361724853516,-1.2526112794876099
1779989370809450200,12.2864501953125,3.853987693786621,2.926238775253296,-0.8622595071792603
1779989370825769200,12.302769287109374,3.7388479709625244,4.354476451873779,-1.1573827266693115
1779989370842113000,12.319113037109375,3.7513322830200195,5.670724868774414,-1.1115498542785645
1779989370858447000,12.335447021484375,3.59901762008667,5.325855731964111,-0.13722610473632812
1779989370874780000,12.35177978515625,3.0687155723571777,4.522068977355957,0.07183504104614258
1779989370891115500,12.368115478515625,2.312716484069824,4.592338562011719,-0.06077837944030762
1779989370907445800,12.38444580078125,0.1297292709350586,5.401365756988525,-0.08885204792022705
1779989370923779600,12.400779541015625,-2.267813205718994,5.631871223449707,1.0055738687515259
1779989370940099000,12.41709912109375,-2.667008399963379,5.548776626586914,3.4727957248687744
1779989370956440300,12.4334404296875,2.7713356018066406,5.258878231048584,5.099252223968506
1779989370972781600,12.449781494140625,3.614694595336914,4.232016563415527,1.193828821182251
1779989370989113300,12.46611328125,-6.455657005310059,-4.1639556884765625,-2.424616813659668
1779989371005441300,12.482441162109374,0.6597638130187988,-15.78657341003418,-1.7727786302566528
1779989371021776000,12.49877587890625,-7.984272480010986,-9.994037628173828,0.048986852169036865
1779989371038113800,12.51511376953125,-0.04265260696411133,0.1782522201538086,3.0027008056640625
1779989371054428200,12.53142822265625,2.411402940750122,4.0489420890808105,1.9978301525115967
1779989371070766000,12.54776611328125,2.43780517578125,4.1300787925720215,0.916141152381897
1779989371087110100,12.564110107421875,3.945507764816284,2.1618399620056152,0.042966246604919434
1779989371103441400,12.58044140625,4.772792339324951,-1.5124731063842773,-1.2824687957763672
1779989371119774700,12.596774658203126,4.258087635040283,-6.465825080871582,-2.1939048767089844
1779989371136097300,12.61309716796875,1.6674178838729858,-7.649060249328613,-1.771198034286499
1779989371152439600,12.629439453125,0.2625432014465332,-6.1916704177856445,-0.7105114459991455
1779989371168774000,12.64577392578125,0.9644081592559814,-4.389439582824707,-0.01751190423965454
1779989371185107500,12.662107421875,2.0696306228637695,-1.6338872909545898,-0.1983209252357483
1779989371201439700,12.678439697265626,2.3767826557159424,-0.17611026763916016,-0.3585740923881531
1779989371217760000,12.694760009765625,1.4836804866790771,0.280731201171875,0.30437928438186646
1779989371234106600,12.711106689453125,1.4546401500701904,1.394181251525879,-0.21981722116470337
1779989371250439200,12.727439208984375,0.2952895164489746,2.2679595947265625,-2.2877771854400635
1779989371266778000,12.743778076171875,-0.3615356683731079,2.721998691558838,-3.608792543411255
1779989371283103500,12.760103515625,-1.9392085075378418,5.053658485412598,-2.178899049758911
1779989371299420000,12.776419921875,-0.47007858753204346,5.708120822906494,-0.7370067238807678
1779989371315757600,12.792757568359375,0.34254416823387146,5.520061492919922,0.04249072074890137
1779989371332101400,12.809101318359374,0.5943394303321838,4.679198265075684,0.19610199332237244
1779989371348439600,12.825439453125,0.24708124995231628,3.555413246154785,0.25876516103744507
1779989371364768300,12.841768310546875,-0.1337762176990509,2.461421012878418,-0.3959611654281616
1779989371381104400,12.8581044921875,-1.0364047288894653,1.4248695373535156,-1.2023136615753174
1779989371397435100,12.87443505859375,-0.949271559715271,0.7942800521850586,-1.055625557899475
1779989371413767400,12.890767333984375,1.0666923522949219,0.3543701171875,-0.7095590829849243
1779989371430101000,12.90710107421875,1.0081496238708496,-0.02721118927001953,-0.9178408980369568
1779989371446433000,12.92343310546875,-0.4900118410587311,-0.4015331268310547,-1.0026429891586304
1779989371462747100,12.9397470703125,-0.41494041681289673,-1.4093570709228516,0.9897137880325317
1779989371479101000,12.956100830078125,-0.6454376578330994,-1.3847274780273438,2.848273754119873
1779989371495432700,12.9724326171875,-0.171455979347229,-1.5033349990844727,2.3236188888549805
1779989371511766300,12.988766357421875,-0.7830700874328613,-3.1739959716796875,0.6114960312843323
1779989371528099600,13.005099609375,-1.560044765472412,-4.7532958984375,-0.9906352162361145
1779989371544431000,13.02143115234375,-2.7588038444519043,-6.118279457092285,-1.4065377712249756
1779989371560765000,13.037764892578124,-2.3958945274353027,-7.482037544250488,0.4733838140964508
1779989371577095400,13.054095458984374,-0.8680307865142822,-7.495485305786133,1.389852523803711
1779989371593430300,13.07043017578125,-1.0240063667297363,-6.704480171203613,0.5703015327453613
1779989371609767200,13.08676708984375,-2.4669628143310547,-4.164373397827148,-1.833873987197876
1779989371626096400,13.103096435546876,-3.59006929397583,-2.77402400970459,-1.684901237487793
1779989371642429700,13.1194296875,-3.9725542068481445,-3.321868896484375,-0.7489137649536133
1779989371658759700,13.135759765625,-5.148902416229248,-4.003264427185059,-0.3779858350753784
1779989371675100700,13.1521005859375,-4.636667728424072,-4.196441650390625,1.1762524843215942
1779989371691428600,13.1684287109375,-3.438323974609375,-3.902170181274414,2.408076763153076
1779989371707762400,13.184762451171874,-0.36078721284866333,-4.331864356994629,2.1665902137756348
1779989371724081700,13.20108154296875,1.8305537700653076,-5.351650238037109,0.22934198379516602
1779989371740425700,13.21742578125,2.821575403213501,-5.7291259765625,-2.4998397827148438
1779989371756761900,13.233761962890625,3.404906749725342,-3.8891382217407227,-3.935248851776123
1779989371773093400,13.25009326171875,4.184362411499023,-1.3106966018676758,-4.054063320159912
1779989371789405700,13.26640576171875,6.659724235534668,2.938511371612549,-2.4165868759155273
1779989371805760800,13.2827607421875,2.0242819786071777,4.205715179443359,-2.1283037662506104
1779989371822092300,13.29909228515625,2.0582382678985596,3.1324753761291504,-2.0219738483428955
1779989371838425300,13.31542529296875,2.2992260456085205,2.010514259338379,-1.4258229732513428
1779989371854758400,13.33175830078125,1.8897428512573242,1.3937439918518066,1.0092620849609375
1779989371871091700,13.348091796875,1.8423938751220703,0.8368377685546875,2.607861042022705
1779989371887422700,13.364422607421876,3.3660435676574707,0.6962089538574219,2.7585437297821045
1779989371903757800,13.3807578125,4.86448335647583,0.9172625541687012,1.4655330181121826
1779989371920087600,13.397087646484374,5.855441570281982,1.8483428955078125,0.4208102822303772
1779989371936451300,13.413451416015626,6.248205184936523,4.2030816078186035,-0.15475428104400635
1779989371952756000,13.429755859375,5.82816743850708,4.8453521728515625,-0.18787133693695068
1779989371969089000,13.446089111328124,5.5297136306762695,4.712942123413086,0.0912485122680664
1779989371985421000,13.462421142578124,4.660755157470703,4.277666091918945,0.17110741138458252
1779989372001757000,13.4787568359375,3.767895460128784,3.922926425933838,0.09824168682098389
1779989372018089500,13.49508935546875,3.3301467895507812,2.8081586360931396,0.7278138399124146
1779989372034407200,13.5114072265625,2.6727261543273926,2.860595226287842,0.5472060441970825
1779989372050742800,13.52774267578125,2.135000705718994,3.0617220401763916,0.3627101182937622
1779989372067088600,13.544088623046875,1.285998821258545,3.602139472961426,-0.1253284215927124
1779989372083420200,13.560420166015625,-1.8564739227294922,3.7751877307891846,-0.0667428970336914
1779989372099753000,13.5767529296875,-4.932065486907959,3.7194855213165283,0.845695436000824
1779989372116082000,13.59308203125,-3.2640671730041504,2.710278034210205,3.0629661083221436
1779989372132418600,13.60941845703125,4.810352325439453,1.198770523071289,3.737309217453003
1779989372148752100,13.625752197265625,-1.3692917823791504,-3.227109432220459,-1.034550428390503
1779989372165084000,13.642083984375,-5.744412422180176,-16.736495971679688,-5.345856666564941
1779989372181416400,13.65841650390625,-8.206307411193848,-15.151191711425781,-1.9741723537445068
1779989372197738800,13.67473876953125,-2.6055541038513184,-0.040225982666015625,0.49116721749305725
1779989372214082000,13.69108203125,2.289043426513672,6.216866493225098,-0.13670307397842407
1779989372230417200,13.707417236328125,2.3514280319213867,7.218757152557373,-0.42854106426239014
1779989372246748700,13.723748779296875,2.222418785095215,6.091648101806641,-1.3511898517608643
1779989372263081700,13.740081787109375,4.1861982345581055,3.7038893699645996,-2.0558595657348633
1779989372279393300,13.756393310546875,3.774808883666992,-1.4075660705566406,-2.9000394344329834
1779989372295749600,13.77274951171875,1.4608981609344482,-6.205811500549316,-2.391988515853882
1779989372312082700,13.789082763671875,0.3879821300506592,-9.961800575256348,-0.5299553275108337
1779989372328408800,13.805408935546875,1.06437087059021,-10.889446258544922,2.3990602493286133
1779989372344750600,13.82175048828125,0.9545453786849976,-4.529685974121094,4.417234420776367
1779989372361079800,13.838079833984375,1.1961716413497925,0.24996662139892578,3.202760934829712
1779989372377412400,13.854412353515626,1.6888012886047363,2.4051241874694824,1.9038106203079224
1779989372393724000,13.870723876953125,1.6695678234100342,3.5848312377929688,1.5072652101516724
1779989372410079500,13.88707958984375,2.1462416648864746,3.950115203857422,1.3567156791687012
1779989372426413800,13.903413818359375,2.615471363067627,4.082707405090332,0.4073784351348877
1779989372442726700,13.9197265625,0.44925457239151,3.8378467559814453,-2.5949535369873047
1779989372459078400,13.936078369140626,-1.5011060237884521,3.7272443771362305,-2.314188241958618
1779989372475411500,13.952411376953124,-0.7749061584472656,4.140481948852539,-1.17470121383667
1779989372491744800,13.968744873046875,-0.36810538172721863,3.539689540863037,-0.7070359587669373
1779989372508076500,13.98507666015625,-0.5247151851654053,2.478893756866455,-1.1805057525634766
1779989372524411400,14.001411376953126,-0.8874891996383667,1.315913200378418,-1.576451063156128
1779989372540743400,14.017743408203126,-2.158670425415039,0.8478221893310547,-2.1828322410583496
1779989372557086500,14.03408642578125,-2.0153963565826416,1.2780494689941406,-2.6657752990722656
1779989372573412400,14.050412353515625,-0.8424227237701416,0.5506105422973633,-2.4937331676483154
1779989372589742800,14.066742919921875,0.1173439472913742,-1.661764144897461,-1.596299648284912
1779989372606073900,14.083073974609375,0.6599498987197876,-2.987826347351074,0.1965366005897522
1779989372622408400,14.099408447265626,-1.1938021183013916,-2.66471004486084,2.4327492713928223
1779989372638741800,14.11574169921875,-1.8727376461029053,-1.714468002319336,4.4044108390808105
1779989372655069000,14.13206884765625,-0.7904577255249023,-2.2629852294921875,5.341175079345703
1779989372671411700,14.14841162109375,-0.5948586463928223,-2.909092903137207,2.961484432220459
1779989372687740400,14.164740478515625,-1.6764848232269287,-4.16807746887207,1.2227805852890015
1779989372704072400,14.181072509765626,-1.4242668151855469,-4.923322677612305,0.8351141214370728
1779989372720406800,14.19740673828125,-0.6993533372879028,-5.976953506469727,0.7285788059234619
1779989372736737800,14.21373779296875,-0.8399192094802856,-8.165364265441895,0.24370288848876953
1779989372753071600,14.230071533203125,-2.160912036895752,-9.660924911499023,-0.5650240182876587
1779989372769393200,14.24639306640625,-3.4113287925720215,-7.779147148132324,-1.1365618705749512
1779989372785738800,14.26273876953125,-3.707024097442627,-4.167567253112793,-2.0791802406311035
1779989372802073000,14.279072998046875,-4.5392584800720215,-2.256368637084961,-3.47270131111145
1779989372818401000,14.295401123046876,-4.952445983886719,-1.7124195098876953,-3.577427387237549
1779989372834736600,14.311736572265625,-4.44081974029541,-2.161492347717285,-3.0843114852905273
1779989372851069700,14.328069580078125,-2.5064592361450195,-3.077939987182617,-2.495418071746826
1779989372867401700,14.344401611328125,-0.1363973617553711,-3.4830074310302734,-1.5790643692016602
1779989372883735300,14.3607353515625,1.8082828521728516,-3.680972099304199,-0.5166223049163818
1779989372900081000,14.377080810546875,3.2365617752075195,-2.922962188720703,-0.0776442289352417
1779989372916415000,14.3934150390625,3.1280558109283447,-0.5158061981201172,-0.26513493061065674
1779989372932734000,14.40973388671875,3.0634565353393555,0.9796562194824219,0.06074357032775879
1779989372949067800,14.42606787109375,3.9860599040985107,1.1718835830688477,0.7475206851959229
1779989372965398300,14.442398193359375,4.307431221008301,1.5816679000854492,1.5503065586090088
1779989372981737700,14.45873779296875,3.1935768127441406,2.7537927627563477,0.9139621257781982
1779989372998066000,14.47506591796875,1.5327177047729492,1.8715534210205078,0.24337506294250488
1779989373014399000,14.49139892578125,0.18324565887451172,0.046779632568359375,-0.2849997282028198
1779989373030727700,14.507727783203125,0.5947360992431641,-0.34020519256591797,0.5836144685745239
1779989373047065600,14.524065673828124,2.985875368118286,0.5471463203430176,1.5485728979110718
1779989373063398400,14.5403984375,4.690335750579834,0.9451875686645508,2.3480072021484375
1779989373079732000,14.55673193359375,4.936581611633301,1.5392303466796875,2.819991111755371
1779989373096065300,14.573065185546875,4.728044509887695,2.203291893005371,2.1924915313720703
1779989373112398000,14.589398193359376,4.613948822021484,3.3559494018554688,0.6756492853164673
1779989373128730600,14.605730712890624,5.157474517822266,4.211830139160156,-0.4562673568725586
1779989373145062700,14.622062744140624,4.872167110443115,5.05189323425293,-0.4137084484100342
1779989373161396200,14.638396240234375,4.1228814125061035,5.76255989074707,-0.1200864315032959
1779989373177730000,14.65472998046875,3.311978340148926,4.249864101409912,0.0835714340209961
1779989373194049800,14.6710498046875,2.036613941192627,2.3021433353424072,0.939980149269104
1779989373210394600,14.68739453125,1.6962108612060547,2.037410020828247,0.9166274070739746
1779989373226725000,14.70372509765625,1.4601569175720215,2.676807403564453,0.8541209697723389
1779989373243064300,14.720064208984375,0.36931562423706055,3.550635576248169,0.7342692613601685
1779989373259396000,14.73639599609375,-0.8149561882019043,4.462843894958496,1.1058499813079834
1779989373275728000,14.752727783203126,-2.983992576599121,5.382927894592285,1.572725772857666
1779989373292062200,14.769062255859374,-5.85369873046875,4.651499271392822,2.9742355346679688
1779989373308393700,14.785393798828125,-6.8772993087768555,1.9801430702209473,5.437193870544434
1779989373324726000,14.80172607421875,5.782804489135742,-2.1715798377990723,3.5666332244873047
1779989373341062000,14.818061767578126,-2.71926212310791,-8.224544525146484,-8.358463287353516
1779989373357380900,14.834380859375,-7.470601558685303,-14.072759628295898,-9.298805236816406
1779989373373726200,14.850726318359374,-2.419006824493408,-2.486522674560547,0.206839919090271
1779989373390054400,14.867054443359375,4.827953338623047,4.919675827026367,2.0167415142059326
1779989373406417700,14.883417724609375,3.97725772857666,6.927087783813477,1.1523215770721436
1779989373422724000,14.89972412109375,1.9060580730438232,5.233242034912109,-0.6371493935585022
1779989373439060200,14.916060302734374,2.2697439193725586,2.3312106132507324,-1.3081024885177612
1779989373455377700,14.932377685546875,2.436260223388672,-3.736612319946289,-1.9430975914001465
1779989373471723500,14.9487236328125,0.6171078681945801,-10.051933288574219,-2.0963997840881348
1779989373488057900,14.965057861328125,0.413938045501709,-10.154540061950684,0.014376819133758545
1779989373504389600,14.9813896484375,0.019404172897338867,-7.081902503967285,1.0742316246032715
1779989373520720100,14.99772021484375,-0.16598057746887207,-3.067774772644043,1.3920756578445435
1779989373537054500,15.014054443359376,1.2769662141799927,-1.4951629638671875,0.8126965165138245
1779989373553388000,15.030387939453124,2.505932092666626,-1.6914777755737305,0.5746824145317078
1779989373569719600,15.046719482421874,3.3730263710021973,-1.9344053268432617,0.6319761872291565
1779989373586061000,15.06306103515625,3.103153944015503,-1.0525789260864258,1.2706127166748047
1779989373602387200,15.07938720703125,2.9857048988342285,0.6111354827880859,1.3598904609680176
1779989373618720500,15.095720458984376,1.535007357597351,2.028261661529541,-0.3014718294143677
1779989373635060500,15.112060546875,-0.5477339029312134,2.2474942207336426,-2.821021318435669
1779989373651383800,15.1283837890625,-1.9392764568328857,3.3033714294433594,-2.373396873474121
1779989373667719700,15.1447197265625,-0.8250919580459595,4.00531005859375,-1.0020391941070557
1779989373684056800,15.161056884765625,-0.22618931531906128,4.118801116943359,0.37779003381729126
1779989373700385000,15.177385009765626,0.15176932513713837,4.365930080413818,0.6072905659675598
1779989373716715800,15.1937158203125,0.26036861538887024,4.427872657775879,0.22646790742874146
1779989373733056300,15.21005615234375,-0.7924598455429077,4.309720993041992,-0.5537524819374084
1779989373749384000,15.226384033203125,-0.8813730478286743,3.9361138343811035,-0.9035236239433289
1779989373765717500,15.242717529296876,0.1457604318857193,2.9486589431762695,-0.5313326120376587
1779989373782049000,15.259049072265626,0.0905560553073883,2.024935722351074,-0.12831097841262817
1779989373798382800,15.2753828125,-0.02798733487725258,1.93703031539917,0.3348402678966522
1779989373814715600,15.291715576171875,0.8071988821029663,2.408432960510254,1.1139506101608276
1779989373831055000,15.30805517578125,1.4513654708862305,2.1927108764648438,1.470640778541565
1779989373847380000,15.3243798828125,0.10620196908712387,0.5834150314331055,0.7647749185562134
1779989373863715300,15.34071533203125,-0.44944632053375244,-1.22509765625,-0.2556614279747009
1779989373880052000,15.357052001953125,-1.279667854309082,-2.1424827575683594,-0.3816380500793457
1779989373896388000,15.37338818359375,-2.4124245643615723,-2.9281911849975586,0.1250211000442505
1779989373912699600,15.38969970703125,-3.092090368270874,-4.177278518676758,0.5581476092338562
1779989373929053700,15.4060537109375,-2.4881105422973633,-5.590945243835449,1.4103976488113403
1779989373945361000,15.42236083984375,-2.046445608139038,-6.4487199783325195,1.7063344717025757
1779989373961717500,15.438717529296875,-1.6672451496124268,-7.6194562911987305,1.4509847164154053
1779989373978045400,15.45504541015625,-1.0820821523666382,-8.058191299438477,1.0519468784332275
1779989373994378500,15.47137841796875,-0.7997833490371704,-8.331622123718262,1.3954493999481201
1779989374010698200,15.4876982421875,-0.8753179311752319,-6.9145355224609375,1.2656372785568237
1779989374027045000,15.504045166015626,-2.2151334285736084,-5.487159729003906,-0.4576314687728882
1779989374043377000,15.520376953125,-3.000722885131836,-3.2184877395629883,-0.9440059661865234
1779989374059712800,15.536712646484375,-3.210261583328247,-0.4245157241821289,0.7569766640663147
1779989374076045600,15.553045654296875,-3.2384800910949707,0.38482093811035156,2.9683568477630615
1779989374092374500,15.56937451171875,-3.7793307304382324,-1.396773338317871,4.4992570877075195
1779989374108696300,15.5856962890625,-3.3675789833068848,-2.221299171447754,5.4286394119262695
1779989374125045000,15.602044921875,-1.4175488948822021,-1.2288484573364258,5.971583843231201
1779989374141373000,15.618373046875,1.4090025424957275,-0.37436580657958984,5.467026710510254
1779989374157711000,15.634711181640625,2.8643155097961426,-0.30358123779296875,3.8699238300323486
1779989374174043100,15.651043212890626,2.838122606277466,-0.9107179641723633,2.0528440475463867
1779989374190374100,15.6673740234375,1.911712884902954,-1.1219291687011719,0.20413124561309814
1779989374206705700,15.68370556640625,1.9426333904266357,-0.054035186767578125,-0.9860767126083374
1779989374223044000,15.700044189453125,2.168370246887207,1.329543113708496,-1.2787415981292725
1779989374239371000,15.71637109375,2.017622947692871,2.4121103286743164,-1.4276719093322754
1779989374255690500,15.7326904296875,1.5882208347320557,2.8045272827148438,-0.45541858673095703
1779989374272043500,15.74904345703125,1.4573835134506226,3.007747173309326,1.0064103603363037
1779989374288372000,15.7653720703125,1.474949836730957,3.0668649673461914,2.279607057571411
1779989374304702200,15.7817021484375,1.285857081413269,2.6966843605041504,3.7706260681152344
1779989374321042000,15.7980419921875,2.2044737339019775,2.536492347717285,4.859796524047852
1779989374337371400,15.814371337890625,2.3954555988311768,2.083098888397217,4.590036392211914
1779989374353703700,15.83070361328125,0.8335361480712891,1.8172497749328613,3.6553049087524414
1779989374370038000,15.8470380859375,1.1833161115646362,1.6947617530822754,2.8934388160705566
1779989374386371800,15.863371826171875,2.7881674766540527,1.6232423782348633,2.3759589195251465
1779989374402702800,15.879702880859375,4.544517517089844,1.3020868301391602,2.0471787452697754
1779989374419037400,15.896037353515625,5.132010459899902,0.9913816452026367,2.215482473373413
1779989374435368700,15.91236865234375,3.831879138946533,0.5842170715332031,2.3976149559020996
1779989374451702300,15.928702392578124,1.6291025876998901,-0.4087104797363281,2.7634449005126953
1779989374468037000,15.945037109375,0.5123891830444336,-1.436650276184082,3.045919418334961
1779989374484365600,15.961365478515624,1.3063256740570068,-2.4564361572265625,3.264862298965454
1779989374500701200,15.977701171875,2.7973623275756836,-2.5181074142456055,4.059909343719482
1779989374517033500,15.994033447265625,3.8081624507904053,-2.125528335571289,5.335722923278809
1779989374533364700,16.01036474609375,3.7293179035186768,-2.2478818893432617,4.7532548904418945
1779989374549698800,16.02669873046875,3.717486619949341,-2.131641387939453,3.114476203918457
1779989374566033700,16.04303369140625,3.6426730155944824,-1.7029304504394531,1.2191908359527588
1779989374582365700,16.05936572265625,2.8931050300598145,-1.1702919006347656,0.3215169310569763
1779989374598698800,16.07569873046875,2.820831298828125,-0.44115638732910156,0.1794983148574829
1779989374615033900,16.092033935546876,3.4139602184295654,0.19042587280273438,-0.2862390875816345
1779989374631363800,16.10836376953125,4.563355922698975,1.236898422241211,-1.636493444442749
1779989374647696100,16.124696044921876,4.924742698669434,2.446216583251953,-3.2913408279418945
1779989374664031700,16.14103173828125,4.040732383728027,3.697470188140869,-4.362037181854248
1779989374680364000,16.157364013671874,2.5442676544189453,4.284853935241699,-4.580611228942871
1779989374696694800,16.17369482421875,0.7331998348236084,3.8331098556518555,-4.469475746154785
1779989374713030700,16.19003076171875,-1.4645583629608154,2.9366440773010254,-3.5891993045806885
1779989374729362700,16.20636279296875,-3.9397850036621094,0.8811607360839844,-1.2883085012435913
1779989374745695200,16.2226953125,-6.954550743103027,-2.1350507736206055,0.7845771312713623
1779989374762030000,16.239030029296874,-8.546039581298828,-5.5879716873168945,3.5740599632263184
1779989374778360300,16.2553603515625,-6.527647495269775,-5.829263687133789,6.295698165893555
1779989374794695200,16.271695068359374,-3.4476726055145264,-1.7369575500488281,8.116289138793945
1779989374811009300,16.28800927734375,-1.9035062789916992,0.640751838684082,11.020557403564453
1779989374827358200,16.304358154296875,6.316330909729004,-4.0863237380981445,8.239806175231934
1779989374843693800,16.32069384765625,11.643515586853027,-7.531355857849121,3.1747467517852783
1779989374860024300,16.3370244140625,5.710753440856934,-14.91660213470459,-3.946075916290283
1779989374876348000,16.353347900390624,-2.761864185333252,-9.008090019226074,-6.078646183013916
1779989374892691500,16.36969140625,-2.7438580989837646,5.030007839202881,-5.509680271148682
1779989374909023000,16.38602294921875,-1.104529619216919,8.310544967651367,-6.223189353942871
1779989374925353700,16.402353759765624,9.189441680908203,5.1741943359375,-5.653993606567383
1779989374941695500,16.418695556640625,11.11100959777832,4.78838586807251,-0.3762907385826111
1779989374958024400,16.4350244140625,8.532020568847656,2.948042869567871,1.7384002208709717
1779989374974355500,16.45135546875,2.335331439971924,-1.8632049560546875,0.9160995483398438
1779989374990688500,16.4676884765625,-2.4336001873016357,-10.920578002929688,3.9196901321411133
1779989375007025000,16.48402490234375,1.711655616760254,-6.728878021240234,7.794565200805664
1779989375023342800,16.5003427734375,2.020538091659546,-0.8606090545654297,6.531173229217529
1779989375039690000,16.51668994140625,0.7231512069702148,2.3729419708251953,3.589606761932373
1779989375056021500,16.533021484375,5.132360458374023,1.2909460067749023,0.7913866639137268
1779989375072352800,16.549352783203126,6.082216739654541,0.47482872009277344,-0.995678186416626
1779989375088691200,16.565691162109374,3.9085049629211426,0.03872108459472656,-3.239922046661377
1779989375105011000,16.582010986328125,0.7539474368095398,0.14584636688232422,-5.139902114868164
1779989375121356500,16.5983564453125,0.4540441036224365,0.8204469680786133,-3.0568413734436035
1779989375137683700,16.61468359375,0.2619858384132385,-0.036536216735839844,-3.060394525527954
1779989375154011100,16.63101123046875,-0.34571099281311035,-0.4204692840576172,-3.2691268920898438
1779989375170353000,16.647352783203125,-0.5372385382652283,-1.1682987213134766,-1.7245826721191406
1779989375186666200,16.663666259765623,-0.6499078273773193,-1.0495805740356445,-0.7171033620834351
1779989375203019800,16.680019775390626,-0.2988377809524536,-0.41664981842041016,-0.39536619186401367
1779989375219348500,16.696348388671876,-0.3495892286300659,0.3927450180053711,-0.0756990909576416
1779989375235668700,16.712668701171875,-0.07104641199111938,0.9739580154418945,0.6539859175682068
1779989375252019500,16.72901953125,0.5998042821884155,1.4901971817016602,1.5125759840011597
1779989375268351700,16.745351806640624,1.1438425779342651,1.4091157913208008,2.509098529815674
1779989375284683500,16.76168359375,0.9549005031585693,0.8982677459716797,3.079745054244995
1779989375301017300,16.778017333984376,0.35974979400634766,0.4668283462524414,1.9989166259765625
1779989375317349400,16.794349365234375,-0.12867361307144165,0.1610279083251953,0.7785030007362366
1779989375333683500,16.810683349609373,-1.3136204481124878,0.39898204803466797,0.1950785219669342
1779989375350015700,16.827015625,-1.5552772283554077,0.6965837478637695,-0.8768560886383057
1779989375366353000,16.843352783203127,-0.977739691734314,0.8524942398071289,-0.8971718549728394
1779989375382677200,16.85967724609375,0.5531232953071594,0.5057039260864258,-0.31241685152053833
1779989375399018500,16.8760185546875,1.1880697011947632,0.15757179260253906,0.1756114363670349
1779989375415348500,16.892348388671873,-0.315676748752594,-1.153630256652832,0.2611989378929138
1779989375431681000,16.908680908203124,-1.55167555809021,-3.247671127319336,0.9042301177978516
1779989375448013600,16.925013671875,-2.0660624504089355,-4.057618141174316,2.0023326873779297
1779989375464347400,16.941347412109376,-1.564924716949463,-5.716236114501953,4.595244407653809
1779989375480679000,16.957678955078126,-0.34431296586990356,-5.660944938659668,6.066833019256592
1779989375497001200,16.974001220703126,-0.8084970712661743,-6.910828590393066,2.610578775405884
1779989375513344300,16.99034423828125,-2.3610026836395264,-8.91269302368164,0.3870825171470642
1779989375529694500,17.006694580078126,-1.5506794452667236,-8.14389705657959,0.48537367582321167
1779989375546011000,17.023010986328124,-1.085032343864441,-4.653573036193848,-0.47315263748168945
1779989375562344700,17.0393447265625,-1.323574423789978,-1.5187997817993164,-0.622512698173523
1779989375578676200,17.05567626953125,-2.37058162689209,-1.0006837844848633,-0.24973666667938232
1779989375595011000,17.072010986328124,-2.3826804161071777,-2.6442527770996094,0.3352077603340149
1779989375611343400,17.08834326171875,-1.410231351852417,-3.78568172454834,0.9645471572875977
1779989375627676700,17.1046767578125,-0.042798250913619995,-3.65799617767334,1.421480655670166
1779989375644009200,17.12100927734375,0.9212920665740967,-3.0994625091552734,1.2877163887023926
1779989375660341000,17.137341064453125,1.221636176109314,-2.4421920776367188,0.6669126152992249
1779989375676678400,17.153678466796876,1.806409478187561,-2.3430099487304688,0.4048243761062622
1779989375693008100,17.170008056640626,3.1682820320129395,-2.0279245376586914,0.369596004486084
1779989375709341200,17.186341064453124,4.185332775115967,-0.9693784713745117,0.23426282405853271
1779989375725671400,17.20267138671875,3.1468629837036133,0.3536386489868164,0.4831554889678955
1779989375742008600,17.219008544921873,2.2407915592193604,0.8009252548217773,0.3111081123352051
1779989375758340600,17.235340576171875,1.2144124507904053,1.0942997932434082,0.4957454204559326
1779989375774673400,17.25167333984375,0.8435225486755371,-0.06710529327392578,0.7677470445632935
1779989375791006500,17.26800634765625,0.04794454574584961,-0.9857559204101562,0.6196379661560059
1779989375807346000,17.284345947265624,-0.227691650390625,-0.3201026916503906,1.171633005142212
1779989375823672600,17.300672607421873,1.7416837215423584,-0.0061626434326171875,2.3077471256256104
1779989375839999200,17.316999267578126,4.611879825592041,0.18498754501342773,2.764451265335083
1779989375856342000,17.333342041015626,-0.019087791442871094,-0.10857725143432617,2.985473871231079
1779989375872670500,17.34967041015625,4.195463180541992,-1.843696117401123,2.4103012084960938
1779989375889005000,17.366005126953127,6.097414016723633,-1.4147796630859375,2.133990526199341
1779989375905334800,17.382334716796876,6.84867525100708,0.1898946762084961,1.5171493291854858
1779989375921672200,17.398672119140624,5.530773162841797,1.1057519912719727,0.4902611970901489
1779989375938002200,17.415002197265625,4.9983696937561035,0.9844875335693359,-0.5522903203964233
1779989375954335200,17.431335205078124,4.995460510253906,2.5706992149353027,-1.245941162109375
1779989375970668500,17.44766845703125,4.593853950500488,3.3876798152923584,-1.2368160486221313
1779989375987002000,17.464002197265625,4.920101165771484,4.224038124084473,-0.9037809371948242
1779989376003332600,17.48033251953125,4.131657600402832,4.9083476066589355,-0.6868370771408081
1779989376019670000,17.496669921875,2.6608076095581055,4.175293922424316,0.17063045501708984
1779989376035996700,17.51299658203125,0.8122086524963379,3.6412441730499268,0.555476188659668
1779989376052338200,17.529338134765624,-0.41966867446899414,4.031038284301758,1.0366461277008057
1779989376068662000,17.545662109375,-2.4364781379699707,3.7568697929382324,1.8164669275283813
1779989376085003000,17.5620029296875,-3.5835132598876953,1.809321403503418,3.2944345474243164
1779989376101332700,17.578332763671874,1.4405517578125,-0.48805952072143555,3.7603678703308105
1779989376117649700,17.594649658203124,0.27203369140625,-3.588346004486084,-0.7364476919174194
1779989376133998000,17.610998046875,-7.521994590759277,-9.70608139038086,-5.669689655303955
1779989376150319000,17.627319091796874,0.7601494789123535,-15.662936210632324,-2.4789087772369385
1779989376166663400,17.643663330078127,2.793618679046631,-3.1037511825561523,-1.5953315496444702
1779989376182997000,17.6599970703125,-0.8781800270080566,3.8148372173309326,-2.120051860809326
1779989376199330000,17.676330078125,1.7552857398986816,4.347623825073242,-1.372835636138916
1779989376215664000,17.6926640625,4.88365364074707,3.3465824127197266,-0.7982019186019897
1779989376231996000,17.708995849609376,4.8472442626953125,2.0340561866760254,-1.300001859664917
1779989376248330200,17.725330322265624,1.3949389457702637,-1.375396728515625,-3.1326630115509033
1779989376264662300,17.741662353515625,0.7831177711486816,-5.035455703735352,-3.7064547538757324
1779989376280995600,17.75799560546875,2.556450843811035,-4.838517189025879,-2.0533411502838135
1779989376297328600,17.77432861328125,1.745810866355896,-5.333224296569824,-0.2418568730354309
1779989376313659600,17.79065966796875,2.0044476985931396,-5.253771781921387,1.3195099830627441
1779989376329995800,17.806995849609375,2.8543787002563477,-3.9325408935546875,2.8992438316345215
1779989376346334000,17.823333984375,3.6383283138275146,-1.7219886779785156,3.1490015983581543
1779989376362659800,17.839659912109376,3.7448034286499023,0.5742578506469727,1.9626164436340332
1779989376378991000,17.8559912109375,3.198549509048462,2.182216167449951,0.044829368591308594
1779989376395329000,17.8723291015625,1.9705309867858887,2.1776328086853027,-1.4842184782028198
1779989376411659800,17.88865966796875,-0.40066051483154297,1.0629701614379883,-3.844097852706909
1779989376427975200,17.90497509765625,-1.4942348003387451,1.1555652618408203,-4.9110612869262695
1779989376444326000,17.921325927734376,-1.8890055418014526,2.6848015785217285,-2.8213253021240234
1779989376460653300,17.9376533203125,-0.5440950393676758,2.8091015815734863,-0.16918325424194336
1779989376476981000,17.95398095703125,-0.2908669710159302,2.853757858276367,1.2319424152374268
1779989376493324300,17.97032421875,-0.08133333921432495,2.5055418014526367,1.4233300685882568
1779989376509645000,17.98664501953125,-0.13977140188217163,2.164700984954834,1.5656099319458008
1779989376525989600,18.00298974609375,0.5272393822669983,1.7640705108642578,1.472379446029663
1779989376542325200,18.0193251953125,0.602384090423584,1.5538854598999023,1.3369085788726807
1779989376558654500,18.035654541015624,1.027233600616455,1.3029241561889648,1.1370255947113037
1779989376574989000,18.051989013671875,1.4331849813461304,0.6860294342041016,1.0270774364471436
1779989376591320600,18.068320556640625,0.5487270355224609,0.20085620880126953,0.3110913336277008
1779989376607655400,18.084655517578124,0.18437838554382324,0.22159862518310547,-0.8663575649261475
1779989376623986000,18.10098583984375,-0.07040375471115112,-0.3518381118774414,-1.0890555381774902
1779989376640321800,18.11732177734375,-0.7846289873123169,-0.6123476028442383,-0.8262714743614197
1779989376656647000,18.13364697265625,-1.7062089443206787,-0.6299848556518555,0.6079398393630981
1779989376672992000,18.149991943359375,-1.347230315208435,-0.7158393859863281,1.535942554473877
1779989376689329700,18.16632958984375,-0.9703560471534729,-1.3777446746826172,0.9848778247833252
1779989376705654000,18.182654052734375,-2.072777271270752,-2.956841468811035,-0.162367045879364
1779989376721983500,18.1989833984375,-3.4090235233306885,-4.865949630737305,-0.38473814725875854
1779989376738306300,18.215306396484376,-4.110088348388672,-7.034480094909668,0.5435495972633362
1779989376754651600,18.231651611328125,-3.789003372192383,-9.230951309204102,0.8152060508728027
1779989376770984700,18.247984619140624,-2.970517158508301,-9.644437789916992,1.3995649814605713
1779989376787316200,18.264316162109374,-2.076235294342041,-6.977097511291504,0.6470311880111694
1779989376803651300,18.2806513671875,-1.9725592136383057,-2.8700733184814453,-0.9087247848510742
1779989376819983600,18.296983642578127,-2.1328794956207275,-0.7755489349365234,-0.8231919407844543
1779989376836319500,18.313319580078126,-2.7861578464508057,-1.3533744812011719,-0.54414963722229
1779989376852647200,18.329647216796875,-4.163372993469238,-2.4153623580932617,-0.7755718231201172
1779989376868983300,18.3459833984375,-5.286191940307617,-3.5029983520507812,-0.6748936176300049
1779989376885314300,18.362314208984376,-5.003006458282471,-4.359712600708008,0.10947161912918091
1779989376901650200,18.378650146484375,-1.8515162467956543,-4.257049560546875,0.8917973041534424
1779989376917981400,18.3949814453125,2.683532238006592,-3.0417566299438477,1.123107671737671
1779989376934314500,18.411314453125,5.790580749511719,-2.697490692138672,1.164327621459961
1779989376950659600,18.42765966796875,3.560117721557617,-0.9155588150024414,0.41654616594314575
1779989376966976800,18.443976806640624,2.560861587524414,-0.07807445526123047,0.27039551734924316
1779989376983314400,18.460314453125,3.5064175128936768,0.08394622802734375,-0.048417508602142334
1779989376999641000,18.47664111328125,3.644831657409668,1.298262119293213,-0.22782176733016968
1779989377015985000,18.49298486328125,1.9186617136001587,1.2733268737792969,-0.8186773061752319
1779989377032317000,18.50931689453125,2.337125778198242,2.251549243927002,-0.8571242094039917
1779989377048650000,18.52564990234375,2.650881767272949,1.001957893371582,1.0097453594207764
1779989377064977700,18.541977783203127,2.1480960845947266,-0.36893367767333984,1.615057349205017
1779989377081289200,18.558289306640624,3.50313138961792,-1.0555343627929688,1.3670141696929932
1779989377097644800,18.574644775390624,4.948572158813477,-0.4683871269226074,0.19945496320724487
1779989377113975800,18.590975830078126,5.5292816162109375,1.4103474617004395,-0.8587179780006409
1779989377130310400,18.607310302734376,5.192726135253906,3.4756948947906494,-0.7699377536773682
1779989377146642200,18.62364208984375,5.470799922943115,5.233521938323975,-1.0583785772323608
1779989377162976500,18.6399765625,5.274493217468262,5.435953140258789,-0.7600606679916382
1779989377179309000,18.65630908203125,4.5941853523254395,5.496369361877441,-0.3593055009841919
1779989377195642400,18.672642333984374,4.272332191467285,5.478448390960693,-0.4202951192855835
1779989377211975700,18.6889755859375,3.0970749855041504,5.7067365646362305,-0.559380292892456
1779989377228306400,18.705306396484374,0.781496524810791,6.1081695556640625,-0.8818432092666626
1779989377244641300,18.721641357421873,-1.8282818794250488,6.263694763183594,0.24920427799224854
1779989377260974800,18.737974853515624,-4.988665580749512,4.650393486022949,2.976053237915039
1779989377277304600,18.7543046875,-6.071143627166748,0.10870838165283203,5.481446266174316
1779989377293640700,18.770640625,0.7862496376037598,-5.449002265930176,4.128201484680176
1779989377309970700,18.786970703125,-2.6599411964416504,-10.36134147644043,-5.052525043487549
1779989377326310100,18.80331005859375,-0.8159117698669434,-8.781303405761719,-3.7978882789611816
1779989377342638600,18.819638671875,-1.9631152153015137,1.081127643585205,-2.8914403915405273
1779989377358952700,18.83595263671875,0.9135851860046387,4.3367109298706055,-1.8085428476333618
1779989377375304700,18.8523046875,6.759256839752197,3.181849479675293,-0.0589061975479126
1779989377391644200,18.86864404296875,5.478955268859863,0.13906192779541016,-1.3405120372772217
1779989377407971800,18.884971923828125,-0.24937009811401367,-4.060953140258789,-2.1089091300964355
1779989377424303600,18.9013037109375,-0.041080474853515625,-5.599498748779297,-1.087226152420044
1779989377440636400,18.917636474609374,-0.3453497886657715,-4.057229995727539,0.07726234197616577
1779989377456953900,18.933953857421876,0.7915096282958984,-2.144536018371582,0.2623100280761719
1779989377473292500,18.95029248046875,2.3020994663238525,-0.7688159942626953,0.5348740816116333
1779989377489623300,18.966623291015626,2.680316686630249,-0.22353458404541016,1.0859477519989014
1779989377505964300,18.98296435546875,2.5538742542266846,-1.5230655670166016,1.7482863664627075
1779989377522306300,18.999306396484375,1.906589388847351,-2.2568140029907227,2.245335578918457
1779989377538633500,19.015633544921876,1.1084529161453247,-1.4162273406982422,2.603512763977051
1779989377554968000,19.031968017578127,0.27611613273620605,0.3558797836303711,2.7327609062194824
1779989377571285800,19.04828564453125,-0.05485248565673828,1.8349676132202148,2.197190284729004
1779989377587631400,19.06463134765625,-0.15244770050048828,2.655996322631836,1.5579302310943604
1779989377603970600,19.080970458984375,-0.3120417594909668,2.5098819732666016,0.6092932224273682
1779989377620297500,19.09729736328125,-1.0162585973739624,1.6570396423339844,-0.4627581238746643
1779989377636631300,19.11363134765625,-0.3002201318740845,1.4214115142822266,-1.342423439025879
1779989377652967000,19.129966796875,-0.32526326179504395,0.900726318359375,-2.148249387741089
1779989377669290000,19.1462900390625,-0.672801673412323,0.7961187362670898,-1.539438247680664
1779989377685633000,19.162633056640626,-0.8166704773902893,0.39990997314453125,-0.5534331202507019
1779989377701964500,19.178964599609376,-0.39828550815582275,1.0465221405029297,0.2778403162956238
1779989377718296800,19.195296875,0.38698041439056396,1.5869760513305664,0.6777522563934326
1779989377734627300,19.21162744140625,1.0407193899154663,1.4756393432617188,0.2783542275428772
1779989377750963000,19.227962890625,0.960718035697937,1.64837646484375,-0.1383489966392517
1779989377767296300,19.244296142578126,1.1543869972229004,1.9260711669921875,0.43534380197525024
1779989377783629800,19.2606298828125,1.328192949295044,2.07442045211792,1.2641186714172363
1779989377799963600,19.276963623046875,1.3765227794647217,1.7789421081542969,1.5607023239135742
1779989377816293400,19.29329345703125,0.2685149013996124,0.5714321136474609,1.771588921546936
1779989377832628200,19.309628173828123,0.4986180067062378,-0.4095039367675781,2.465266227722168
1779989377848965400,19.32596533203125,0.3883311152458191,-0.8755664825439453,2.755244731903076
1779989377865293300,19.342293212890624,0.5653020143508911,-0.850794792175293,1.9843614101409912
1779989377881627600,19.358627685546875,-0.05750033259391785,-0.5610265731811523,0.790294885635376
1779989377897959700,19.374959716796877,-1.1417748928070068,-0.6982030868530273,-0.27941691875457764
1779989377914294000,19.3912939453125,-2.296661853790283,-2.271552085876465,-0.9144704341888428
1779989377930630100,19.407630126953126,-2.567218780517578,-4.032906532287598,-0.8519531488418579
1779989377946955800,19.423955810546875,-2.3434712886810303,-5.441102027893066,-0.4008314609527588
1779989377963292400,19.44029248046875,-1.7554954290390015,-7.512598991394043,0.16366910934448242
1779989377979623400,19.45662353515625,-1.4407274723052979,-9.85278034210205,1.0351544618606567
1779989377995958300,19.472958251953123,-2.21071195602417,-10.805429458618164,1.5322707891464233
1779989378012276500,19.4892763671875,-2.8100357055664062,-8.408614158630371,0.18758976459503174
1779989378028624000,19.505623779296876,-2.5296597480773926,-2.8770265579223633,-0.7313575148582458
1779989378044958000,19.5219580078125,-2.957306146621704,0.6085834503173828,0.14283990859985352
1779989378061290000,19.5382900390625,-3.0284461975097656,0.39714622497558594,1.52168607711792
1779989378077623800,19.554623779296875,-3.5102884769439697,-0.6106605529785156,1.3035129308700562
1779989378093952500,19.570952392578125,-4.56520938873291,-2.0498762130737305,0.7029157876968384
1779989378110291500,19.58729150390625,-5.246735095977783,-3.441422462463379,0.5017241835594177
1779989378126620200,19.6036201171875,-3.689077377319336,-4.054690361022949,1.4945709705352783
1779989378142956000,19.6199560546875,0.12488991022109985,-3.4827356338500977,1.8510371446609497
1779989378159287800,19.636287841796875,2.9979920387268066,-2.6354379653930664,1.3703196048736572
1779989378175620900,19.652620849609374,4.109816551208496,-1.9291400909423828,0.7821241021156311
1779989378191953200,19.668953125,3.6659183502197266,-0.7543268203735352,0.2608757019042969
1779989378208284400,19.685284423828126,2.992682933807373,1.6664519309997559,-0.9833419322967529
1779989378224620000,19.7016201171875,5.066095352172852,3.565615177154541,-0.016190409660339355
1779989378240953300,19.717953369140623,8.862035751342773,4.889168739318848,0.856787919998169
1779989378257288700,19.734288818359374,0.22199678421020508,3.463773727416992,1.5415737628936768
1779989378273620000,19.750619873046876,2.8516955375671387,1.6271815299987793,0.1597875952720642
1779989378289945000,19.766945068359377,-0.3910999298095703,0.43459510803222656,1.599170207977295
1779989378306282500,19.783282470703124,0.5008301734924316,-1.6277008056640625,1.0241135358810425
1779989378322627000,19.799626953125,3.393831491470337,-2.4742159843444824,0.2070189118385315
1779989378338939100,19.815939208984375,5.721796035766602,-0.8388280868530273,-0.4895399808883667
1779989378355283000,19.832282958984376,5.283587455749512,0.48028039932250977,-1.3717048168182373
1779989378371617300,19.8486171875,5.8979668617248535,0.42516040802001953,-1.9233717918395996
1779989378387949300,19.86494921875,4.776058197021484,1.7674407958984375,-1.7426124811172485
1779989378404284000,19.881283935546875,3.259756565093994,3.3677382469177246,-0.9437116384506226
1779989378420610000,19.897610107421876,2.3314528465270996,3.3814122676849365,-0.6626404523849487
1779989378436955000,19.913954833984373,1.372169017791748,2.59537935256958,-0.40624141693115234
1779989378453279700,19.93027978515625,1.1151461601257324,2.1120073795318604,0.5082122683525085
1779989378469601500,19.9466015625,1.0810832977294922,2.889177083969116,1.1059943437576294
1779989378485949200,19.96294921875,0.6804814338684082,4.40767765045166,1.1627153158187866
1779989378502281200,19.97928125,0.3227243423461914,5.613937854766846,1.028305172920227
1779989378518613200,19.99561328125,-0.6764225959777832,5.826913833618164,2.188227653503418
1779989378534947600,20.011947509765626,-0.7673883438110352,4.724535942077637,3.813826084136963
1779989378551275000,20.02827490234375,1.1156044006347656,4.580188751220703,4.966037750244141
1779989378567610000,20.044610107421875,2.434640407562256,3.004885196685791,4.599236488342285
1779989378583950000,20.0609501953125,0.20837736129760742,-3.4349899291992188,1.8090214729309082
1779989378600279300,20.077279296875,-9.017626762390137,-18.196453094482422,-9.010184288024902
1779989378616609500,20.093609619140626,-5.342836856842041,-19.342082977294922,-8.086050987243652
1779989378632945200,20.109945068359377,0.2766075134277344,-2.2459630966186523,-1.1797330379486084
1779989378649264000,20.12626416015625,2.3236982822418213,5.88918399810791,-0.28825730085372925
1779989378665611000,20.142611083984374,3.2601492404937744,8.51102066040039,0.3749500811100006
1779989378681942800,20.15894287109375,4.813802719116211,7.105722427368164,0.19905462861061096
1779989378698276600,20.175276611328126,6.020510196685791,3.374845504760742,-1.432695746421814
1779989378714607900,20.19160791015625,4.383374214172363,0.1054677963256836,-2.0230488777160645
1779989378730942700,20.207942626953123,-0.18838715553283691,-4.807278633117676,-1.2104641199111938
1779989378747274800,20.224274658203125,-0.3679654598236084,-8.742883682250977,-0.9749983549118042
1779989378763608800,20.24060888671875,-0.46892237663269043,-6.9362030029296875,0.6882233619689941
1779989378779941000,20.256941162109374,-0.6404979228973389,-4.116720199584961,1.975719690322876
1779989378796274400,20.2732744140625,-0.08659505844116211,-1.2655019760131836,1.0349756479263306
1779989378812607500,20.289607421875,1.3040335178375244,-0.006880760192871094,0.11703765392303467
1779989378828940000,20.30593994140625,1.974441647529602,-0.17102909088134766,0.4973449409008026
1779989378845261800,20.32226171875,2.2221968173980713,-0.12107563018798828,1.661931037902832
1779989378861607000,20.33860693359375,-0.038753390312194824,1.0124759674072266,0.007636904716491699
1779989378877939200,20.354939208984376,-1.0792838335037231,1.453561782836914,-1.6652438640594482
1779989378894272500,20.3712724609375,-1.125260829925537,1.9818787574768066,-1.6778936386108398
1779989378910604800,20.387604736328125,-1.522390365600586,2.0121002197265625,-0.36757105588912964
1779989378926939000,20.40393896484375,-0.5524731278419495,2.140183448791504,0.9731919765472412
1779989378943259600,20.420259765625,-1.033092737197876,2.581444263458252,0.7348309755325317
1779989378959611100,20.436611083984374,-1.0485570430755615,3.068309783935547,0.36744678020477295
1779989378975937000,20.45293701171875,-0.5979997515678406,3.8148393630981445,-0.14787083864212036
1779989378992270600,20.4692705078125,-1.185828447341919,4.136002063751221,-0.5623002052307129
1779989379008601000,20.48560107421875,-1.1986496448516846,3.685494899749756,-0.07370439171791077
1779989379024933000,20.50193310546875,-0.38705378770828247,2.7951083183288574,0.9809584021568298
1779989379041272300,20.518272216796873,1.0243926048278809,1.901845932006836,1.3126603364944458
1779989379057602300,20.534602294921875,1.1521097421646118,1.298990249633789,1.105631709098816
1779989379073934800,20.550934814453125,0.4701847434043884,0.9995956420898438,0.29928117990493774
1779989379090266400,20.567266357421875,-0.8109319806098938,1.0485210418701172,-0.3745238780975342
1779989379106599700,20.583599609375,0.5708668828010559,1.0426874160766602,0.0035878419876098633
1779989379122934300,20.599934326171876,0.4806514084339142,0.5620126724243164,0.8367897272109985
1779989379139264000,20.616263916015626,0.3714921772480011,-0.6051139831542969,0.9507943391799927
1779989379155602400,20.6326025390625,0.15172302722930908,-2.4388532638549805,0.9140980839729309
1779989379171932400,20.648932373046875,-1.675182580947876,-4.712706565856934,0.7360775470733643
1779989379188268300,20.665268310546875,-3.4719491004943848,-6.519801139831543,1.7746376991271973
1779989379204597000,20.681596923828124,-3.0591506958007812,-7.377681732177734,4.171696662902832
1779989379220930600,20.6979306640625,-3.1326539516448975,-8.497232437133789,5.2247090339660645
1779989379237264000,20.714263916015625,-2.9855101108551025,-8.426470756530762,0.3643971085548401
1779989379253598200,20.73059814453125,-5.583300590515137,-9.075485229492188,-2.440821647644043
1779989379269917200,20.746917236328127,-4.589353084564209,-6.889010429382324,-1.6552866697311401
1779989379286263000,20.763262939453124,-2.403183698654175,-4.869342803955078,0.47904789447784424
1779989379302592300,20.77959228515625,-1.554659366607666,-1.2759857177734375,2.1188292503356934
1779989379318935300,20.795935302734375,-2.1997227668762207,0.7896127700805664,3.2289977073669434
1779989379335262500,20.812262451171875,-2.646665096282959,-0.6360406875610352,3.692279100418091
1779989379351595000,20.828594970703126,-2.775071859359741,-1.7703161239624023,3.2995071411132812
