time,seconds_elapsed,z,y,x
1779989358641425400,0.11842529296875,0.023518312722444534,-0.41523563861846924,1.9201022386550903
1779989358657740500,0.134740478515625,-0.5274821519851685,-0.9323330521583557,1.6856826543807983
1779989358674081300,0.151081298828125,-0.8425359129905701,-1.7967073917388916,1.0514518022537231
1779989358690423800,0.167423828125,-0.8315402865409851,-1.8034268617630005,0.2356412708759308
1779989358706757600,0.183757568359375,-0.7539604306221008,-0.8103127479553223,-0.5810855627059937
1779989358723089000,0.2000888671875,-0.7544185519218445,-0.05390885844826698,-1.3416128158569336
1779989358739422200,0.216422119140625,-0.712574303150177,0.14309518039226532,-1.7508925199508667
1779989358755755800,0.232755859375,0.21563543379306793,-0.46242499351501465,-1.820225715637207
1779989358772087000,0.249087158203125,2.1452059745788574,-1.2861768007278442,-1.4164438247680664
1779989358788421400,0.26542138671875,3.1005992889404297,-2.129781723022461,-0.7067710757255554
1779989358804752000,0.281751953125,2.5838072299957275,-2.6708555221557617,0.05268712714314461
1779989358821086500,0.29808642578125,2.246915102005005,-3.090214490890503,1.011745572090149
1779989358837417700,0.314417724609375,2.417499303817749,-3.703981399536133,1.5293011665344238
1779989358853752600,0.330752685546875,2.91428542137146,-4.023921966552734,1.4624114036560059
1779989358870084600,0.347084716796875,3.57539439201355,-4.446182727813721,1.340238332748413
1779989358886414300,0.363414306640625,4.504825592041016,-5.540547847747803,1.545030951499939
1779989358902753300,0.379753173828125,5.313000679016113,-6.50418758392334,2.1529946327209473
1779989358919082800,0.396082763671875,6.230825424194336,-7.113067626953125,3.036916494369507
1779989358935416800,0.412416748046875,7.074888706207275,-7.3853607177734375,3.754225015640259
1779989358951748400,0.428748291015625,7.607563018798828,-7.175528526306152,3.8041632175445557
1779989358968069400,0.4450693359375,8.235380172729492,-5.803830623626709,3.327535629272461
1779989358984415700,0.461415771484375,8.478046417236328,-3.2345314025878906,2.126880168914795
1779989359000731400,0.4777314453125,7.324427127838135,-1.297935962677002,1.1664471626281738
1779989359017082600,0.49408251953125,5.515196800231934,-0.540921151638031,1.257924199104309
1779989359033413000,0.5104130859375,4.294382572174072,-0.8342891931533813,2.0166189670562744
1779989359049747200,0.526747314453125,3.893960475921631,-2.180941581726074,3.1758882999420166
1779989359066077200,0.5430771484375,3.668856620788574,-2.6067147254943848,4.301865577697754
1779989359082412000,0.559412109375,2.7769935131073,-2.8884763717651367,4.516890525817871
1779989359098744800,0.575744873046875,0.7913759350776672,-3.776827096939087,3.935499429702759
1779989359115076900,0.592076904296875,0.41951170563697815,-3.224604845046997,2.9772045612335205
1779989359131410700,0.60841064453125,0.36010506749153137,-2.037999153137207,2.1256582736968994
1779989359147744000,0.624743896484375,0.17776179313659668,-1.1050552129745483,1.3713924884796143
1779989359164074500,0.641074462890625,0.13347405195236206,-0.5119050741195679,0.8407033085823059
1779989359180411100,0.6574111328125,0.08475755155086517,0.2301434874534607,0.740368664264679
1779989359196739300,0.6737392578125,-0.023976460099220276,0.5085453391075134,0.8103127479553223
1779989359213075200,0.6900751953125,-0.06322455406188965,0.5974262356758118,0.9188940525054932
1779989359229396700,0.706396728515625,-0.22663100063800812,0.8849910497665405,0.9662361145019531
1779989359245738000,0.722738037109375,-0.36529740691185,1.1774427890777588,0.9787588119506836
1779989359262078500,0.739078369140625,-0.36942076683044434,1.7527251243591309,0.48777589201927185
1779989359278390300,0.755390380859375,-0.3962988257408142,1.3072515726089478,0.23716843128204346
1779989359294738700,0.77173876953125,0.27977627515792847,2.3545801639556885,-0.07269296050071716
1779989359311071000,0.788071044921875,0.04153883829712868,2.381305456161499,-1.1059715747833252
1779989359327405800,0.80440576171875,0.15302173793315887,1.66781485080719,-0.6488916277885437
1779989359343737300,0.8207373046875,0.6525567770004272,4.398687839508057,-0.6026185750961304
1779989359360069000,0.837069091796875,0.054367005825042725,2.0583105087280273,-1.4062118530273438
1779989359376414700,0.853414794921875,0.18860463798046112,4.319581031799316,-0.16600263118743896
1779989359392735700,0.86973583984375,0.18646661937236786,2.9347493648529053,0.010079276748001575
1779989359409068500,0.886068603515625,0.626747727394104,1.268614411354065,-0.6369797587394714
1779989359425398500,0.9023984375,1.7373007535934448,2.0558669567108154,-1.6267341375350952
1779989359441736200,0.918736083984375,1.6954565048217773,1.5125023126602173,-2.0943515300750732
1779989359458067500,0.9350673828125,1.2841914892196655,0.9257662892341614,-2.230727195739746
1779989359474400800,0.95140087890625,1.5853480100631714,-1.5427402257919312,-2.1265745162963867
1779989359490733300,0.9677333984375,1.5595389604568481,-3.5669949054718018,-1.6471980810165405
1779989359507068400,0.984068359375,1.1687378883361816,-3.785684585571289,-1.1510227918624878
1779989359523396000,1.00039599609375,0.8985827565193176,-4.81102180480957,-1.7484490871429443
1779989359539731700,1.016731689453125,1.5583171844482422,-4.265672206878662,-1.9225456714630127
1779989359556065800,1.033065673828125,2.0615174770355225,-3.548516273498535,-1.9802724123001099
1779989359572396500,1.049396484375,0.817337691783905,-2.724306344985962,-1.2713632583618164
1779989359588712700,1.065712646484375,1.6537649631500244,-1.9254472255706787,-0.7738135457038879
1779989359605066200,1.082066162109375,2.8512134552001953,-1.977981686592102,0.03191770985722542
1779989359621391000,1.09839111328125,3.1919236183166504,-2.13314151763916,0.6664539575576782
1779989359637729500,1.1147294921875,3.1025846004486084,-2.3825271129608154,0.7434229850769043
1779989359654062600,1.1310625,3.8232529163360596,-2.7931814193725586,0.53328537940979
1779989359670395100,1.14739501953125,4.380514621734619,-0.9587529897689819,1.1210904121398926
1779989359686726000,1.163725830078125,3.138320207595825,0.4352414906024933,1.2391401529312134
1779989359703059700,1.180059814453125,1.7551685571670532,-0.660803496837616,-0.2122756689786911
1779989359719391700,1.196391845703125,1.0141890048980713,-0.3536909818649292,-0.14569136500358582
1779989359735721000,1.212720947265625,0.9356928467750549,0.0455094613134861,-0.09254608303308487
1779989359752060400,1.229060302734375,1.1030699014663696,1.1815661191940308,-0.7683157324790955
1779989359768391700,1.2453916015625,1.1896600723266602,1.136362075805664,-0.8533787727355957
1779989359784718600,1.261718505859375,1.4311045408248901,0.012522737495601177,0.076052725315094
1779989359801059300,1.278059326171875,1.3599387407302856,-1.6187928915023804,0.9537133574485779
1779989359817387000,1.294386962890625,1.0531316995620728,-1.7119498252868652,2.0334177017211914
1779989359833725400,1.310725341796875,0.7658722996711731,-0.9618073105812073,2.6532931327819824
1779989359850054400,1.327054443359375,0.07284568250179291,0.45753806829452515,3.293632745742798
1779989359866397200,1.343397216796875,0.00015271631127689034,-1.2994630336761475,2.015549898147583
1779989359882720800,1.359720703125,0.5490151643753052,-2.3344216346740723,0.3240640163421631
1779989359899046000,1.3760458984375,1.3060299158096313,-1.7902933359146118,-0.28298333287239075
1779989359915387100,1.39238720703125,1.3093897104263306,-1.9892827272415161,0.08536841720342636
1779989359931707400,1.408707275390625,3.486666202545166,-2.428189277648926,-0.3147483170032501
1779989359948059100,1.42505908203125,4.38356876373291,-1.7644842863082886,0.04734205827116966
1779989359964387300,1.44138720703125,2.1109976768493652,-2.185828447341919,0.1895209401845932
1779989359980718800,1.45771875,0.008399397134780884,-2.601980447769165,0.04734205827116966
1779989359997052000,1.474052001953125,-0.9885326623916626,-2.6806294918060303,-0.197004035115242
1779989360013383000,1.4903828125,-1.0974193811416626,-2.1783454418182373,-0.3029891550540924
1779989360029720000,1.506719970703125,-1.049924612045288,1.1484266519546509,-0.6524040699005127
1779989360046057200,1.52305712890625,-0.5952881574630737,4.699080944061279,-0.17608191072940826
1779989360062381000,1.539381103515625,-0.5048801302909851,3.9151880741119385,0.5155702829360962
1779989360078715600,1.555715576171875,-0.39125919342041016,-0.39538252353668213,0.9447031021118164
1779989360095056000,1.572055908203125,-0.3323107063770294,-2.3684773445129395,0.6885978579521179
1779989360111379500,1.58837939453125,-0.4184426963329315,-0.20570887625217438,0.12538009881973267
1779989360127712300,1.604712158203125,-0.14782938361167908,1.5777121782302856,-0.6221662759780884
1779989360144056300,1.621056396484375,-0.13439035415649414,1.7215709686279297,-0.888350784778595
1779989360160376000,1.6373759765625,-0.1485929638147354,1.3382530212402344,-0.6666067242622375
1779989360176712200,1.653712158203125,-0.13637566566467285,0.8602510094642639,-0.4072943925857544
1779989360193051400,1.670051513671875,-0.164170041680336,0.7550294399261475,-0.33567044138908386
1779989360209361000,1.68636083984375,-0.21899518370628357,0.7260133624076843,-0.29077184200286865
1779989360225712600,1.702712646484375,-0.2695443034172058,0.7565566301345825,-0.2379320114850998
1779989360242046700,1.719046630859375,-0.2548835277557373,0.841619610786438,-0.299476683139801
1779989360258377200,1.735377197265625,-0.1814269721508026,0.9049968719482422,-0.48197266459465027
1779989360274714400,1.75171435546875,-0.06887505948543549,0.9437867999076843,-0.6212499737739563
1779989360291046100,1.768046142578125,0.07330382615327835,0.9039278626441956,-0.6995934247970581
1779989360307374000,1.7843740234375,0.22510384023189545,0.884227454662323,-0.7191411256790161
1779989360323708000,1.8007080078125,0.27947086095809937,1.0141890048980713,-0.6424775123596191
1779989360340040200,1.817040283203125,0.26679539680480957,1.0273226499557495,-0.40775254368782043
1779989360356379000,1.83337890625,0.304210901260376,0.6580545902252197,-0.03405573591589928
1779989360372706800,1.849706787109375,0.399200439453125,0.35903605818748474,0.19746218621730804
1779989360389042000,1.8660419921875,0.47571131587028503,0.4915938079357147,0.2687807083129883
1779989360405368300,1.882368408203125,0.44974952936172485,0.8115344643592834,0.2883284091949463
1779989360421711400,1.89871142578125,0.39813143014907837,0.8481863737106323,0.4729624092578888
1779989360438037000,1.915037109375,0.2635883390903473,0.5873469114303589,0.7199047207832336
1779989360454374100,1.9313740234375,0.1365283876657486,0.34987306594848633,0.9248499870300293
1779989360470698200,1.9476982421875,0.2096794992685318,0.052228979766368866,0.9702067375183105
1779989360487041800,1.964041748046875,0.41859540343284607,-0.152105450630188,0.8097018599510193
1779989360503366400,1.980366455078125,0.5146539807319641,-0.24862214922904968,0.34926220774650574
1779989360519684600,1.9966845703125,0.5612324476242065,-0.14645494520664215,-0.30695977807044983
1779989360536036600,2.01303662109375,0.6243042945861816,-0.35185837745666504,-1.0195341110229492
1779989360552348200,2.02934814453125,0.6843217611312866,-0.6296493411064148,-1.8090773820877075
1779989360568702000,2.045701904296875,0.7667886018753052,-0.8242099285125732,-2.562732458114624
1779989360585024000,2.06202392578125,0.9311113357543945,-1.183704137802124,-3.1022791862487793
1779989360601366300,2.0783662109375,1.3141238689422607,-1.5712981224060059,-3.3823609352111816
1779989360617697800,2.09469775390625,1.8490891456604004,-1.4341589212417603,-3.4381022453308105
1779989360634036700,2.11103662109375,2.205528974533081,-0.37858372926712036,-3.5443928241729736
1779989360650366200,2.1273662109375,2.2206478118896484,1.2666290998458862,-3.6050212383270264
1779989360666697000,2.143697021484375,1.7411186695098877,2.50408935546875,-3.3559410572052
1779989360683032600,2.160032470703125,0.9509644508361816,2.683072805404663,-3.0054569244384766
1779989360699364400,2.1763642578125,0.299476683139801,1.935831904411316,-2.607630968093872
1779989360715697400,2.192697509765625,-0.11957687139511108,0.9447031021118164,-2.277763843536377
1779989360732031200,2.20903125,-0.3805690407752991,0.14492778480052948,-2.6784913539886475
1779989360748360000,2.22535986328125,-0.4918992519378662,-0.609338104724884,-3.3597588539123535
1779989360764697000,2.241697021484375,-0.4847215712070465,-1.0448850393295288,-3.702148914337158
1779989360781026600,2.258026611328125,-0.6565274000167847,-1.8151860237121582,-3.759722948074341
1779989360797364500,2.274364501953125,-0.9531024694442749,-2.152230978012085,-3.7258198261260986
1779989360813677000,2.290677001953125,-0.912021815776825,-1.834428310394287,-3.433826208114624
1779989360830012000,2.307011962890625,-0.8964447379112244,-1.628719449043274,-2.962085485458374
1779989360846363000,2.32336279296875,-0.8013024926185608,-1.669647455215454,-2.4808764457702637
1779989360862679300,2.33967919921875,-0.6743952035903931,-1.683544635772705,-2.1009182929992676
1779989360879023600,2.356023681640625,-0.651945948600769,-1.737911581993103,-1.782657504081726
1779989360895343000,2.372343017578125,-0.71318519115448,-1.6351335048675537,-1.2893837690353394
1779989360911676400,2.388676513671875,-0.8910996913909912,-1.277471899986267,-0.7353290319442749
1779989360928023300,2.405023193359375,-1.03037691116333,-0.5583308339118958,-0.10186178237199783
1779989360944357400,2.421357421875,-1.054964303970337,0.016340645030140877,0.4735732674598694
1779989360960690200,2.437690185546875,-0.9828822016716003,-0.04993823543190956,0.9491318464279175
1779989360977021400,2.454021484375,-0.9190467596054077,-0.5801692605018616,1.450346827507019
1779989360993355500,2.47035546875,-0.8093964457511902,-0.917061448097229,1.884366512298584
1779989361009691400,2.48669140625,-0.7113525867462158,-0.5487096905708313,1.8961256742477417
1779989361026021600,2.503021728515625,-0.7376197576522827,1.0409144163131714,1.2214250564575195
1779989361042352600,2.5193525390625,-0.5091561675071716,0.594524621963501,0.9793696999549866
1779989361058684200,2.53568408203125,-1.0198395252227783,0.14614951610565186,1.740355134010315
1779989361075024400,2.5520244140625,-1.2597568035125732,-0.19807305932044983,2.0790798664093018
1779989361091348500,2.568348388671875,-1.1591167449951172,-0.6759223937988281,2.241722822189331
1779989361107690200,2.584690185546875,-1.118036150932312,-0.33108896017074585,2.392911911010742
1779989361124019000,2.60101904296875,-0.935081958770752,0.08735372871160507,2.4721715450286865
1779989361140338700,2.617338623046875,-0.5004513263702393,0.46334129571914673,2.4799602031707764
1779989361156682800,2.633682861328125,0.13500121235847473,0.967915952205658,2.2824978828430176
1779989361173008100,2.650008056640625,0.8448266386985779,1.249066710472107,2.1088595390319824
1779989361189350100,2.66635009765625,1.358258843421936,0.6960809230804443,2.1000020503997803
1779989361205673700,2.682673828125,1.4072808027267456,-0.4888449013233185,1.889711618423462
1779989361222015500,2.699015380859375,1.0190759897232056,-1.4530956745147705,1.6423112154006958
1779989361238336000,2.7153359375,0.06185010448098183,-1.8206838369369507,1.7088955640792847
1779989361254681000,2.73168115234375,-0.702800452709198,-1.3510812520980835,1.8979582786560059
1779989361271014700,2.7480146484375,-0.9106473922729492,-0.5352706909179688,2.104888916015625
1779989361287345700,2.764345703125,-0.7835873961448669,-0.030543262138962746,1.9946277141571045
1779989361303679500,2.780679443359375,-0.6140722632408142,-0.25961771607398987,1.764331579208374
1779989361320012300,2.79701220703125,-0.5099197626113892,-0.5306891798973083,1.578475832939148
1779989361336351700,2.813351806640625,-0.541532039642334,-0.5722280144691467,1.479668378829956
1779989361352678100,2.82967822265625,-0.4349360466003418,-0.44058656692504883,1.3544409275054932
1779989361369009400,2.846009521484375,-0.17516560852527618,-0.4389066696166992,1.046717643737793
1779989361385344000,2.862343994140625,0.06780604273080826,-0.4541783034801483,0.7463245987892151
1779989361401678600,2.8786787109375,0.2116648107767105,-0.09651670604944229,0.640644907951355
1779989361418012400,2.895012451171875,0.10506882518529892,0.3400992155075073,0.5804746747016907
1779989361434339300,2.91133935546875,-0.0012217304902151227,0.598953366279602,0.5059491395950317
1779989361450670000,2.927670166015625,0.05207626149058342,0.9137017130851746,0.3813326358795166
1779989361467007700,2.9440078125,0.08231408894062042,0.9424123764038086,0.35934147238731384
1779989361483327500,2.960327392578125,0.15561792254447937,0.8761335015296936,0.43768495321273804
1779989361499674400,2.97667431640625,0.33796119689941406,0.7870998978614807,0.5128213763237
1779989361516006700,2.993006591796875,0.5248859524726868,0.26572638750076294,0.6322455406188965
1779989361532341000,3.009341064453125,0.6029239892959595,-0.41370847821235657,0.856433093547821
1779989361548673300,3.02567333984375,0.423329621553421,-0.5242751240730286,1.1174252033233643
1779989361565006800,3.0420068359375,0.20341812074184418,0.24129177629947662,1.3235923051834106
1779989361581339000,3.0583388671875,-0.0757472887635231,0.6215553879737854,1.3632985353469849
1779989361597672700,3.074672607421875,-0.2278527319431305,0.03756821155548096,1.3869695663452148
1779989361614004500,3.09100439453125,-0.38148534297943115,-0.22479841113090515,1.4582880735397339
1779989361630337800,3.107337890625,-0.5491678714752197,-0.3859141170978546,1.1323914527893066
1779989361646668500,3.12366845703125,-0.5119050741195679,-0.5691736936569214,0.45295658707618713
1779989361663006700,3.1400068359375,-0.1189660057425499,-0.39645153284072876,-0.41523563861846924
1779989361679332900,3.156332763671875,0.4573853611946106,-0.38896843791007996,-1.6165021657943726
1779989361695661600,3.17266162109375,0.9731083512306213,-0.564592182636261,-2.860987424850464
1779989361711999000,3.1889990234375,1.3231340646743774,-0.5508477091789246,-3.7429239749908447
1779989361728338200,3.205338134765625,1.7194329500198364,-0.1817324161529541,-4.296062469482422
1779989361744664000,3.2216640625,2.194075345993042,0.6275113224983215,-4.557818412780762
1779989361760990700,3.23799072265625,1.9921842813491821,1.6618589162826538,-4.271017074584961
1779989361777315300,3.2543154296875,1.3298536539077759,3.5822665691375732,-3.4746015071868896
1779989361793666800,3.270666748046875,0.7451028823852539,4.299727916717529,-2.359314203262329
1779989361809997600,3.28699755859375,0.2528982162475586,2.9972102642059326,-1.8904752731323242
1779989361826336000,3.3033359375,-0.005345070734620094,1.2712105512619019,-1.8579466342926025
1779989361842648300,3.3196484375,-0.03329215571284294,-0.2025018334388733,-1.7931948900222778
1779989361858985500,3.3359853515625,-0.05910121276974678,-1.208902359008789,-2.1765129566192627
1779989361875333400,3.35233349609375,0.19593502581119537,-1.1062769889831543,-3.1587841510772705
1779989361891664000,3.368663818359375,0.1875356286764145,-0.827111542224884,-3.5796704292297363
1779989361907995600,3.38499560546875,-0.16493362188339233,-0.722959041595459,-3.5220963954925537
1779989361924326100,3.401326171875,-0.36483925580978394,-0.7284567952156067,-3.2922582626342773
1779989361940660500,3.417660400390625,-0.4225660264492035,-0.6210972666740417,-2.962238311767578
1779989361956992800,3.43399267578125,-0.46639561653137207,-0.7021896243095398,-2.671771764755249
1779989361973330200,3.450330078125,-0.4749477207660675,-0.979216992855072,-2.406809091567993
1779989361989650700,3.466650634765625,-0.43050727248191833,-1.1870639324188232,-2.171931266784668
1779989362005993000,3.482992919921875,-0.4584543704986572,-1.0725266933441162,-1.826945185661316
1779989362022328300,3.499328369140625,-0.4963280260562897,-0.8689557909965515,-1.4381295442581177
1779989362038646300,3.515646240234375,-0.593302845954895,-0.4882340431213379,-0.8952230215072632
1779989362054992600,3.53199267578125,-0.7070765495300293,0.015882495790719986,-0.3217732608318329
1779989362071324000,3.548323974609375,-0.7739662528038025,0.355981707572937,0.1595885455608368
1779989362087646700,3.564646728515625,-0.7389942407608032,0.33536502718925476,0.6391177773475647
1779989362103990300,3.580990234375,-0.7305948138237,0.038179077208042145,1.1635456085205078
1779989362120325400,3.597325439453125,-0.8071057200431824,-0.15546520054340363,1.5839735269546509
1779989362136654800,3.61365478515625,-0.9286679029464722,-0.5280929803848267,1.9799669981002808
1779989362152990000,3.629989990234375,-1.112385630607605,-0.40256020426750183,2.5479190349578857
1779989362169307600,3.6463076171875,-1.0911580324172974,1.3912456035614014,2.1488711833953857
1779989362185655800,3.66265576171875,-0.5648976564407349,1.8306103944778442,1.5635095834732056
1779989362201987800,3.67898779296875,0.044135015457868576,0.4282165467739105,1.806023120880127
1779989362218321700,3.69532177734375,-0.5238169431686401,-0.2073887437582016,1.982105016708374
1779989362234653700,3.71165380859375,-0.9723447561264038,-0.23151792585849762,2.2342395782470703
1779989362250985700,3.72798583984375,-1.0461066961288452,0.5094616413116455,2.506990909576416
1779989362267318500,3.744318603515625,-0.8234463334083557,0.5688682794570923,2.629011392593384
1779989362283653400,3.7606533203125,-0.30146199464797974,0.7334964275360107,2.7348437309265137
1779989362299984600,3.776984619140625,0.32879820466041565,1.2501357793807983,2.713310718536377
1779989362316323000,3.793322998046875,0.8219192028045654,1.4130840301513672,2.671619176864624
1779989362332651300,3.8096513671875,0.7973318696022034,0.9069821834564209,2.830138683319092
1779989362348984600,3.825984619140625,0.8326093554496765,-0.016798794269561768,2.6004533767700195
1779989362365316600,3.842316650390625,0.9553932547569275,-1.4301882982254028,1.8419114351272583
1779989362381651700,3.858651611328125,0.4821254014968872,-2.6166412830352783,1.3350459337234497
1779989362397975300,3.874975341796875,-0.22571471333503723,-2.654820442199707,1.3510812520980835
1779989362414315300,3.891315185546875,-0.6976081132888794,-1.3232868909835815,1.611920714378357
1779989362430648000,3.90764794921875,-0.8058840036392212,-0.18127426505088806,1.8067866563796997
1779989362446982000,3.92398193359375,-0.6473644375801086,0.4207334518432617,1.7001906633377075
1779989362463314400,3.940314453125,-0.49235737323760986,0.22098049521446228,1.3469579219818115
1779989362479635700,3.9566357421875,-0.3969096839427948,-0.2428189367055893,1.0169379711151123
1779989362495980300,3.972980224609375,-0.3448334336280823,-0.14156801998615265,0.7735081315040588
1779989362512316700,3.989316650390625,-0.3101668357849121,0.23884831368923187,0.6559165716171265
1779989362528640000,4.005639892578125,-0.3222314119338989,0.3549126982688904,0.6218608021736145
1779989362544979500,4.0219794921875,-0.24617868661880493,0.3098613917827606,0.6424775123596191
1779989362561311000,4.03831103515625,0.03298672288656235,0.1498146951198578,0.46563202142715454
1779989362577644000,4.05464404296875,0.11041389405727386,0.23457226157188416,0.29168814420700073
1779989362593977900,4.070977783203125,0.14813482761383057,0.7086036801338196,0.25824329257011414
1779989362610311000,4.087310791015625,0.13041973114013672,1.474017858505249,0.42577308416366577
1779989362626641400,4.103641357421875,0.07513642311096191,1.76723313331604,0.764955997467041
1779989362642975000,4.11997509765625,0.16050484776496887,1.0447323322296143,1.0590876340866089
1779989362659305700,4.1363056640625,0.34055736660957336,-0.2451096773147583,1.2800681591033936
1779989362675642000,4.15264208984375,0.3404046595096588,-0.7929030656814575,1.5233452320098877
1779989362691974000,4.168973876953125,0.20265454053878784,-0.43447789549827576,1.7192802429199219
1779989362708307700,4.1853076171875,-0.054367005825042725,-0.17318029701709747,1.7568484544754028
1779989362724640800,4.201640869140625,-0.45891252160072327,-0.2428189367055893,1.471268892288208
1779989362740974000,4.21797412109375,-0.6579018831253052,-0.47189339995384216,0.816421389579773
1779989362757312300,4.234312255859375,-0.6007859706878662,0.027183502912521362,-0.16722436249256134
1779989362773639200,4.25063916015625,-0.365755558013916,0.9569203853607178,-1.1120802164077759
1779989362789972700,4.26697265625,0.07269296050071716,1.1491901874542236,-1.8225164413452148
1779989362806308600,4.28330859375,0.603076696395874,0.20570887625217438,-2.531883716583252
1779989362822636500,4.299636474609375,1.0870347023010254,-0.8651378750801086,-3.1984903812408447
1779989362838976500,4.3159765625,1.5578590631484985,-1.3889548778533936,-4.009719371795654
1779989362855301400,4.33230126953125,1.959502935409546,-0.9952521920204163,-4.721224784851074
1779989362871637000,4.348636962890625,1.9668333530426025,0.7956519722938538,-4.648531913757324
1779989362887958800,4.364958740234375,1.564884066581726,3.459177255630493,-3.6557230949401855
1779989362904300500,4.381300537109375,0.6724098920822144,4.638299942016602,-2.263866662979126
1779989362920624000,4.3976240234375,-0.16539175808429718,3.1887166500091553,-1.7708983421325684
1779989362936969000,4.413968994140625,-0.41661009192466736,1.124755620956421,-1.7153096199035645
1779989362953296000,4.4302958984375,-0.39874228835105896,-0.5201517343521118,-1.8651243448257446
1779989362969624800,4.446624755859375,-0.3917173445224762,-1.3122912645339966,-2.305863618850708
1779989362985966000,4.462966064453125,-0.20082195103168488,-1.2820534706115723,-3.0439414978027344
1779989363002300400,4.479300537109375,-0.14049901068210602,-1.0847439765930176,-3.500563383102417
1779989363018629600,4.495629638671875,-0.4697553813457489,-1.224173903465271,-3.6022722721099854
1779989363034966500,4.511966552734375,-0.7008151412010193,-1.2044734954833984,-3.3591480255126953
1779989363051297500,4.528297607421875,-0.7095199823379517,-1.4066699743270874,-3.0240883827209473
1779989363067631900,4.5446318359375,-0.6733261942863464,-1.4159855842590332,-2.747061014175415
1779989363083949600,4.560949462890625,-0.64217209815979,-1.4743232727050781,-2.504394769668579
1779989363100284000,4.577283935546875,-0.5694791078567505,-1.4978415966033936,-2.3599252700805664
1779989363124798700,4.601798828125,-0.5499314665794373,-1.169806957244873,-1.8539760112762451
1779989363141139200,4.61813916015625,-0.5442809462547302,-0.7486153841018677,-1.434922456741333
1779989363157459000,4.634458984375,-0.5607742667198181,-0.31123584508895874,-0.9101892113685608
1779989363173795800,4.6507958984375,-0.5707008838653564,0.08918632566928864,-0.4830417037010193
1779989363190130400,4.66713037109375,-0.547182559967041,0.31291571259498596,-0.12446379661560059
1779989363206460200,4.683460205078125,-0.5406157374382019,0.0981965884566307,0.22968533635139465
1779989363222792700,4.699792724609375,-0.6427829265594482,-0.0933096632361412,0.7541131377220154
1779989363239130000,4.716130126953125,-0.8420777320861816,-0.36621370911598206,1.3464996814727783
1779989363255460400,4.73246044921875,-1.0468703508377075,-0.6052147150039673,1.8452712297439575
1779989363271792000,4.748792236328125,-1.0538952350616455,0.18524488806724548,1.5780175924301147
1779989363288128000,4.7651279296875,-0.6905831694602966,1.266018271446228,1.4187345504760742
1779989363304458800,4.781458740234375,-0.2736676335334778,-0.1036943718791008,1.766927719116211
1779989363320792000,4.7977919921875,-0.3602577745914459,-1.247844934463501,1.7495180368423462
1779989363337123000,4.814123046875,-0.7449501752853394,-1.0335839986801147,2.085494041442871
1779989363353457400,4.83045751953125,-0.9734137654304504,0.3793473243713379,2.506227493286133
1779989363369790500,4.84679052734375,-0.7762570381164551,0.7922922372817993,2.671771764755249
1779989363386125800,4.863125732421875,-0.23029619455337524,0.8906415104866028,2.657569169998169
1779989363402452200,4.8794521484375,0.3220787048339844,0.9479101300239563,2.591137647628784
1779989363418784800,4.89578466796875,0.6540839672088623,0.8839219808578491,2.545628309249878
1779989363435121000,4.912120849609375,0.7785477638244629,0.5807801485061646,2.5815165042877197
1779989363451452400,4.928452392578125,0.6340781450271606,0.11255192011594772,2.5856399536132812
1779989363467790800,4.944790771484375,0.5097670555114746,-0.7293730974197388,2.331214427947998
1779989363484108500,4.961108642578125,0.11209376901388168,-1.922087550163269,2.012800931930542
1779989363500453600,4.97745361328125,-0.3579670190811157,-2.63191294670105,1.8611537218093872
1779989363516782600,4.993782470703125,-0.7958046793937683,-2.467284679412842,1.93766450881958
1779989363533125000,5.010125,-0.9647089242935181,-1.5183055400848389,1.984701156616211
1779989363549450200,5.0264501953125,-0.8871290683746338,-0.7559457421302795,1.8932241201400757
1779989363565774600,5.042774658203125,-0.6953173875808716,-0.44226643443107605,1.7548631429672241
1779989363582123500,5.05912353515625,-0.5497786998748779,-0.7179193496704102,1.575726866722107
1779989363598434300,5.075434326171875,-0.48288896679878235,-1.017396092414856,1.3600914478302002
1779989363614779600,5.091779541015625,-0.4308127164840698,-0.7765624523162842,1.076344609260559
1779989363631123700,5.108123779296875,-0.3376557528972626,-0.34834590554237366,0.8043568134307861
1779989363647449300,5.124449462890625,-0.27748554944992065,-0.06811147183179855,0.6763805150985718
1779989363663783000,5.140782958984375,-0.17088955640792847,-0.04153883829712868,0.5681046843528748
1779989363680118000,5.157117919921875,-0.06490442901849747,-0.1235474944114685,0.4108068645000458
1779989363696444400,5.1734443359375,0.03145955875515938,-0.275958389043808,0.1362229436635971
1779989363712785000,5.189784912109375,0.01114829070866108,-0.28725937008857727,-0.07269296050071716
1779989363729116400,5.206116455078125,-0.09758572280406952,0.10430523753166199,-0.009773843921720982
1779989363745446700,5.22244677734375,-0.04886921867728233,0.48059824109077454,0.12767083942890167
1779989363761781800,5.23878173828125,0.299476683139801,0.35903605818748474,0.13897185027599335
1779989363778116600,5.25511669921875,0.5419901609420776,-0.08765916526317596,0.10064005106687546
1779989363794444300,5.2714443359375,0.5161811113357544,-0.013286318629980087,0.1511891484260559
1779989363810779600,5.287779541015625,0.3827070891857147,0.12431107461452484,0.39614611864089966
1779989363827114000,5.304114013671875,0.3147483170032501,-0.36972618103027344,0.6727153658866882
1779989363843445200,5.3204453125,0.22586742043495178,-1.0848966836929321,1.1371256113052368
1779989363859776300,5.3367763671875,0.10186178237199783,-0.30741792917251587,1.7762434482574463
1779989363876113200,5.353113037109375,-0.08307767659425735,0.19883663952350616,2.1600193977355957
1779989363892443400,5.369443359375,-0.26022860407829285,-0.2915354371070862,2.3438899517059326
1779989363908777200,5.385777099609375,-0.2649627923965454,-0.8350527882575989,2.2600486278533936
1779989363925108700,5.402108642578125,-0.2356412708759308,-0.7295258045196533,1.7786868810653687
1779989363941442000,5.418442138671875,-0.08659014850854874,-0.6055201888084412,1.150259256362915
1779989363957776000,5.43477587890625,0.0003054326225537807,-0.837496280670166,0.5004513263702393
1779989363974110700,5.45111083984375,0.053297992795705795,-0.9888381361961365,0.029016099870204926
1779989363990440000,5.46743994140625,0.3315471112728119,-1.0096075534820557,-0.5954409241676331
1779989364006773200,5.483773193359375,0.7060074806213379,-1.2377656698226929,-1.6022995710372925
1779989364023108600,5.500108642578125,0.9188940525054932,-1.613295078277588,-2.5946500301361084
1779989364039439000,5.516439208984375,0.917672336101532,-1.7777706384658813,-3.372281551361084
1779989364055774200,5.532774169921875,0.7971791625022888,-1.4654656648635864,-4.014911651611328
1779989364072107300,5.549107177734375,0.6372851729393005,-0.5658139586448669,-4.561178207397461
1779989364088438500,5.5654384765625,0.3425426781177521,0.6614143252372742,-4.66090202331543
1779989364104755700,5.581755615234375,0.1411098688840866,1.9078848361968994,-4.26826810836792
1779989364121109500,5.598109619140625,0.06261368840932846,2.035250186920166,-3.8015670776367188
1779989364137437700,5.614437744140625,0.152105450630188,1.5380059480667114,-3.420081853866577
1779989364153776000,5.630776123046875,-0.19028452038764954,0.059864792972803116,-2.892446994781494
1779989364170104300,5.647104248046875,-0.6563746929168701,-2.4072673320770264,-2.079843521118164
1779989364186432500,5.6634326171875,-0.8257371187210083,-3.7537670135498047,-1.7531832456588745
1779989364202771500,5.679771484375,-1.0965031385421753,-1.7663168907165527,-3.888615369796753
1779989364219103000,5.69610302734375,-1.0126618146896362,-1.0868819952011108,-4.820184707641602
1779989364235435300,5.712435302734375,-0.9686795473098755,-1.2661709785461426,-4.794986724853516
1779989364251767800,5.728767822265625,-1.189049243927002,-1.6922494173049927,-4.690376281738281
1779989364268101000,5.74510107421875,-1.4624114036560059,-1.7606663703918457,-4.765359878540039
1779989364284430300,5.761430419921875,-1.4775303602218628,-2.4769058227539062,-4.782922267913818
1779989364300770000,5.77777001953125,-1.4912748336791992,-2.6960537433624268,-4.443739414215088
1779989364317098200,5.79409814453125,-1.2107349634170532,-2.3579399585723877,-3.7053558826446533
1779989364333434400,5.810434326171875,-0.9755517840385437,-2.199267625808716,-3.210555076599121
1779989364349761000,5.826760986328125,-0.9524916410446167,-2.041206121444702,-2.585028886795044
1779989364366101500,5.8431015625,-1.1478158235549927,-1.7127134799957275,-1.931708574295044
1779989364382431500,5.859431396484375,-1.3741413354873657,-1.4521794319152832,-1.2263119220733643
1779989364398765000,5.87576513671875,-1.591151237487793,-1.3420709371566772,-0.5181664228439331
1779989364415095000,5.892094970703125,-1.7886134386062622,-1.410946011543274,0.04612032696604729
1779989364431427800,5.908427734375,-1.9367482662200928,-1.5549575090408325,0.5676465034484863
1779989364447766500,5.9247666015625,-2.079843521118164,-1.9869918823242188,0.8092437386512756
1779989364464094700,5.9410947265625,-2.1838431358337402,-1.9677497148513794,0.7730499505996704
1779989364480415700,5.957415771484375,-2.289064884185791,-1.6604844331741333,0.5090034604072571
1779989364496760300,5.97376025390625,-2.2739458084106445,-1.7325665950775146,0.33047810196876526
1779989364513091300,5.99009130859375,-2.0398318767547607,-1.9028452634811401,0.17791450023651123
1779989364529418000,6.00641796875,-1.7814357280731201,-1.9741637706756592,-0.5444336533546448
1779989364545760300,6.02276025390625,-1.7174476385116577,-1.5025757551193237,-0.4314235746860504
1779989364562094300,6.03909423828125,-1.5667166709899902,-1.1636983156204224,0.5736024379730225
1779989364578423000,6.055423095703125,-0.8516988754272461,-1.0835222005844116,0.526107668876648
1779989364595042600,6.07204248046875,-0.40454551577568054,-1.2684617042541504,0.22663100063800812
1779989364611091500,6.088091552734375,-1.0409144163131714,0.13500121235847473,1.087492823600769
1779989364627424300,6.10442431640625,-1.1122329235076904,2.573575258255005,2.0832033157348633
1779989364643757800,6.1207578125,-0.4560109078884125,2.3353378772735596,2.1400136947631836
1779989364660089600,6.137089599609375,-0.38606682419776917,1.8275561332702637,2.17437481880188
1779989364676418300,6.153418212890625,-0.6788240075111389,1.3081679344177246,2.3687827587127686
1779989364692758300,6.16975830078125,-0.746630072593689,0.7715228199958801,2.2876904010772705
1779989364709088500,6.186088623046875,-0.5539020895957947,0.4602869749069214,2.0138700008392334
1779989364725421800,6.202421875,-0.5529857873916626,0.08017606288194656,1.96133553981781
1779989364741748700,6.218748779296875,-0.46792277693748474,-0.1644754707813263,2.0450241565704346
1779989364758087700,6.235087646484375,-0.2716823220252991,-0.03588833287358284,2.1560487747192383
1779989364774420700,6.251420654296875,0.04260785132646561,0.03222314268350601,2.169487953186035
1779989364790754300,6.26775439453125,0.483957976102829,-0.23579397797584534,2.09083890914917
1779989364807087000,6.284087158203125,0.8616254329681396,-0.8475755453109741,1.923156499862671
1779989364823417900,6.30041796875,0.9237809777259827,-1.8127425909042358,1.5598443746566772
1779989364839753000,6.3167529296875,0.5581781268119812,-3.6186130046844482,1.043968677520752
1779989364856084200,6.333084228515625,0.05955936014652252,-5.143027305603027,0.8448266386985779
1779989364872418000,6.34941796875,-0.41202861070632935,-5.006651401519775,0.9691377282142639
1779989364888751900,6.365751953125,-0.7046330571174622,-3.306002616882324,1.1372783184051514
1779989364905082400,6.382082275390625,-1.0729848146438599,-2.1036672592163086,1.58259916305542
1779989364921416000,6.398416015625,-1.4761558771133423,-2.2128593921661377,1.8707748651504517
1779989364937749800,6.414749755859375,-1.7460055351257324,-2.5213463306427,1.966986060142517
1779989364954084900,6.4310849609375,-1.3874276876449585,-2.158034086227417,1.9375118017196655
1779989364970413000,6.4474130859375,-0.8768970370292664,-1.5543465614318848,1.768760323524475
1779989364986742500,6.463742431640625,-0.5291619896888733,-1.2495248317718506,1.4228578805923462
1779989365003083800,6.480083740234375,-0.30085113644599915,-0.7235698699951172,0.963792622089386
1779989365019414500,6.49641455078125,-0.1368338167667389,-0.794277548789978,0.47830748558044434
1779989365035747000,6.5127470703125,0.16890424489974976,-1.2095131874084473,0.2064724564552307
1779989365052068600,6.529068603515625,0.42012256383895874,-1.3602441549301147,0.11652254313230515
1779989365068412700,6.54541259765625,0.43127086758613586,-0.9928087592124939,0.1846340149641037
1779989365084745500,6.561745361328125,0.21792617440223694,-0.3384193480014801,0.39248090982437134
1779989365101077500,6.578077392578125,-0.03985895588994026,0.2119702398777008,0.6275113224983215
1779989365117411000,6.5944111328125,-0.06368270516395569,0.5600107312202454,0.8248208165168762
1779989365133745000,6.610744873046875,0.04688390716910362,0.2825251817703247,0.8710938692092896
1779989365150083000,6.6270830078125,0.20463985204696655,-0.20311269164085388,0.8781188130378723
1779989365166412300,6.643412353515625,0.34437528252601624,-0.4726569950580597,0.9456194043159485
1779989365182743800,6.659743896484375,0.3865249752998352,-0.35262197256088257,1.1062769889831543
1779989365199075300,6.676075439453125,0.22815817594528198,-0.10980302840471268,1.3223705291748047
1779989365215410400,6.692410400390625,-0.08552113175392151,0.01725694350898266,1.4917329549789429
1779989365231742700,6.70874267578125,-0.3689626157283783,-0.4411974251270294,1.6145168542861938
1779989365248073500,6.725073486328125,-0.34208452701568604,-0.8315402865409851,1.6175711154937744
1779989365264409000,6.7414091796875,0.04703662544488907,-1.2844969034194946,1.344361662864685
1779989365280729300,6.757729248046875,0.3016147017478943,-1.6723963022232056,0.865290641784668
1779989365297054000,6.774053955078125,0.5096143484115601,-1.6022995710372925,0.12782354652881622
1779989365313407200,6.7904072265625,0.7052439451217651,-1.4611896276474,-1.1720976829528809
1779989365329739000,6.806739013671875,0.6716463565826416,-1.3640620708465576,-2.2928826808929443
1779989365346072800,6.82307275390625,0.44593164324760437,-1.2009611129760742,-3.1925344467163086
1779989365362404400,6.839404296875,0.0988074541091919,-1.176526427268982,-3.858377695083618
1779989365378727400,6.8557275390625,-0.32360586524009705,-1.179580807685852,-4.318817138671875
1779989365395070500,6.872070556640625,-0.5804746747016907,-0.8987354636192322,-4.498106002807617
1779989365411409000,6.888408935546875,-0.5803219676017761,-0.29397889971733093,-4.20336389541626
1779989365427734300,6.904734375,-0.4973970353603363,0.09498954564332962,-3.8121044635772705
1779989365444070400,6.9210703125,-0.4332561790943146,0.13958270847797394,-3.5660786628723145
1779989365460409000,6.9374091796875,-0.16920967400074005,0.3718642294406891,-3.534619092941284
1779989365476736500,6.953736572265625,-0.13607023656368256,0.24495697021484375,-3.4822373390197754
1779989365493068300,6.970068359375,-0.28527405858039856,-0.6771441102027893,-3.138014793395996
1779989365509393700,6.9863935546875,-0.6795876026153564,-1.811673641204834,-2.6482534408569336
1779989365525734400,7.002734375,-1.2990049123764038,-0.9634872078895569,-3.288593053817749
1779989365542075400,7.019075439453125,-1.6505578756332397,-0.32131510972976685,-4.10287618637085
1779989365558407700,7.03540771484375,-1.788002610206604,-0.8132143616676331,-4.424954891204834
1779989365574731800,7.051731689453125,-1.9843957424163818,-1.4694362878799438,-4.325842380523682
1779989365591069000,7.06806884765625,-2.1256582736968994,-1.9872974157333374,-4.209167003631592
1779989365607400000,7.08439990234375,-2.09694766998291,-1.9074267148971558,-3.740786075592041
1779989365623733200,7.100733154296875,-2.0728185176849365,-2.143373489379883,-3.285844087600708
1779989365640066800,7.11706689453125,-1.8807014226913452,-2.2954788208007812,-2.912147283554077
1779989365656403700,7.13340380859375,-1.7114917039871216,-2.2773056030273438,-2.4359779357910156
1779989365672732400,7.149732421875,-1.6198619604110718,-2.1000020503997803,-1.777923345565796
1779989365689066000,7.16606591796875,-1.4944818019866943,-1.8576412200927734,-1.154382586479187
1779989365705395700,7.182395751953125,-1.3232868909835815,-1.4495831727981567,-0.564592182636261
1779989365721733400,7.1987333984375,-1.0865765810012817,-1.3048081398010254,-0.08078692853450775
1779989365738065700,7.215065673828125,-0.9101892113685608,-1.296408772468567,0.24587325751781464
1779989365754396200,7.231396240234375,-0.8269588351249695,-1.2571606636047363,0.43936482071876526
1779989365770730800,7.247730712890625,-0.765566885471344,-1.2541064023971558,0.5157229900360107
1779989365787061500,7.2640615234375,-0.6869179606437683,-1.2875511646270752,0.5676465034484863
1779989365803394800,7.280394775390625,-0.8011497855186462,-1.2189816236495972,0.5797111392021179
1779989365819729000,7.29672900390625,-1.2147055864334106,-0.9567676782608032,1.0334312915802002
1779989365836062500,7.3130625,-1.3130548000335693,-0.7930558323860168,1.0607675313949585
1779989365852394200,7.329394287109375,-1.2921327352523804,-1.106735110282898,1.102917194366455
1779989365868728000,7.34572802734375,-1.2545645236968994,-1.2880094051361084,1.5647313594818115
1779989365885062700,7.362062744140625,-1.2240211963653564,-1.2996158599853516,1.7805194854736328
1779989365901394000,7.378393798828125,-1.1749993562698364,-0.717613935470581,2.0134117603302
1779989365917713400,7.39471337890625,-1.0529789924621582,0.35750889778137207,2.3909265995025635
1779989365934061300,7.411061279296875,-0.660192608833313,1.0844385623931885,2.722168207168579
1779989365950399700,7.427399658203125,0.02076941914856434,1.3866641521453857,2.783254861831665
1779989365966723800,7.443723876953125,0.675616979598999,1.0868819952011108,2.593122959136963
1779989365983059200,7.46005908203125,0.9495900273323059,0.5972734689712524,2.4407119750976562
1779989365999378700,7.476378662109375,0.9590584635734558,0.04046982154250145,2.322815179824829
1779989366015723500,7.4927236328125,0.7512115240097046,-0.7632761001586914,2.040748119354248
1779989366032055600,7.5090556640625,0.32268956303596497,-1.665218710899353,1.9019289016723633
1779989366048376600,7.52537646484375,-0.14553864300251007,-2.043802499771118,2.015244483947754
1779989366064723200,7.54172314453125,-0.5493205785751343,-1.8800904750823975,2.311819553375244
1779989366081057300,7.558057373046875,-0.9269880056381226,-1.1725558042526245,2.574338912963867
1779989366097387300,7.57438720703125,-1.2263119220733643,-0.5392413139343262,2.668870210647583
1779989366113721600,7.5907216796875,-1.4275920391082764,0.0529925599694252,2.626720666885376
1779989366130059000,7.60705908203125,-1.4828753471374512,0.5966626405715942,2.431701898574829
1779989366146391800,7.623391845703125,-0.8504771590232849,0.5106833577156067,1.9214766025543213
1779989366162719500,7.639719482421875,-0.031001411378383636,-0.00015271631127689034,1.1753047704696655
1779989366179058400,7.656058349609375,0.28435778617858887,-0.598953366279602,0.5542075037956238
1779989366195386400,7.672386474609375,0.3917173445224762,-0.6745479702949524,0.2958115041255951
1779989366211700700,7.68870068359375,0.34666603803634644,-0.3901901841163635,0.0064140851609408855
1779989366228059400,7.705059326171875,0.14996741712093353,0.03985895588994026,-0.22647829353809357
1779989366244381000,7.721380859375,0.06734789162874222,0.588263213634491,-0.48976120352745056
1779989366260721700,7.7377216796875,0.08704829961061478,0.9445503950119019,-0.6189591884613037
1779989366277034800,7.75403466796875,0.09758572280406952,1.0781772136688232,-0.42577308416366577
1779989366293379600,7.770379638671875,-0.019547687843441963,1.5031867027282715,-0.026572637259960175
1779989366309721300,7.786721435546875,-0.15286903083324432,2.066251754760742,0.4179845452308655
1779989366326056200,7.80305615234375,-0.07987063378095627,1.7982345819473267,0.6960809230804443
1779989366342381800,7.8193818359375,0.2744311988353729,0.43799036741256714,0.8720101118087769
1779989366358716400,7.83571630859375,0.4505131244659424,-1.0264062881469727,1.2229522466659546
1779989366375040300,7.852040283203125,0.2632829248905182,-0.9801332950592041,1.7340936660766602
1779989366391380700,7.868380615234375,0.08964447677135468,-0.3539963960647583,2.062739133834839
1779989366407710000,7.8847099609375,-0.10216721147298813,-0.21930062770843506,2.0564777851104736
1779989366424053200,7.90105322265625,-0.26603180170059204,-0.12629638612270355,1.689195156097412
1779989366440379100,7.917379150390625,-0.45173484086990356,-0.2028072625398636,1.144608736038208
1779989366456712400,7.93371240234375,-0.5132794976234436,-0.4268420934677124,0.6583600044250488
1779989366473050000,7.950050048828125,-0.26893341541290283,-0.36880987882614136,0.17287486791610718
1779989366489380000,7.966380126953125,0.019394971430301666,0.16600263118743896,-0.7211264371871948
1779989366505709300,7.982709228515625,0.3116939961910248,0.6766859889030457,-1.6475036144256592
1779989366522052900,7.999052978515625,0.5677992701530457,0.7061602473258972,-2.4248294830322266
1779989366538378000,8.0153779296875,0.726471483707428,0.6679811477661133,-3.023782968521118
1779989366554710500,8.03171044921875,0.903775155544281,0.5900958180427551,-3.472310781478882
1779989366571043800,8.0480439453125,1.0490083694458008,0.5064072608947754,-3.838219165802002
1779989366587379200,8.064379150390625,0.9286679029464722,0.7521278262138367,-4.073707580566406
1779989366603713500,8.080713623046876,0.7037167549133301,1.2270755767822266,-3.8154642581939697
1779989366620046000,8.097046142578124,0.3410155177116394,2.437199592590332,-2.975830078125
1779989366636380000,8.1133798828125,0.07559457421302795,2.866332530975342,-2.245082378387451
1779989366652708900,8.129708984375,-0.20005837082862854,1.8851301670074463,-1.881770372390747
1779989366669044000,8.1460439453125,-0.3810271918773651,0.42241331934928894,-1.800678014755249
1779989366685372000,8.162371826171874,-0.3604104816913605,-0.5057964324951172,-2.1484131813049316
1779989366701710300,8.17871044921875,-0.05803219974040985,-0.6737843751907349,-2.901151657104492
1779989366718043100,8.195043212890624,-0.379652738571167,2.0170769691467285,-2.2156083583831787
1779989366734373600,8.21137353515625,-0.260992169380188,-1.8162550926208496,-3.886019229888916
1779989366750706700,8.227706787109375,-0.45814892649650574,-1.6013832092285156,-3.780186891555786
1779989366767040300,8.244040283203125,-0.6774495840072632,-1.1016954183578491,-2.9917125701904297
1779989366783372300,8.260372314453125,-0.8246681094169617,-1.0555751323699951,-2.5309674739837646
1779989366799704800,8.276704833984375,-0.7444919943809509,-1.2841914892196655,-2.2899811267852783
1779989366816026600,8.293026611328125,-0.5500841736793518,-1.3990341424942017,-2.0951151847839355
1779989366832366000,8.309365966796875,-0.42149701714515686,-1.3713924884796143,-1.7902933359146118
1779989366848695000,8.325695068359375,-0.4612032473087311,-1.181107997894287,-1.420719861984253
1779989366865027000,8.342027099609375,-0.5283984541893005,-0.8449793457984924,-1.0070114135742188
1779989366881371100,8.35837109375,-0.6017022728919983,-0.2519819140434265,-0.5587889552116394
1779989366897704700,8.37470458984375,-0.6328563690185547,-0.02122756652534008,-0.07177666574716568
1779989366914037800,8.391037841796875,-0.6663012504577637,-0.1963931769132614,0.5032002329826355
1779989366930369000,8.407369140625,-0.7382306456565857,-0.43478333950042725,1.0974193811416626
1779989366946690600,8.423690673828125,-0.7825183868408203,-0.5650503635406494,1.7475327253341675
1779989366963037700,8.44003759765625,-0.6985244154930115,-0.23350323736667633,2.1284072399139404
1779989366979355600,8.456355712890625,-0.5482515692710876,0.9124799370765686,1.6505578756332397
1779989366995702000,8.472701904296875,-0.21120665967464447,1.2791517972946167,1.4607315063476562
1779989367012022800,8.489022705078124,-0.13744467496871948,0.5192354321479797,1.8573358058929443
1779989367028367400,8.505367431640625,-0.5143485069274902,0.04077525436878204,1.8084665536880493
1779989367044701400,8.521701416015626,-0.7611380815505981,-0.13225232064723969,2.176970958709717
1779989367061033200,8.538033203125,-0.7724391222000122,0.7353290319442749,2.73606538772583
1779989367077366000,8.554365966796874,-0.5838344693183899,1.0835222005844116,3.0673069953918457
1779989367093699800,8.570699951171875,-0.16233743727207184,1.214552879333496,3.226590156555176
1779989367110019800,8.587019775390624,0.32940909266471863,1.6131423711776733,3.241403818130493
1779989367126368500,8.603368408203124,0.726471483707428,1.9995146989822388,3.082426071166992
1779989367142696400,8.619696533203125,1.177748203277588,1.9645426273345947,2.872899293899536
1779989367159035100,8.63603515625,1.5027284622192383,1.4903584718704224,2.590679407119751
1779989367175356700,8.652356689453125,1.5260940790176392,-0.20586158335208893,1.8923077583312988
1779989367191696100,8.668696044921875,1.0268645286560059,-2.185370445251465,1.1371256113052368
1779989367208014800,8.685014892578126,0.36789360642433167,-2.5216517448425293,1.1504119634628296
1779989367224366600,8.70136669921875,-0.21074850857257843,-1.5612188577651978,1.5134186744689941
1779989367240697600,8.717697509765625,-0.5467243790626526,-0.7564038634300232,1.6172657012939453
1779989367257028400,8.7340283203125,-0.6620252132415771,-0.20265454053878784,1.5555683374404907
1779989367273348000,8.75034814453125,-0.6423248052597046,0.013133603148162365,1.4355332851409912
1779989367289694200,8.766694091796875,-0.654542088508606,-0.07101308554410934,1.3877331018447876
1779989367306028000,8.783028076171876,-0.44089198112487793,-0.7200574278831482,1.2870930433273315
1779989367322362400,8.7993623046875,-0.0858265683054924,-1.4188872575759888,0.8994990587234497
1779989367338695000,8.81569482421875,0.022602014243602753,-1.6745343208312988,0.4616613984107971
1779989367355026700,8.832026611328125,0.00855211354792118,-1.1271990537643433,0.4164573848247528
1779989367371360800,8.84836083984375,-0.038026362657547,-0.5571091175079346,0.4213443100452423
1779989367387693300,8.864693359375,-0.015882495790719986,-0.17623461782932281,0.1560760736465454
1779989367404024600,8.881024658203126,-0.09224065393209457,0.2716823220252991,0.09911288321018219
1779989367420359200,8.897359130859375,-0.07177666574716568,0.6821837425231934,0.20234911143779755
1779989367436690700,8.913690673828125,-0.047189339995384216,1.0005972385406494,0.38499781489372253
1779989367453025000,8.93002490234375,0.06414084881544113,1.1368201971054077,0.5401576161384583
1779989367469355800,8.946355712890625,0.3078760802745819,0.8014551997184753,0.5578727126121521
1779989367485693400,8.962693359375,0.6006332635879517,0.04856378585100174,0.5539020895957947
1779989367502024200,8.979024169921875,0.7357872128486633,-0.46441030502319336,0.5656611919403076
1779989367518356500,8.9953564453125,0.6495024561882019,-0.3640756905078888,0.6120869517326355
1779989367534690000,9.01168994140625,0.5002986192703247,0.030695978552103043,0.8694139719009399
1779989367551022600,9.028022705078126,0.44089198112487793,-0.05054909735918045,0.9712757468223572
1779989367567356000,9.04435595703125,0.21731531620025635,-0.3094032406806946,0.9914342761039734
1779989367583687200,9.060687255859374,-0.03940080851316452,-0.21960605680942535,1.0512990951538086
1779989367600022500,9.0770224609375,-0.19013181328773499,0.048105638474226,0.9908234477043152
1779989367616357000,9.093357177734376,-0.17821992933750153,-0.2431243658065796,0.6727153658866882
1779989367632686000,9.10968603515625,-0.055894169956445694,-0.2987131178379059,0.1560760736465454
1779989367649021200,9.126021240234374,0.09651670604944229,0.025503624230623245,-0.5586362481117249
1779989367665356800,9.142356689453125,0.3237585723400116,0.027488935738801956,-1.3295482397079468
1779989367681682700,9.1586826171875,0.5462662577629089,-0.17027868330478668,-2.1702516078948975
1779989367698019600,9.17501953125,0.6633996367454529,-0.2698497176170349,-2.9836184978485107
1779989367714352400,9.191352294921876,0.7455610036849976,-0.20173825323581696,-3.6548068523406982
1779989367730684000,9.207683837890626,0.7057020664215088,0.20662516355514526,-4.028045654296875
1779989367747016700,9.2240166015625,0.5864306092262268,1.185231328010559,-3.807065010070801
1779989367763349800,9.240349853515625,0.5123631954193115,2.132683277130127,-3.2586605548858643
1779989367779685600,9.256685546875,0.4141666293144226,2.386345148086548,-2.699413537979126
1779989367796017000,9.273016845703125,0.22357667982578278,2.1655173301696777,-2.199420213699341
1779989367812365000,9.289364990234375,0.060933809727430344,1.6013832092285156,-1.9172005653381348
1779989367828683000,9.30568310546875,-0.03726277872920036,0.8584184050559998,-1.9970711469650269
1779989367845013000,9.322012939453124,-0.13958270847797394,0.2278527319431305,-2.3484714031219482
1779989367861351700,9.3383515625,-0.078343465924263,-0.5177083015441895,-2.81960129737854
1779989367877683000,9.354682861328126,-0.24465152621269226,-1.1064296960830688,-2.956434965133667
1779989367894013200,9.37101318359375,-0.4954117238521576,-1.1913399696350098,-3.0633363723754883
1779989367910334700,9.387334716796875,-0.7160868048667908,-0.7802276611328125,-3.2070424556732178
1779989367926674000,9.403673828125,-0.759916365146637,-0.661719799041748,-3.059823989868164
1779989367943008000,9.420008056640626,-0.7153232097625732,-0.8994990587234497,-2.833193063735962
1779989367959346000,9.436345947265625,-0.6146831512451172,-1.2599095106124878,-2.6844472885131836
1779989367975680000,9.452679931640626,-0.5238169431686401,-1.3987287282943726,-2.531730890274048
1779989367992012300,9.46901220703125,-0.4534147381782532,-1.3761266469955444,-2.291661024093628
1779989368008344600,9.485344482421874,-0.5623014569282532,-0.9355401396751404,-1.8373299837112427
1779989368024677400,9.501677490234375,-0.722959041595459,-0.5343543887138367,-1.260367751121521
1779989368041010200,9.51801025390625,-0.8764389157295227,-0.18417587876319885,-0.5670356750488281
1779989368057344000,9.534343994140626,-0.9738719463348389,0.06612616032361984,0.08506298810243607
1779989368073677300,9.55067724609375,-0.9753990769386292,0.16264286637306213,0.41599923372268677
1779989368089997000,9.5669970703125,-0.8773552179336548,0.20066922903060913,0.5400048494338989
1779989368106333400,9.58333349609375,-0.8316930532455444,0.18096883594989777,0.7250970602035522
1779989368122676000,9.599676025390625,-0.931569516658783,0.05772676691412926,1.1197160482406616
1779989368139009800,9.616009765625,-1.1354458332061768,-0.22372940182685852,1.6175711154937744
1779989368155341800,9.632341796875,-1.334587812423706,-0.3061962127685547,1.965458869934082
1779989368171687400,9.6486875,-1.1369729042053223,0.1547016203403473,2.205528974533081
1779989368188008200,9.66500830078125,-0.749531626701355,0.5526803135871887,1.9650007486343384
1779989368204338700,9.681338623046875,-0.33826664090156555,-0.14355333149433136,1.39323091506958
1779989368220676900,9.6976767578125,-0.33246341347694397,-1.4558446407318115,1.6549866199493408
1779989368237005600,9.714005615234376,-0.46502116322517395,-0.697149932384491,2.149940252304077
1779989368253328400,9.730328369140626,-0.47250425815582275,0.24877487123012543,2.579989433288574
1779989368269672000,9.746671875,-0.3095559775829315,0.7447974681854248,2.7372870445251465
1779989368285997600,9.76299755859375,-0.08445212244987488,1.2904528379440308,2.788599729537964
1779989368302342000,9.779341796875,0.09560041129589081,1.9182696342468262,2.852587938308716
1779989368318669300,9.79566943359375,0.2756529450416565,2.1989622116088867,2.7039949893951416
1779989368335004700,9.812004638671874,0.7192938327789307,1.8205311298370361,2.473088026046753
1779989368351336000,9.8283359375,1.1896600723266602,1.0435105562210083,2.283566951751709
1779989368367667000,9.8446669921875,1.3975069522857666,0.1111774742603302,1.9863810539245605
1779989368384005600,9.861005615234374,1.311833143234253,-1.3142765760421753,1.4016302824020386
1779989368400334300,9.877334228515625,1.102611780166626,-2.796846628189087,0.9685268402099609
1779989368416667400,9.89366748046875,0.6785185933113098,-3.319136381149292,1.1438452005386353
1779989368433001500,9.91000146484375,-0.11239920556545258,-2.4181101322174072,1.6195564270019531
1779989368449332200,9.926332275390624,-0.7380779385566711,-1.0705413818359375,2.018756866455078
1779989368465666800,9.942666748046875,-1.0561859607696533,-0.13057245314121246,2.263866662979126
1779989368482001200,9.959001220703126,-1.17240309715271,0.19792033731937408,2.342362880706787
1779989368498334000,9.975333984375,-1.0713049173355103,-0.5972734689712524,2.009593963623047
1779989368514666500,9.99166650390625,-0.5710062980651855,-1.1545352935791016,1.5390750169754028
1779989368530997500,10.00799755859375,-0.2704605758190155,-1.3561208248138428,1.0980303287506104
1779989368547333000,10.0243330078125,-0.16065755486488342,-0.9118691086769104,0.9790642857551575
1779989368563665200,10.0406650390625,-0.1739438772201538,-0.48838675022125244,1.0965031385421753
1779989368579998500,10.05699853515625,-0.17821992933750153,-0.23640485107898712,1.0905472040176392
1779989368596334600,10.07333447265625,-0.14782938361167908,-0.14706580340862274,1.10139000415802
1779989368612662800,10.089662841796875,-0.12064588814973831,-0.04337143152952194,0.8571966290473938
1779989368628997600,10.10599755859375,-0.1768454909324646,-0.03573561832308769,0.5016731023788452
1779989368645313800,10.122313720703126,-0.08781187981367111,-0.3998112976551056,0.16539175808429718
1779989368661665800,10.138665771484375,0.048716504126787186,-0.43417248129844666,-0.128434419631958
1779989368677996500,10.15499658203125,-0.012064588256180286,-0.10461067408323288,-0.2223549485206604
1779989368694329300,10.171329345703125,-0.17470745742321014,0.26313021779060364,-0.14553864300251007
1779989368710662000,10.187661865234375,-0.2347249686717987,0.47418415546417236,-0.11453723162412643
1779989368726994400,10.203994384765625,-0.15424346923828125,0.24159720540046692,-0.15806138515472412
1779989368743315200,10.220315185546875,-0.016035212203860283,0.011453723534941673,0.013591751456260681
1779989368759662600,10.23666259765625,-0.02519819140434265,0.4554000496864319,0.4303545653820038
1779989368775992300,10.252992431640624,-0.1771509200334549,1.1074986457824707,0.8090910315513611
1779989368792328700,10.26932861328125,-0.21319197118282318,1.010829210281372,1.3283264636993408
1779989368808656600,10.28565673828125,0.033139441162347794,0.3165809214115143,1.7818939685821533
1779989368824992000,10.301991943359376,0.304669052362442,-0.0757472887635231,1.8559613227844238
1779989368841322500,10.318322509765625,0.45524731278419495,0.19028452038764954,1.9573649168014526
1779989368857659100,10.3346591796875,0.4596760869026184,0.3413209617137909,2.0567831993103027
1779989368874001700,10.351001708984375,0.4986187517642975,0.03527746722102165,2.1140518188476562
1779989368890325000,10.367324951171875,0.4538728892803192,-0.32009339332580566,1.9671387672424316
1779989368906644200,10.383644287109375,0.18096883594989777,-0.28038713335990906,1.6026049852371216
1779989368922990300,10.399990234375,0.29336804151535034,-0.5491678714752197,1.0010554790496826
1779989368939324200,10.41632421875,0.7179193496704102,-1.4975361824035645,0.20494529604911804
1779989368955656400,10.432656494140625,0.9004153609275818,-1.7527251243591309,-0.5546656250953674
1779989368971993300,10.448993408203124,0.9879218339920044,-1.4621059894561768,-1.4840971231460571
1779989368988322300,10.465322265625,0.902247965335846,-1.396132469177246,-2.433687210083008
1779989369004655000,10.481655029296874,0.5371032953262329,-1.8697057962417603,-3.327230215072632
1779989369020988200,10.49798828125,-0.20830504596233368,-2.15543794631958,-3.9451205730438232
1779989369037318400,10.514318359375,-1.0025825500488281,-1.0600038766860962,-3.7424659729003906
1779989369053655800,10.53065576171875,-1.2026410102844238,0.20204368233680725,-3.1279354095458984
1779989369069986600,10.546986572265626,-0.39324450492858887,0.3862195611000061,-2.782796621322632
1779989369086333400,10.56333349609375,0.18967366218566895,-1.0141890048980713,-2.746602773666382
1779989369102652400,10.57965234375,0.09712757170200348,-2.1653645038604736,-2.5747969150543213
1779989369118986500,10.595986572265625,-0.09529497474431992,-2.934596538543701,-2.3403775691986084
1779989369135319800,10.61231982421875,-0.03985895588994026,-4.026670932769775,-2.093129873275757
1779989369151651800,10.62865185546875,0.29825496673583984,-5.161505699157715,-1.9607247114181519
1779989369167984600,10.644984619140626,0.5526803135871887,-6.578713417053223,-1.8182404041290283
1779989369184318500,10.661318359375,0.6730207800865173,-7.154911994934082,-2.8160886764526367
1779989369200650200,10.677650146484375,0.3119994103908539,-3.8811323642730713,-3.793320417404175
1779989369216983300,10.6939833984375,-0.26862800121307373,-1.775479793548584,-3.375030517578125
1779989369233315600,10.710315673828125,-0.6214026808738708,-1.4075862169265747,-2.422844171524048
1779989369249638700,10.726638671875,-0.7211264371871948,-1.2124147415161133,-2.032501459121704
1779989369265983000,10.74298291015625,-1.1892019510269165,-1.423621416091919,-2.3881776332855225
1779989369282316500,10.759316650390625,-1.5673274993896484,-2.581669330596924,-2.643213987350464
1779989369298648300,10.7756484375,-1.845423936843872,-3.69848370552063,-2.4950790405273438
1779989369314982400,10.791982421875,-2.1621575355529785,-4.021783828735352,-2.205223560333252
1779989369331314700,10.808314697265626,-2.5612051486968994,-4.021173000335693,-2.120924234390259
1779989369347647700,10.824647705078124,-2.736370801925659,-3.8420369625091553,-2.3066272735595703
1779989369363975200,10.84097509765625,-2.722015619277954,-3.6283867359161377,-2.4779748916625977
1779989369380317700,10.857317626953124,-2.828458786010742,-3.6859610080718994,-2.5361597537994385
1779989369396645400,10.873645263671875,-2.9190194606781006,-3.7317757606506348,-2.3709206581115723
1779989369412979000,10.88997900390625,-2.894737720489502,-3.771787405014038,-2.3293819427490234
1779989369429300700,10.90630078125,-2.864805221557617,-3.8350119590759277,-2.5581510066986084
1779989369445647600,10.922647705078125,-2.8066203594207764,-3.6829066276550293,-2.707813024520874
1779989369461960700,10.938960693359375,-2.794250249862671,-3.601508855819702,-2.6816983222961426
1779989369478311700,10.955311767578126,-2.800359010696411,-3.52805233001709,-2.453387498855591
1779989369494643200,10.971643310546876,-2.7853927612304688,-3.462231397628784,-2.160935878753662
1779989369510977300,10.987977294921874,-2.6896395683288574,-3.1251866817474365,-1.8411478996276855
1779989369527308800,11.004308837890624,-2.640923261642456,-2.7475192546844482,-1.567480206489563
1779989369543643000,11.020642822265625,-2.6542093753814697,-2.411390542984009,-1.3439035415649414
1779989369559976400,11.0369765625,-2.790890693664551,-2.135432243347168,-0.987463653087616
1779989369576314600,11.053314697265625,-2.9918651580810547,-2.085646629333496,-0.47601673007011414
1779989369592642000,11.06964208984375,-3.1583261489868164,-1.996307611465454,0.13500121235847473
1779989369608976000,11.085975830078125,-3.3063080310821533,-1.8440494537353516,0.6757696866989136
1779989369625307600,11.1023076171875,-3.2867605686187744,-1.6093244552612305,1.0112874507904053
1779989369641636900,11.118636962890625,-3.143512487411499,-1.834122896194458,1.1652255058288574
1779989369657973200,11.13497314453125,-2.870150327682495,-2.3134994506835938,1.305266261100769
1779989369674307000,11.15130712890625,-2.643671989440918,-2.448195219039917,0.7971791625022888
1779989369690640400,11.167640380859375,-2.580142021179199,-2.7519478797912598,-0.03130684420466423
1779989369706972000,11.183971923828125,-1.9049832820892334,-3.517514705657959,-0.41202861070632935
1779989369723304700,11.2003046875,-0.9069821834564209,-2.1458168029785156,-0.13698652386665344
1779989369739651300,11.2166513671875,-0.15012013912200928,-1.5862643718719482,-0.12919799983501434
1779989369755970800,11.232970703125,0.21380282938480377,-2.043038845062256,0.055894169956445694
1779989369772305700,11.2493056640625,0.3055853247642517,-2.1673498153686523,-0.24037547409534454
1779989369788623400,11.265623291015626,-0.5934556126594543,-0.6627888083457947,1.1563678979873657
1779989369804960500,11.28196044921875,-1.0561859607696533,1.7127134799957275,2.048841953277588
1779989369821301000,11.298301025390625,-0.8819366693496704,2.4993550777435303,2.1290180683135986
1779989369837636900,11.314636962890624,-0.636521577835083,1.5960382223129272,1.6591099500656128
1779989369853971000,11.330970947265625,-0.35033121705055237,0.41172316670417786,1.3640620708465576
1779989369870300000,11.3472998046875,-0.14034628868103027,0.23151792585849762,1.5961909294128418
1779989369886634200,11.36363427734375,0.03878994286060333,0.5242751240730286,1.862222671508789
1779989369902964700,11.37996484375,0.12293662875890732,0.8342891931533813,2.079385280609131
1779989369919301600,11.396301513671874,0.265573650598526,1.1033753156661987,2.199420213699341
1779989369935632100,11.412632080078126,0.4772384762763977,1.3043500185012817,2.258674144744873
1779989369951970800,11.428970703125,0.7031059265136719,1.284038782119751,2.2516493797302246
1779989369968286200,11.4452861328125,0.9599747061729431,1.1646145582199097,2.1152737140655518
1779989369984633300,11.46163330078125,1.074817419052124,1.0273226499557495,1.9234619140625
1779989370000966400,11.47796630859375,1.1204795837402344,0.5804746747016907,1.7623462677001953
1779989370017297000,11.494296875,1.0231993198394775,0.025045474991202354,1.5903877019882202
1779989370033632300,11.51063232421875,0.6879869699478149,-0.6053674817085266,1.3518447875976562
1779989370049966800,11.526966796875,0.21670444309711456,-1.2602150440216064,1.0754282474517822
1779989370066292700,11.543292724609374,-0.1742493063211441,-1.5874860286712646,0.7841982841491699
1779989370082631400,11.55963134765625,-0.42302417755126953,-1.3144292831420898,0.503963828086853
1779989370098962700,11.575962646484374,-0.6872233748435974,-0.651029646396637,0.3959933817386627
1779989370115297500,11.592297607421875,-1.0096075534820557,-0.07987063378095627,0.4332561790943146
1779989370131628800,11.60862890625,-1.2353222370147705,0.19868391752243042,0.5279402732849121
1779989370147964700,11.624964599609376,-1.1815661191940308,0.5054910182952881,0.8126034736633301
1779989370164294100,11.641294189453125,-0.9556986689567566,0.8895725011825562,1.0758863687515259
1779989370180629800,11.657629638671875,-0.6768386960029602,0.7486153841018677,0.8962920308113098
1779989370196963600,11.673963623046875,-0.33276882767677307,0.546571671962738,0.42638394236564636
1779989370213292500,11.69029248046875,-0.17791450023651123,0.6725626587867737,0.16508632898330688
1779989370229614600,11.706614501953124,-0.08689557760953903,0.9056077003479004,0.12263119965791702
1779989370245962000,11.7229619140625,0.07757988572120667,1.0118982791900635,0.18295414745807648
1779989370262292500,11.73929248046875,0.22342395782470703,0.8938485980033875,0.260992169380188
1779989370278626000,11.7556259765625,0.3147483170032501,0.7887797355651855,0.3439171314239502
1779989370294960400,11.77196044921875,0.36422839760780334,0.7840455174446106,0.5099197626113892
1779989370311292400,11.78829248046875,0.43417248129844666,0.5401576161384583,0.7590000629425049
1779989370327626000,11.8046259765625,0.5338962078094482,0.05314527451992035,1.0039570331573486
1779989370343959300,11.820959228515624,0.5494732856750488,-0.2551889419555664,1.3110694885253906
1779989370360291600,11.83729150390625,0.4576907753944397,-0.3478877544403076,1.5902349948883057
1779989370376623600,11.85362353515625,0.24755313992500305,-0.2919935882091522,1.6423112154006958
1779989370392956200,11.8699560546875,0.08460483700037003,-0.380721777677536,1.511891484260559
1779989370409277400,11.88627734375,0.022143865004181862,-0.45524731278419495,1.3269519805908203
1779989370425624000,11.9026240234375,-0.22907446324825287,-0.12034045159816742,1.2643383741378784
1779989370441943600,11.918943603515626,-0.5407684445381165,0.10293079167604446,1.169501543045044
1779989370458289400,11.935289306640625,-0.17791450023651123,-0.30925053358078003,0.6104071140289307
1779989370474622700,11.951622802734375,0.25992316007614136,-0.8197811841964722,-0.043676864355802536
1779989370490955800,11.967955810546876,0.3914119005203247,-1.1650726795196533,-0.47769662737846375
1779989370507288000,11.9842880859375,0.3856086730957031,-1.3681854009628296,-0.9943358898162842
1779989370523622000,12.000621826171875,0.2405281960964203,-1.4234687089920044,-1.6022995710372925
1779989370539953000,12.016952880859375,0.08307767659425735,-1.4019356966018677,-2.2730295658111572
1779989370556287000,12.033286865234375,0.20051652193069458,-1.0997101068496704,-3.126866579055786
1779989370572620300,12.049620361328126,0.4075998365879059,-0.22602014243602753,-3.9064831733703613
1779989370588954000,12.0659541015625,0.46364670991897583,1.2735012769699097,-4.060879230499268
1779989370605272600,12.0822724609375,0.3225368559360504,3.0082058906555176,-3.5460727214813232
1779989370621619200,12.098619140625,0.014966198243200779,3.3910655975341797,-2.7592782974243164
1779989370637945600,12.114945556640626,-0.4723515510559082,1.3800972700119019,-1.9172005653381348
1779989370654285800,12.131285888671876,-0.7159340381622314,-0.3433062732219696,-1.9763017892837524
1779989370670618400,12.147618408203124,-0.5050328373908997,-1.3318389654159546,-2.827237129211426
1779989370686950000,12.163949951171874,-0.08277224004268646,-2.233934164047241,-3.7846155166625977
1779989370703282400,12.180282470703125,-0.001679879380390048,-2.294562578201294,-3.891822576522827
1779989370719617800,12.19661767578125,-0.17516560852527618,-1.4856243133544922,-3.5880696773529053
1779989370735950300,12.212950439453126,-0.33368512988090515,-0.6227771043777466,-3.5721871852874756
1779989370752283600,12.22928369140625,-0.45814892649650574,-0.46670106053352356,-3.612351655960083
1779989370768615200,12.245615234375,-0.5511531829833984,-0.8257371187210083,-3.6757287979125977
1779989370784949200,12.26194921875,-0.4075998365879059,-1.0932960510253906,-3.439629554748535
1779989370801284400,12.278284423828126,-0.20922134816646576,-1.0418306589126587,-3.039665460586548
1779989370817616000,12.294615966796876,-0.059406645596027374,-1.035416603088379,-2.5314254760742188
1779989370833944800,12.31094482421875,-0.03955352306365967,-1.052215337753296,-1.995696783065796
1779989370850282800,12.32728271484375,-0.098502017557621,-1.015868902206421,-1.3208433389663696
1779989370866600400,12.343600341796876,-0.17669276893138885,-0.736245334148407,-0.4271475374698639
1779989370882927000,12.359927001953125,-0.26939156651496887,-0.3173444867134094,0.45784351229667664
1779989370899266300,12.376266357421875,-0.23686300218105316,0.10522153973579407,1.2192870378494263
1779989370915612700,12.39261279296875,-0.13240504264831543,0.22082778811454773,1.819920301437378
1779989370931943400,12.408943359375,-0.04398229718208313,0.15241087973117828,2.138028383255005
1779989370948281300,12.42528125,0.06551529467105865,-0.1059851199388504,2.306474447250366
1779989370964606500,12.4416064453125,-0.02687807008624077,0.4332561790943146,2.448500633239746
1779989370980944600,12.457944580078125,-0.08689557760953903,1.2134838104248047,2.0703749656677246
1779989370997273000,12.474273193359375,0.0007635815418325365,1.1493430137634277,1.9854648113250732
1779989371013614000,12.490614013671875,-0.0682641938328743,1.1756101846694946,2.4746150970458984
1779989371029942000,12.50694189453125,-0.024129176512360573,-0.08429940044879913,2.47568416595459
1779989371046260500,12.523260498046875,-0.22663100063800812,-0.11407908797264099,2.669481039047241
1779989371062596400,12.539596435546875,-0.3065016269683838,0.04612032696604729,2.8267788887023926
1779989371078946000,12.555946044921875,-0.13897185027599335,0.04596760869026184,2.967430591583252
1779989371095275500,12.572275634765624,0.18051068484783173,0.22052235901355743,2.8875601291656494
1779989371111608600,12.588608642578125,0.4308127164840698,0.6464481353759766,2.6308438777923584
1779989371127941400,12.60494140625,0.8452847599983215,0.8839219808578491,2.386803150177002
1779989371144260900,12.6212607421875,1.006095051765442,0.09605856239795685,2.09083890914917
1779989371160582700,12.637582763671874,0.651029646396637,-1.3513866662979126,1.8664987087249756
1779989371176942300,12.6539423828125,0.052381694316864014,-2.0986275672912598,1.8677204847335815
1779989371193273600,12.670273681640625,-0.4524984359741211,-1.6606371402740479,1.965153455734253
1779989371209591600,12.686591552734376,-0.8497135639190674,-0.7808384895324707,2.0115792751312256
1779989371225942800,12.70294287109375,-1.0013608932495117,-0.1823432743549347,1.9611828327178955
1779989371242260500,12.719260498046875,-0.9133962392807007,0.27458393573760986,1.8241963386535645
1779989371258602200,12.735602294921875,-0.5433646440505981,0.46242499351501465,1.5297592878341675
1779989371274926800,12.7519267578125,-0.05406157299876213,0.26022860407829285,1.1282681226730347
1779989371291271000,12.76827099609375,0.09315694868564606,-0.4671591818332672,0.7896960377693176
1779989371307603200,12.784603271484375,0.09544769674539566,-0.8323038816452026,0.7451028823852539
1779989371323936800,12.800936767578126,0.01863138936460018,-0.9327912330627441,0.7499898076057434
1779989371340269800,12.817269775390624,0.0032070425804704428,-0.6027712821960449,0.6398813724517822
1779989371356601900,12.833601806640624,0.024892758578062057,-0.27718010544776917,0.5155702829360962
1779989371372936400,12.8499365234375,0.023060163483023643,0.055741455405950546,0.4202753007411957
1779989371389258500,12.866258544921875,-0.005650503560900688,0.3341432809829712,0.3364340364933014
1779989371405598700,12.8825986328125,-0.07895433157682419,0.7017314434051514,0.28420504927635193
1779989371421938400,12.8989384765625,-0.03573561832308769,1.394299864768982,0.28466320037841797
1779989371438267400,12.915267333984374,0.12858712673187256,1.605048418045044,0.3390302062034607
1779989371454601000,12.93160107421875,0.22067506611347198,1.0503827333450317,0.5522221922874451
1779989371470932500,12.947932373046875,0.2503020465373993,0.44577890634536743,0.9476047158241272
1779989371487267600,12.964267578125,0.3153591752052307,-0.12079860270023346,1.2356276512145996
1779989371503599900,12.980599853515624,0.38896843791007996,-0.10002918541431427,1.256244421005249
1779989371519932700,12.9969326171875,0.35705074667930603,0.280539870262146,1.2322678565979004
1779989371536263700,13.013263671875,0.3013092875480652,0.6101016402244568,1.2637274265289307
1779989371552598500,13.0295986328125,0.21334469318389893,0.5128213763237,1.263269305229187
1779989371568932000,13.04593212890625,0.046731192618608475,0.3654501438140869,1.1681270599365234
1779989371585260300,13.06226025390625,-0.2002110779285431,0.5845980644226074,0.9692904353141785
1779989371601599500,13.078599609375,-0.06582073122262955,0.612850546836853,0.43218716979026794
1779989371617930500,13.094930419921875,0.27122417092323303,0.10567969083786011,-0.23273965716362
1779989371634263600,13.111263671875,0.48258355259895325,-0.2788599729537964,-0.9915869832038879
1779989371650596400,13.127596435546875,0.6278167366981506,-0.33536502718925476,-1.849547266960144
1779989371666939000,13.14393896484375,0.6133087277412415,-0.40072759985923767,-2.725069761276245
1779989371683262200,13.16026220703125,0.3842342495918274,-0.10812314599752426,-3.3576207160949707
1779989371699586800,13.1765869140625,0.01542434748262167,0.4648684561252594,-3.802177906036377
1779989371715928300,13.19292822265625,-0.3010038435459137,1.4358386993408203,-3.875176429748535
1779989371732260900,13.2092607421875,-0.37048977613449097,2.434298038482666,-3.556915521621704
1779989371748592600,13.225592529296875,-0.2874121069908142,3.017979860305786,-3.1062498092651367
1779989371764927200,13.24192724609375,-0.17791450023651123,2.8212811946868896,-2.5196664333343506
1779989371781260000,13.258260009765625,0.10506882518529892,1.8249598741531372,-2.1392500400543213
1779989371797582800,13.274582763671875,0.24602597951889038,0.6892086863517761,-1.88864266872406
1779989371822092300,13.29909228515625,0.3078760802745819,-2.1956024169921875,-2.034792184829712
1779989371838425300,13.31542529296875,0.5461135506629944,-1.9575176239013672,-2.657416582107544
1779989371854758400,13.33175830078125,0.46792277693748474,-0.3549126982688904,-3.051424503326416
1779989371871091700,13.348091796875,0.20311269164085388,0.08735372871160507,-3.0773863792419434
1779989371887422700,13.364422607421876,-0.23487769067287445,-0.24587325751781464,-3.045010566711426
1779989371903757800,13.3807578125,-0.5943718552589417,-0.6710354685783386,-3.1644346714019775
1779989371920087600,13.397087646484374,-0.6409503817558289,-0.9608910083770752,-3.258049726486206
1779989371936451300,13.413451416015626,-0.671493649482727,-0.9066767692565918,-3.0590603351593018
1779989371952756000,13.429755859375,-0.646295428276062,-0.9361509680747986,-2.6846001148223877
1779989371969089000,13.446089111328124,-0.5797111392021179,-0.8874344825744629,-2.333352565765381
1779989371985421000,13.462421142578124,-0.4190535545349121,-0.7250970602035522,-1.9908097982406616
1779989372001757000,13.4787568359375,-0.3094032406806946,-0.6907358765602112,-1.6916385889053345
1779989372018089500,13.49508935546875,-0.30222558975219727,-0.6444628238677979,-1.2321151494979858
1779989372034407200,13.5114072265625,-0.3039054572582245,-0.48655417561531067,-0.5907067060470581
1779989372050742800,13.52774267578125,-0.3433062732219696,-0.20891591906547546,0.10506882518529892
1779989372067088600,13.544088623046875,-0.37919458746910095,0.14156801998615265,0.7480044960975647
1779989372083420200,13.560420166015625,-0.3484986126422882,0.2710714638233185,1.348484992980957
1779989372099753000,13.5767529296875,-0.3364340364933014,-0.05849034711718559,1.8926132917404175
1779989372116082000,13.59308203125,-0.33200526237487793,-0.5621487498283386,2.2899811267852783
1779989372132418600,13.60941845703125,-0.5253441333770752,0.20234911143779755,2.2204952239990234
1779989372148752100,13.625752197265625,-0.7124215960502625,1.2667818069458008,2.303725481033325
1779989372165084000,13.642083984375,-0.16829337179660797,1.7020232677459717,2.2602014541625977
1779989372181416400,13.65841650390625,-0.12492194026708603,0.6583600044250488,1.9900462627410889
1779989372197738800,13.67473876953125,-0.4605923891067505,-0.30634891986846924,1.8657351732254028
1779989372214082000,13.69108203125,-0.6059783101081848,0.08338310569524765,2.22782564163208
1779989372230417200,13.707417236328125,-0.4251621961593628,0.5763513445854187,2.520430088043213
1779989372246748700,13.723748779296875,-0.08918632566928864,0.5978843569755554,2.5775458812713623
1779989372263081700,13.740081787109375,0.28435778617858887,0.9085093140602112,2.4191792011260986
1779989372279393300,13.756393310546875,0.8205447196960449,1.2832751274108887,2.1655173301696777
1779989372295749600,13.77274951171875,1.4902057647705078,0.9327912330627441,2.1317670345306396
1779989372312082700,13.789082763671875,1.623068928718567,-0.5549710988998413,2.1510093212127686
1779989372328408800,13.805408935546875,0.9923505783081055,-1.9372063875198364,1.7328720092773438
1779989372344750600,13.82175048828125,0.25182920694351196,-1.8991800546646118,1.7212655544281006
1779989372361079800,13.838079833984375,-0.36560285091400146,-1.504713773727417,2.048689365386963
1779989372377412400,13.854412353515626,-0.8701775670051575,-0.854905903339386,2.1151208877563477
1779989372393724000,13.870723876953125,-1.0687087774276733,-0.4486805200576782,1.9369009733200073
1779989372410079500,13.88707958984375,-0.983951210975647,-0.2779437005519867,1.7626516819000244
1779989372426413800,13.903413818359375,-0.8929322957992554,0.14874568581581116,1.6633861064910889
1779989372442726700,13.9197265625,-0.8011497855186462,0.394618958234787,1.7102699279785156
1779989372459078400,13.936078369140626,-0.5120577812194824,-0.13820825517177582,1.6357444524765015
1779989372475411500,13.952411376953124,-0.24174992740154266,-1.0319041013717651,1.3544409275054932
1779989372491744800,13.968744873046875,-0.09636399149894714,-1.235169529914856,1.124755620956421
1779989372508076500,13.98507666015625,-0.04566217586398125,-0.927446186542511,0.8087855577468872
1779989372524411400,14.001411376953126,-0.06918048858642578,-0.2324342280626297,0.5616905689239502
1779989372540743400,14.017743408203126,-0.01114829070866108,0.30604347586631775,0.4054618179798126
1779989372557086500,14.03408642578125,0.06200282275676727,0.4518875777721405,0.19715675711631775
1779989372573412400,14.050412353515625,0.12538009881973267,0.7199047207832336,0.017562376335263252
1779989372589742800,14.066742919921875,0.2790127098560333,1.0952813625335693,-0.06918048858642578
1779989372606073900,14.083073974609375,0.3885102868080139,1.3209960460662842,-0.030543262138962746
1779989372622408400,14.099408447265626,0.4622722864151001,0.9283624291419983,0.17592918872833252
1779989372638741800,14.11574169921875,0.5389358401298523,-0.11270463466644287,0.32650747895240784
1779989372655069000,14.13206884765625,0.5447390675544739,-0.4867068827152252,0.4066835343837738
1779989372671411700,14.14841162109375,0.4859432876110077,-0.0858265683054924,0.5059491395950317
1779989372687740400,14.164740478515625,0.4479169547557831,0.1082758679986,0.6925684809684753
1779989372704072400,14.181072509765626,0.31291571259498596,-0.17791450023651123,0.8294022679328918
1779989372720406800,14.19740673828125,0.1085812970995903,-0.1293507218360901,1.0277807712554932
1779989372736737800,14.21373779296875,-0.09651670604944229,0.11010845750570297,1.1702650785446167
1779989372753071600,14.230071533203125,-0.22159136831760406,-0.13087788224220276,1.0257954597473145
1779989372769393200,14.24639306640625,-0.24113905429840088,-0.5954409241676331,0.7333437204360962
1779989372785738800,14.26273876953125,-0.18600846827030182,-0.6472117304801941,0.22602014243602753
1779989372802073000,14.279072998046875,-0.03680463135242462,-0.4712825417518616,-0.4331034719944
1779989372818401000,14.295401123046876,0.2197587788105011,-0.5705481171607971,-1.0946705341339111
1779989372834736600,14.311736572265625,0.46700647473335266,-0.6664539575576782,-1.8257235288619995
1779989372851069700,14.328069580078125,0.6550002694129944,-0.49098294973373413,-2.578920364379883
1779989372867401700,14.344401611328125,0.7742717266082764,0.08002334833145142,-3.2925636768341064
1779989372883735300,14.3607353515625,0.9242390990257263,0.7360926270484924,-3.847534656524658
1779989372900081000,14.377080810546875,1.1740829944610596,1.1927143335342407,-4.021631240844727
1779989372916415000,14.3934150390625,1.1943942308425903,1.9759963750839233,-3.8792996406555176
1779989372932734000,14.40973388671875,0.9156870245933533,2.5112669467926025,-3.011871099472046
1779989372949067800,14.42606787109375,0.4795292317867279,2.5914430618286133,-1.7595973014831543
1779989372965398300,14.442398193359375,0.25014930963516235,2.1474967002868652,-1.1546880006790161
1779989372981737700,14.45873779296875,0.17470745742321014,1.3339769840240479,-1.425454020500183
1779989372998066000,14.47506591796875,-0.09544769674539566,0.5464189648628235,-1.9905043840408325
1779989373014399000,14.49139892578125,-0.12736541032791138,-0.1414152979850769,-2.64138126373291
1779989373030727700,14.507727783203125,-0.11407908797264099,-1.0685560703277588,-3.2206342220306396
1779989373047065600,14.524065673828124,-0.2047925740480423,-1.7510452270507812,-3.5181257724761963
1779989373063398400,14.5403984375,-0.33460143208503723,-1.6183347702026367,-3.570812702178955
1779989373079732000,14.55673193359375,-0.49953505396842957,-1.0651962757110596,-3.4151949882507324
1779989373096065300,14.573065185546875,-0.6201809644699097,-0.7790058851242065,-3.2511775493621826
1779989373112398000,14.589398193359376,-0.6062837839126587,-0.8329147696495056,-3.1112895011901855
1779989373128730600,14.605730712890624,-0.5413793325424194,-1.016479730606079,-2.9384145736694336
1779989373145062700,14.622062744140624,-0.4421137273311615,-1.0534371137619019,-2.649933338165283
1779989373161396200,14.638396240234375,-0.3885102868080139,-0.8837692737579346,-2.300060272216797
1779989373177730000,14.65472998046875,-0.4476115107536316,-0.6316346526145935,-1.921934723854065
1779989373194049800,14.6710498046875,-0.5048801302909851,-0.45875978469848633,-1.442100167274475
1779989373210394600,14.68739453125,-0.5885686874389648,-0.3582724630832672,-0.7733554244041443
1779989373226725000,14.70372509765625,-0.769690215587616,-0.2295326143503189,-0.13087788224220276
1779989373243064300,14.720064208984375,-0.940121591091156,-0.1036943718791008,0.49327367544174194
1779989373259396000,14.73639599609375,-1.031598687171936,-0.2968805134296417,1.1346821784973145
1779989373275728000,14.752727783203126,-1.0826059579849243,-0.5949827432632446,1.785253643989563
1779989373292062200,14.769062255859374,-1.1409435272216797,-0.7945829629898071,2.137722969055176
1779989373308393700,14.785393798828125,-1.1659890413284302,-0.5426010489463806,1.7675385475158691
1779989373324726000,14.80172607421875,-1.254717230796814,0.3874412775039673,1.8127425909042358
1779989373341062000,14.818061767578126,-0.5873469114303589,1.3359622955322266,1.7954856157302856
1779989373357380900,14.834380859375,-0.2499966025352478,0.3419318199157715,1.879937767982483
1779989373373726200,14.850726318359374,-0.5071708559989929,-0.6627888083457947,1.8014415502548218
1779989373390054400,14.867054443359375,-1.0974193811416626,0.342695415019989,2.451096773147583
1779989373406417700,14.883417724609375,-1.1241447925567627,1.1368201971054077,3.040276288986206
1779989373422724000,14.89972412109375,-0.8068002462387085,1.2078332901000977,3.1638238430023193
1779989373439060200,14.916060302734374,-0.342695415019989,1.328937292098999,2.847090244293213
1779989373455377700,14.932377685546875,0.13041973114013672,1.4546228647232056,2.5503623485565186
1779989373471723500,14.9487236328125,0.8188648819923401,0.9344711303710938,2.326022148132324
1779989373488057900,14.965057861328125,1.085965633392334,0.361174076795578,2.05433988571167
1779989373504389600,14.9813896484375,0.9590584635734558,-0.6539312601089478,1.6924021244049072
1779989373520720100,14.99772021484375,0.6362161636352539,-1.7641788721084595,1.5167783498764038
1779989373537054500,15.014054443359376,0.21792617440223694,-2.3906211853027344,1.6617062091827393
1779989373553388000,15.030387939453124,-0.13255776464939117,-2.4295637607574463,1.7516560554504395
1779989373569719600,15.046719482421874,-0.451582133769989,-2.0001256465911865,1.6688838005065918
1779989373586061000,15.06306103515625,-0.7215845584869385,-1.209971308708191,1.6551393270492554
1779989373602387200,15.07938720703125,-0.7881689071655273,-0.45662176609039307,1.8064812421798706
1779989373618720500,15.095720458984376,-0.7877107262611389,0.03420845419168472,2.018604278564453
1779989373635060500,15.112060546875,-0.5606215596199036,-0.275347501039505,1.8906279802322388
1779989373651383800,15.1283837890625,-0.13897185027599335,-0.7869471311569214,1.44057297706604
1779989373667719700,15.1447197265625,0.014049900695681572,-1.1302534341812134,0.973566472530365
1779989373684056800,15.161056884765625,-0.06627888232469559,-0.6446155309677124,0.9618073105812073
1779989373700385000,15.177385009765626,-0.2102903574705124,-0.005955935921519995,1.0053315162658691
1779989373716715800,15.1937158203125,-0.3020728528499603,0.6640105247497559,0.9071348905563354
1779989373733056300,15.21005615234375,-0.3196352422237396,0.8665123581886292,0.7464773058891296
1779989373749384000,15.226384033203125,-0.21242839097976685,0.5169447064399719,0.4908302128314972
1779989373765717500,15.242717529296876,-0.11468994617462158,0.43417248129844666,0.2840523421764374
1779989373782049000,15.259049072265626,-0.03145955875515938,0.5099197626113892,0.13668109476566315
1779989373798382800,15.2753828125,0.12217304855585098,0.470671683549881,-0.01878410577774048
1779989373814715600,15.291715576171875,0.21471913158893585,0.4841107130050659,-0.1293507218360901
1779989373831055000,15.30805517578125,0.2402227520942688,0.6960809230804443,-0.04932736977934837
1779989373847380000,15.3243798828125,0.30146199464797974,0.7319692969322205,0.21471913158893585
1779989373863715300,15.34071533203125,0.35781431198120117,0.4888449013233185,0.43768495321273804
1779989373880052000,15.357052001953125,0.3202461004257202,0.4970915913581848,0.6563746929168701
1779989373896388000,15.37338818359375,0.2785545587539673,0.622624397277832,0.9187413454055786
1779989373912699600,15.38969970703125,0.34162637591362,0.551305890083313,1.1601858139038086
1779989373929053700,15.4060537109375,0.4346306324005127,0.3433062732219696,1.2779301404953003
1779989373945361000,15.42236083984375,0.46761733293533325,0.2831360399723053,1.3678799867630005
1779989373961717500,15.438717529296875,0.3588833212852478,0.17669276893138885,1.3596333265304565
1779989373978045400,15.45504541015625,0.18707747757434845,0.030543262138962746,1.2180652618408203
1779989373994378500,15.47137841796875,0.0022907445672899485,-0.09743300825357437,1.0557278394699097
1779989374010698200,15.4876982421875,-0.05207626149058342,-0.21670444309711456,1.0502300262451172
1779989374027045000,15.504045166015626,0.08811730891466141,-0.4248567819595337,0.894001305103302
1779989374043377000,15.520376953125,0.403781920671463,-0.8158105611801147,0.394618958234787
1779989374059712800,15.536712646484375,0.8778133392333984,-1.014647126197815,-0.2356412708759308
1779989374076045600,15.553045654296875,1.1928671598434448,-1.0803152322769165,-0.9534079432487488
1779989374092374500,15.56937451171875,1.1826350688934326,-1.0445796251296997,-1.5699236392974854
1779989374108696300,15.5856962890625,0.9857838153839111,-0.9636399149894714,-2.018604278564453
1779989374125045000,15.602044921875,0.5525276064872742,-0.707534670829773,-2.4378104209899902
1779989374141373000,15.618373046875,0.011453723534941673,-0.08384125679731369,-2.742021322250366
1779989374157711000,15.634711181640625,-0.3827070891857147,0.6553056836128235,-2.7872254848480225
1779989374174043100,15.651043212890626,-0.5955936312675476,0.8895725011825562,-2.6471846103668213
1779989374190374100,15.6673740234375,-0.5140430927276611,0.42500948905944824,-2.2997548580169678
1779989374206705700,15.68370556640625,-0.35262197256088257,-0.27290403842926025,-1.8666514158248901
1779989374223044000,15.700044189453125,-0.20097467303276062,-0.9824240207672119,-1.588249683380127
1779989374239371000,15.71637109375,-0.04688390716910362,-1.6478090286254883,-1.4275920391082764
1779989374255690500,15.7326904296875,0.06475171446800232,-2.2872321605682373,-1.2947288751602173
1779989374272043500,15.74904345703125,0.18631389737129211,-2.7563767433166504,-1.1285735368728638
1779989374288372000,15.7653720703125,0.16890424489974976,-2.959336757659912,-0.9590584635734558
1779989374304702200,15.7817021484375,0.10965031385421753,-2.8857274055480957,-0.8480336666107178
1779989374321042000,15.7980419921875,0.019547687843441963,-1.9194912910461426,-0.9954048991203308
1779989374337371400,15.814371337890625,-0.1973094791173935,-0.28466320037841797,-1.4161384105682373
1779989374353703700,15.83070361328125,-0.49556443095207214,0.30283644795417786,-1.7131716012954712
1779989374370038000,15.8470380859375,-0.7858781218528748,-0.470060795545578,-1.7621935606002808
1779989374386371800,15.863371826171875,-1.0118982791900635,-1.5702290534973145,-1.6924021244049072
1779989374402702800,15.879702880859375,-1.130711555480957,-2.370309829711914,-1.4265230894088745
1779989374419037400,15.896037353515625,-1.2347114086151123,-2.2939517498016357,-1.0584768056869507
1779989374435368700,15.91236865234375,-1.409724235534668,-1.5490015745162964,-0.9654725193977356
1779989374451702300,15.928702392578124,-1.6739234924316406,-0.9769262671470642,-1.1268936395645142
1779989374468037000,15.945037109375,-1.9254472255706787,-1.0948232412338257,-1.1166616678237915
1779989374484365600,15.961365478515624,-2.160477638244629,-1.6117680072784424,-0.8306240439414978
1779989374500701200,15.977701171875,-2.4413230419158936,-2.1120665073394775,-0.5166392922401428
1779989374517033500,15.994033447265625,-2.7626380920410156,-2.3970351219177246,-0.44104471802711487
1779989374533364700,16.01036474609375,-2.9020681381225586,-2.629011392593384,-0.5227479338645935
1779989374549698800,16.02669873046875,-2.7351491451263428,-2.864347219467163,-0.4834998548030853
1779989374566033700,16.04303369140625,-2.5647177696228027,-3.037680149078369,-0.2997821271419525
1779989374582365700,16.05936572265625,-2.428189277648926,-3.288134813308716,-0.009926560334861279
1779989374598698800,16.07569873046875,-2.1569652557373047,-3.6441166400909424,0.23060162365436554
1779989374615033900,16.092033935546876,-1.7875443696975708,-3.805079698562622,0.38637226819992065
1779989374631363800,16.10836376953125,-1.361007809638977,-3.603494167327881,0.46441030502319336
1779989374647696100,16.124696044921876,-0.983340322971344,-3.146414279937744,0.5619960427284241
1779989374664031700,16.14103173828125,-0.6104071140289307,-2.685516357421875,0.7095199823379517
1779989374680364000,16.157364013671874,-0.18417587876319885,-2.3521366119384766,0.9140071272850037
1779989374696694800,16.17369482421875,0.3217732608318329,-2.1346685886383057,1.0396926403045654
1779989374713030700,16.19003076171875,0.7958046793937683,-2.084882974624634,1.0384708642959595
1779989374729362700,16.20636279296875,1.1476631164550781,-2.309070587158203,0.7791585922241211
1779989374745695200,16.2226953125,1.2918273210525513,-2.6395487785339355,0.014049900695681572
1779989374762030000,16.239030029296874,1.229519009590149,-2.7181975841522217,-0.8428413271903992
1779989374778360300,16.2553603515625,0.7504479289054871,-2.674673557281494,-1.1467467546463013
1779989374794695200,16.271695068359374,-0.02275473065674305,-2.2953262329101562,-1.1566733121871948
1779989374811009300,16.28800927734375,-1.211803913116455,-1.6896532773971558,-0.7379252314567566
1779989374827358200,16.304358154296875,-2.1203131675720215,-0.7351763248443604,0.11407908797264099
1779989374843693800,16.32069384765625,-1.8496999740600586,0.41920626163482666,0.47219884395599365
1779989374860024300,16.3370244140625,-1.0071641206741333,2.378861904144287,-0.05146539583802223
1779989374876348000,16.353347900390624,-0.2883284091949463,1.7548631429672241,-0.7669413089752197
1779989374892691500,16.36969140625,-0.6302602291107178,-0.5768095254898071,-0.6637051105499268
1779989374909023000,16.38602294921875,-0.8251262307167053,-3.143817901611328,-0.3627012372016907
1779989374925353700,16.402353759765624,-0.1336267739534378,-3.241403818130493,-0.029168816283345222
1779989374941695500,16.418695556640625,0.6475171446800232,-1.4408783912658691,0.05665775015950203
1779989374958024400,16.4350244140625,1.2450960874557495,-1.3432927131652832,-0.0074830991216003895
1779989374974355500,16.45135546875,1.3461942672729492,-2.9321532249450684,0.09697485715150833
1779989374990688500,16.4676884765625,0.32681289315223694,-5.033529758453369,1.286634922027588
1779989375007025000,16.48402490234375,-0.7678576111793518,-4.305378437042236,2.0302107334136963
1779989375023342800,16.5003427734375,-1.021519422531128,-2.652529716491699,1.3060299158096313
1779989375039690000,16.51668994140625,-1.1688905954360962,-2.6925413608551025,0.7777841687202454
1779989375056021500,16.533021484375,-1.3028228282928467,-2.9080240726470947,0.8239045143127441
1779989375072352800,16.549352783203126,-1.3408491611480713,-2.2675318717956543,1.0004445314407349
1779989375088691200,16.565691162109374,-1.398576021194458,-1.534340739250183,1.1850786209106445
1779989375105011000,16.582010986328125,-1.0196868181228638,-1.4271339178085327,1.49738347530365
1779989375121356500,16.5983564453125,-0.7365507483482361,-1.8527542352676392,1.5425875186920166
1779989375137683700,16.61468359375,-0.4836525619029999,-1.7397441864013672,1.433700680732727
1779989375154011100,16.63101123046875,-0.34834590554237366,-1.2304353713989258,1.1427761316299438
1779989375170353000,16.647352783203125,-0.30894508957862854,-0.5256495475769043,0.7307475209236145
1779989375186666200,16.663666259765623,-0.21471913158893585,-0.17760907113552094,0.4156937897205353
1779989375203019800,16.680019775390626,-0.17318029701709747,-0.03405573591589928,0.22128593921661377
1779989375219348500,16.696348388671876,-0.09941831976175308,-0.020616702735424042,0.12690725922584534
1779989375235668700,16.712668701171875,-0.013744467869400978,-0.08200865983963013,0.03695734590291977
1779989375252019500,16.72901953125,0.05864306539297104,-0.047800205647945404,-0.07773260027170181
1779989375268351700,16.745351806640624,0.02687807008624077,0.020463986322283745,-0.09437867999076843
1779989375284683500,16.76168359375,-0.08277224004268646,0.12217304855585098,0.04596760869026184
1779989375301017300,16.778017333984376,-0.20234911143779755,-0.24602597951889038,0.2171625941991806
1779989375317349400,16.794349365234375,-0.23273965716362,-0.42760565876960754,0.2984076738357544
1779989375333683500,16.810683349609373,-0.17043140530586243,-0.5222898125648499,0.41890084743499756
1779989375350015700,16.827015625,-0.013744467869400978,-0.7151705026626587,0.4311181604862213
1779989375366353000,16.843352783203127,0.1267545372247696,-0.6922630667686462,0.44944411516189575
1779989375382677200,16.85967724609375,0.244804248213768,-0.2603813111782074,0.6925684809684753
1779989375399018500,16.8760185546875,0.38026362657546997,0.2692388594150543,0.9552405476570129
1779989375415348500,16.892348388671873,0.44516804814338684,0.4605923891067505,1.2637274265289307
1779989375431681000,16.908680908203124,0.44287729263305664,0.35216382145881653,1.4373658895492554
1779989375448013600,16.925013671875,0.30482175946235657,0.33047810196876526,1.376279354095459
1779989375464347400,16.941347412109376,0.1287398487329483,0.2509129047393799,1.2580770254135132
1779989375480679000,16.957678955078126,-0.04703662544488907,-0.03573561832308769,1.161560297012329
1779989375497001200,16.974001220703126,-0.1293507218360901,-0.5517640113830566,1.0939068794250488
1779989375513344300,16.99034423828125,0.13698652386665344,-1.177748203277588,0.7040221691131592
1779989375529694500,17.006694580078126,0.3217732608318329,-1.4268285036087036,0.09605856239795685
1779989375546011000,17.023010986328124,0.47510045766830444,-0.9153815507888794,-0.5224425196647644
1779989375562344700,17.0393447265625,0.5470298528671265,-0.47540587186813354,-1.253495454788208
1779989375578676200,17.05567626953125,0.46731191873550415,-0.5711590051651001,-1.768760323524475
1779989375595011000,17.072010986328124,0.3358231782913208,-0.7915286421775818,-2.0971004962921143
1779989375611343400,17.08834326171875,0.3107776939868927,-0.7812966704368591,-2.4329235553741455
1779989375627676700,17.1046767578125,0.3819434940814972,-0.7041749358177185,-2.7705793380737305
1779989375644009200,17.12100927734375,0.44196099042892456,-0.6556110978126526,-2.959183931350708
1779989375660341000,17.137341064453125,0.4579962193965912,-0.7047857642173767,-3.0770809650421143
1779989375676678400,17.153678466796876,0.5067127346992493,-0.8559749126434326,-3.0975449085235596
1779989375693008100,17.170008056640626,0.7014260292053223,-1.0719157457351685,-3.006678819656372
1779989375709341200,17.186341064453124,0.8115344643592834,-0.8915578126907349,-2.9457449913024902
1779989375725671400,17.20267138671875,0.8523097038269043,-0.7215845584869385,-2.7571403980255127
1779989375742008600,17.219008544921873,0.7399105429649353,-0.7974845767021179,-2.534632682800293
1779989375758340600,17.235340576171875,0.5262604355812073,-0.8446739315986633,-2.489581346511841
1779989375774673400,17.25167333984375,0.17501288652420044,-0.5589417219161987,-2.7177395820617676
1779989375791006500,17.26800634765625,-0.02687807008624077,0.11041389405727386,-3.0447051525115967
1779989375807346000,17.284345947265624,-0.1592831164598465,-0.1085812970995903,-3.4568865299224854
1779989375823672600,17.300672607421873,-0.4343251883983612,-0.9191994667053223,-3.7030651569366455
1779989375839999200,17.316999267578126,-0.9140071272850037,-0.8345946669578552,-3.523776054382324
1779989375856342000,17.333342041015626,-1.6713273525238037,0.1511891484260559,-3.0917418003082275
1779989375872670500,17.34967041015625,-1.578781247138977,-1.581377387046814,-3.4691038131713867
1779989375889005000,17.366005126953127,-1.6181820631027222,-1.9730947017669678,-3.545461893081665
1779989375905334800,17.382334716796876,-1.6653714179992676,-1.6989690065383911,-3.322648763656616
1779989375921672200,17.398672119140624,-1.7353154420852661,-1.3941471576690674,-2.9573514461517334
1779989375938002200,17.415002197265625,-1.7837265729904175,-1.3697125911712646,-2.567772150039673
1779989375954335200,17.431335205078124,-1.7377588748931885,-1.3458888530731201,-2.0454821586608887
1779989375970668500,17.44766845703125,-1.6847662925720215,-1.3495540618896484,-1.474017858505249
1779989375987002000,17.464002197265625,-1.644449234008789,-1.3573426008224487,-0.9589056968688965
1779989376003332600,17.48033251953125,-1.6371188163757324,-1.0277807712554932,-0.40744712948799133
1779989376019670000,17.496669921875,-1.576948642730713,-0.45005497336387634,0.154396191239357
1779989376035996700,17.51299658203125,-1.4889839887619019,-0.1667662113904953,0.6821837425231934
1779989376052338200,17.529338134765624,-1.429271936416626,-0.29856038093566895,1.2360857725143433
1779989376068662000,17.545662109375,-1.3854423761367798,-0.5115996599197388,1.7223345041275024
1779989376085003000,17.5620029296875,-1.182482361793518,-0.5473352670669556,1.8330538272857666
1779989376101332700,17.578332763671874,-0.9347765445709229,-0.0010690141934901476,1.7382169961929321
1779989376117649700,17.594649658203124,-0.7145596146583557,1.0141890048980713,1.5642731189727783
1779989376133998000,17.610998046875,-0.5416847467422485,0.822682797908783,1.3826935291290283
1779989376150319000,17.627319091796874,-0.6269004344940186,0.10812314599752426,1.9436204433441162
1779989376166663400,17.643663330078127,-0.9418014883995056,0.28817567229270935,2.2904391288757324
1779989376182997000,17.6599970703125,-0.9225592613220215,0.31093040108680725,2.4025330543518066
1779989376199330000,17.676330078125,-0.7299839854240417,0.6495024561882019,2.4558310508728027
1779989376215664000,17.6926640625,-0.47311514616012573,0.8636107444763184,2.5303566455841064
1779989376231996000,17.708995849609376,-0.15821409225463867,1.2861768007278442,2.492788314819336
1779989376248330200,17.725330322265624,0.38606682419776917,1.4022411108016968,2.1586451530456543
1779989376264662300,17.741662353515625,1.160033106803894,1.0757336616516113,2.0694587230682373
1779989376280995600,17.75799560546875,1.4330898523330688,0.8072584271430969,2.1424572467803955
1779989376297328600,17.77432861328125,1.47844660282135,-0.026114489883184433,2.034486770629883
1779989376313659600,17.79065966796875,1.1693488359451294,-1.578475832939148,1.7092009782791138
1779989376329995800,17.806995849609375,0.33735033869743347,-2.4245240688323975,1.61100435256958
1779989376346334000,17.823333984375,-0.36300668120384216,-2.0425806045532227,1.8564194440841675
1779989376362659800,17.839659912109376,-0.7866417169570923,-0.9576839804649353,2.0218112468719482
1779989376378991000,17.8559912109375,-1.1815661191940308,0.21319197118282318,1.9372063875198364
1779989376395329000,17.8723291015625,-1.2203559875488281,1.081842303276062,1.8657351732254028
1779989376411659800,17.88865966796875,-0.7602217793464661,1.123533844947815,1.7566957473754883
1779989376427975200,17.90497509765625,-0.08521570265293121,0.4940372705459595,1.334282398223877
1779989376444326000,17.921325927734376,0.2018909603357315,-0.37980547547340393,0.7064656615257263
1779989376460653300,17.9376533203125,0.1963931769132614,-0.5623014569282532,0.5451972484588623
1779989376476981000,17.95398095703125,0.044745877385139465,-0.152105450630188,0.7137960195541382
1779989376493324300,17.97032421875,-0.09010262042284012,0.3271183371543884,0.650418758392334
1779989376509645000,17.98664501953125,-0.17058411240577698,0.540921151638031,0.46150869131088257
1779989376525989600,18.00298974609375,-0.18325957655906677,0.623235285282135,0.35811975598335266
1779989376542325200,18.0193251953125,-0.10766500234603882,0.7438811659812927,0.25671613216400146
1779989376558654500,18.035654541015624,-0.03527746722102165,0.661719799041748,0.10919216275215149
1779989376574989000,18.051989013671875,0.07269296050071716,0.598647952079773,0.001527163083665073
1779989376591320600,18.068320556640625,0.32391130924224854,0.4384485185146332,0.01817324012517929
1779989376607655400,18.084655517578124,0.4466952085494995,0.20112738013267517,0.11713340878486633
1779989376623986000,18.10098583984375,0.3735440969467163,0.256868839263916,0.3419318199157715
1779989376640321800,18.11732177734375,0.3326161205768585,0.5010622143745422,0.6000223755836487
1779989376656647000,18.13364697265625,0.24694228172302246,0.5416847467422485,0.8802568316459656
1779989376672992000,18.149991943359375,0.230448916554451,0.3712533414363861,1.1371256113052368
1779989376689329700,18.16632958984375,0.21884247660636902,0.3975205719470978,1.4107933044433594
1779989376705654000,18.182654052734375,0.12232576310634613,0.3248275816440582,1.7440202236175537
1779989376721983500,18.1989833984375,0.050243668258190155,-0.07513642311096191,1.9634735584259033
1779989376738306300,18.215306396484376,0.02122756652534008,-0.4648684561252594,2.0644190311431885
1779989376754651600,18.231651611328125,-0.12507465481758118,-0.7150177955627441,1.9439259767532349
1779989376770984700,18.247984619140624,-0.39385536313056946,-0.7333437204360962,1.4672982692718506
1779989376787316200,18.264316162109374,-0.36224308609962463,-0.4031710624694824,0.7061602473258972
1779989376803651300,18.2806513671875,-0.13072516024112701,-0.0403171069920063,-0.05345070734620094
1779989376819983600,18.296983642578127,0.10567969083786011,-0.07864890247583389,-0.7127270102500916
1779989376836319500,18.313319580078126,0.29138273000717163,-0.3321579694747925,-1.3374894857406616
1779989376852647200,18.329647216796875,0.36682456731796265,-0.7302893996238708,-1.934457540512085
1779989376868983300,18.3459833984375,0.4977024495601654,-1.2376129627227783,-2.489733934402466
1779989376885314300,18.362314208984376,0.7199047207832336,-1.5981762409210205,-3.090519905090332
1779989376901650200,18.378650146484375,0.9445503950119019,-1.105513334274292,-3.7560577392578125
1779989376917981400,18.3949814453125,0.950506329536438,0.584750771522522,-4.005596160888672
1779989376934314500,18.411314453125,0.6882924437522888,2.9376509189605713,-3.5190420150756836
1779989376950659600,18.42765966796875,0.13209961354732513,4.047134876251221,-2.71376895904541
1779989376966976800,18.443976806640624,-0.5499314665794373,3.0324878692626953,-2.0900754928588867
1779989376983314400,18.460314453125,-0.6753115057945251,1.277471899986267,-1.8238909244537354
1779989376999641000,18.47664111328125,-0.6249151229858398,-0.1385136991739273,-2.0033326148986816
1779989377015985000,18.49298486328125,-0.6551529765129089,-1.2985467910766602,-2.7815749645233154
1779989377032317000,18.50931689453125,-0.7284567952156067,-2.0922133922576904,-3.4988834857940674
1779989377048650000,18.52564990234375,-0.8422304391860962,-2.0512855052948,-3.7617082595825195
1779989377064977700,18.541977783203127,-0.868803083896637,-1.5508341789245605,-3.815922498703003
1779989377081289200,18.558289306640624,-0.8852964639663696,-1.5609134435653687,-3.8618900775909424
1779989377097644800,18.574644775390624,-0.9108000993728638,-1.8390097618103027,-3.916409730911255
1779989377113975800,18.590975830078126,-0.8529205918312073,-1.7168368101119995,-3.6476290225982666
1779989377130310400,18.607310302734376,-0.7269296646118164,-1.556179165840149,-3.2282700538635254
1779989377146642200,18.62364208984375,-0.4534147381782532,-1.4309518337249756,-2.7142269611358643
1779989377162976500,18.6399765625,-0.2727513313293457,-1.2793045043945312,-2.1365013122558594
1779989377179309000,18.65630908203125,-0.23380866646766663,-1.1183415651321411,-1.433700680732727
1779989377195642400,18.672642333984374,-0.26862800121307373,-0.9140071272850037,-0.5954409241676331
1779989377211975700,18.6889755859375,-0.2499966025352478,-0.46211954951286316,0.12507465481758118
1779989377228306400,18.705306396484374,-0.17043140530586243,-0.11026117950677872,0.7130324840545654
1779989377244641300,18.721641357421873,-0.194713294506073,-0.09941831976175308,1.2942707538604736
1779989377260974800,18.737974853515624,-0.2791654169559479,-0.11224649101495743,1.666593074798584
1779989377277304600,18.7543046875,-0.3572034537792206,0.04046982154250145,1.2281445264816284
1779989377293640700,18.770640625,-0.5297728776931763,-0.011453723534941673,1.0015136003494263
1779989377309970700,18.786970703125,-0.5656611919403076,0.2635883390903473,1.3051135540008545
1779989377326310100,18.80331005859375,-0.6256787180900574,-0.3312416672706604,1.6504051685333252
1779989377342638600,18.819638671875,-0.6704245805740356,-0.8680394887924194,1.578781247138977
1779989377358952700,18.83595263671875,-0.6539312601089478,-0.3312416672706604,1.8029687404632568
1779989377375304700,18.8523046875,-0.8245153427124023,0.6579018831253052,2.4020748138427734
1779989377391644200,18.86864404296875,-0.5664247870445251,1.8029687404632568,2.7504208087921143
1779989377407971800,18.884971923828125,0.06490442901849747,1.8460347652435303,2.531578302383423
1779989377424303600,18.9013037109375,0.6218608021736145,0.9636399149894714,2.2070560455322266
1779989377440636400,18.917636474609374,0.8625417351722717,0.25244006514549255,1.8605427742004395
1779989377456953900,18.933953857421876,0.9158397316932678,-0.3533855378627777,1.715767741203308
1779989377473292500,18.95029248046875,0.8339837789535522,-0.6664539575576782,1.783879280090332
1779989377489623300,18.966623291015626,0.6082690954208374,-0.760832667350769,1.9559905529022217
1779989377505964300,18.98296435546875,0.3877467215061188,-0.8840747475624084,2.138944625854492
1779989377522306300,18.999306396484375,0.168751522898674,-1.0028879642486572,2.2795963287353516
1779989377538633500,19.015633544921876,-0.20311269164085388,-1.000749945640564,2.3185391426086426
1779989377554968000,19.031968017578127,-0.5406157374382019,-0.8634580373764038,2.199573040008545
1779989377571285800,19.04828564453125,-0.779464066028595,-0.7444919943809509,1.961030125617981
1779989377587631400,19.06463134765625,-0.8620835542678833,-0.611934244632721,1.7136297225952148
1779989377603970600,19.080970458984375,-0.8127561807632446,-0.413555771112442,1.5051720142364502
1779989377620297500,19.09729736328125,-0.5890268087387085,-0.6139195561408997,1.28434419631958
1779989377636631300,19.11363134765625,-0.29535335302352905,-0.8923214077949524,1.0404561758041382
1779989377652967000,19.129966796875,-0.1443169116973877,-0.8393288254737854,0.859029233455658
1779989377669290000,19.1462900390625,0.0455094613134861,-0.375071257352829,0.8017606139183044
1779989377685633000,19.162633056640626,0.08903361111879349,-0.1797471046447754,0.7092145681381226
1779989377701964500,19.178964599609376,0.049785517156124115,-0.02580905705690384,0.4384485185146332
1779989377718296800,19.195296875,-0.10461067408323288,0.24236078560352325,0.19257527589797974
1779989377734627300,19.21162744140625,-0.19288070499897003,0.471129834651947,0.08048149943351746
1779989377750963000,19.227962890625,-0.17959438264369965,0.43707409501075745,0.058184914290905
1779989377767296300,19.244296142578126,-0.14477506279945374,0.20357084274291992,0.06811147183179855
1779989377783629800,19.2606298828125,-0.08399397134780884,0.06627888232469559,0.10567969083786011
1779989377799963600,19.276963623046875,0.005955935921519995,0.19120082259178162,0.14278975129127502
1779989377816293400,19.29329345703125,0.2122756689786911,0.30115658044815063,0.11163562536239624
1779989377832628200,19.309628173828123,0.3449861407279968,0.17088955640792847,0.11759155988693237
1779989377848965400,19.32596533203125,0.32589662075042725,0.0933096632361412,0.2863430976867676
1779989377865293300,19.342293212890624,0.34758231043815613,0.007635815534740686,0.48777589201927185
1779989377881627600,19.358627685546875,0.41722095012664795,0.018325956538319588,0.6395758986473083
1779989377897959700,19.374959716796877,0.44913867115974426,0.02779436856508255,0.8712465763092041
1779989377914294000,19.3912939453125,0.35246923565864563,0.04352414980530739,1.1969904899597168
1779989377930630100,19.407630126953126,0.24129177629947662,0.12034045159816742,1.4399621486663818
1779989377946955800,19.423955810546875,0.09086620807647705,0.15974126756191254,1.5468635559082031
1779989377963292400,19.44029248046875,-0.07895433157682419,0.23380866646766663,1.5080735683441162
1779989377979623400,19.45662353515625,-0.323147714138031,0.32818734645843506,1.4324790239334106
1779989377995958300,19.472958251953123,-0.5870414972305298,0.42577308416366577,1.3426817655563354
1779989378012276500,19.4892763671875,-0.46303585171699524,0.2145664244890213,0.8413141369819641
1779989378028624000,19.505623779296876,-0.07651086896657944,-0.006108652334660292,0.17806722223758698
1779989378044958000,19.5219580078125,0.3332269787788391,-0.3827070891857147,-0.3341432809829712
1779989378061290000,19.5382900390625,0.6061310172080994,-0.6843217611312866,-0.930347740650177
1779989378077623800,19.554623779296875,0.6537785530090332,-0.8017606139183044,-1.6108516454696655
1779989378093952500,19.570952392578125,0.5581781268119812,-1.0137308835983276,-2.281123638153076
1779989378110291500,19.58729150390625,0.43386703729629517,-1.2680035829544067,-3.0031661987304688
1779989378126620200,19.6036201171875,0.4069889783859253,-1.2220358848571777,-3.699094533920288
1779989378142956000,19.6199560546875,0.42012256383895874,-0.4129449129104614,-4.072944164276123
1779989378159287800,19.636287841796875,0.2912299931049347,1.0949759483337402,-4.096462249755859
1779989378175620900,19.652620849609374,0.2565633952617645,2.559830904006958,-3.8560869693756104
1779989378191953200,19.668953125,0.26313021779060364,2.8933632373809814,-3.19665789604187
1779989378208284400,19.685284423828126,0.13011430203914642,1.5505287647247314,-2.5314254760742188
1779989378224620000,19.7016201171875,-0.38377609848976135,-0.6348416805267334,-1.8883371353149414
1779989378240953300,19.717953369140623,-0.7171558141708374,-1.1462886333465576,-1.6082555055618286
1779989378257288700,19.734288818359374,-0.6568328738212585,-0.6227771043777466,-1.989129900932312
1779989378273620000,19.750619873046876,-0.9118691086769104,-1.3910928964614868,-2.914132595062256
1779989378289945000,19.766945068359377,-1.143081545829773,-1.608102798461914,-3.307987928390503
1779989378306282500,19.783282470703124,-1.3368785381317139,-2.00699782371521,-3.5851681232452393
1779989378322627000,19.799626953125,-1.1681270599365234,-2.333352565765381,-3.637549877166748
1779989378338939100,19.815939208984375,-1.072221279144287,-1.9330830574035645,-3.486360788345337
1779989378355283000,19.832282958984376,-1.102917194366455,-1.6972891092300415,-3.4075591564178467
1779989378371617300,19.8486171875,-0.9702067375183105,-1.6383405923843384,-3.3240232467651367
1779989378387949300,19.86494921875,-0.8623890280723572,-1.226617455482483,-2.9975156784057617
1779989378404284000,19.881283935546875,-0.7267768979072571,-0.7802276611328125,-2.459038019180298
1779989378420610000,19.897610107421876,-0.712574303150177,-0.2854267954826355,-1.7124079465866089
1779989378436955000,19.913954833984373,-0.684779942035675,-0.08811730891466141,-0.9560040831565857
1779989378453279700,19.93027978515625,-0.7050912380218506,-0.17409659922122955,-0.2736676335334778
1779989378469601500,19.9466015625,-0.6585127115249634,-0.2096794992685318,0.3620903789997101
1779989378485949200,19.96294921875,-0.5600107312202454,-0.11285735666751862,0.9801332950592041
1779989378502281200,19.97928125,-0.4043927788734436,-0.2444988191127777,1.5595389604568481
1779989378518613200,19.99561328125,-0.3527746796607971,-0.46929723024368286,1.9587393999099731
1779989378534947600,20.011947509765626,-0.3825543522834778,-0.8417723178863525,2.2453880310058594
1779989378551275000,20.02827490234375,-0.5035057067871094,-0.9179777503013611,2.8263208866119385
1779989378567610000,20.044610107421875,-0.6527095437049866,0.2571742534637451,2.934443950653076
1779989378583950000,20.0609501953125,-0.68951416015625,2.0367774963378906,2.601675033569336
1779989378600279300,20.077279296875,-0.06398813426494598,1.9016234874725342,2.3357958793640137
1779989378616609500,20.093609619140626,0.20112738013267517,0.5900958180427551,2.4521658420562744
1779989378632945200,20.109945068359377,-0.2611449062824249,0.20204368233680725,2.2148447036743164
1779989378649264000,20.12626416015625,-0.44593164324760437,0.8141306638717651,2.2817344665527344
1779989378665611000,20.142611083984374,-0.31383201479911804,1.315040111541748,2.4749205112457275
1779989378681942800,20.15894287109375,-0.18585574626922607,1.5457944869995117,2.637716054916382
1779989378698276600,20.175276611328126,0.02229658141732216,2.043802499771118,2.643671989440918
1779989378714607900,20.19160791015625,0.39538252353668213,2.5442538261413574,2.5312728881835938
1779989378730942700,20.207942626953123,0.9511171579360962,2.2438607215881348,2.4587326049804688
1779989378747274800,20.224274658203125,1.3513866662979126,0.9167560338973999,2.250427484512329
1779989378763608800,20.24060888671875,1.2030991315841675,-0.5916230082511902,1.3658946752548218
1779989378779941000,20.256941162109374,0.8344419002532959,-1.5563318729400635,0.9085093140602112
1779989378796274400,20.2732744140625,0.38988474011421204,-2.0143282413482666,0.9479101300239563
1779989378812607500,20.289607421875,-0.1514945775270462,-1.7134770154953003,1.2681562900543213
1779989378828940000,20.30593994140625,-0.540921151638031,-1.179275393486023,1.4966198205947876
1779989378845261800,20.32226171875,-0.5056437253952026,-0.7342600226402283,1.4741705656051636
1779989378861607000,20.33860693359375,-0.35063666105270386,-0.5229006409645081,1.3293955326080322
1779989378877939200,20.354939208984376,-0.12293662875890732,-0.8092437386512756,1.190423607826233
1779989378894272500,20.3712724609375,0.11835514008998871,-0.7573201656341553,0.8171849846839905
1779989378910604800,20.387604736328125,0.060322944074869156,-0.8239045143127441,0.4155410826206207
1779989378926939000,20.40393896484375,-0.1371392458677292,-0.5128213763237,0.5088507533073425
1779989378943259600,20.420259765625,-0.3338378667831421,0.06108652427792549,0.6090326309204102
1779989378959611100,20.436611083984374,-0.4366159439086914,0.34116822481155396,0.4063780903816223
1779989378975937000,20.45293701171875,-0.4450153410434723,0.5073235630989075,0.22357667982578278
1779989378992270600,20.4692705078125,-0.3576616048812866,0.5148066878318787,0.0835358202457428
1779989379008601000,20.48560107421875,-0.22479841113090515,0.36682456731796265,-0.08888089656829834
