time,seconds_elapsed,z,y,x
1779958160623807500,0.089807373046875,-0.6848354339599609,0.20156097412109375,-0.9894827604293823
1779958160640129800,0.1061298828125,-3.4074020385742188,-2.4954302310943604,0.948701798915863
1779958160656464000,0.1224638671875,-0.8523368835449219,0.22933483123779297,0.8377159833908081
1779958160672808200,0.13880810546875,-0.19223785400390625,-0.5561699867248535,0.817776083946228
1779958160689143600,0.1551435546875,-2.722446918487549,-3.1759848594665527,2.7848098278045654
1779958160705472500,0.171472412109375,-1.965014934539795,-2.7597172260284424,3.9328927993774414
1779958160721804800,0.1878046875,-0.8095011711120605,-2.0476651191711426,1.8926228284835815
1779958160738135000,0.204135009765625,2.7271976470947266,-3.387735366821289,-0.16759145259857178
1779958160754484500,0.220484375,6.164183139801025,-1.4509263038635254,-12.491527557373047
1779958160770812700,0.236812744140625,3.479712963104248,7.136312007904053,0.5024368762969971
1779958160787129000,0.253129150390625,-0.6193060874938965,0.5899734497070312,1.1719789505004883
1779958160803479000,0.26947900390625,0.3287353515625,0.6644601821899414,0.3533804416656494
1779958160819804000,0.285803955078125,2.683259963989258,0.010715961456298828,1.5272045135498047
1779958160836127500,0.30212744140625,3.814228057861328,-1.5610804557800293,2.799448013305664
1779958160852471800,0.318471923828125,5.887394428253174,-3.935154676437378,3.554229974746704
1779958160868798200,0.334798095703125,7.006331443786621,-0.6349611282348633,3.0849552154541016
1779958160885137000,0.351136962890625,0.2686166763305664,0.7000837326049805,1.8643088340759277
1779958160901467400,0.36746728515625,-1.6446914672851562,0.9933271408081055,1.1503076553344727
1779958160917800000,0.383800048828125,1.0431594848632812,-1.2644166946411133,0.46139025688171387
1779958160934133500,0.400133544921875,2.48775577545166,-4.055172920227051,2.0492639541625977
1779958160950463700,0.416463623046875,3.0528383255004883,-5.112666130065918,3.7256906032562256
1779958160966779400,0.432779296875,2.878093719482422,-3.4740638732910156,2.630706310272217
1779958160983143000,0.449142822265625,3.094040870666504,0.4268033504486084,-2.23547101020813
1779958160999442400,0.4654423828125,1.8468828201293945,-1.7162108421325684,-1.3808172941207886
1779958161015778300,0.4817783203125,1.6064367294311523,-6.299711227416992,0.4562544822692871
1779958161032108300,0.4981083984375,2.2477970123291016,-5.680363655090332,-0.18205904960632324
1779958161048433000,0.514432861328125,0.3463897705078125,-4.409377098083496,0.6438426971435547
1779958161064775000,0.53077490234375,-2.7414588928222656,-2.4062719345092773,0.3420724868774414
1779958161081106000,0.54710595703125,-4.912917137145996,-1.9367635250091553,-0.5990686416625977
1779958161097441000,0.56344091796875,-5.746895790100098,-2.707029104232788,-1.0103890895843506
1779958161113784800,0.579784912109375,-3.0856900215148926,-2.6481757164001465,-0.814842700958252
1779958161130080500,0.59608056640625,-0.7928123474121094,-2.8653531074523926,-0.8580775260925293
1779958161146430000,0.612429931640625,0.26041173934936523,-3.0669925212860107,-0.7821722030639648
1779958161162759700,0.628759765625,-0.7228183746337891,-2.3169379234313965,-0.957064151763916
1779958161179100000,0.645099853515625,-2.7691240310668945,-1.022165060043335,-1.9730892181396484
1779958161195429400,0.661429443359375,-7.066190242767334,0.11672639846801758,-3.2664690017700195
1779958161211762400,0.677762451171875,-8.28620719909668,0.8456664085388184,-3.7827539443969727
1779958161228091100,0.694091064453125,-7.20553731918335,1.6240499019622803,-4.64235258102417
1779958161244428000,0.710427978515625,-5.625584125518799,0.4926717281341553,-4.029379844665527
1779958161260766200,0.72676611328125,-3.6427419185638428,-0.6582008600234985,-3.8338582515716553
1779958161277089500,0.743089599609375,-3.151923656463623,-0.36455678939819336,-4.023867607116699
1779958161293431300,0.759431396484375,-3.922163486480713,1.7300716638565063,-3.829688549041748
1779958161309754000,0.775754150390625,-6.842151641845703,4.080251693725586,-3.8784704208374023
1779958161326103800,0.792103759765625,-7.422269821166992,4.3385772705078125,-3.628903388977051
1779958161342420500,0.80842041015625,-4.647684574127197,3.5924715995788574,-1.0670275688171387
1779958161358755300,0.82475537109375,1.515861988067627,2.8664541244506836,1.1144800186157227
1779958161375105000,0.84110498046875,6.494594097137451,1.8243520259857178,2.9226274490356445
1779958161391424500,0.857424560546875,5.720366477966309,4.1368513107299805,3.380908966064453
1779958161407757600,0.873757568359375,-1.6807241439819336,7.409655570983887,1.5168180465698242
1779958161424107800,0.890107666015625,-2.352506637573242,7.183295726776123,2.9472084045410156
1779958161440416800,0.906416748046875,1.2547333240509033,4.636748313903809,4.364962577819824
1779958161456758300,0.92275830078125,6.835089683532715,-0.3248474597930908,5.697861671447754
1779958161473083100,0.939083251953125,7.031343460083008,-4.613879203796387,6.442190170288086
1779958161489388500,0.955388427734375,5.033024787902832,-5.298465728759766,7.661520957946777
1779958161505735700,0.971735595703125,5.480649948120117,-2.5991475582122803,7.125284194946289
1779958161522068500,0.988068359375,3.5338170528411865,1.3292715549468994,5.516364097595215
1779958161538386000,1.004385986328125,-0.9901032447814941,2.0464439392089844,6.406251907348633
1779958161554719000,1.020718994140625,-2.2305908203125,0.9808211326599121,7.905904769897461
1779958161571051500,1.037051513671875,-0.7068076133728027,-0.2881813049316406,7.562860488891602
1779958161587383000,1.053383056640625,1.0428273677825928,-1.6916313171386719,5.771304130554199
1779958161603714800,1.06971484375,-0.3394343852996826,-1.5904231071472168,4.1451416015625
1779958161620046800,1.086046875,1.5682055950164795,-1.1775145530700684,3.709771156311035
1779958161636379100,1.102379150390625,1.4365203380584717,-1.2679214477539062,3.7490062713623047
1779958161652710000,1.1187099609375,0.6005854606628418,-1.1006746292114258,1.457636833190918
1779958161669042200,1.135042236328125,-1.1300795078277588,-1.1768407821655273,-0.15999507904052734
1779958161685375000,1.151375,-1.2862035036087036,-2.0956037044525146,-0.48044586181640625
1779958161701706500,1.16770654296875,0.9797337055206299,-3.7907557487487793,1.8982734680175781
1779958161718038800,1.184038818359375,2.5186545848846436,-1.1903691291809082,-0.5495791435241699
1779958161734386000,1.200385986328125,-1.8467704057693481,-2.6089863777160645,-0.03542804718017578
1779958161750711600,1.216711669921875,5.280585289001465,-1.7593183517456055,0.2232217788696289
1779958161767050000,1.233050048828125,1.2286205291748047,-0.2531466484069824,-0.6622567176818848
1779958161783378700,1.249378662109375,2.060039520263672,0.7755498886108398,-0.5348720550537109
1779958161799708700,1.265708740234375,-2.599752426147461,-0.1614837646484375,-0.9304389953613281
1779958161816042200,1.282042236328125,-1.5888948440551758,-0.40911149978637695,-0.5396718978881836
1779958161832373000,1.298373046875,-1.0971708297729492,-0.22142887115478516,-0.5398225784301758
1779958161848722700,1.31472265625,-0.736546516418457,-0.5081558227539062,2.1800765991210938
1779958161865052700,1.331052734375,8.030037879943848,-1.5249686241149902,-0.42308902740478516
1779958161881381600,1.347381591796875,-0.09853315353393555,3.8633038997650146,0.45150184631347656
1779958161897698600,1.363698486328125,-7.070679664611816,4.4954447746276855,-2.274118185043335
1779958161914037000,1.380037109375,-1.4105100631713867,-0.4305567741394043,-2.0550224781036377
1779958161930350000,1.39635009765625,-0.15716552734375,-1.4081239700317383,-2.472111225128174
1779958161946698200,1.4126982421875,-0.3612790107727051,-0.6479549407958984,-2.467043399810791
1779958161963029800,1.42902978515625,-1.1777524948120117,1.1510112285614014,-1.9109413623809814
1779958161979360500,1.445360595703125,-2.1414389610290527,1.933743953704834,-0.6671972274780273
1779958161995710200,1.461710205078125,-0.9691972732543945,0.4800381660461426,-0.0018529891967773438
1779958162012023000,1.47802294921875,0.4414830207824707,1.0319013595581055,0.008648872375488281
1779958162028356600,1.494356689453125,-2.3088064193725586,-0.11712217330932617,-0.0979619026184082
1779958162044690000,1.51068994140625,-2.991549015045166,-0.2647547721862793,0.48583984375
1779958162061018600,1.5270185546875,-1.738316535949707,0.9127616882324219,1.5802931785583496
1779958162077356800,1.543356689453125,-0.029062271118164062,-0.18694448471069336,1.503824234008789
1779958162093685500,1.559685546875,0.49853515625,-1.4697704315185547,-1.916806936264038
1779958162110020900,1.576020751953125,0.6023921966552734,2.402132987976074,-3.2141013145446777
1779958162126337000,1.5923369140625,-0.2784271240234375,2.6954803466796875,-2.2715516090393066
1779958162142691000,1.608691162109375,0.26959848403930664,1.80289888381958,-0.611187219619751
1779958162159011600,1.625011474609375,1.5763335227966309,0.7128729820251465,0.5455226898193359
1779958162175345400,1.641345458984375,1.0036234855651855,-0.5698418617248535,1.4935250282287598
1779958162191677400,1.657677490234375,0.5158414840698242,-2.481480598449707,1.5988988876342773
1779958162208008000,1.674008056640625,0.3022599220275879,-2.9331412315368652,0.4988274574279785
1779958162224338000,1.690337890625,-0.34590768814086914,-1.5369906425476074,-0.2331984043121338
1779958162240692500,1.7066923828125,-1.5874145030975342,0.39865541458129883,-1.2479344606399536
1779958162257021000,1.72302099609375,-1.2177441120147705,0.7366929054260254,-3.496253728866577
1779958162273334800,1.739334716796875,-1.8540139198303223,4.59547233581543,-2.6129839420318604
1779958162289708300,1.755708251953125,0.5135960578918457,2.7298226356506348,-0.26547741889953613
1779958162306015500,1.772015380859375,0.9503741264343262,0.8033170700073242,1.9118587970733643
1779958162322344000,1.788343994140625,1.0025343894958496,0.7060694694519043,1.2845683097839355
1779958162338681000,1.80468115234375,-1.041501522064209,0.7741289138793945,0.00759577751159668
1779958162355008800,1.8210087890625,-2.970341682434082,0.06428956985473633,-0.649343729019165
1779958162371337500,1.83733740234375,-2.162850856781006,-0.9743943214416504,-0.5942318439483643
1779958162387678200,1.85367822265625,0.6426055431365967,-1.0998592376708984,0.7340688705444336
1779958162404005000,1.870005126953125,2.7416577339172363,-0.6175203323364258,1.353029727935791
1779958162420321800,1.88632177734375,3.1745195388793945,-1.20843505859375,1.183828353881836
1779958162436670200,1.902670166015625,0.39841341972351074,-1.3322772979736328,0.3167414665222168
1779958162453000400,1.91900048828125,-0.1455937623977661,1.1173176765441895,-0.527015209197998
1779958162469315300,1.9353154296875,-2.1932947635650635,1.555384635925293,-0.37197303771972656
1779958162485652200,1.95165234375,0.21006464958190918,0.7371726036071777,2.1017379760742188
1779958162501984800,1.96798486328125,1.1354806423187256,-0.7541723251342773,1.8407235145568848
1779958162518315000,1.98431494140625,1.0387437343597412,-0.578826904296875,0.9480185508728027
1779958162534646800,2.000646728515625,0.6792052984237671,0.08487224578857422,0.1544942855834961
1779958162550986800,2.01698681640625,0.5048081278800964,1.172501564025879,-0.5971083641052246
1779958162567312600,2.033312744140625,0.342526912689209,1.1084403991699219,-1.3112680912017822
1779958162583643600,2.0496435546875,0.8300416469573975,2.3938241004943848,-1.179464340209961
1779958162599974000,2.065973876953125,-0.21505650877952576,2.0520682334899902,0.17892885208129883
1779958162616297500,2.08229736328125,0.11560966074466705,0.3231058120727539,1.975285530090332
1779958162632641000,2.09864111328125,-0.9867628812789917,1.4205827713012695,1.9737944602966309
1779958162648972800,2.114972900390625,-2.183414936065674,3.861649990081787,0.3156723976135254
1779958162665304000,2.131303955078125,-2.5976343154907227,4.201231956481934,2.0543813705444336
1779958162681633500,2.147633544921875,-1.1998977661132812,1.8035588264465332,3.0383095741271973
1779958162697974000,2.16397412109375,0.610954225063324,0.07865047454833984,3.487454414367676
1779958162714300000,2.1802998046875,0.8625015616416931,-0.048483848571777344,3.2513484954833984
1779958162730613500,2.196613525390625,1.7472500801086426,-0.7749195098876953,2.0999250411987305
1779958162746976500,2.2129765625,0.360820472240448,-0.40868473052978516,0.9933481216430664
1779958162763305500,2.229305419921875,2.6333444118499756,-0.6876249313354492,-0.34017419815063477
1779958162779628500,2.245628662109375,3.1546645164489746,-3.9948244094848633,-2.983933687210083
1779958162795968000,2.261968017578125,0.9547436237335205,-2.379487991333008,-4.092523097991943
1779958162812305200,2.27830517578125,0.31611040234565735,-0.12702274322509766,-3.0917508602142334
1779958162828640000,2.294639892578125,0.6020406484603882,0.08761310577392578,-1.779517412185669
1779958162844965600,2.310965576171875,1.3274987936019897,0.48573970794677734,0.00019407272338867188
1779958162861293300,2.327293212890625,0.358643501996994,-0.04844093322753906,1.0199456214904785
1779958162877635600,2.343635498046875,-0.809959352016449,-0.07406044006347656,0.7328157424926758
1779958162893960000,2.3599599609375,-1.1411054134368896,0.17522048950195312,0.28351593017578125
1779958162910295800,2.3762958984375,-0.20653986930847168,2.615602970123291,0.6421692371368408
1779958162926612200,2.3926123046875,-0.011021316051483154,2.452061176300049,1.0567905902862549
1779958162942965500,2.408965576171875,-0.32491564750671387,1.817812442779541,0.9719114303588867
1779958162959292700,2.425292724609375,-0.7874144911766052,2.135469913482666,0.982964038848877
1779958162975625000,2.441625,0.3517773449420929,0.2837991714477539,1.2816057205200195
1779958162991959000,2.457958984375,4.721719741821289,-0.5313692092895508,0.8003230094909668
1779958163008288300,2.474288330078125,3.2539162635803223,2.065670967102051,-0.8251482248306274
1779958163024602000,2.49060205078125,-0.9794610738754272,1.6506047248840332,-2.482668399810791
1779958163040941000,2.506941162109375,-2.531615734100342,1.6781501770019531,-1.9572608470916748
1779958163057271600,2.523271484375,0.7317318916320801,-0.9160776138305664,-1.2425943613052368
1779958163073603300,2.539603271484375,1.6253290176391602,-3.2822914123535156,-1.1927871704101562
1779958163089934600,2.5559345703125,0.6464486122131348,-4.933499336242676,-0.06691837310791016
1779958163106267000,2.572266845703125,-0.8644115924835205,-5.594895362854004,1.1324424743652344
1779958163122600200,2.58860009765625,-0.6283639669418335,-3.587217330932617,1.4143469333648682
1779958163138930200,2.60493017578125,-0.5274476408958435,-0.3518695831298828,0.33098483085632324
1779958163155250400,2.62125048828125,-0.20788657665252686,0.6280202865600586,-0.38509631156921387
1779958163171598600,2.6375986328125,0.7816067337989807,0.4520092010498047,-0.717355489730835
1779958163187926300,2.65392626953125,1.7048388719558716,0.5727062225341797,-0.43883633613586426
1779958163204242200,2.6702421875,-0.6700729131698608,0.8320846557617188,-0.16162729263305664
1779958163220595500,2.686595458984375,-0.28703486919403076,0.6077594757080078,1.7180733680725098
1779958163236936400,2.7029365234375,0.30479633808135986,2.1289987564086914,1.2316501140594482
1779958163253270000,2.71927001953125,1.4434897899627686,1.400576114654541,1.3140134811401367
1779958163269599200,2.73559912109375,1.0660403966903687,-0.9344921112060547,1.9191226959228516
1779958163285933600,2.75193359375,-0.9402281045913696,-0.45851612091064453,2.069683790206909
1779958163302262800,2.7682626953125,-2.17050838470459,-0.21675777435302734,2.4520366191864014
1779958163318598000,2.784597900390625,-2.8851895332336426,-0.14650726318359375,2.552565336227417
1779958163334926600,2.800926513671875,-0.596886157989502,0.4161529541015625,-1.7845786809921265
1779958163351258000,2.817258056640625,3.4072861671447754,2.057431697845459,-5.464515686035156
1779958163367594800,2.8335947265625,8.821547508239746,4.38797664642334,-11.318037986755371
1779958163383923200,2.849923095703125,4.645941734313965,1.153508186340332,-0.5346179008483887
1779958163400251400,2.86625146484375,0.9885727167129517,0.7136697769165039,2.0000369548797607
1779958163416572400,2.882572509765625,-2.208284854888916,1.7871737480163574,0.9288456439971924
1779958163432919800,2.898919921875,-2.0746073722839355,2.4784884452819824,-0.22439420223236084
1779958163449240600,2.915240478515625,-0.3014620542526245,0.853428840637207,1.8568521738052368
1779958163465584000,2.931584228515625,-0.7608601450920105,-3.5146665573120117,1.856959581375122
1779958163481916200,2.947916259765625,-0.5158107876777649,-3.9097795486450195,0.9253103733062744
1779958163498247000,2.964246826171875,-0.6880412101745605,-2.939204216003418,0.32939445972442627
1779958163514575000,2.9805751953125,-0.6344602108001709,-1.1389884948730469,0.2687249183654785
1779958163530894800,2.996894775390625,0.6135415434837341,0.26595306396484375,0.5644850730895996
1779958163547234600,3.013234619140625,1.1022727489471436,1.463120460510254,0.46486353874206543
1779958163563563300,3.029563232421875,-0.102569580078125,2.3048629760742188,-0.10782074928283691
1779958163579895600,3.0458955078125,-0.4166848063468933,1.9091782569885254,-0.41390079259872437
1779958163596225500,3.0622255859375,1.7226738929748535,0.4955759048461914,0.41012275218963623
1779958163612560100,3.07856005859375,0.19715508818626404,-0.4460487365722656,0.6178257465362549
1779958163628894000,3.09489404296875,-1.0202159881591797,-0.08246231079101562,0.07487177848815918
1779958163645221000,3.11122119140625,-0.34992241859436035,-0.8969974517822266,-0.2113475799560547
1779958163661544200,3.127544189453125,1.0463173389434814,-1.885141372680664,0.2986617088317871
1779958163677888500,3.143888427734375,0.4159156084060669,-2.2087650299072266,0.5411466360092163
1779958163694218200,3.16021826171875,-0.6570332646369934,-1.5396442413330078,0.11275380849838257
1779958163710563000,3.17656298828125,-0.42400962114334106,-0.0317230224609375,-0.14453768730163574
1779958163726877200,3.192877197265625,-0.6283935308456421,-0.504730224609375,-0.09500640630722046
1779958163743221200,3.20922119140625,0.43780794739723206,-0.3406791687011719,0.5285016894340515
1779958163759545900,3.2255458984375,1.0108492374420166,0.7369832992553711,0.48831409215927124
1779958163775876600,3.241876708984375,-1.0835950374603271,4.094015598297119,-0.12831759452819824
1779958163792210200,3.258210205078125,-0.8514922857284546,0.9209117889404297,0.15717023611068726
1779958163808568000,3.274568115234375,1.5360548496246338,-9.40442943572998,-0.2608645260334015
1779958163824852700,3.290852783203125,2.526261329650879,-2.0580196380615234,-1.5964491367340088
1779958163841194000,3.307194091796875,0.06449639797210693,0.6728410720825195,0.11829239130020142
1779958163857542700,3.323542724609375,-0.06180131435394287,0.6920347213745117,-0.015570878982543945
1779958163873872000,3.339871826171875,-0.078703373670578,0.26699352264404297,-0.28221821784973145
1779958163890201600,3.35620166015625,0.3695986866950989,0.14728355407714844,-0.5069252848625183
1779958163906549200,3.37254931640625,0.25421980023384094,-0.1060943603515625,-0.2970147728919983
1779958163922865700,3.38886572265625,0.1539527326822281,-0.32019901275634766,-0.5890698432922363
1779958163939215600,3.405215576171875,0.08080314099788666,-0.2566041946411133,-0.824600338935852
1779958163955557000,3.42155712890625,0.1461777538061142,-0.16617488861083984,-0.6811180114746094
1779958163971881500,3.437881591796875,0.06862065196037292,-0.19502830505371094,-0.5426284670829773
1779958163988208000,3.4542080078125,0.06064978241920471,-0.20960330963134766,-0.5972355604171753
1779958164004541200,3.470541259765625,0.13071389496326447,-0.10986137390136719,-0.5469103455543518
1779958164020856800,3.48685693359375,0.30836641788482666,0.0658102035522461,-0.2762719988822937
1779958164037192000,3.50319189453125,0.43750616908073425,0.16474056243896484,0.03295695781707764
1779958164053523700,3.519523681640625,0.43583202362060547,0.1636638641357422,0.1791732907295227
1779958164069856500,3.5358564453125,0.2691630423069,0.1973886489868164,0.1183476448059082
1779958164086171600,3.552171630859375,0.13763582706451416,0.10696887969970703,-0.02079981565475464
1779958164102519600,3.56851953125,-0.07283660769462585,0.035958290100097656,-0.026652395725250244
1779958164118856400,3.5848564453125,-0.13329792022705078,-0.001979827880859375,0.0999828577041626
1779958164135184000,3.601183837890625,-0.06347888708114624,-0.05484771728515625,0.2268669605255127
1779958164151515600,3.617515625,0.008025243878364563,0.17458820343017578,0.3861607313156128
1779958164167855000,3.633855224609375,0.042504698038101196,0.06416893005371094,0.5339669585227966
1779958164184180000,3.650179931640625,0.03763917088508606,0.040416717529296875,0.5470737814903259
1779958164200512800,3.6665126953125,-0.0615510493516922,0.011806488037109375,0.6358895897865295
1779958164216864500,3.682864501953125,0.10644815117120743,-0.0844564437866211,0.6536796689033508
1779958164233190100,3.699190185546875,0.05738078057765961,-0.10843086242675781,0.5922760963439941
1779958164249526300,3.7155263671875,0.05896887183189392,-0.05110931396484375,0.5561763644218445
1779958164265851000,3.731850830078125,0.045925796031951904,0.044411659240722656,0.5674679279327393
1779958164282168300,3.748168212890625,0.23472821712493896,-0.0036993026733398438,0.5553791522979736
1779958164298520600,3.7645205078125,0.43599584698677063,-0.14261341094970703,0.3923962712287903
1779958164314851600,3.7808515625,0.48873576521873474,-0.3955650329589844,0.16653478145599365
1779958164331166500,3.79716650390625,0.3590736985206604,0.07894515991210938,0.0728377103805542
1779958164347513600,3.813513671875,0.43134385347366333,0.0683584213256836,0.33858948945999146
1779958164363847200,3.82984716796875,0.3695138990879059,0.5175466537475586,0.5019092559814453
1779958164380177700,3.846177734375,0.25553059577941895,0.6565999984741211,0.3801116347312927
1779958164396488700,3.86248876953125,0.04186350107192993,0.6135978698730469,0.3791409134864807
1779958164412843000,3.878843017578125,0.04902762174606323,0.2691192626953125,0.28751134872436523
1779958164429175800,3.89517578125,0.04374536871910095,0.2121295928955078,0.010248184204101562
1779958164445518000,3.91151806640625,-0.005048647522926331,-0.007266998291015625,-0.00497591495513916
1779958164461836800,3.9278369140625,0.03313152492046356,-0.3329153060913086,0.15548068284988403
1779958164478168600,3.94416845703125,0.13089297711849213,0.685394287109375,0.3596341013908386
1779958164494502100,3.960502197265625,0.05224709212779999,1.245753288269043,0.4050026535987854
1779958164510832000,3.97683203125,-0.1659887731075287,0.5020923614501953,0.17881208658218384
1779958164527149800,3.99314990234375,0.30357804894447327,-1.6083555221557617,0.13521486520767212
1779958164543484200,4.009484130859375,0.0372786819934845,-2.702737808227539,-0.35345694422721863
1779958164559814700,4.025814697265625,0.181780144572258,-0.8002653121948242,-0.5613349676132202
1779958164576142000,4.04214208984375,0.31211844086647034,0.0054492950439453125,-0.21461394429206848
1779958164592481000,4.05848095703125,0.3142909109592438,0.2915477752685547,-0.16609174013137817
1779958164608810500,4.074810546875,0.24155749380588531,0.4826087951660156,-0.025204479694366455
1779958164625144600,4.09114453125,0.30329012870788574,0.46656322479248047,0.3024904727935791
1779958164641476900,4.107476806640625,0.2782100737094879,0.24644947052001953,0.22331136465072632
1779958164657809000,4.123808837890625,0.12347914278507233,0.11739540100097656,0.08060497045516968
1779958164674140200,4.14014013671875,-0.012025684118270874,0.146331787109375,0.07731527090072632
1779958164690471700,4.1564716796875,-0.0724179744720459,0.0741729736328125,0.1265796422958374
1779958164706817800,4.17281787109375,-0.07171830534934998,0.016442298889160156,0.13849246501922607
1779958164723152400,4.18915234375,-0.014046192169189453,-0.00293731689453125,0.18132299184799194
1779958164739474000,4.205473876953125,0.05769750475883484,0.05365276336669922,0.2817583680152893
1779958164755800600,4.221800537109375,0.09249718487262726,-0.03767204284667969,0.23037171363830566
1779958164772132000,4.238132080078125,-0.0042569637298583984,-0.25236988067626953,0.007754147052764893
1779958164788464600,4.254464599609375,0.06275856494903564,-0.2529468536376953,-0.13504129648208618
1779958164804796700,4.270796630859375,0.16781698167324066,-0.01899242401123047,-0.11726105213165283
1779958164821129700,4.287129638671875,0.23505450785160065,0.09890556335449219,0.005993366241455078
1779958164837478100,4.30347802734375,0.2647304832935333,0.13186073303222656,0.0478971004486084
1779958164853807600,4.3198076171875,0.28312116861343384,0.13143634796142578,0.08019500970840454
1779958164870137900,4.336137939453125,0.28528666496276855,0.03541278839111328,0.13245296478271484
1779958164886462700,4.352462646484375,0.21967490017414093,0.03990650177001953,0.10257840156555176
1779958164902783000,4.368782958984375,0.1447480320930481,0.01628589630126953,0.05776214599609375
1779958164919137800,4.3851376953125,0.07666143774986267,0.05429267883300781,0.012090206146240234
1779958164935449000,4.401448974609375,0.2782888412475586,-0.008084297180175781,-0.01762932538986206
1779958164951785500,4.417785400390625,0.142284095287323,-0.021930694580078125,-0.11009007692337036
1779958164968116700,4.43411669921875,0.23044909536838531,0.0013580322265625,-0.07001036405563354
1779958164984450000,4.450449951171875,0.14722466468811035,0.039638519287109375,-0.030347347259521484
1779958165000781000,4.466781005859375,0.12557652592658997,0.039642333984375,0.01962578296661377
1779958165017097200,4.48309716796875,0.062056899070739746,-0.0034770965576171875,0.07341998815536499
1779958165033449500,4.499449462890625,0.07926136255264282,-0.022718429565429688,0.16104978322982788
1779958165049775900,4.51577587890625,0.10063672065734863,0.034648895263671875,0.13298380374908447
1779958165066087000,4.5320869140625,0.10281538963317871,0.053732872009277344,0.10014915466308594
1779958165082438700,4.548438720703125,0.07258361577987671,0.020157814025878906,0.04766547679901123
1779958165098776300,4.5647763671875,0.0707610547542572,0.03922748565673828,0.07258480787277222
1779958165115104800,4.581104736328125,0.030303955078125,0.05349445343017578,0.11618942022323608
1779958165131439400,4.597439453125,0.08979341387748718,0.029425621032714844,0.12603849172592163
1779958165147770400,4.613770263671875,0.08804485201835632,0.014902114868164062,0.08149123191833496
1779958165164101600,4.6301015625,0.08187723159790039,-0.018174171447753906,0.018566548824310303
1779958165180429800,4.646429931640625,0.10444831848144531,-0.004619598388671875,0.03698641061782837
1779958165196773400,4.6627734375,0.06647396087646484,-0.004874229431152344,0.046344876289367676
1779958165213100300,4.679100341796875,0.09550154209136963,-0.0721588134765625,0.07438129186630249
1779958165229442600,4.695442626953125,0.08568525314331055,-0.076568603515625,0.021705031394958496
1779958165245776400,4.7117763671875,0.07184699177742004,0.027957916259765625,0.03768688440322876
1779958165262116400,4.728116455078125,0.14812636375427246,0.06613445281982422,0.05979722738265991
1779958165278439700,4.744439697265625,0.0768592357635498,0.06601905822753906,0.04208749532699585
1779958165294773200,4.760773193359375,0.05650773644447327,0.037811279296875,0.04833030700683594
1779958165311102500,4.7771025390625,0.12019491195678711,-0.015424728393554688,0.030481994152069092
1779958165327435800,4.793435791015625,0.08788913488388062,0.00916290283203125,-0.011053979396820068
1779958165343767000,4.80976708984375,0.07878068089485168,0.02362823486328125,-0.008839607238769531
1779958165360105000,4.82610498046875,0.06926313042640686,0.04294109344482422,0.013783574104309082
1779958165376413700,4.84241357421875,0.19735315442085266,0.01865673065185547,0.051531076431274414
1779958165392755700,4.858755615234375,0.2627193331718445,0.04286956787109375,0.0699264407157898
1779958165409111300,4.875111328125,0.1264914870262146,0.024069786071777344,0.04824554920196533
1779958165425428000,4.891427978515625,0.09806382656097412,0.0011835098266601562,0.037631094455718994
1779958165441759200,4.90775927734375,0.06005668640136719,0.00640106201171875,0.0939522385597229
1779958165458108700,4.924108642578125,0.015481352806091309,-0.012537956237792969,0.1439639925956726
1779958165474424000,4.940424072265625,-0.047912269830703735,-0.08436870574951172,0.14516031742095947
1779958165490755600,4.956755615234375,-0.001479029655456543,-0.02704620361328125,0.15698301792144775
1779958165507105500,4.97310546875,0.01717999577522278,-0.003871917724609375,0.16759955883026123
1779958165523404000,4.989404052734375,-0.02030053734779358,-0.02741241455078125,0.12471729516983032
1779958165539738000,5.005738037109375,-0.029074013233184814,0.005818367004394531,0.13457679748535156
1779958165556070700,5.022070556640625,-0.03133857250213623,0.0054454803466796875,0.12989556789398193
1779958165572401200,5.038401123046875,0.06591445207595825,0.018827438354492188,0.1351180076599121
1779958165588736500,5.054736572265625,0.08317044377326965,0.042944908142089844,0.08732247352600098
1779958165605067300,5.0710673828125,0.048102766275405884,0.03288078308105469,0.09999853372573853
1779958165621399800,5.08739990234375,0.002040266990661621,-0.015358924865722656,0.041025638580322266
1779958165637728300,5.103728271484375,0.019836246967315674,-0.010799407958984375,0.016498088836669922
1779958165654063600,5.120063720703125,0.06518155336380005,0.032095909118652344,0.05507159233093262
1779958165670397400,5.1363974609375,0.08745092153549194,0.05993175506591797,0.11604911088943481
1779958165686738200,5.15273828125,0.09570485353469849,0.05002784729003906,0.11363452672958374
1779958165703071700,5.16907177734375,0.12763118743896484,0.045577049255371094,0.05479151010513306
1779958165719403300,5.1854033203125,0.05273234844207764,0.055060386657714844,-0.008489072322845459
1779958165735736800,5.20173681640625,0.03255540132522583,-0.03570842742919922,-0.007941186428070068
1779958165752063000,5.21806298828125,0.0113297700881958,0.031495094299316406,0.046797990798950195
1779958165768407000,5.234406982421875,0.020446062088012695,0.007628440856933594,0.10067206621170044
1779958165784734200,5.250734130859375,0.040461599826812744,0.0027666091918945312,0.0864332914352417
1779958165801067500,5.267067626953125,0.04715144634246826,0.0313720703125,0.03799855709075928
1779958165817397500,5.2833974609375,0.0608634352684021,0.0744333267211914,0.05690723657608032
1779958165833724400,5.299724365234375,0.02226436138153076,-0.030809402465820312,0.03219783306121826
1779958165850065400,5.3160654296875,-0.04922300577163696,-0.049912452697753906,0.04637664556503296
1779958165866402000,5.332402099609375,0.035512566566467285,-0.016388893127441406,0.12375509738922119
1779958165882727400,5.3487275390625,0.046827495098114014,0.04030895233154297,0.13333606719970703
1779958165899060000,5.36506005859375,0.03984332084655762,0.0023822784423828125,0.09824645519256592
1779958165915390000,5.381389892578125,0.007562398910522461,0.002254486083984375,0.043346941471099854
1779958165931721200,5.39772119140625,0.003207981586456299,0.006978034973144531,0.05230104923248291
1779958165948036000,5.4140361328125,0.05660057067871094,-0.031357765197753906,0.06171917915344238
1779958165964371200,5.43037109375,0.030196070671081543,-0.007555961608886719,0.06184375286102295
1779958165980737300,5.4467373046875,0.041536688804626465,0.044940948486328125,0.08143448829650879
1779958165997036800,5.463036865234375,0.08132955431938171,0.06872844696044922,0.06138712167739868
1779958166013348900,5.479348876953125,0.09239280223846436,0.006378173828125,0.035961687564849854
1779958166029700000,5.4957001953125,0.0643688440322876,-0.03678703308105469,0.0009205341339111328
1779958166046021000,5.512021240234375,0.09860074520111084,-0.00333404541015625,0.01103973388671875
1779958166062350800,5.528350830078125,0.06125521659851074,0.020586013793945312,0.03576260805130005
1779958166078699000,5.544698974609375,0.12323236465454102,0.039696693420410156,0.05951249599456787
1779958166095029200,5.561029296875,0.09560638666152954,0.025247573852539062,0.0344884991645813
1779958166111361500,5.577361572265625,0.12758681178092957,0.00128936767578125,0.04739499092102051
1779958166127693300,5.593693359375,0.06889432668685913,0.010923385620117188,0.008305251598358154
1779958166144031200,5.61003125,0.06237351894378662,0.011011123657226562,0.01288217306137085
1779958166160356900,5.62635693359375,0.09892266988754272,0.011059761047363281,0.05026334524154663
1779958166176689200,5.642689208984375,0.10168161988258362,0.010456085205078125,0.05357402563095093
1779958166193022700,5.659022705078125,0.09738540649414062,-0.008160591125488281,0.037831902503967285
1779958166209366000,5.675365966796875,0.08721363544464111,-0.0655984878540039,0.002933979034423828
1779958166225699300,5.69169921875,0.07211524248123169,0.011022567749023438,-0.015415370464324951
1779958166242030800,5.70803076171875,0.062443673610687256,0.02541065216064453,0.023278772830963135
1779958166258350800,5.724350830078125,0.0008819699287414551,0.020574569702148438,0.027242600917816162
1779958166274659600,5.74065966796875,0.0024437904357910156,-0.022617340087890625,0.021923065185546875
1779958166291014400,5.757014404296875,0.0188940167427063,-0.046654701232910156,0.0024200081825256348
1779958166307346000,5.773345947265625,-0.013653874397277832,0.005915641784667969,0.026645004749298096
1779958166323678000,5.789677978515625,0.13941621780395508,0.053101539611816406,0.09952986240386963
1779958166339997400,5.80599755859375,0.11233842372894287,0.01948261260986328,0.08831429481506348
1779958166356333600,5.82233349609375,0.09848380088806152,0.03914165496826172,0.03477996587753296
1779958166372677600,5.838677734375,0.11323431134223938,0.015202522277832031,0.015238285064697266
1779958166389019000,5.855018798828125,0.1264328956604004,-0.01823711395263672,0.0007767081260681152
1779958166405351000,5.871350830078125,0.10563495755195618,0.03450202941894531,0.015148520469665527
1779958166421671700,5.887671630859375,0.1031431257724762,0.015461921691894531,0.03896421194076538
1779958166438014500,5.904014404296875,0.11548656225204468,-0.022719383239746094,0.03876978158950806
1779958166454340900,5.9203408203125,0.12436029314994812,-0.01786041259765625,0.019582748413085938
1779958166470698800,5.93669873046875,0.13778960704803467,0.02527141571044922,0.005951821804046631
1779958166486999300,5.952999267578125,0.12122324109077454,0.034333229064941406,0.0340312123298645
1779958166503331000,5.9693310546875,0.09554174542427063,0.006328582763671875,0.028863728046417236
1779958166519661300,5.985661376953125,0.06486940383911133,-0.007885932922363281,0.005410313606262207
1779958166535990500,6.001990478515625,0.054323673248291016,-0.0029811859130859375,0.035245418548583984
1779958166552327400,6.018327392578125,0.11524012684822083,0.0012969970703125,0.0743681788444519
1779958166568662000,6.034662109375,0.07654887437820435,0.011507034301757812,0.06032377481460571
1779958166584985300,6.0509853515625,0.07555598020553589,0.006814002990722656,0.07054144144058228
1779958166601323300,6.0673232421875,0.07390767335891724,0.011124610900878906,0.10455524921417236
1779958166617655600,6.083655517578125,0.053269386291503906,0.021387100219726562,0.09031844139099121
1779958166633986800,6.09998681640625,0.04789668321609497,0.011854171752929688,0.05213356018066406
1779958166650318600,6.116318603515625,0.07122933864593506,0.011938095092773438,0.028523147106170654
1779958166666653000,6.13265283203125,0.035815417766571045,-0.016648292541503906,0.03303241729736328
1779958166682998800,6.148998779296875,0.02917158603668213,-0.006931304931640625,0.02420264482498169
1779958166699327500,6.165327392578125,0.05128040909767151,0.02666950225830078,0.06843763589859009
1779958166715661000,6.1816611328125,0.09333145618438721,0.03567695617675781,0.09680300951004028
1779958166731989500,6.197989501953125,0.07322147488594055,0.0021724700927734375,0.09578937292098999
1779958166748323800,6.21432373046875,0.06713074445724487,-0.01636505126953125,0.07072973251342773
1779958166764658000,6.230657958984375,0.02403247356414795,-0.04027557373046875,0.050714731216430664
1779958166780983300,6.2469833984375,0.013763606548309326,0.012398719787597656,0.07510840892791748
1779958166797325800,6.263325927734375,0.05216190218925476,0.05487632751464844,0.08066850900650024
1779958166813654800,6.27965478515625,0.08979189395904541,0.04530525207519531,0.060905277729034424
1779958166829992200,6.2959921875,0.08877390623092651,0.011847496032714844,0.021844148635864258
1779958166846317300,6.3123173828125,0.0570673942565918,0.0030469894409179688,-0.011512398719787598
1779958166862648800,6.32864892578125,0.04894039034843445,0.02721691131591797,0.032603919506073
1779958166878981400,6.3449814453125,0.03637179732322693,0.02260112762451172,0.07633835077285767
1779958166895313400,6.3613134765625,0.04369157552719116,0.012524604797363281,0.07587701082229614
1779958166911645200,6.377645263671875,0.07082036137580872,-0.0011463165283203125,0.037078797817230225
1779958166927976700,6.393976806640625,0.06906911730766296,-0.010621070861816406,0.027567744255065918
1779958166944310800,6.410310791015625,0.06214657425880432,-0.010458946228027344,0.023603320121765137
1779958166960639700,6.4266396484375,0.07373741269111633,-0.0007181167602539062,0.053258299827575684
1779958166976971300,6.44297119140625,0.052693337202072144,0.04189014434814453,0.08260804414749146
1779958166993307100,6.45930712890625,0.03152352571487427,0.02284526824951172,0.09202057123184204
1779958167009624300,6.475624267578125,0.05857914686203003,-0.005833625793457031,0.0863415002822876
1779958167025944300,6.4919443359375,0.03422117233276367,-0.01959514617919922,0.0470958948135376
1779958167042295800,6.5082958984375,0.03294616937637329,0.01873493194580078,0.032348692417144775
1779958167058613500,6.524613525390625,0.06871494650840759,0.03257179260253906,0.07028388977050781
1779958167074955500,6.54095556640625,0.04274490475654602,-0.010415077209472656,0.06512606143951416
1779958167091288300,6.557288330078125,0.003713667392730713,0.008768081665039062,0.06463897228240967
1779958167107617800,6.57361767578125,-0.011564195156097412,0.01896381378173828,0.049308180809020996
1779958167123949300,6.58994921875,0.05506354570388794,-0.01992321014404297,0.035182833671569824
1779958167140280800,6.60628076171875,0.09725257754325867,-0.000751495361328125,0.02113783359527588
1779958167156613600,6.622613525390625,0.11448514461517334,0.018438339233398438,0.02081388235092163
1779958167172945700,6.638945556640625,0.0985822081565857,0.008917808532714844,0.03466391563415527
1779958167189277000,6.65527685546875,0.06442198157310486,-0.010210990905761719,0.02845972776412964
1779958167205597000,6.671596923828125,0.06405329704284668,-0.0000629425048828125,-0.010496437549591064
1779958167221941800,6.687941650390625,0.07401460409164429,0.028609275817871094,0.008865177631378174
1779958167238272800,6.704272705078125,0.10170814394950867,-0.024003982543945312,-0.0011286139488220215
1779958167254606300,6.7206064453125,0.10430252552032471,0.038326263427734375,-0.015336394309997559
1779958167270954200,6.736954345703125,0.08222374320030212,0.03311920166015625,0.019119679927825928
1779958167287294200,6.753294189453125,0.04173418879508972,0.023712158203125,0.04814988374710083
1779958167303617500,6.769617431640625,0.030185937881469727,0.009479522705078125,0.058155953884124756
1779958167319946200,6.7859462890625,0.03955700993537903,-0.028760910034179688,0.04388284683227539
1779958167336299300,6.80229931640625,0.07624262571334839,-0.004795074462890625,0.0538409948348999
1779958167352611600,6.818611572265625,0.051677316427230835,-0.009573936462402344,0.04802238941192627
1779958167368944600,6.834944580078125,0.03687018156051636,0.004796028137207031,0.05270278453826904
1779958167385276400,6.8512763671875,0.03004997968673706,0.028841018676757812,0.0577051043510437
1779958167401608200,6.867608154296875,-0.010507702827453613,0.07203960418701172,0.09627151489257812
1779958167417939700,6.883939697265625,0.019473522901535034,0.05301189422607422,0.12931495904922485
1779958167434273500,6.9002734375,0.0024014711380004883,0.04834461212158203,0.07594513893127441
1779958167450603500,6.916603515625,-0.021180927753448486,0.08680343627929688,0.06568270921707153
1779958167466937300,6.932937255859375,-0.043419599533081055,0.08228683471679688,0.09739035367965698
1779958167483330000,6.949330078125,-0.036338984966278076,0.10658645629882812,0.132945716381073
1779958167499570700,6.96557080078125,-0.09791332483291626,0.13104534149169922,0.18451309204101562
1779958167515918000,6.98191796875,-0.22370395064353943,0.16069793701171875,0.21159499883651733
1779958167532251400,6.99825146484375,-0.2171095609664917,0.0903778076171875,0.29300159215927124
1779958167548583400,7.01458349609375,-0.09146443009376526,-0.1513967514038086,0.04195624589920044
1779958167564914400,7.03091455078125,0.1964002549648285,-0.3080558776855469,-0.16993263363838196
1779958167581248500,7.04724853515625,0.1369757205247879,-0.30651378631591797,-0.30814218521118164
1779958167597580300,7.063580322265625,0.18089208006858826,-0.9036684036254883,-0.3387076258659363
1779958167613911300,7.079911376953125,0.28733399510383606,-0.2820930480957031,-0.49107545614242554
1779958167630242600,7.09624267578125,0.27894315123558044,0.4112415313720703,-0.6126264929771423
1779958167646576400,7.112576416015625,0.15865589678287506,0.2875795364379883,-0.5059012770652771
1779958167662895600,7.1288955078125,0.1540365219116211,0.4405393600463867,-0.41100606322288513
1779958167679258400,7.14525830078125,0.22036312520503998,0.11077213287353516,-0.3178098201751709
1779958167695586800,7.1615869140625,0.3301815390586853,-0.03245067596435547,-0.2727585434913635
1779958167711916300,7.177916259765625,0.2952970862388611,-0.2146472930908203,-0.15897372364997864
1779958167728248600,7.19424853515625,0.29717400670051575,-0.13776302337646484,-0.16372627019882202
1779958167744584000,7.210583984375,0.24821971356868744,-0.05600261688232422,-0.08311030268669128
1779958167760897500,7.2268974609375,0.21635884046554565,0.10175323486328125,-0.020988941192626953
1779958167777247000,7.2432470703125,0.14814791083335876,0.1069631576538086,0.0767207145690918
1779958167793579800,7.259579833984375,0.1934172362089157,0.0068264007568359375,0.04926145076751709
1779958167809908700,7.27590869140625,0.20989906787872314,-0.09330463409423828,0.015870332717895508
1779958167826226000,7.292225830078125,0.21835823357105255,-0.10182952880859375,-0.07177487015724182
1779958167842569500,7.308569580078125,0.1532806158065796,-0.07742881774902344,-0.11900007724761963
1779958167858909400,7.324909423828125,0.22944658994674683,-0.07701969146728516,-0.1461769938468933
1779958167875239700,7.34123974609375,0.24124617874622345,-0.10609626770019531,-0.0081329345703125
1779958167891570400,7.3575703125,0.2031603306531906,-0.03949737548828125,0.17357921600341797
1779958167907894800,7.373894775390625,0.12750302255153656,-0.02498626708984375,0.2916184663772583
1779958167924242700,7.39024267578125,-0.08888919651508331,-0.11103057861328125,0.49316513538360596
1779958167940566300,7.406566162109375,0.07969881594181061,0.0800323486328125,0.44093623757362366
1779958167956917200,7.422917236328125,-0.047686055302619934,0.08542633056640625,0.49604812264442444
1779958167973233000,7.43923291015625,0.05171781778335571,0.1134653091430664,0.5292097926139832
1779958167989546000,7.4555458984375,-0.004613205790519714,0.11384010314941406,0.45921340584754944
1779958168005881000,7.471881103515625,-0.1462935507297516,0.02262401580810547,0.4597565233707428
1779958168022209500,7.48820947265625,-0.18467053771018982,0.07992744445800781,0.5165863037109375
1779958168038530800,7.50453076171875,-0.14227719604969025,0.18935680389404297,0.6056516766548157
1779958168054874600,7.52087451171875,-0.2839275002479553,0.18504047393798828,0.6386851072311401
1779958168071207200,7.537207275390625,-0.30149149894714355,0.06581974029541016,0.4836779534816742
1779958168087545900,7.5535458984375,-0.5077553987503052,-0.03355216979980469,0.37645819783210754
1779958168103874300,7.569874267578125,-0.12313762307167053,0.10469627380371094,0.2240431010723114
1779958168120205300,7.586205322265625,-0.17825424671173096,0.061020851135253906,0.296321839094162
1779958168136538400,7.602538330078125,-0.05149737000465393,0.09926795959472656,0.25426411628723145
1779958168152870100,7.6188701171875,-0.038614124059677124,0.08064746856689453,0.12474235892295837
1779958168169219800,7.6352197265625,0.021229684352874756,0.03271293640136719,0.014054477214813232
1779958168185546800,7.651546630859375,0.027565523982048035,-0.06247425079345703,-0.1069054901599884
1779958168201880000,7.667880126953125,0.0695645660161972,-0.0959787368774414,-0.16054221987724304
1779958168218211300,7.68421142578125,0.11024963855743408,-0.029592514038085938,-0.09866470098495483
1779958168234545700,7.700545654296875,0.10647466778755188,0.037367820739746094,-0.08451533317565918
1779958168250859300,7.716859375,0.12298718094825745,0.018096923828125,-0.07638713717460632
1779958168267181300,7.733181396484375,0.20640689134597778,0.017971038818359375,-0.08165398240089417
1779958168283528000,7.74952783203125,0.2944897711277008,-0.04017353057861328,-0.03897753357887268
1779958168299860500,7.765860595703125,0.17414873838424683,-0.05411720275878906,-0.04613456130027771
1779958168316179200,7.78217919921875,0.030461326241493225,-0.020287513732910156,-0.04561424255371094
1779958168332524500,7.798524658203125,0.01611986756324768,-0.021218299865722656,-0.006112545728683472
1779958168348885500,7.814885498046875,0.1536673903465271,0.13100624084472656,0.08253204822540283
1779958168365198800,7.83119873046875,0.14219284057617188,0.1690225601196289,0.09837442636489868
1779958168381536000,7.847535888671875,0.07029616832733154,0.14487171173095703,0.12490397691726685
1779958168397869800,7.863869873046875,0.022125422954559326,0.13033103942871094,0.24874168634414673
1779958168414181400,7.880181396484375,0.05857919156551361,0.11521244049072266,0.3146657347679138
1779958168430529000,7.896529052734375,-0.04454639554023743,0.03907299041748047,0.23487001657485962
1779958168446867000,7.912866943359375,0.007690012454986572,-0.1518850326538086,0.039047062397003174
1779958168463195400,7.9291953125,0.05776755511760712,-0.06511211395263672,-0.15813496708869934
1779958168479508200,7.94550830078125,0.11219270527362823,0.0834054946899414,-0.17978158593177795
1779958168495832300,7.961832275390625,0.17659345269203186,0.15954017639160156,-0.06678545475006104
1779958168512178000,7.978177978515625,0.12281234562397003,0.07825088500976562,-0.00871509313583374
1779958168528504600,7.994504638671875,0.18837705254554749,-0.0036945343017578125,0.028884708881378174
1779958168544844800,8.0108447265625,0.26675236225128174,-0.046790122985839844,0.01810985803604126
1779958168561173500,8.027173583984375,0.22155793011188507,-0.07967185974121094,-0.046186089515686035
1779958168577505500,8.043505615234375,0.47164809703826904,-0.08495807647705078,-0.12072962522506714
1779958168593836500,8.05983642578125,-0.2501850724220276,-0.14049243927001953,-0.17843079566955566
1779958168610171400,8.07617138671875,-0.09908187389373779,-0.09245777130126953,-0.30894649028778076
1779958168626512400,8.092512451171874,0.18732617795467377,-0.03069782257080078,-0.3570752739906311
1779958168642823400,8.108823486328125,0.23813021183013916,-0.059329986572265625,-0.3771848976612091
1779958168659169500,8.12516943359375,0.21917417645454407,-0.04491710662841797,-0.3493557274341583
1779958168675511300,8.14151123046875,0.20871785283088684,-0.05440235137939453,-0.2924931049346924
1779958168691842800,8.1578427734375,0.2560562193393707,-0.020772933959960938,-0.2534937262535095
1779958168708159500,8.174159423828126,0.22822882235050201,0.012864112854003906,-0.271628201007843
1779958168724503600,8.190503662109375,0.08444198966026306,0.047120094299316406,-0.324567973613739
1779958168740839200,8.206839111328126,0.014152169227600098,-0.0005321502685546875,-0.28653162717819214
1779958168757175800,8.22317578125,-0.021051794290542603,-0.04336833953857422,-0.2109571099281311
1779958168773505000,8.239505126953125,0.05661393702030182,-0.06767559051513672,-0.18863946199417114
1779958168789834000,8.255833984375,0.06947310268878937,-0.038814544677734375,-0.16260507702827454
1779958168806168000,8.27216796875,0.02561083436012268,-0.0291748046875,-0.03650480508804321
1779958168822482700,8.288482666015625,-0.07014712691307068,0.04685020446777344,0.05530589818954468
1779958168838831000,8.3048310546875,-0.08947569131851196,0.061219215393066406,0.18029779195785522
1779958168855165000,8.3211650390625,-0.10338768362998962,-0.06330394744873047,0.25489702820777893
1779958168871480000,8.33747998046875,-0.07291844487190247,-0.09691905975341797,0.18678763508796692
1779958168887833900,8.353833740234375,0.027873873710632324,0.05556678771972656,0.18200668692588806
1779958168904157400,8.370157470703125,0.09501491487026215,0.14105606079101562,0.2882186472415924
1779958168920495600,8.38649560546875,0.054587364196777344,0.10746574401855469,0.3113410472869873
1779958168936825900,8.402825927734375,-0.008921146392822266,0.03616142272949219,0.2623665928840637
1779958168953141200,8.419141357421875,-0.049912065267562866,0.012155532836914062,0.2276405692100525
1779958168969471200,8.43547119140625,0.13607990741729736,0.09827232360839844,0.18100982904434204
1779958168985808400,8.451808349609376,0.15290459990501404,0.12229537963867188,0.24403828382492065
1779958169002139400,8.468139404296876,0.2049182802438736,0.04651832580566406,-0.07445049285888672
1779958169018472000,8.484471923828124,0.05899372696876526,-0.014880180358886719,-0.14044183492660522
1779958169034804500,8.500804443359375,0.022939324378967285,-0.009791374206542969,-0.13609707355499268
1779958169051136000,8.517135986328125,0.17240844666957855,-0.06754207611083984,-0.10768163204193115
1779958169067466500,8.533466552734374,0.09472396969795227,-0.1146249771118164,-0.14389953017234802
1779958169083802000,8.549802001953125,0.15111759305000305,-0.07664012908935547,-0.0844687819480896
1779958169100131800,8.5661318359375,-0.009611129760742188,-0.10391807556152344,-0.22859252989292145
1779958169116463900,8.5824638671875,-0.13518249988555908,-0.22341156005859375,-0.1555209457874298
1779958169132797000,8.598796875,-0.1339113712310791,-0.2662372589111328,-0.05148512125015259
1779958169149131300,8.61513134765625,-0.04101744294166565,0.02541828155517578,-0.0921315848827362
1779958169165474800,8.631474853515625,0.21451574563980103,0.2013225555419922,0.16507160663604736
1779958169181803800,8.6478037109375,-0.0027387142181396484,0.2819480895996094,0.3933675289154053
1779958169198140400,8.664140380859376,-0.06613028049468994,0.19561290740966797,0.46259161829948425
1779958169214467600,8.680467529296875,-0.15349653363227844,0.1003265380859375,0.3209535777568817
1779958169230811100,8.69681103515625,-0.15813180804252625,0.062478065490722656,0.252311110496521
1779958169247123200,8.713123291015625,-0.17411109805107117,0.06710529327392578,0.2801254093647003
1779958169263463000,8.729462890625,-0.19599509239196777,-0.019132614135742188,0.20617401599884033
1779958169279797800,8.7457978515625,-0.16322201490402222,-0.05208778381347656,0.08917203545570374
1779958169296131800,8.7621318359375,-0.04477134346961975,-0.03779029846191406,-0.017487645149230957
1779958169312462300,8.77846240234375,0.05888901650905609,0.1009359359741211,-0.08046314120292664
1779958169328794600,8.794794677734375,0.07168971002101898,0.17211055755615234,-0.07705748081207275
1779958169345126700,8.811126708984375,0.04017677903175354,0.11055183410644531,-0.0639287531375885
1779958169361459700,8.827459716796875,0.004563808441162109,0.05321025848388672,-0.020381122827529907
1779958169377792000,8.8437919921875,0.0017516016960144043,0.015065193176269531,0.019160032272338867
1779958169394123800,8.860123779296876,-0.03749603033065796,-0.02774333953857422,0.0348798930644989
1779958169410440400,8.8764404296875,-0.08275112509727478,0.010201454162597656,0.13698935508728027
1779958169426788900,8.892788818359374,-0.11809226870536804,0.029512405395507812,0.1943361461162567
1779958169443103700,8.909103759765625,-0.10879719257354736,0.02002716064453125,0.14010533690452576
1779958169459434000,8.92543408203125,-0.03219884634017944,-0.0038366317749023438,0.10574102401733398
1779958169475771100,8.941771240234376,0.0253770649433136,0.010582923889160156,0.11009290814399719
1779958169492103000,8.95810302734375,0.002362191677093506,0.02977466583251953,0.10832491517066956
1779958169508422000,8.974421875,0.03759510815143585,0.0632772445678711,0.12156012654304504
1779958169524763600,8.990763671875,0.011302843689918518,0.0009918212890625,0.0845232903957367
1779958169541102300,9.007102294921875,0.00972767174243927,-0.14206790924072266,-0.005068778991699219
1779958169557431800,9.023431884765625,0.07750116288661957,-0.051743507385253906,-0.044998109340667725
1779958169573764600,9.0397646484375,0.14983013272285461,0.10618019104003906,-0.0024584829807281494
1779958169590092500,9.056092529296874,0.43278390169143677,0.13366127014160156,0.07387897372245789
1779958169606427100,9.07242724609375,4.663183689117432,0.1866292953491211,0.9241244792938232
1779958169622752300,9.088752197265626,-3.5373101234436035,0.38872814178466797,0.46644341945648193
1779958169639095800,9.105095703125,-1.3793240785598755,-0.4092559814453125,-0.11268150806427002
1779958169655440100,9.121440185546875,-1.5073405504226685,-0.7823247909545898,-1.494230031967163
1779958169671763500,9.137763427734376,0.368360698223114,-0.18133831024169922,-1.0400171279907227
1779958169688082000,9.15408203125,0.6550445556640625,0.07434272766113281,-0.09186851978302002
1779958169704430000,9.17043017578125,0.23816338181495667,0.3619089126586914,0.43310636281967163
1779958169720769500,9.18676953125,0.33800435066223145,0.10824775695800781,0.6171109676361084
1779958169737098800,9.2030986328125,0.3070905804634094,-0.07306385040283203,0.39718255400657654
1779958169753435000,9.219434814453125,0.019344300031661987,-0.033341407775878906,0.018563270568847656
1779958169769761000,9.235760986328126,-0.03363713622093201,-0.09036731719970703,-0.14023897051811218
1779958169786103000,9.25210302734375,0.04059220850467682,-0.07123756408691406,-0.07867458462715149
1779958169802425300,9.26842529296875,0.05914825201034546,-0.04314231872558594,0.02649882435798645
1779958169818759200,9.28475927734375,0.09028314054012299,0.00466156005859375,-0.03005179762840271
1779958169835110400,9.3011103515625,0.16089224815368652,0.04289817810058594,-0.01877954602241516
1779958169851417600,9.31741748046875,0.17398233711719513,0.0900411605834961,0.06358686089515686
1779958169867754200,9.333754150390625,0.07243220508098602,0.052191734313964844,0.060782790184020996
1779958169884084500,9.35008447265625,0.002903461456298828,-0.019753456115722656,0.014403849840164185
1779958169900417000,9.3664169921875,-0.07221201062202454,-0.08626365661621094,-0.06513923406600952
1779958169916747500,9.38274755859375,-0.018635571002960205,0.018980026245117188,-0.030357956886291504
1779958169933088500,9.399088623046875,0.07340727746486664,0.05664539337158203,0.03303137421607971
1779958169949409000,9.415408935546875,0.06454434990882874,0.06138038635253906,0.06147891283035278
1779958169965733600,9.431733642578125,0.027196526527404785,0.03261089324951172,0.021640658378601074
1779958169982066700,9.448066650390626,0.0228692889213562,0.013379096984863281,0.04880648851394653
1779958169998396700,9.464396728515625,0.062323927879333496,-0.034572601318359375,-0.019851982593536377
1779958170014730200,9.480730224609376,-0.02940461039543152,-0.048468589782714844,-0.03557458519935608
1779958170031062800,9.497062744140624,0.042275071144104004,-0.05403423309326172,0.012429237365722656
1779958170047391000,9.513390869140625,0.09459933638572693,-0.020748138427734375,0.021386325359344482
1779958170063729700,9.529729736328125,0.06773881614208221,-0.07303142547607422,-0.06201180815696716
1779958170080057600,9.5460576171875,0.006773263216018677,-0.03498268127441406,-0.09225711226463318
1779958170096382500,9.562382568359375,0.05566197633743286,0.0317535400390625,-0.08319216966629028
1779958170112723000,9.578722900390625,0.09019383788108826,0.05005168914794922,-0.07472860813140869
1779958170129053700,9.5950537109375,0.1560865044593811,0.035480499267578125,0.034901827573776245
1779958170145400600,9.611400634765625,0.14134396612644196,0.07297897338867188,0.053249478340148926
1779958170161735700,9.627735595703125,-0.13702064752578735,0.07883262634277344,0.046017855405807495
1779958170178066000,9.64406591796875,0.016300946474075317,0.04004096984863281,0.04145589470863342
1779958170194390800,9.660390869140626,0.02464720606803894,-0.0028924942016601562,0.030552655458450317
1779958170210702800,9.676702880859375,0.19504088163375854,-0.02727794647216797,0.09758129715919495
1779958170227034000,9.6930341796875,0.062377095222473145,0.06846237182617188,0.1769985556602478
1779958170243361000,9.709361083984374,0.0711817741394043,0.14969635009765625,0.20792797207832336
1779958170259710200,9.725710205078125,0.05352914333343506,0.07767963409423828,0.11256906390190125
1779958170276043500,9.74204345703125,0.11993996798992157,0.0015106201171875,-0.011701315641403198
1779958170292380000,9.7583798828125,0.03373062610626221,-0.04582405090332031,-0.1061653196811676
1779958170308708900,9.774708984375,-0.009191960096359253,-0.04578590393066406,-0.12921032309532166
1779958170325039600,9.79103955078125,-0.007739245891571045,-0.04570770263671875,-0.04980263113975525
1779958170341372700,9.80737255859375,-0.032373249530792236,-0.055848121643066406,0.006040215492248535
1779958170357704400,9.823704345703124,-0.021963149309158325,-0.036757469177246094,0.03267014026641846
1779958170374036700,9.84003662109375,-0.035996437072753906,-0.01766681671142578,-0.0032302141189575195
1779958170390355000,9.85635498046875,0.01663103699684143,0.04449748992919922,-0.015281617641448975
1779958170406687700,9.872687744140626,0.09167605638504028,0.09703731536865234,0.025264739990234375
1779958170423048200,9.889048095703124,-0.003392726182937622,0.035187721252441406,0.013195455074310303
1779958170439348500,9.905348388671875,-0.06882491707801819,-0.03687858581542969,-0.027604907751083374
1779958170455696600,9.921696533203125,-0.0844264030456543,-0.07537555694580078,-0.0005311965942382812
1779958170472029700,9.93802978515625,0.08824267983436584,-0.037792205810546875,-0.019850850105285645
1779958170488356000,9.954356201171874,0.10821643471717834,0.06261634826660156,-0.05454263091087341
1779958170504696600,9.970696533203125,-0.007951974868774414,0.03915596008300781,-0.06517407298088074
1779958170521025800,9.98702587890625,-0.10011738538742065,-0.004048347473144531,-0.06583979725837708
1779958170537357800,10.00335791015625,-0.026122450828552246,-0.008917808532714844,-0.0563184916973114
1779958170553689000,10.019689208984374,0.00304219126701355,0.0006074905395507812,-0.027093231678009033
1779958170570008800,10.0360087890625,0.01604282855987549,0.03348541259765625,0.06281894445419312
1779958170586353700,10.052353759765625,-0.03688371181488037,0.047779083251953125,0.08050963282585144
1779958170602686500,10.0686865234375,0.030734509229660034,0.023748397827148438,0.07413208484649658
1779958170619016700,10.0850166015625,0.10209673643112183,0.014090538024902344,0.04879790544509888
1779958170635349800,10.101349853515625,0.04987803101539612,0.009237289428710938,-0.005899488925933838
1779958170651713300,10.11771337890625,0.031390637159347534,-0.029117584228515625,-0.01632767915725708
1779958170668026400,10.1340263671875,0.032682865858078,0.052178382873535156,-0.002220749855041504
1779958170684360700,10.150360595703125,0.10068023204803467,-0.02450847625732422,0.05951821804046631
1779958170700687600,10.1666875,0.059608668088912964,-0.07729244232177734,-0.024214982986450195
1779958170717019100,10.18301904296875,0.06095820665359497,0.02308368682861328,-0.035101354122161865
1779958170733361000,10.19936083984375,0.11049219965934753,0.03255748748779297,-0.04474771022796631
1779958170749689000,10.215689208984376,0.09327131509780884,0.013324737548828125,-0.025924086570739746
1779958170766018300,10.232018310546875,0.0378190279006958,0.046723365783691406,0.011739730834960938
1779958170782336500,10.24833642578125,-0.0409703254699707,0.013117790222167969,0.05886673927307129
1779958170798685200,10.264685302734375,-0.009077280759811401,-0.020490646362304688,0.030021607875823975
1779958170815007000,10.281007080078124,0.011799842119216919,-0.0014476776123046875,0.07353276014328003
1779958170831339000,10.297339111328125,0.028624027967453003,-0.01591205596923828,0.06379246711730957
1779958170847667700,10.313667724609376,-0.0026193559169769287,-0.016023635864257812,0.04422330856323242
1779958170863996000,10.329995849609375,0.009503394365310669,0.03711509704589844,0.0006911754608154297
1779958170880340700,10.3463408203125,0.015310823917388916,0.05138587951660156,0.00989466905593872
1779958170896660700,10.36266064453125,-0.01687893271446228,0.04591655731201172,0.057130396366119385
1779958170912999400,10.37899951171875,-0.048469334840774536,0.0027217864990234375,0.08435559272766113
1779958170929326800,10.395326904296875,-0.08418434858322144,-0.04945564270019531,0.07838582992553711
1779958170945660000,10.411659912109375,-0.04303288459777832,-0.01607799530029297,0.06456750631332397
1779958170961992700,10.42799267578125,0.01597943902015686,0.040686607360839844,0.06995159387588501
1779958170978323000,10.444322998046875,0.04531899094581604,0.09328174591064453,0.036070823669433594
1779958170994656000,10.460656005859375,-0.012166053056716919,0.07472038269042969,0.006951451301574707
1779958171010988500,10.476988525390626,-0.008702784776687622,0.06998252868652344,-0.0027467012405395508
1779958171027320600,10.493320556640626,-0.014681488275527954,0.07007217407226562,-0.02635854482650757
1779958171043652900,10.50965283203125,-0.007929742336273193,-0.03506755828857422,-0.04075092077255249
1779958171059984000,10.52598388671875,-0.030056118965148926,-0.05881214141845703,-0.040025293827056885
1779958171076319200,10.5423193359375,-0.041235387325286865,-0.07303905487060547,-0.024393916130065918
1779958171092646400,10.558646484375,0.005080521106719971,-0.011364936828613281,0.05360138416290283
1779958171108983000,10.574983154296875,0.0057711005210876465,0.022092819213867188,0.06772440671920776
1779958171125316600,10.591316650390626,0.024555206298828125,0.026819229125976562,0.0763314962387085
1779958171141645600,10.6076455078125,-0.009673148393630981,0.026763916015625,0.0890316367149353
1779958171157979400,10.6239794921875,-0.0342717170715332,0.04108619689941406,0.08683478832244873
1779958171174323700,10.64032373046875,0.011850982904434204,0.02194499969482422,0.09136611223220825
1779958171190654500,10.656654541015625,0.0311087965965271,0.04110145568847656,0.05299001932144165
1779958171206985500,10.6729853515625,0.03650638461112976,-0.015723228454589844,-0.042634010314941406
1779958171223319800,10.68931982421875,0.055636703968048096,-0.0205078125,-0.04739654064178467
1779958171239635200,10.70563525390625,0.07954707741737366,-0.011521339416503906,-0.051938652992248535
1779958171255982600,10.721982666015625,0.07431089878082275,0.02200794219970703,-0.027204036712646484
1779958171272313900,10.73831396484375,0.10714760422706604,-0.01629924774169922,-0.018110156059265137
1779958171288645600,10.754645751953126,0.09480097889900208,-0.039710044860839844,-0.052680909633636475
1779958171304978700,10.770978759765624,0.11553776264190674,-0.011707305908203125,-0.014240264892578125
1779958171321335800,10.787335693359376,0.12277340888977051,0.021648406982421875,-0.019877493381500244
1779958171337644300,10.803644287109375,0.11963197588920593,0.031108856201171875,-0.015921294689178467
1779958171353975000,10.81997509765625,0.11083397269248962,0.021485328674316406,0.02197563648223877
1779958171370306800,10.836306884765625,0.06884610652923584,0.011879920959472656,0.04547315835952759
1779958171386621400,10.852621337890625,0.09723541140556335,0.0022830963134765625,0.08889245986938477
1779958171402971000,10.868970947265625,0.0823194682598114,0.045314788818359375,0.06854629516601562
1779958171419290400,10.885290283203124,0.03925570845603943,0.0883169174194336,0.027913987636566162
1779958171435622700,10.90162255859375,-0.02268427610397339,0.040393829345703125,0.011472821235656738
1779958171451957500,10.91795751953125,-0.10349962115287781,-0.040383338928222656,-0.0230257511138916
1779958171468286000,10.934285888671875,-0.1270396113395691,0.00750732421875,-0.01728290319442749
1779958171484618500,10.950618408203125,-0.06060457229614258,0.055434226989746094,0.018154919147491455
1779958171500953000,10.966953125,-0.04333984851837158,0.031006813049316406,0.06209617853164673
1779958171517298200,10.983298095703125,-0.09310892224311829,0.01737213134765625,0.058186113834381104
1779958171533615600,10.99961572265625,-0.12303316593170166,-0.011212348937988281,0.02034616470336914
1779958171549944000,11.015944091796875,-0.12373042106628418,-0.03982067108154297,-0.021720051765441895
1779958171566276600,11.032276611328125,-0.07705128192901611,-0.025376319885253906,-0.03527647256851196
1779958171582615800,11.04861572265625,-0.05039450526237488,-0.0061321258544921875,-0.02431243658065796
1779958171598943200,11.064943115234374,-0.012668609619140625,-0.0066661834716796875,0.014760375022888184
1779958171615276000,11.081276123046875,0.0011535584926605225,-0.0162353515625,0.0345882773399353
1779958171631610000,11.097610107421875,-0.021158456802368164,-0.021097183227539062,0.018977105617523193
1779958171647935500,11.113935546875,0.03146138787269592,0.026679039001464844,0.023280978202819824
1779958171664292600,11.130292724609374,0.08460545539855957,0.0552825927734375,0.02695918083190918
1779958171680594000,11.146593994140625,0.11313074827194214,0.03606700897216797,-0.003304779529571533
1779958171696936200,11.162936279296876,0.045261114835739136,0.02233600616455078,-0.05710959434509277
1779958171713269500,11.17926953125,0.04677435755729675,0.027306556701660156,-0.046520352363586426
1779958171729599500,11.195599609375,0.06544095277786255,0.07962512969970703,-0.001150965690612793
1779958171745931800,11.211931884765624,0.04996421933174133,0.079925537109375,0.05805349349975586
1779958171762265600,11.228265625,0.043159812688827515,0.013262748718261719,0.0732763409614563
1779958171778601700,11.244601806640626,0.023744791746139526,-0.015184402465820312,0.04083371162414551
1779958171794943500,11.260943603515624,0.025380879640579224,-0.05328845977783203,-0.015803515911102295
1779958171811260400,11.277260498046875,0.013545840978622437,-0.06212043762207031,-0.07251697778701782
1779958171827604700,11.293604736328126,-0.017019271850585938,-0.057220458984375,-0.06745979189872742
1779958171843939800,11.30993994140625,-0.01771479845046997,-0.009294509887695312,-0.027315735816955566
1779958171860266200,11.326266357421876,0.03502607345581055,0.033186912536621094,-0.006901681423187256
1779958171876599600,11.342599609375,0.09677249193191528,0.037955284118652344,0.04552346467971802
1779958171892944000,11.35894384765625,0.09202432632446289,0.009229660034179688,0.03528273105621338
1779958171909250300,11.375250244140625,0.03826308250427246,0.0140380859375,0.015207409858703613
1779958171925585700,11.391585693359374,0.02697005867958069,0.023683547973632812,0.0537373423576355
1779958171941917400,11.40791748046875,0.014721602201461792,0.057267189025878906,0.07845818996429443
1779958171958249200,11.424249267578125,-0.025421202182769775,0.05737590789794922,0.05907142162322998
1779958171974582800,11.440582763671875,0.004536092281341553,-0.014317512512207031,0.0632275938987732
1779958171990902800,11.45690283203125,-0.017554908990859985,-0.038130760192871094,-0.008776068687438965
1779958172007263700,11.473263671875,-0.01539584994316101,-0.06133747100830078,-0.032099366188049316
1779958172023573000,11.489572998046874,-0.007721692323684692,-0.03312110900878906,-0.02187114953994751
1779958172039913200,11.505913330078124,0.019055873155593872,-0.02348613739013672,0.026377975940704346
1779958172056237800,11.52223779296875,0.04771706461906433,0.0195159912109375,0.10735535621643066
1779958172072580600,11.53858056640625,0.026098817586898804,0.019356727600097656,0.04796940088272095
1779958172088906000,11.554906005859374,0.08983716368675232,0.023978233337402344,-0.016323566436767578
1779958172105239300,11.5712392578125,0.1475648581981659,0.023881912231445312,-0.060435742139816284
1779958172121572000,11.587572021484375,0.10855759680271149,0.02391529083251953,-0.07565051317214966
1779958172137902300,11.60390234375,0.09591472148895264,0.04323101043701172,-0.03568136692047119
1779958172154235400,11.6202353515625,0.050904422998428345,0.019460678100585938,-0.00043761730194091797
1779958172170576400,11.636576416015625,0.07752758264541626,0.00040531158447265625,0.023780345916748047
1779958172186912500,11.65291259765625,0.07491418719291687,-0.042621612548828125,-0.015363454818725586
1779958172203245000,11.6692451171875,0.07313695549964905,-0.07134246826171875,-0.07444918155670166
1779958172219577900,11.685577880859375,0.08125899732112885,-0.01871490478515625,-0.09476613998413086
1779958172235904800,11.70190478515625,0.01966339349746704,0.01954364776611328,-0.04704159498214722
1779958172252244700,11.71824462890625,0.015624403953552246,0.038666725158691406,0.010837852954864502
1779958172268572200,11.734572265625,0.04599040746688843,0.03864860534667969,0.0067819952964782715
1779958172284905200,11.7509052734375,0.07121670246124268,0.014706611633300781,0.02648526430130005
1779958172301238000,11.767238037109376,0.019021332263946533,-0.009246826171875,0.03534054756164551
1779958172317569800,11.78356982421875,0.004919916391372681,-0.023632049560546875,0.0062299370765686035
1779958172333901600,11.799901611328124,0.06255289912223816,0.0050506591796875,-0.0032404661178588867
1779958172350233300,11.8162333984375,0.09717945754528046,-0.009365081787109375,-0.02272772789001465
1779958172366558700,11.832558837890625,0.08904805779457092,0.004940032958984375,0.0011519789695739746
1779958172382926300,11.84892626953125,0.12440727651119232,0.024025917053222656,0.0066214799880981445
1779958172399213000,11.865213134765625,0.10226772725582123,0.03353404998779297,-0.0029439926147460938
1779958172415549400,11.881549560546874,0.10332435369491577,-0.019136428833007812,-0.05164039134979248
1779958172431881200,11.897881103515624,0.11365401744842529,-0.037703514099121094,-0.07552212476730347
1779958172448212000,11.9142119140625,0.13835345208644867,0.02386951446533203,-0.02216958999633789
1779958172464546000,11.930546142578125,0.13456852734088898,0.033387184143066406,0.0018212199211120605
1779958172480877300,11.946877197265625,0.1024688333272934,0.014180183410644531,0.011075019836425781
1779958172497227000,11.96322705078125,0.11334583163261414,0.009317398071289062,-0.009654879570007324
1779958172513538600,11.97953857421875,0.07670876383781433,-0.019496917724609375,-0.08263587951660156
1779958172529873700,11.995873779296875,0.040606409311294556,-0.038125038146972656,-0.0837857723236084
1779958172546205700,12.012205810546876,0.08027404546737671,-0.010125160217285156,-0.002233564853668213
1779958172562539300,12.028539306640624,0.05568745732307434,-0.03904914855957031,0.020482540130615234
1779958172578869500,12.044869384765626,0.011948913335800171,0.022979736328125,-0.009492635726928711
1779958172595202300,12.061202392578124,0.02022150158882141,0.01803874969482422,0.06701165437698364
1779958172611534800,12.077534912109375,0.029299288988113403,0.03701972961425781,0.07713991403579712
1779958172627865900,12.093865966796875,-0.03633320331573486,0.041606903076171875,0.024122953414916992
1779958172644198700,12.11019873046875,0.02445170283317566,0.07500171661376953,0.02936732769012451
1779958172660548400,12.12654833984375,0.02572491765022278,0.04620933532714844,0.08187991380691528
1779958172676871700,12.14287158203125,-0.00033923983573913574,0.0029878616333007812,0.08052188158035278
1779958172693207300,12.159207275390624,-0.20304077863693237,-0.05403614044189453,0.09124821424484253
1779958172709539600,12.17553955078125,0.11236706376075745,0.10314464569091797,0.0059084296226501465
1779958172725873000,12.191872802734375,-0.4992983639240265,-0.3354196548461914,0.019107162952423096
1779958172742204400,12.208204345703125,0.2481621652841568,0.0016222000122070312,0.1807042360305786
1779958172758536200,12.2245361328125,0.4067304730415344,0.13057708740234375,0.10971450805664062
1779958172774870500,12.24087060546875,-0.29197996854782104,-0.4904813766479492,0.27416443824768066
1779958172791200800,12.25720068359375,-0.31563568115234375,0.40460872650146484,-0.026811838150024414
1779958172807533600,12.273533447265624,0.2082497775554657,-0.6010684967041016,-0.081341952085495
1779958172823869700,12.28986962890625,0.027551501989364624,0.8086156845092773,0.2367093563079834
1779958172840196900,12.30619677734375,0.6034970879554749,-0.10145282745361328,-0.046810150146484375
1779958172856526000,12.322526123046876,0.6858012676239014,-0.4017486572265625,0.5544843077659607
1779958172872856300,12.338856201171875,-1.4174338579177856,0.3061084747314453,0.1354820728302002
1779958172889176300,12.35517626953125,-0.26876282691955566,0.5536422729492188,-0.5145857334136963
1779958172905512000,12.371511962890626,0.5887136459350586,-0.7254829406738281,-0.1653176248073578
1779958172921849600,12.387849609375,0.3460698127746582,-0.07041168212890625,-0.19241651892662048
1779958172938174700,12.4041748046875,-0.09402656555175781,-0.013051033020019531,0.02873218059539795
1779958172954510300,12.42051025390625,-0.12060040235519409,0.2931489944458008,-0.006498932838439941
1779958172970844200,12.43684423828125,-0.2512456774711609,0.346893310546875,0.029378652572631836
1779958172987211300,12.453211181640626,0.42720720171928406,-0.7152280807495117,-0.3073880970478058
1779958173003502600,12.469502685546875,-0.8973392844200134,-0.4419670104980469,-0.49113360047340393
1779958173019837400,12.48583740234375,1.8955342769622803,-0.38608741760253906,0.016078293323516846
1779958173036169500,12.50216943359375,0.2572636008262634,0.20665645599365234,-0.04544895887374878
1779958173052501800,12.518501708984376,-0.24044963717460632,0.39304351806640625,0.15432381629943848
1779958173068832500,12.53483251953125,-0.17455661296844482,0.5976533889770508,0.18728545308113098
1779958173085166000,12.551166015625,0.1696603000164032,0.09480571746826172,-0.012766420841217041
1779958173101498000,12.567498046875,0.27327829599380493,-0.9279165267944336,-0.31645166873931885
1779958173117830700,12.58383056640625,-1.435089111328125,1.5670585632324219,-0.3887460231781006
1779958173134162000,12.600161865234375,0.2030748426914215,1.155562400817871,-0.06570306420326233
1779958173150493400,12.616493408203125,0.8854988813400269,-0.6796970367431641,0.2744043469429016
1779958173166843600,12.63284375,0.7191430330276489,-0.7044906616210938,0.7273743748664856
1779958173183172400,12.64917236328125,0.11972737312316895,-1.0840768814086914,0.3722425103187561
1779958173199502800,12.6655029296875,-0.6230079531669617,0.5812797546386719,0.30164825916290283
1779958173215836700,12.681836669921875,-1.4808192253112793,-0.35852527618408203,0.30749088525772095
1779958173232162800,12.698162841796876,-2.2737107276916504,-0.06476020812988281,4.363399982452393
1779958173248502800,12.714502685546876,1.2793221473693848,0.1280374526977539,2.4717819690704346
1779958173264829700,12.73082958984375,1.5184656381607056,0.3191251754760742,-2.455686092376709
1779958173281152300,12.74715234375,-0.3861692547798157,1.0809526443481445,-2.267578125
1779958173297495600,12.76349560546875,-1.0002894401550293,0.956787109375,-1.386521339416504
1779958173313812500,12.7798125,-1.058046817779541,-0.08145332336425781,-0.8248825669288635
1779958173330159900,12.796159912109376,-0.45279115438461304,-1.2978229522705078,-0.5841982960700989
1779958173346493000,12.812492919921874,0.12186600267887115,-1.3190860748291016,-0.2896322011947632
1779958173362823400,12.828823486328124,0.3829992711544037,-0.2680387496948242,-0.17159582674503326
1779958173379139300,12.845139404296875,3.9155681133270264,1.5578956604003906,1.608134388923645
1779958173395473200,12.86147314453125,2.6043858528137207,0.4481678009033203,2.156377077102661
1779958173411795000,12.877794921875,-4.7489447593688965,-2.724456787109375,-1.9936755895614624
1779958173428130000,12.894130126953126,-2.362779140472412,0.03026294708251953,-2.0935046672821045
1779958173444472000,12.91047216796875,2.020174026489258,1.5976943969726562,0.28273534774780273
1779958173460804000,12.92680419921875,0.8274551630020142,-0.1111612319946289,1.0365487337112427
1779958173477136600,12.94313671875,2.6186466217041016,2.2592530250549316,2.3644285202026367
1779958173493468400,12.959468505859375,-2.658606767654419,-0.9209213256835938,0.07645803689956665
1779958173509799000,12.975798828125,0.40091973543167114,1.239670753479004,1.3980865478515625
1779958173526132200,12.99213232421875,-1.0607030391693115,-0.42252540588378906,3.286642074584961
1779958173542465500,13.008465576171876,-1.4454532861709595,-0.3133516311645508,-1.4739532470703125
1779958173558791700,13.024791748046875,-0.5671125650405884,0.9574794769287109,-2.336693286895752
1779958173575132000,13.0411318359375,1.0873056650161743,-0.19817543029785156,-2.6965394020080566
1779958173591461400,13.05746142578125,-0.02301037311553955,-2.4643287658691406,-2.4005603790283203
1779958173607793000,13.07379296875,-0.9451314210891724,1.1812515258789062,-5.989192008972168
1779958173624125000,13.090125,-0.4699227809906006,1.838392734527588,-8.704081535339355
1779958173640456200,13.106456298828125,0.24015551805496216,-4.861092567443848,-0.9577251076698303
1779958173656786000,13.122785888671874,2.9677679538726807,-1.535059928894043,4.838306427001953
1779958173673180700,13.1391806640625,0.001361846923828125,1.0437202453613281,5.4932146072387695
1779958173689463000,13.155463134765625,2.824141025543213,-0.08051586151123047,5.480307579040527
1779958173705802000,13.171802001953125,-1.7020890712738037,-1.2653226852416992,2.720341205596924
1779958173722130000,13.1881298828125,-1.7311360836029053,-2.327744483947754,0.4656682014465332
1779958173738479000,13.20447900390625,-1.5948500633239746,-1.8520421981811523,-0.09830915927886963
1779958173754796800,13.220796875,-1.4106738567352295,-2.767007827758789,0.5728188753128052
1779958173771110700,13.237110595703125,-0.5743672251701355,-3.4366703033447266,1.1486819982528687
1779958173787446000,13.253446044921875,0.7340041995048523,-3.6414794921875,-0.2568560838699341
1779958173803778600,13.269778564453125,2.3273892402648926,-4.86068058013916,-1.543377161026001
1779958173820109000,13.286109130859375,0.6493865251541138,-3.114987373352051,-2.1994826793670654
1779958173836438800,13.302438720703124,0.2934541702270508,-2.5314579010009766,-1.0571634769439697
1779958173852776400,13.3187763671875,-0.3140966296195984,-3.1601715087890625,0.09574675559997559
1779958173869107700,13.335107666015626,-2.317195415496826,-5.6848955154418945,1.4948551654815674
1779958173885438200,13.351438232421875,-4.6093831062316895,-3.807720184326172,1.361051321029663
1779958173901771300,13.367771240234376,0.4085828959941864,-2.7877063751220703,-1.4838647842407227
1779958173918101500,13.3841015625,-1.293852686882019,-2.331350326538086,-2.729323387145996
1779958173934435800,13.400435791015624,-1.3306431770324707,-3.1545848846435547,-2.351393699645996
1779958173950766800,13.416766845703124,-4.373157501220703,0.08397293090820312,-0.4023125171661377
1779958173967132700,13.433132568359374,-3.7085111141204834,2.8293051719665527,0.3194873332977295
1779958173983416300,13.449416259765625,4.152390480041504,-2.722702980041504,1.8194255828857422
1779958173999757600,13.465757568359376,-0.5150237083435059,-0.9649229049682617,6.578539848327637
1779958174016094000,13.482093994140625,-1.795624852180481,1.5216727256774902,7.170542240142822
1779958174032428000,13.498427978515625,-2.5380284786224365,1.3453192710876465,5.860260009765625
1779958174048753200,13.514753173828124,-1.8311057090759277,1.7176117897033691,5.204108238220215
1779958174065097000,13.531096923828125,-0.2591671943664551,2.043376922607422,4.830498695373535
1779958174081424100,13.547424072265626,-1.0760369300842285,2.6521670818328857,4.733015537261963
1779958174097757200,13.563757080078124,-1.1958932876586914,3.122007369995117,3.486682415008545
1779958174114087400,13.58008740234375,-1.174454689025879,1.9072496891021729,1.9939064979553223
1779958174130405000,13.596405029296875,1.1261177062988281,0.337418794631958,0.3746757507324219
1779958174146740700,13.61274072265625,2.8130927085876465,-0.9316654205322266,-0.4171886444091797
1779958174163084300,13.629084228515625,2.377800464630127,-0.7962489128112793,-1.832848072052002
1779958174179432000,13.645431884765625,0.9039473533630371,-0.25753331184387207,-2.4342126846313477
1779958174195744000,13.661743896484374,-0.03794574737548828,0.8884283304214478,-3.4595251083374023
1779958174212118800,13.678118896484374,-3.1405413150787354,0.3209311068058014,-4.084737777709961
1779958174228431000,13.69443115234375,-5.367401123046875,0.10631585121154785,-4.926971435546875
1779958174244743400,13.710743408203125,-4.555027961730957,-0.6645605564117432,-5.567683219909668
1779958174261073700,13.72707373046875,-2.683797836303711,-1.3496661186218262,-5.34050178527832
1779958174277408800,13.74340869140625,-2.18009090423584,-3.0539791584014893,-3.0444271564483643
1779958174293728800,13.759728759765625,-2.51078462600708,-3.117311477661133,-1.430614948272705
1779958174310071800,13.77607177734375,-2.319929599761963,-2.2070555686950684,-0.36269617080688477
1779958174326400800,13.79240087890625,-1.566192626953125,-1.7108170986175537,-0.8567495346069336
1779958174342748400,13.80874853515625,-0.44356346130371094,-1.2777137756347656,-1.0922422409057617
1779958174359064600,13.825064697265624,-5.244810104370117,-0.15743732452392578,-0.8577903509140015
1779958174375399000,13.84139892578125,-1.4723081588745117,-2.1526236534118652,1.7809772491455078
1779958174391737300,13.8577373046875,-1.8369026184082031,-1.8651020526885986,0.9011082649230957
1779958174408067800,13.87406787109375,-3.2731075286865234,-2.0522587299346924,-0.7627121210098267
1779958174424397800,13.890397705078126,-0.4370393753051758,-5.358281135559082,0.829676628112793
1779958174440718300,13.90671826171875,0.4455852508544922,-7.694079399108887,1.3901469707489014
1779958174457063000,13.92306298828125,1.0296640396118164,-4.476806163787842,1.0486980676651
1779958174473409000,13.939408935546876,-0.6146507263183594,-2.8526153564453125,0.6568816900253296
1779958174489721600,13.9557216796875,-1.569331169128418,-2.2173917293548584,-0.06199514865875244
1779958174506058500,13.97205859375,-2.452493667602539,-2.7810919284820557,0.24789857864379883
1779958174522379000,13.98837890625,-2.9394474029541016,-3.8986339569091797,0.5900884866714478
1779958174538722800,14.004722900390625,-2.136488437652588,-4.599709987640381,0.8335791826248169
1779958174555054800,14.021054931640625,-1.270073413848877,-2.4789998531341553,0.2635442018508911
1779958174571374300,14.037374267578125,-1.074005126953125,-0.7328200340270996,0.5590417385101318
1779958174587719200,14.05371923828125,-0.03392791748046875,0.5128414630889893,0.3253626823425293
1779958174604051000,14.070051025390624,-0.39629364013671875,-0.19406390190124512,0.3966665267944336
1779958174620371700,14.086371826171876,-0.2333660125732422,-0.38991308212280273,-0.2437300682067871
1779958174636715500,14.102715576171875,1.4097414016723633,0.055962324142456055,-0.87099289894104
1779958174653047600,14.119047607421875,3.2699737548828125,1.6675870418548584,-0.01761484146118164
1779958174669381600,14.135381591796875,3.1619443893432617,0.9002108573913574,1.020451545715332
1779958174685721000,14.15172119140625,2.2981748580932617,1.9883215427398682,1.5615482330322266
1779958174702064000,14.168064208984376,1.3589935302734375,2.141239881515503,1.235332727432251
1779958174718387200,14.18438720703125,1.5691356658935547,1.568451166152954,0.9264767169952393
1779958174734747400,14.200747314453125,1.3959465026855469,1.208052396774292,0.7105791568756104
1779958174751054800,14.217054931640625,1.1525344848632812,0.9485464096069336,0.5085852146148682
1779958174767385000,14.233385009765625,0.8946018218994141,0.33898138999938965,0.6990561485290527
1779958174783719200,14.24971923828125,1.0854501724243164,0.9606757164001465,0.4547412395477295
1779958174800049700,14.266049560546875,0.3542928695678711,1.0386888980865479,0.5287184715270996
1779958174816378400,14.28237841796875,-0.36353397369384766,0.5921659469604492,0.24830079078674316
1779958174832718300,14.29871826171875,-0.7646160125732422,0.3012082576751709,-0.11461305618286133
1779958174849028400,14.3150283203125,-0.7352285385131836,0.14839649200439453,-0.26251888275146484
1779958174865364500,14.331364501953125,-0.6159210205078125,-0.016729116439819336,-0.09320998191833496
1779958174881697300,14.347697265625,-0.5784664154052734,-0.03467726707458496,0.044870853424072266
1779958174898027500,14.364027587890625,-0.5545797348022461,-0.13926339149475098,0.11704683303833008
1779958174914361300,14.380361328125,-0.2668771743774414,0.21851253509521484,0.11491847038269043
1779958174930679800,14.3966796875,-0.035048484802246094,0.1920642852783203,0.269733190536499
1779958174947040300,14.413040283203125,-0.0092620849609375,-0.17110013961791992,0.24692702293395996
1779958174963354400,14.429354248046875,0.06654834747314453,-0.17317461967468262,-0.00032901763916015625
1779958174979688700,14.445688720703124,-0.3341073989868164,-0.2077488899230957,0.08712983131408691
1779958174996021000,14.46202099609375,-0.5884542465209961,-0.11609816551208496,0.15802812576293945
1779958175012353800,14.478353759765625,-1.0418944358825684,-0.3633469343185425,0.03390026092529297
1779958175028684500,14.4946845703125,-1.9484972953796387,-0.537152886390686,-0.3375208377838135
1779958175045020700,14.511020751953126,-2.5352659225463867,-1.023002028465271,-0.7721779346466064
1779958175061334000,14.527333984375,-2.643101215362549,-2.196834087371826,-1.2871863842010498
1779958175077676500,14.543676513671874,-2.636993885040283,-3.4633593559265137,-1.746649980545044
1779958175094000600,14.560000732421875,-3.3665919303894043,-4.1336469650268555,-2.326991081237793
1779958175110341400,14.57634130859375,-4.124702453613281,-4.580334663391113,-2.872419834136963
1779958175126678500,14.592678466796874,-4.683212757110596,-5.3912153244018555,-2.898364543914795
1779958175143010600,14.609010498046874,-3.3592019081115723,-5.859470367431641,-2.1521706581115723
1779958175159341000,14.625341064453124,-1.4995059967041016,-5.508333206176758,-1.818056583404541
1779958175175691800,14.64169189453125,-1.5279150009155273,-4.614256858825684,-2.3991098403930664
1779958175192015000,14.65801513671875,-2.322200059890747,-4.229099750518799,-3.073216438293457
1779958175208356600,14.674356689453125,-2.640674114227295,-4.455984115600586,-2.687243938446045
1779958175224679000,14.690678955078125,-1.8769733905792236,-2.761013984680176,-1.4355425834655762
1779958175241017300,14.707017333984375,-0.22887682914733887,-0.5894675254821777,0.15998268127441406
1779958175257344000,14.723343994140626,2.017397880554199,0.2826795279979706,1.3743982315063477
1779958175273666800,14.739666748046876,2.5657331943511963,1.3939321041107178,2.171746253967285
1779958175290007600,14.756007568359376,0.5334463119506836,1.80902099609375,2.3862972259521484
1779958175306345500,14.772345458984375,-1.090785264968872,1.5819964408874512,1.5706663131713867
1779958175322679800,14.7886796875,-1.956352710723877,0.02212214469909668,3.6891860961914062
1779958175338987800,14.80498779296875,-1.501265287399292,2.8242363929748535,4.337714195251465
1779958175355330300,14.821330322265625,-1.8791768550872803,2.0911757946014404,5.547016143798828
1779958175371660300,14.837660400390625,0.8215641975402832,-0.18760204315185547,8.400447845458984
1779958175387990300,14.853990234375,2.7531447410583496,0.6351101398468018,9.66208553314209
1779958175404313300,14.870313232421875,1.5481317043304443,2.4396862983703613,10.26729679107666
1779958175420644400,14.886644287109375,-2.5540294647216797,4.498013973236084,10.491655349731445
1779958175436996400,14.902996337890626,-4.971807956695557,3.415947914123535,9.013373374938965
1779958175453330200,14.919330078125,-4.083065032958984,0.3540210723876953,6.399188041687012
1779958175469657600,14.93565771484375,-1.5825246572494507,-2.2746028900146484,3.944308280944824
1779958175485980000,14.95197998046875,1.1214599609375,-1.9949226379394531,3.3448801040649414
1779958175502321400,14.9683212890625,4.078537940979004,-0.5726613998413086,4.508302688598633
1779958175518647000,14.98464697265625,3.6630265712738037,-1.730717658996582,5.356322288513184
1779958175534984000,15.00098388671875,2.8253989219665527,-2.1183018684387207,3.108774185180664
1779958175551313200,15.017313232421875,0.3580899238586426,-2.084897041320801,0.41449642181396484
1779958175567645000,15.03364501953125,2.602245807647705,-2.7449307441711426,2.826169013977051
1779958175583982800,15.04998291015625,1.3765860795974731,-1.2046871185302734,-0.6662149429321289
1779958175600308000,15.066307861328125,-1.9137136936187744,-0.019852161407470703,-2.9351539611816406
1779958175616637700,15.0826376953125,-5.013345718383789,-1.2033205032348633,-2.4363298416137695
1779958175632977700,15.098977783203125,2.531979560852051,-5.481567859649658,1.6618022918701172
1779958175649304000,15.115303955078126,-0.9642343521118164,1.7151989936828613,-1.8511571884155273
1779958175665635800,15.1316357421875,-1.188799500465393,2.5696675777435303,0.7482719421386719
1779958175681987300,15.1479873046875,-0.284923791885376,1.73252272605896,-1.462815761566162
1779958175698302500,15.164302490234375,-0.5382299423217773,-1.569364070892334,-1.8997435569763184
1779958175714647300,15.180647216796874,4.585537910461426,-0.9927172660827637,0.41965723037719727
1779958175730965000,15.196965087890625,-0.9762759208679199,2.0014240741729736,-0.5971193313598633
1779958175747297800,15.2132978515625,-1.854953408241272,2.4470062255859375,-0.6588959693908691
1779958175763630000,15.229630126953126,1.5844299793243408,2.081648826599121,-0.054842472076416016
1779958175779964200,15.245964111328124,-0.3601803779602051,3.6043806076049805,-0.05269289016723633
1779958175796291000,15.262291015625,-1.0020747184753418,3.0108566284179688,0.057787418365478516
1779958175812629500,15.27862939453125,-1.1793403625488281,1.0815496444702148,0.4198641777038574
1779958175828960300,15.294960205078125,-1.3093347549438477,-0.1613326072692871,0.3070650100708008
1779958175845290200,15.311290283203125,-1.205153465270996,-0.4009132385253906,0.05982398986816406
1779958175861630000,15.3276298828125,0.27872753143310547,-1.0201606750488281,0.045318603515625
1779958175877956400,15.343956298828125,-0.9405217170715332,0.49203920364379883,0.4474930763244629
1779958175894286300,15.360286376953125,-1.4772069454193115,1.1202812194824219,0.08159780502319336
1779958175910611700,15.37661181640625,-0.8794670104980469,1.674224853515625,-0.2337045669555664
1779958175926966500,15.392966552734375,-0.4164085388183594,1.831775188446045,-0.5347580909729004
1779958175943297000,15.409297119140625,-0.41115331649780273,1.7248997688293457,-0.7795133590698242
1779958175959627800,15.425627685546875,-0.45704174041748047,0.4446887969970703,0.22022581100463867
1779958175975940000,15.441940185546875,0.9737997055053711,-1.4045610427856445,1.150965690612793
1779958175992282600,15.45828271484375,0.9028854370117188,0.5492410659790039,1.107595443725586
1779958176008609800,15.47460986328125,0.29790639877319336,1.427828311920166,0.05730581283569336
1779958176024930300,15.490930419921876,-0.9375591278076172,1.4765090942382812,-0.8061141967773438
1779958176041276000,15.50727587890625,-0.3660163879394531,-0.03540754318237305,-0.44025516510009766
1779958176057607700,15.523607666015625,-0.44381093978881836,-0.08863306045532227,-0.05386066436767578
1779958176073938700,15.539938720703125,-0.8519797325134277,0.8396120071411133,0.10013294219970703
1779958176090270700,15.556270751953125,-1.4939424991607666,1.320199966430664,-1.03499174118042
1779958176106605600,15.57260546875,-1.617178201675415,-0.13149595260620117,-1.7669787406921387
1779958176122933500,15.58893359375,-1.5905508995056152,2.231062412261963,-1.6736459732055664
1779958176139266600,15.6052666015625,1.2097058296203613,0.048296451568603516,-1.2364253997802734
1779958176155600600,15.6216005859375,2.240476131439209,-0.3032045364379883,-0.37363481521606445
1779958176171934200,15.637934326171875,2.5229318141937256,0.29317283630371094,-0.3038358688354492
1779958176188264000,15.654263916015625,2.7353029251098633,2.8983631134033203,-1.142737865447998
1779958176204594200,15.67059423828125,-1.1055256128311157,3.6207733154296875,-1.4569897651672363
1779958176220928000,15.686927978515625,-1.002741813659668,3.3005447387695312,2.7618422508239746
1779958176237246000,15.703245849609376,-0.2862987518310547,0.219451904296875,4.519806861877441
1779958176253592800,15.7195927734375,-1.9757909774780273,-1.9381933212280273,3.7460577487945557
1779958176269923600,15.735923583984375,-4.20842170715332,-1.0885658264160156,0.8976802825927734
1779958176286244600,15.75224462890625,-3.8093714714050293,1.002420425415039,0.014201641082763672
1779958176302614800,15.76861474609375,-0.22252166271209717,2.2772793769836426,0.8111212253570557
1779958176318916400,15.784916259765625,2.0764589309692383,0.2115955352783203,1.5421855449676514
1779958176335246300,15.801246337890625,2.189007043838501,-2.3495960235595703,1.8716604709625244
1779958176351585800,15.817585693359375,-0.6687543392181396,0.6015710830688477,0.4092521667480469
1779958176367915800,15.833915771484374,-1.4789050817489624,2.3945112228393555,-0.6306450366973877
1779958176384249300,15.850249267578125,-1.3345834016799927,1.900759220123291,-0.1788170337677002
1779958176400581000,15.8665810546875,-1.475289225578308,0.9019260406494141,-1.008555293083191
1779958176416929800,15.8829296875,0.6322862505912781,3.944035530090332,0.06331682205200195
1779958176433255700,15.899255615234376,0.9179132580757141,1.196873664855957,0.06447672843933105
1779958176449582000,15.91558203125,1.1221145391464233,-2.234027862548828,0.8177988529205322
1779958176465901000,15.931901123046876,1.5519018173217773,-3.5236196517944336,1.1978232860565186
1779958176482242800,15.948242919921874,1.544550895690918,-2.367280960083008,1.2205512523651123
1779958176498572500,15.964572509765626,1.6841388940811157,-0.4127836227416992,0.44838523864746094
1779958176514904300,15.980904296875,1.6266310214996338,1.7788090705871582,-0.266132116317749
1779958176531238700,15.99723876953125,-0.15395408868789673,1.3639593124389648,-1.2236297130584717
1779958176547571000,16.013571044921875,-2.266533374786377,1.753631591796875,-1.8921046257019043
1779958176563917600,16.02991748046875,-1.5276803970336914,2.503302574157715,-2.11738920211792
1779958176580230100,16.046230224609374,1.465643048286438,2.9150304794311523,-1.5044938325881958
1779958176596555000,16.062554931640626,-0.09149181842803955,2.6068482398986816,-1.5089709758758545
1779958176612883000,16.078883056640624,-0.148609459400177,2.4674596786499023,-1.8547359704971313
1779958176629233000,16.09523291015625,-0.17721295356750488,0.2416391372680664,-0.6269418597221375
1779958176645551400,16.11155126953125,0.8268239498138428,-11.35398006439209,2.0636932849884033
1779958176661897700,16.127897705078126,0.4431755542755127,-12.922281265258789,1.0384562015533447
1779958176678224600,16.144224609375,2.2244012355804443,-5.741471290588379,0.6440231800079346
1779958176694558500,16.160558349609374,0.3140822947025299,-0.5956172943115234,0.9189684391021729
1779958176710895400,16.176895263671874,-2.512963056564331,-0.07278919219970703,0.12562870979309082
1779958176727241500,16.193241455078127,-1.0097800493240356,-0.4099760055541992,0.0912553071975708
1779958176743566600,16.209566650390624,-0.7818920612335205,-0.35138702392578125,0.3156164884567261
1779958176759895300,16.225895263671877,0.34723713994026184,0.9979228973388672,0.09420645236968994
1779958176776235300,16.2422353515625,0.4091450273990631,0.6476936340332031,0.126623272895813
1779958176792566500,16.25856640625,0.819121241569519,0.10197734832763672,0.1122136116027832
1779958176808879600,16.274879638671877,0.0748978853225708,-0.17225933074951172,0.07552850246429443
1779958176825214700,16.291214599609376,-0.4688810706138611,-0.12283039093017578,0.11073839664459229
1779958176841548500,16.307548583984374,-0.5429256558418274,-0.03234100341796875,0.3142777681350708
1779958176857879600,16.323879638671876,-0.3353901505470276,0.09238815307617188,0.32718491554260254
1779958176874211600,16.340211669921874,0.07197573781013489,0.08422279357910156,0.21900522708892822
1779958176890531300,16.35653125,-0.05258047580718994,0.25670337677001953,-0.023490309715270996
1779958176906887700,16.3728876953125,0.14452993869781494,-0.1135721206665039,-0.463967502117157
1779958176923227100,16.38922705078125,0.8478182554244995,-0.009769439697265625,-1.2250831127166748
1779958176939552800,16.405552734375,0.6337212324142456,0.006618499755859375,-0.2950479984283447
1779958176955856400,16.4218564453125,-0.45380157232284546,0.07792186737060547,0.03281080722808838
1779958176972204300,16.438204345703124,-0.750778317451477,0.034557342529296875,0.21948647499084473
1779958176988535600,16.45453564453125,0.09742438793182373,0.0672616958618164,-0.06949949264526367
1779958177004867800,16.470867919921876,0.12591642141342163,-0.05214118957519531,-0.12437617778778076
1779958177021201000,16.487200927734374,-0.07884013652801514,-0.04142189025878906,-0.0404202938079834
1779958177037533000,16.503532958984376,0.12382170557975769,-0.02080059051513672,0.3553673028945923
1779958177053867300,16.5198671875,0.003307640552520752,-0.2669649124145508,0.333636999130249
1779958177070203400,16.536203369140626,0.21159499883651733,0.024042129516601562,-2.1071245670318604
1779958177086527200,16.55252734375,-0.3165760934352875,-0.2515144348144531,-0.025988221168518066
1779958177102867000,16.568866943359374,0.5024818778038025,0.1839437484741211,0.35157155990600586
1779958177119192300,16.5851923828125,0.5371314287185669,0.12140464782714844,0.10596835613250732
1779958177135525400,16.601525390625,-0.20073223114013672,-0.1652383804321289,0.18043720722198486
1779958177151858200,16.617858154296876,-0.5315656065940857,0.23738384246826172,0.029563307762145996
1779958177168188400,16.6341884765625,-0.14720198512077332,0.28835391998291016,0.1844484806060791
1779958177184540000,16.650539794921876,-0.25039905309677124,-0.060988426208496094,0.39729630947113037
1779958177200868400,16.666868408203126,-0.19046363234519958,0.17910194396972656,0.09704840183258057
1779958177217195800,16.68319580078125,1.0764946937561035,-1.4105100631713867,1.3962856531143188
1779958177233536500,16.69953662109375,-0.7383292317390442,0.283843994140625,0.12009274959564209
1779958177249848300,16.715848388671876,0.5367389917373657,0.30739784240722656,0.16264545917510986
1779958177266176300,16.73217626953125,-0.09593266248703003,0.11961746215820312,-0.06408143043518066
1779958177282514700,16.7485146484375,-0.20676371455192566,0.23478031158447266,-0.2939057946205139
1779958177298848800,16.764848876953124,-0.11997857689857483,0.20811748504638672,0.21867871284484863
1779958177315178500,16.781178466796874,0.06835421919822693,0.044803619384765625,-0.10911154747009277
1779958177331511000,16.797510986328124,0.06814688444137573,-0.40740203857421875,0.18485593795776367
1779958177347844400,16.81384423828125,-0.8504577875137329,-0.015320777893066406,0.17686426639556885
1779958177364175000,16.830175048828124,-0.2587965726852417,-0.25507354736328125,0.03341054916381836
1779958177380494000,16.846494140625,0.23714813590049744,-0.675048828125,-0.16821718215942383
1779958177396841200,16.86284130859375,-0.594478964805603,-0.37755870819091797,0.2694941759109497
1779958177413190400,16.8791904296875,-0.5087985992431641,-0.15552520751953125,0.3617602586746216
1779958177429500200,16.895500244140624,0.3288295567035675,-0.13011837005615234,0.052963852882385254
1779958177445837300,16.91183740234375,0.3117786943912506,0.4769563674926758,-0.08768332004547119
1779958177462167800,16.928167724609374,-0.3966210186481476,1.0084447860717773,-0.13481605052947998
1779958177478498000,16.944498046875,-0.7920972108840942,1.448857307434082,-0.5276796817779541
1779958177494831900,16.960831787109374,-0.26886436343193054,0.7072124481201172,-0.11138761043548584
1779958177511164200,16.9771640625,0.5630707740783691,0.46039485931396484,0.6873488426208496
1779958177527486500,16.993486572265624,0.6803386211395264,0.41417884826660156,0.6246781349182129
1779958177543825700,17.00982568359375,-0.011620759963989258,0.6365947723388672,0.19307160377502441
1779958177560175900,17.02617578125,-0.5110163688659668,1.3505430221557617,-0.19271457195281982
1779958177576482600,17.042482666015626,-0.06529960036277771,-0.11332511901855469,-0.05003643035888672
1779958177592829200,17.0588291015625,-0.5056869983673096,0.8100786209106445,0.099129319190979
1779958177609154800,17.07515478515625,-0.7641357779502869,0.9162454605102539,0.32168543338775635
1779958177625488000,17.09148779296875,-0.19097253680229187,1.7121362686157227,0.915434718132019
1779958177641820400,17.1078203125,-0.729453980922699,3.511791706085205,1.8634424209594727
1779958177658152000,17.12415185546875,-1.7434624433517456,4.901688575744629,1.4179072380065918
1779958177674501600,17.140501708984374,-0.307599276304245,3.375654697418213,-0.09413933753967285
1779958177690834000,17.156833984375,3.060034990310669,-3.0698442459106445,-0.5209112167358398
1779958177707155200,17.1731552734375,2.944599151611328,-6.001243591308594,-1.3785173892974854
1779958177723482400,17.189482421875,0.020331531763076782,-4.299962043762207,-1.95940101146698
1779958177739823900,17.205823974609373,0.5248229503631592,-1.9759130477905273,-0.27640652656555176
1779958177756141600,17.2221416015625,-0.39630815386772156,-2.184103012084961,0.7267940044403076
1779958177772489700,17.23848974609375,-0.7881240844726562,-2.298725128173828,1.3328170776367188
1779958177788804600,17.2548046875,-0.08232828974723816,-0.7136049270629883,0.8774435520172119
1779958177805141000,17.27114111328125,-0.27720415592193604,0.24749279022216797,0.4427938461303711
1779958177821473800,17.287473876953126,0.22244203090667725,0.37342357635498047,-0.035126447677612305
1779958177837804500,17.303804443359375,0.056219905614852905,0.4939308166503906,-0.27300143241882324
1779958177854138400,17.320138427734374,0.18552124500274658,0.8763456344604492,-0.4839966297149658
1779958177870463500,17.33646337890625,-0.025232985615730286,1.8411121368408203,-0.2970449924468994
1779958177886792000,17.3527919921875,-0.6121218204498291,3.7411251068115234,-0.4003903865814209
1779958177903151900,17.36915185546875,-0.769282341003418,3.2692952156066895,0.08798861503601074
1779958177919471900,17.385471923828124,-0.4421479403972626,2.752768039703369,0.5435960292816162
1779958177935797800,17.4017978515625,0.09266169369220734,2.6627120971679688,0.42598700523376465
1779958177952126700,17.418126708984374,1.2350671291351318,1.9330463409423828,0.28903985023498535
1779958177968463600,17.434463623046874,0.614958643913269,0.714808464050293,0.2948734760284424
1779958177984794000,17.450794189453124,0.09034962952136993,-0.018929481506347656,0.37113380432128906
1779958178001126400,17.46712646484375,-1.5763800144195557,0.7207345962524414,-0.2163705825805664
1779958178017455400,17.483455322265623,-2.0023975372314453,1.0433883666992188,-0.49549007415771484
1779958178033793300,17.499793212890626,-0.0993262231349945,-1.8653144836425781,0.0986776351928711
1779958178050123500,17.51612353515625,1.7936999797821045,-2.5491809844970703,-0.9301465749740601
1779958178066448100,17.5324482421875,2.123389720916748,-1.768148422241211,-1.0943306684494019
1779958178082786000,17.5487861328125,0.2373301386833191,-6.540436744689941,1.1378002166748047
1779958178099118000,17.5651181640625,-2.0659916400909424,-6.357239723205566,1.2085356712341309
1779958178115451000,17.581450927734377,-3.7454452514648438,-1.0575933456420898,0.6787080764770508
1779958178131779600,17.597779541015626,3.2868800163269043,1.2861881256103516,-0.3497011661529541
1779958178148114000,17.614114013671873,3.66733455657959,0.40619850158691406,-0.5908918380737305
1779958178164450300,17.6304501953125,-0.9527530074119568,-0.3718900680541992,-0.144805908203125
1779958178180780500,17.646780517578126,-0.6967618465423584,0.10624885559082031,-0.1415700912475586
1779958178197129200,17.663129150390624,-0.11480487883090973,0.24881458282470703,-0.17315948009490967
1779958178213458200,17.679458251953125,0.3187713623046875,0.04161548614501953,0.07668924331665039
1779958178229787100,17.695787109375,-0.04630981385707855,-0.12065792083740234,-0.03492403030395508
1779958178246121200,17.712121337890625,-0.05323316156864166,-0.06364917755126953,-0.15620291233062744
1779958178262452200,17.7284521484375,-0.010239049792289734,-0.044592857360839844,-0.06971859931945801
1779958178278767400,17.744767333984374,0.02181585133075714,0.06482410430908203,0.06939268112182617
1779958178295103500,17.761103515625,-0.0350879430770874,0.06447410583496094,0.00979161262512207
1779958178311433500,17.77743359375,-0.09532137215137482,-0.08309268951416016,-0.14155030250549316
1779958178327767600,17.793767578125,-0.0703233927488327,-0.08316707611083984,-0.15073037147521973
1779958178344103200,17.810103271484376,0.024895891547203064,-0.03164482116699219,-0.01086115837097168
1779958178360437000,17.82643701171875,-0.00843636691570282,0.011506080627441406,0.0038771629333496094
1779958178376761900,17.842761962890624,-0.0032645314931869507,0.06414127349853516,-0.029607295989990234
1779958178393115100,17.859115234375,0.02993352711200714,0.02090167999267578,0.04683732986450195
1779958178409440800,17.875440673828123,0.010872811079025269,0.04449462890625,0.0836327075958252
1779958178425774300,17.8917744140625,-0.008081212639808655,0.10170650482177734,0.07313108444213867
1779958178442089000,17.9080888671875,-0.013843655586242676,0.11117267608642578,0.09655594825744629
1779958178458421500,17.92442138671875,-0.0635814517736435,0.024886131286621094,0.13337445259094238
1779958178474760400,17.940760498046874,-0.12216749787330627,0.0008478164672851562,0.11772966384887695
1779958178491088600,17.957088623046875,-0.09839746356010437,0.024593353271484375,0.1552581787109375
1779958178507408100,17.973408203125,-0.09594742953777313,-0.04762554168701172,0.1296083927154541
1779958178523753000,17.9897529296875,-0.08390451967716217,0.042877197265625,0.08494210243225098
1779958178540102400,18.006102294921874,-0.07542142271995544,0.10472869873046875,0.10352015495300293
1779958178556408300,18.022408203125,-0.0677095353603363,0.07560920715332031,0.12127113342285156
1779958178572755200,18.038755126953124,-0.055718302726745605,-0.006096839904785156,0.0474851131439209
1779958178589079600,18.05507958984375,-0.051891028881073,0.05597972869873047,-0.0004904270172119141
1779958178605412900,18.071412841796874,-0.02906179428100586,0.05600929260253906,0.03779721260070801
1779958178621748200,18.087748291015625,-0.04035511612892151,0.07995223999023438,0.06644344329833984
1779958178638076400,18.104076416015626,-0.07922673225402832,0.055938720703125,0.050986528396606445
1779958178654409000,18.120408935546877,-0.09497994184494019,-0.029682159423828125,-0.04531264305114746
1779958178670724600,18.136724609375,-0.1192597895860672,-0.06238746643066406,-0.13136744499206543
1779958178687071200,18.1530712890625,-0.09638436138629913,-0.06711959838867188,-0.12382078170776367
1779958178703420400,18.16942041015625,-0.09088364243507385,-0.08130073547363281,-0.0893864631652832
1779958178719750100,18.185750244140625,-0.0927877426147461,-0.10044479370117188,-0.1322038173675537
1779958178736083700,18.202083740234375,-0.04637995362281799,-0.0814352035522461,-0.13180112838745117
1779958178752415000,18.2184150390625,0.07883818447589874,-0.010447502136230469,-0.0929563045501709
1779958178768729900,18.234729736328124,0.13188955187797546,0.037016868591308594,-0.06047844886779785
1779958178785066000,18.25106591796875,0.08092115819454193,0.06522655487060547,-0.015172004699707031
1779958178801398800,18.267398681640625,0.01198732852935791,0.012014389038085938,0.010696649551391602
1779958178817717000,18.283717041015624,-0.04788121581077576,-0.07855701446533203,-0.07698464393615723
1779958178834064000,18.30006396484375,-0.009279757738113403,-0.03518104553222656,-0.10363960266113281
1779958178850383000,18.316383056640625,-0.003237009048461914,0.051418304443359375,-0.039176225662231445
1779958178866739500,18.332739501953125,0.036141544580459595,0.07016181945800781,0.03908896446228027
1779958178883078100,18.349078125,-0.0019249320030212402,0.08442878723144531,0.06203889846801758
1779958178899404800,18.36540478515625,-0.016285061836242676,0.03632068634033203,0.03220963478088379
1779958178915734300,18.381734375,-0.006469905376434326,-0.0015325546264648438,0.002726316452026367
1779958178932052500,18.398052490234374,-0.07426506280899048,-0.05904960632324219,0.03512096405029297
1779958178948386800,18.41438671875,-0.05614137649536133,-0.049457550048828125,0.025524616241455078
1779958178964719400,18.43071923828125,-0.0514293909072876,0.09836578369140625,0.050408363342285156
1779958178981041200,18.447041259765626,-0.034475743770599365,0.08382320404052734,0.08819198608398438
1779958178997370400,18.463370361328124,-0.009375154972076416,0.06440067291259766,0.07274842262268066
1779958179013715700,18.4797158203125,0.0001970529556274414,-0.012319564819335938,0.009804964065551758
1779958179030050000,18.496050048828124,-0.03977590799331665,0.03151893615722656,-0.0237576961517334
1779958179046397400,18.5123974609375,-0.06052061915397644,0.06944751739501953,0.03513360023498535
1779958179062719700,18.5287197265625,-0.09038349986076355,0.03118896484375,0.10159420967102051
1779958179079040000,18.5450400390625,-0.0992983877658844,-0.025880813598632812,0.04311037063598633
1779958179095375400,18.561375244140624,-0.07418844103813171,-0.07397270202636719,-0.044002532958984375
1779958179111708200,18.577708251953126,-0.0022865235805511475,-0.07396125793457031,-0.07204890251159668
1779958179128039200,18.5940390625,0.0022561252117156982,0.055419921875,-0.05212211608886719
1779958179144372000,18.6103720703125,-0.0009945929050445557,0.05066967010498047,-0.008701086044311523
1779958179160691700,18.626691650390626,-0.01399087905883789,-0.0074615478515625,0.0005705356597900391
1779958179177051400,18.643051513671875,-0.02606913447380066,-0.03570365905761719,-0.057804107666015625
1779958179193383400,18.659383544921877,-0.01957109570503235,-0.021368026733398438,-0.04811286926269531
1779958179209713000,18.675712890625,-0.008501529693603516,0.011559486389160156,-0.004061698913574219
1779958179226045400,18.69204541015625,0.017251908779144287,-0.007587432861328125,0.010505199432373047
1779958179242376700,18.708376708984375,-0.014720022678375244,-0.0021953582763671875,-0.0036153793334960938
1779958179258692000,18.724692138671877,0.024438709020614624,0.011525154113769531,-0.01323699951171875
1779958179275028700,18.74102880859375,-0.012576371431350708,0.00738525390625,-0.05124044418334961
1779958179291363000,18.757363037109375,-0.007176518440246582,0.036144256591796875,-0.031729698181152344
1779958179307692800,18.77369287109375,0.018538594245910645,0.02586078643798828,-0.0032842159271240234
1779958179324024600,18.790024658203127,-0.01771607995033264,-0.021631240844726562,-0.019086360931396484
1779958179340345000,18.806344970703126,-0.04468131065368652,-0.07437896728515625,-0.06247091293334961
1779958179356702500,18.822702392578126,-0.039063066244125366,0.0023546218872070312,-0.05678200721740723
1779958179373038800,18.839038818359374,0.0012826323509216309,0.044925689697265625,0.016393423080444336
1779958179389365800,18.85536572265625,-0.04312220215797424,-0.01201629638671875,0.03489947319030762
1779958179405699300,18.87169921875,-0.040344446897506714,-0.016961097717285156,-0.008573770523071289
1779958179422028000,18.888028076171874,-0.03778454661369324,-0.02653026580810547,-0.03692460060119629
1779958179438340900,18.9043408203125,-0.025607764720916748,0.0500946044921875,-0.012312173843383789
1779958179454681300,18.920681396484376,0.0013060569763183594,0.06367206573486328,0.03575897216796875
1779958179471014400,18.937014404296875,0.003516584634780884,0.029847145080566406,0.010702848434448242
1779958179487346200,18.95334619140625,-0.04787415266036987,-0.0032072067260742188,-0.06704568862915039
1779958179503678200,18.96967822265625,-0.07692748308181763,-0.01738262176513672,-0.05254364013671875
1779958179520008700,18.9860087890625,-0.03044748306274414,-0.0026912689208984375,0.03557467460632324
1779958179536355600,19.00235546875,-0.029946357011795044,0.015924453735351562,0.064666748046875
1779958179552689200,19.018689208984377,-0.047973304986953735,0.010987281799316406,0.03543853759765625
1779958179569014500,19.0350146484375,-0.02705317735671997,0.010727882385253906,0.010625362396240234
1779958179585340200,19.051340087890626,-0.05696362257003784,-0.0033693313598632812,-0.000009298324584960938
1779958179601670700,19.067670654296876,-0.06823471188545227,-0.056224822998046875,0.003682851791381836
1779958179618001400,19.08400146484375,-0.0468769371509552,0.034638404846191406,0.028336048126220703
1779958179634334500,19.10033447265625,-0.02500373125076294,0.06265926361083984,0.061911821365356445
1779958179650654200,19.116654296875,-0.030694514513015747,0.009757041931152344,0.06125187873840332
1779958179666999300,19.132999267578125,-0.04671758413314819,0.0244598388671875,0.027111053466796875
1779958179683331600,19.14933154296875,-0.02121153473854065,0.08594894409179688,0.04602789878845215
1779958179699661600,19.16566162109375,-0.034320980310440063,0.05242347717285156,0.0891721248626709
1779958179715995000,19.181994873046875,-0.08562839031219482,0.01956462860107422,0.08888006210327148
1779958179732328000,19.198327880859374,-0.10459116101264954,-0.00905609130859375,0.08931827545166016
1779958179748655400,19.2146552734375,-0.03902706503868103,0.08136558532714844,0.09018754959106445
1779958179764991000,19.230990966796874,-0.001685112714767456,0.1197061538696289,0.12926840782165527
1779958179781324000,19.247323974609376,0.04205462336540222,0.07647514343261719,0.15737342834472656
1779958179797640000,19.263639892578126,0.008233845233917236,0.009181022644042969,0.09371829032897949
1779958179813978000,19.27997802734375,-0.04931575059890747,-0.052532196044921875,0.005745887756347656
1779958179830306600,19.296306640625,-0.12619918584823608,-0.023458480834960938,-0.01723337173461914
1779958179846652700,19.312652587890625,-0.06801921129226685,0.03930091857910156,0.005022764205932617
1779958179862983000,19.32898291015625,0.004891902208328247,0.04386138916015625,0.002753019332885742
1779958179879315700,19.345315673828125,0.06482431292533875,-0.0033540725708007812,-0.0631709098815918
1779958179895650800,19.36165087890625,0.11397947371006012,-0.046425819396972656,-0.16356444358825684
1779958179912009200,19.37800927734375,0.06158095598220825,-0.11269474029541016,-0.22106599807739258
1779958179928307200,19.39430712890625,0.005465954542160034,-0.14099502563476562,-0.2245117425918579
1779958179944644600,19.41064453125,-0.03127795457839966,-0.04963397979736328,-0.13123488426208496
1779958179960985000,19.426985107421874,0.020567744970321655,0.012094497680664062,-0.06719803810119629
1779958179977308400,19.443308349609374,0.04464563727378845,-0.021728515625,-0.07741618156433105
1779958179993640700,19.459640625,0.0359228253364563,-0.10765647888183594,-0.10702037811279297
1779958180009974000,19.47597412109375,0.03028029203414917,-0.012628555297851562,-0.09239935874938965
1779958180026318000,19.492318115234376,-0.019565731287002563,0.07840919494628906,0.03795814514160156
1779958180042637800,19.508637939453124,-0.06382179260253906,0.0777587890625,0.11918830871582031
1779958180058983400,19.5249833984375,-0.10235747694969177,0.03032207489013672,0.08078169822692871
1779958180075292400,19.54129248046875,-0.07518643140792847,0.05833148956298828,0.1144711971282959
1779958180091633400,19.55763330078125,-0.06383907794952393,0.1013803482055664,0.1775960922241211
1779958180107966500,19.573966552734376,-0.06707054376602173,0.12048053741455078,0.22074294090270996
1779958180124297500,19.59029736328125,-0.11870542168617249,0.11080741882324219,0.22944164276123047
1779958180140616700,19.60661669921875,-0.16129937767982483,0.07721614837646484,0.19969582557678223
1779958180156962300,19.62296240234375,-0.15684494376182556,0.05803108215332031,0.18989348411560059
1779958180173297000,19.639296875,-0.11406564712524414,0.043593406677246094,0.1661522388458252
1779958180189618000,19.655617919921873,-0.09439647197723389,0.06329727172851562,0.1133267879486084
1779958180205976800,19.671976806640625,-0.10747405886650085,0.07284069061279297,0.09429001808166504
1779958180222286300,19.688286376953126,-0.11110341548919678,0.053618431091308594,0.09413528442382812
1779958180238617000,19.7046171875,-0.09614422917366028,0.043984413146972656,0.060461997985839844
1779958180254956000,19.7209560546875,-0.10030388832092285,0.020181655883789062,-0.0017855167388916016
1779958180271286500,19.73728662109375,-0.05454808473587036,0.087554931640625,0.048065185546875
1779958180287618000,19.7536181640625,-0.05766817927360535,0.09743213653564453,0.11179041862487793
1779958180303950000,19.7699501953125,-0.13546112179756165,0.02089405059814453,0.11999225616455078
1779958180320281600,19.786281494140624,-0.10328686237335205,-0.05572032928466797,0.05725669860839844
1779958180336629000,19.80262890625,-0.06640294194221497,-0.07004642486572266,-0.009354352951049805
1779958180352963800,19.8189638671875,-0.0532321035861969,-0.0172271728515625,-0.04705691337585449
1779958180369277400,19.83527734375,-0.020792156457901,0.06426143646240234,-0.03159832954406738
1779958180385625300,19.851625244140624,-0.016766339540481567,0.06899738311767578,-0.003228902816772461
1779958180401953300,19.867953369140626,-0.04032325744628906,-0.031638145446777344,-0.04275703430175781
1779958180418270000,19.88427001953125,-0.04513928294181824,-0.030961990356445312,-0.10463690757751465
1779958180434606600,19.900606689453124,0.02576357126235962,0.02611255645751953,-0.06949019432067871
1779958180450938400,19.9169384765625,0.0014067590236663818,0.031151771545410156,-0.04930257797241211
1779958180467271400,19.933271484375,0.01926150918006897,-0.0021467208862304688,-0.019912242889404297
1779958180483602700,19.949602783203126,0.012214481830596924,-0.07377052307128906,-0.0483858585357666
1779958180499929900,19.965929931640623,0.04173964262008667,-0.015875816345214844,-0.11876821517944336
1779958180516292900,19.98229296875,0.04722023010253906,0.03258037567138672,-0.10720324516296387
1779958180532594200,19.99859423828125,0.01886388659477234,0.028322219848632812,-0.06242179870605469
1779958180548956400,20.014956298828125,0.011767417192459106,-0.03835105895996094,-0.06144118309020996
1779958180565273900,20.03127392578125,-0.06556037068367004,-0.023191452026367188,-0.09963178634643555
1779958180581595600,20.047595703125,0.009733766317367554,-0.03800392150878906,-0.05543208122253418
1779958180597926700,20.0639267578125,0.022551119327545166,-0.05697822570800781,-0.03569960594177246
1779958180614259000,20.080259033203124,-0.002602696418762207,0.029381752014160156,-0.0014202594757080078
1779958180630582300,20.096582275390624,-0.018543660640716553,0.06775569915771484,0.056252479553222656
1779958180646922800,20.1129228515625,-0.043232351541519165,0.0628671646118164,0.04132485389709473
