time,seconds_elapsed,z,y,x
1779958160619726600,0.0857265625,-0.40454551577568054,0.2292271852493286,0.6140722632408142
1779958160636048000,0.1020478515625,-0.33719760179519653,0.0835358202457428,0.84574294090271
1779958160652382700,0.1183828125,0.14095716178417206,-0.7625125646591187,1.8793269395828247
1779958160668729900,0.134729736328125,0.24174992740154266,-1.9146044254302979,2.665663242340088
1779958160685058600,0.15105859375,0.04077525436878204,-3.0611984729766846,3.0085113048553467
1779958160701392100,0.16739208984375,-0.42180246114730835,-4.385859966278076,2.928335189819336
1779958160717722400,0.183722412109375,-1.1536190509796143,-5.352401256561279,2.305405378341675
1779958160734055200,0.20005517578125,-1.9958494901657104,-5.8638482093811035,0.963792622089386
1779958160750389000,0.216388916015625,-2.763401746749878,-4.523151874542236,-0.6644686460494995
1779958160766716000,0.2327158203125,0.7029531598091125,-1.582904577255249,-1.65834641456604
1779958160783043300,0.249043212890625,0.41462478041648865,-0.5775730609893799,-1.6927075386047363
1779958160799399200,0.265399169921875,0.7628179788589478,-0.413555771112442,-1.1582005023956299
1779958160815727400,0.281727294921875,0.8831584453582764,-0.05009094998240471,-0.6794348955154419
1779958160832057900,0.298057861328125,1.1809552907943726,0.7545713186264038,-0.7444919943809509
1779958160848392400,0.314392333984375,1.7508925199508667,1.38849675655365,-1.6476563215255737
1779958160864722400,0.330722412109375,2.397646188735962,2.9721648693084717,-2.8377745151519775
1779958160881058600,0.34705859375,2.1852176189422607,3.318983554840088,-3.6946656703948975
1779958160897371100,0.36337109375,1.4118622541427612,1.2933543920516968,-4.090506553649902
1779958160913702700,0.37970263671875,1.0074695348739624,-0.42898011207580566,-3.718794822692871
1779958160930051000,0.396051025390625,1.2247848510742188,-0.5705481171607971,-2.6010642051696777
1779958160946378000,0.4123779296875,1.5729780197143555,-0.42699480056762695,-1.3164145946502686
1779958160962709800,0.428709716796875,2.035708427429199,-0.2919935882091522,-0.11194105446338654
1779958160979053300,0.44505322265625,1.7686076164245605,-0.26740625500679016,0.8199338912963867
1779958160995372300,0.461372314453125,0.380721777677536,-0.5105306506156921,1.226922869682312
1779958161011697000,0.47769677734375,-0.050854530185461044,-0.9231700897216797,1.474017858505249
1779958161028028200,0.494028076171875,0.6768386960029602,-1.0477865934371948,1.7705929279327393
1779958161044357400,0.510357421875,1.2223412990570068,-0.9784533977508545,2.168877124786377
1779958161060696000,0.526696044921875,1.3900238275527954,-1.1438452005386353,2.6367998123168945
1779958161077024000,0.54302392578125,1.2791517972946167,-1.7930421829223633,2.850908041000366
1779958161093344300,0.55934423828125,1.2980886697769165,-2.528829336166382,2.7673723697662354
1779958161109703700,0.57570361328125,1.656819224357605,-2.852435350418091,2.5218043327331543
1779958161126003200,0.592003173828125,2.0283780097961426,-2.222175121307373,2.010204792022705
1779958161142342700,0.6083427734375,2.238821029663086,-1.1183415651321411,1.3437508344650269
1779958161158686200,0.624686279296875,2.5253169536590576,-0.10033461451530457,0.7574729323387146
1779958161175016200,0.64101611328125,2.719572067260742,0.4996877610683441,0.3767511546611786
1779958161191347700,0.65734765625,2.778367757797241,0.30604347586631775,0.19654589891433716
1779958161207676200,0.67367626953125,2.9329166412353516,-0.7168503403663635,0.16325373947620392
1779958161223999000,0.6899990234375,3.0883820056915283,-1.5616769790649414,0.1394299864768982
1779958161240342300,0.70634228515625,3.1421380043029785,-1.8894062042236328,-0.00855211354792118
1779958161256694300,0.7226943359375,3.399617910385132,-1.7860172986984253,-0.33536502718925476
1779958161272989400,0.738989501953125,3.7696495056152344,-0.9932668805122375,-0.7440338730812073
1779958161289375500,0.75537548828125,3.936721086502075,-0.30482175946235657,-1.2728904485702515
1779958161305680100,0.77168017578125,3.8347065448760986,-0.2993239760398865,-1.7380642890930176
1779958161322020900,0.788020751953125,3.389233112335205,-1.2990049123764038,-2.0413589477539062
1779958161338346500,0.804346435546875,3.1560351848602295,-2.536923408508301,-1.9787452220916748
1779958161354678800,0.8206787109375,3.177262783050537,-3.155118942260742,-1.8067866563796997
1779958161371017000,0.837016845703125,3.1841351985931396,-2.5871670246124268,-1.5699236392974854
1779958161387327200,0.8533271484375,3.416416645050049,-0.8683449625968933,-1.4442381858825684
1779958161403658500,0.869658447265625,2.7197248935699463,-0.1111774742603302,-1.5913039445877075
1779958161420011800,0.88601171875,1.5694655179977417,-0.7446447610855103,-1.793500304222107
1779958161436324400,0.902324462890625,0.644768238067627,-1.5419765710830688,-2.2757785320281982
1779958161452671200,0.918671142578125,0.17592918872833252,-1.3180944919586182,-2.7039949893951416
1779958161469003000,0.9350029296875,0.3052799105644226,-0.059864792972803116,-2.7895162105560303
1779958161485303800,0.9513037109375,1.1571314334869385,0.5881105065345764,-2.4723243713378906
1779958161501656800,0.96765673828125,2.079232692718506,0.6472117304801941,-1.8694003820419312
1779958161517991200,0.9839912109375,2.233323335647583,0.9520334601402283,-1.1756101846694946
1779958161534299100,1.000299072265625,1.665218710899353,0.30604347586631775,-0.640644907951355
1779958161550638800,1.016638916015625,1.0041097402572632,-1.0151053667068481,0.24908030033111572
1779958161566965200,1.03296533203125,0.351400226354599,-1.9770653247833252,1.348179578781128
1779958161583305500,1.049305419921875,0.028405234217643738,-2.057546854019165,1.9356791973114014
1779958161599633200,1.065633056640625,0.00809396430850029,-1.7809776067733765,1.9656116962432861
1779958161615966000,1.081966064453125,-0.01542434748262167,-1.5929838418960571,1.8535178899765015
1779958161632296400,1.09829638671875,-0.04703662544488907,-0.6070473194122314,1.7701348066329956
1779958161648629500,1.11462939453125,-0.10125091671943665,0.3251330256462097,1.475545048713684
1779958161664956200,1.1309560546875,-0.32681289315223694,0.6499606370925903,0.8567385077476501
1779958161681294000,1.147294189453125,-0.5726861953735352,0.6921103000640869,0.2018909603357315
1779958161697623800,1.163623779296875,-0.3741549551486969,0.9764680862426758,-0.18524488806724548
1779958161713956900,1.179956787109375,0.1918116807937622,2.0308215618133545,-0.508698046207428
1779958161730291200,1.196291259765625,0.0884227454662323,2.3299927711486816,-0.6088799238204956
1779958161746633700,1.2126337890625,0.4830417037010193,2.229810953140259,-0.6974554061889648
1779958161762954500,1.22895458984375,0.1788308024406433,3.160769462585449,-1.1204795837402344
1779958161779296300,1.245296142578125,0.058184914290905,3.2404873371124268,-1.1870639324188232
1779958161795628000,1.2616279296875,-0.23640485107898712,3.0497448444366455,-0.8168795704841614
1779958161811963000,1.277962890625,-0.3257438838481903,2.2925772666931152,-0.2638937830924988
1779958161828291000,1.294291015625,-0.21930062770843506,1.8620699644088745,0.005497787147760391
1779958161844611800,1.31061181640625,-0.08017606288194656,1.478141188621521,0.19914206862449646
1779958161860981800,1.326981689453125,0.30512720346450806,2.16628098487854,-0.026114489883184433
1779958161877327400,1.343327392578125,0.2785545587539673,4.3646321296691895,-1.4903584718704224
1779958161893617200,1.3596171875,-0.19883663952350616,2.5303566455841064,-1.1983648538589478
1779958161909955300,1.375955322265625,-0.6206390857696533,1.5413657426834106,-0.13240504264831543
1779958161926276400,1.3922763671875,-0.34055736660957336,0.811687171459198,0.038179077208042145
1779958161942620200,1.4086201171875,0.18096883594989777,0.8187121152877808,0.14538592100143433
1779958161958947600,1.424947509765625,0.5522221922874451,0.8191702961921692,0.1189660057425499
1779958161975280400,1.4412802734375,0.5731443166732788,0.5746715068817139,-0.05009094998240471
1779958161991629000,1.457629150390625,0.5342016816139221,0.3735440969467163,-0.42531493306159973
1779958162007928000,1.473927978515625,0.6143777370452881,0.70692378282547,-1.0387763977050781
1779958162024275000,1.49027490234375,0.7718282341957092,0.7929030656814575,-1.4735597372055054
1779958162040609000,1.506609130859375,1.1033753156661987,-0.02076941914856434,-1.7243198156356812
1779958162056938500,1.5229384765625,1.5566374063491821,-0.8701775670051575,-1.976759910583496
1779958162073272600,1.5392724609375,2.0143282413482666,-1.0378600358963013,-2.160325050354004
1779958162089602000,1.55560205078125,2.6865854263305664,-0.2165517359972,-1.7715091705322266
1779958162105936600,1.5719365234375,2.8214337825775146,0.7560984492301941,-1.3603968620300293
1779958162122263800,1.588263916015625,2.116189956665039,1.050840973854065,-1.368032693862915
1779958162138606800,1.60460693359375,1.3761266469955444,0.8518515825271606,-1.2829697132110596
1779958162154908200,1.620908203125,0.7487680912017822,0.9434813857078552,-0.9876163601875305
1779958162171264800,1.6372646484375,0.24037547409534454,1.0366383790969849,-0.7313584089279175
1779958162187595300,1.65359521484375,0.05665775015950203,0.9535606503486633,-0.5134322643280029
1779958162203926300,1.66992626953125,0.35063666105270386,0.9720393419265747,-0.26221391558647156
1779958162220258000,1.686258056640625,0.7467827796936035,1.077413558959961,-0.22663100063800812
1779958162236593400,1.702593505859375,0.9611964821815491,0.732122004032135,-0.39965859055519104
1779958162252935400,1.718935302734375,1.2235630750656128,-0.13607023656368256,-0.6575964093208313
1779958162269264000,1.735263916015625,1.111163854598999,-1.0474811792373657,-0.5232060551643372
1779958162285611000,1.751611083984375,-0.03649919852614403,-2.0367774963378906,-0.3459024429321289
1779958162301927200,1.76792724609375,-0.6275113224983215,-2.3687827587127686,0
1779958162318264000,1.78426416015625,-0.5641340613365173,-2.322356939315796,0.20005837082862854
1779958162334591700,1.800591796875,-0.33826664090156555,-2.2707388401031494,0.031001411378383636
1779958162350927600,1.816927734375,-0.03176499158143997,-2.9292516708374023,-0.42730024456977844
1779958162367261400,1.833261474609375,0.29917123913764954,-4.325842380523682,-0.8509352803230286
1779958162383593000,1.849593017578125,0.5403103232383728,-5.591249465942383,-0.8558222055435181
1779958162399923200,1.865923095703125,0.7293730974197388,-6.0451226234436035,-0.6270532011985779
1779958162416235800,1.88223583984375,0.8903360962867737,-5.5402421951293945,-0.7777841687202454
1779958162432592000,1.898591796875,1.1772900819778442,-4.676173686981201,-1.0235047340393066
1779958162448919000,1.9149189453125,1.5619823932647705,-3.8675405979156494,-0.7835873961448669
1779958162465216800,1.931216796875,1.2064588069915771,-3.098308563232422,0.16859880089759827
1779958162481570800,1.94757080078125,0.1661553531885147,-2.7353017330169678,0.598953366279602
1779958162497902000,1.963902099609375,-0.11530081182718277,-2.278374671936035,0.4717406928539276
1779958162514233900,1.98023388671875,0.2955060601234436,-1.683239221572876,0.06459899991750717
1779958162530616800,1.996616943359375,0.1417207419872284,-1.2507466077804565,-0.030543262138962746
1779958162546898200,2.012898193359375,-0.07360926270484924,-1.151481032371521,-0.11560624837875366
1779958162563230200,2.029230224609375,-0.2096794992685318,-1.244027018547058,-0.35155296325683594
1779958162579560700,2.045560791015625,-0.2791654169559479,-1.632842779159546,-0.42439863085746765
1779958162595893800,2.061893798828125,-0.48579058051109314,-1.9636263847351074,-0.2765692472457886
1779958162612224300,2.078224365234375,-0.5105306506156921,-2.4578163623809814,-0.07757988572120667
1779958162628560400,2.094560302734375,-0.23579397797584534,-2.6613872051239014,-0.07620543986558914
1779958162644891400,2.110891357421875,0.018478672951459885,-2.685210943222046,0.24908030033111572
1779958162661223000,2.127222900390625,0.05009094998240471,-2.601980447769165,0.4616613984107971
1779958162677554400,2.143554443359375,0.055283304303884506,-2.727360486984253,0.6753115057945251
1779958162693888300,2.15988818359375,0.19043724238872528,-2.760958194732666,0.7652614116668701
1779958162710216000,2.1762158203125,0.384845107793808,-2.3121249675750732,0.8825475573539734
1779958162726558500,2.192558349609375,0.46899178624153137,-1.793653130531311,1.0731375217437744
1779958162742950400,2.208950439453125,0.5090034604072571,-1.5460999011993408,0.9837985038757324
1779958162759227100,2.22522705078125,0.4495968222618103,-1.2360857725143433,0.6728680729866028
1779958162775534600,2.24153466796875,0.551916778087616,-0.5441282391548157,0.5102251768112183
1779958162791894300,2.257894287109375,0.9288206100463867,-0.4499022662639618,0.36193767189979553
1779958162808221400,2.274221435546875,0.6256787180900574,-0.6563746929168701,0.24495697021484375
1779958162824556500,2.290556640625,0.29367345571517944,-0.570853590965271,0.2719877362251282
1779958162840878800,2.30687890625,0.2808452844619751,-0.2970332205295563,0.28069257736206055
1779958162857220900,2.323220947265625,0.30253100395202637,-0.007788531947880983,0.20601430535316467
1779958162873552000,2.3395517578125,0.43737950921058655,-0.026419922709465027,0.12095131725072861
1779958162889880000,2.355880126953125,0.6409503817558289,-0.5448917746543884,0.045204028487205505
1779958162906201600,2.37220166015625,0.9468411207199097,-1.0961977243423462,0.11041389405727386
1779958162922548000,2.3885478515625,1.2092077732086182,-1.5105170011520386,0.4337143301963806
1779958162938867700,2.40486767578125,1.4017829895019531,-1.34283447265625,0.4983133375644684
1779958162955214800,2.42121484375,1.1983648538589478,-1.0584768056869507,0.6939429044723511
1779958162971542300,2.437542236328125,1.1081095933914185,-1.429271936416626,0.6392704844474792
1779958162987876000,2.4538759765625,1.1633929014205933,-1.1039862632751465,0.49098294973373413
1779958163004207900,2.470207763671875,1.0697777271270752,0.36483925580978394,0.0887281745672226
1779958163020521700,2.486521728515625,0.7681630253791809,1.0102183818817139,-0.24785856902599335
1779958163036857900,2.50285791015625,0.2603813111782074,0.7402159571647644,-0.1621847152709961
1779958163053190700,2.519190673828125,-0.19578230381011963,-0.03497203439474106,0.06459899991750717
1779958163069520400,2.535520263671875,-0.7420485615730286,-0.6131559610366821,-0.13209961354732513
1779958163085842400,2.551842529296875,-1.1745411157608032,-0.9314168095588684,-0.3827070891857147
1779958163102185700,2.568185791015625,-1.0456485748291016,-0.6724098920822144,-0.1540907621383667
1779958163118517000,2.58451708984375,-0.5329799056053162,-0.31062498688697815,0.1621847152709961
1779958163134853000,2.60085302734375,-0.10491610318422318,-0.2197587788105011,0.10613783448934555
1779958163151180300,2.61718017578125,-0.12950342893600464,-0.23273965716362,0.05100724846124649
1779958163167516000,2.633515869140625,-0.24846944212913513,-0.33796119689941406,-0.03298672288656235
1779958163183850500,2.6498505859375,-0.45784351229667664,-0.19685132801532745,-0.08277224004268646
1779958163200172000,2.666172119140625,-0.6018549799919128,-0.032070424407720566,-0.14019356667995453
1779958163216511500,2.682511474609375,-0.39064833521842957,-0.749531626701355,0.21334469318389893
1779958163232862200,2.6988623046875,-0.3471241891384125,-0.988074541091919,0.3309362530708313
1779958163249180700,2.7151806640625,-0.5867360830307007,-0.9828822016716003,0.29306259751319885
1779958163265518000,2.73151806640625,-0.675006091594696,-0.34773504734039307,0.3949243724346161
1779958163281847800,2.747847900390625,-0.12034045159816742,0.07864890247583389,0.6653849482536316
1779958163298180600,2.7641806640625,0.6546948552131653,-0.3257438838481903,0.8472700715065002
1779958163314516500,2.7805166015625,1.823127269744873,-0.945772111415863,1.314734697341919
1779958163330845200,2.79684521484375,2.981022357940674,-2.08274507522583,1.6203200817108154
1779958163347180500,2.8131806640625,3.490025758743286,-2.2513439655303955,1.7820466756820679
1779958163363512000,2.829511962890625,1.923767328262329,-2.0951151847839355,0.6246097087860107
1779958163379842000,2.845842041015625,0.12828169763088226,-0.32498031854629517,-0.3497203588485718
1779958163396161000,2.8621611328125,0.3549126982688904,1.17240309715271,-0.49693888425827026
1779958163412504000,2.878504150390625,0.8127561807632446,1.0971139669418335,-0.7582364678382874
1779958163428842500,2.894842529296875,0.8408560156822205,0.327729195356369,-0.4853324294090271
1779958163445154300,2.911154296875,0.15974126756191254,-0.014355333521962166,-0.08567385375499725
1779958163461504800,2.9275048828125,-0.2997821271419525,-0.35292738676071167,-0.06643159687519073
1779958163477836500,2.94383642578125,0.014202617108821869,-0.3191770911216736,-0.04856378585100174
1779958163494167300,2.960167236328125,0.08155050873756409,-0.40622538328170776,0.00015271631127689034
1779958163510497800,2.976497802734375,0.10476338863372803,-0.7322747111320496,0.03329215571284294
1779958163526814200,2.992814208984375,0.13057245314121246,-0.9280570149421692,-0.01542434748262167
1779958163543150800,3.00915087890625,0.1992947906255722,-0.8396342992782593,-0.2626720666885376
1779958163559479800,3.025479736328125,0.2148718535900116,-0.8822421431541443,-0.5732970237731934
1779958163575814000,3.04181396484375,0.13607023656368256,-1.1369729042053223,-0.4150829315185547
1779958163592145700,3.058145751953125,0.10797043144702911,-0.5532912015914917,0.21151208877563477
1779958163608477200,3.074477294921875,0.23487769067287445,0.05345070734620094,0.18600846827030182
1779958163624809200,3.090809326171875,0.30054569244384766,-0.27030786871910095,-0.11575896292924881
1779958163641142300,3.107142333984375,0.2646573781967163,-0.8216137290000916,-0.1411098688840866
1779958163657470500,3.123470458984375,0.32986724376678467,-0.846659243106842,0.011759156361222267
1779958163673809400,3.139809326171875,0.4554000496864319,-0.4297437071800232,0.2064724564552307
1779958163690136000,3.156135986328125,0.4282165467739105,-0.3384193480014801,0.3257438838481903
1779958163706474500,3.172474609375,0.26374107599258423,-0.6346889734268188,0.2808452844619751
1779958163722798300,3.18879833984375,0.15775595605373383,-0.8808676600456238,0.24877487123012543
1779958163739133000,3.2051328125,0.2635883390903473,-1.0178542137145996,0.30802878737449646
1779958163755465000,3.22146484375,0.4867068827152252,-0.9146180152893066,0.24816401302814484
1779958163771798300,3.23779833984375,0.5418374538421631,-0.66584312915802,0.12507465481758118
1779958163788116700,3.25411669921875,0.44364088773727417,-0.9607383012771606,0.6481280326843262
1779958163804465700,3.270465576171875,0.42928555607795715,-1.2415835857391357,0.6737843751907349
1779958163820799500,3.286799560546875,-0.01771509274840355,-0.7380779385566711,0.1693623960018158
1779958163837114600,3.303114501953125,-0.02886338345706463,-0.03420845419168472,-0.1033889427781105
1779958163853461200,3.319461181640625,0.013439035043120384,0.08567385375499725,-0.1595885455608368
1779958163869789000,3.335788818359375,-0.018936822190880775,-0.09178250283002853,-0.0529925599694252
1779958163886108000,3.35210791015625,-0.00733038317412138,-0.2785545587539673,0.11209376901388168
1779958163902458000,3.3684580078125,-0.012828170321881771,-0.24923302233219147,0.06444628536701202
1779958163918780700,3.38478076171875,-0.008857546374201775,-0.144622340798378,-0.007177666760981083
1779958163935135200,3.40113525390625,0.001832595793530345,-0.07819075137376785,-0.00809396430850029
1779958163951465200,3.41746533203125,0.003054326167330146,-0.04795292019844055,-0.029474247246980667
1779958163967794700,3.433794677734375,-0.01817324012517929,0.019089538604021072,-0.036041051149368286
1779958163984126200,3.450126220703125,-0.024587325751781464,0.06688974797725677,-0.0403171069920063
1779958164000459000,3.466458984375,-0.006261368747800589,0.11743884533643723,-0.06215553730726242
1779958164016779300,3.482779296875,-0.00015271631127689034,0.19517144560813904,-0.07498370856046677
1779958164033110300,3.4991103515625,-0.010231993161141872,0.2981022298336029,-0.07635815441608429
1779958164049428500,3.515428466796875,-0.026419922709465027,0.39248090982437134,-0.06108652427792549
1779958164065774800,3.53177490234375,-0.02779436856508255,0.41004329919815063,-0.03329215571284294
1779958164082102000,3.54810205078125,-0.014508049935102463,0.3599523603916168,0.0010690141934901476
1779958164098440700,3.564440673828125,0.00733038317412138,0.30634891986846924,0.022449297830462456
1779958164114770000,3.58077001953125,0.023365596309304237,0.2503020465373993,0.032070424407720566
1779958164131102500,3.5971025390625,0.02474004216492176,0.361174076795578,0.04505131021142006
1779958164147433500,3.61343359375,0.02382374368607998,0.36193767189979553,0.06582073122262955
1779958164163768800,3.629768798828125,0.019547687843441963,0.37537670135498047,0.061391957104206085
1779958164180094500,3.646094482421875,0.020616702735424042,0.38179078698158264,0.03527746722102165
1779958164196417500,3.66241748046875,0.01664607785642147,0.3439171314239502,0.03573561832308769
1779958164212780300,3.6787802734375,0.01038470957428217,0.28328874707221985,0.03481931984424591
1779958164229117400,3.695117431640625,0.0013744467869400978,0.23380866646766663,0.027488935738801956
1779958164245439000,3.71143896484375,0.0007635815418325365,0.18677204847335815,0.01038470957428217
1779958164261772000,3.72777197265625,0.0010690141934901476,0.1339322030544281,-0.013897184282541275
1779958164278105000,3.74410498046875,-0.00427605677396059,0.13454307615756989,-0.032070424407720566
1779958164294439400,3.760439453125,0.01114829070866108,0.11927144229412079,-0.03634648025035858
1779958164310766600,3.7767666015625,0.035124752670526505,0.13240504264831543,-0.06536258012056351
1779958164327102500,3.7931025390625,0.04153883829712868,0.15073099732398987,-0.07727445662021637
1779958164343436300,3.809436279296875,0.05910121276974678,0.11331550031900406,-0.06872233748435974
1779958164359763000,3.825762939453125,0.014966198243200779,0.07559457421302795,-0.032528575509786606
1779958164376105000,3.84210498046875,-0.024892758578062057,0.07712173461914062,-0.010842857882380486
1779958164392423400,3.85842333984375,-0.04382958263158798,0.07467827945947647,-0.013286318629980087
1779958164408763600,3.874763671875,-0.047189339995384216,0.039095375686883926,-0.0064140851609408855
1779958164425104000,3.891103759765625,-0.021991148591041565,0.02779436856508255,0.010079276748001575
1779958164441425700,3.90742578125,-0.003054326167330146,0.005650503560900688,0.042760565876960754
1779958164457753600,3.923753662109375,0.01817324012517929,-0.06276640295982361,0.058948494493961334
1779958164474088700,3.940088623046875,0.06291911751031876,-0.07620543986558914,0.07910704612731934
1779958164490408000,3.956407958984375,0.11255192011594772,-0.004581489134579897,0.0633772686123848
1779958164506734800,3.97273486328125,0.054367005825042725,0.06612616032361984,0.04444044828414917
1779958164523049700,3.9890498046875,-0.07101308554410934,0.10720685124397278,0.01878410577774048
1779958164539401000,4.00540087890625,-0.15577064454555511,0.13729196786880493,-0.06123924255371094
1779958164555735000,4.021735107421875,-0.09529497474431992,0.05711590126156807,-0.09529497474431992
1779958164572065300,4.038065185546875,-0.04245513305068016,0.08811730891466141,-0.1134682223200798
1779958164588399900,4.05439990234375,-0.005345070734620094,0.09773843735456467,-0.12538009881973267
1779958164604730600,4.070730712890625,0.014355333521962166,0.10674870014190674,-0.13301590085029602
1779958164621064200,4.087064208984375,0.020922135561704636,0.11194105446338654,-0.15073099732398987
1779958164637395000,4.10339501953125,0.002138028386980295,0.13927727937698364,-0.12202033400535583
1779958164653727500,4.1197275390625,-0.005650503560900688,0.1586722433567047,-0.07956519722938538
1779958164670057200,4.13605712890625,-0.0065668015740811825,0.14004085958003998,-0.05925392732024193
1779958164686385700,4.1523857421875,-0.009468411095440388,0.12522737681865692,-0.04795292019844055
1779958164702709800,4.168709716796875,-0.00733038317412138,0.11698069423437119,-0.0354301854968071
1779958164719069400,4.1850693359375,0.0027488935738801956,0.10995574295520782,-0.04046982154250145
1779958164735384300,4.20138427734375,0.00733038317412138,0.09392052888870239,-0.044135015457868576
1779958164751718700,4.21771875,-0.012980886735022068,0.07269296050071716,-0.04108068719506264
1779958164768049700,4.234049560546875,-0.031612277030944824,0.04902193695306778,-0.04138612002134323
1779958164784383500,4.250383544921875,-0.03191770985722542,0.01970040425658226,-0.054825156927108765
1779958164800715500,4.266715576171875,-0.01878410577774048,0.02977968007326126,-0.07131851464509964
1779958164817047800,4.2830478515625,-0.009926560334861279,0.05360342562198639,-0.08170322328805923
1779958164833396500,4.299396484375,-0.007788531947880983,0.05390885844826698,-0.08002334833145142
1779958164849724700,4.315724609375,-0.004123340360820293,0.039248090237379074,-0.06627888232469559
1779958164866057000,4.332056884765625,0.0013744467869400978,0.01664607785642147,-0.05253441259264946
1779958164882386700,4.34838671875,-0.00015271631127689034,0.0024434609804302454,-0.04596760869026184
1779958164898717200,4.36471728515625,-0.005039638374000788,-0.010079276748001575,-0.03726277872920036
1779958164915057700,4.3810576171875,-0.01237002108246088,-0.015882495790719986,-0.02626720629632473
1779958164931368700,4.39736865234375,-0.015577063895761967,0.001679879380390048,-0.01038470957428217
1779958164947705900,4.413705810546875,-0.004123340360820293,0.02015855349600315,-0.015271631069481373
1779958164964035000,4.43003515625,0.005039638374000788,0.009621127508580685,-0.022907447069883347
1779958164980379000,4.44637890625,0.01191187184303999,0.0074830991216003895,-0.02275473065674305
1779958164996699600,4.46269970703125,0.013439035043120384,0.004428773187100887,-0.021380282938480377
1779958165013029000,4.479029052734375,0.013591751456260681,0.011759156361222267,-0.024434609338641167
1779958165029365500,4.495365478515625,0.009773843921720982,0.01572977937757969,-0.024587325751781464
1779958165045696300,4.5116962890625,0.008704829961061478,0.016493361443281174,-0.01771509274840355
1779958165062022400,4.5280224609375,0.007635815534740686,0.007024950347840786,-0.016493361443281174
1779958165078365000,4.544364990234375,0.005497787147760391,-0.006719517521560192,-0.01878410577774048
1779958165094691600,4.560691650390625,0.007788531947880983,-0.02382374368607998,-0.018936822190880775
1779958165111024400,4.5770244140625,0.006108652334660292,-0.02168571576476097,-0.015882495790719986
1779958165127355600,4.593355712890625,0.0006108652451075613,-0.016493361443281174,-0.01817324012517929
1779958165143689000,4.60968896484375,-0.0032070425804704428,-0.010690141469240189,-0.01725694350898266
1779958165160018400,4.626018310546875,-0.00427605677396059,-0.017867809161543846,-0.018478672951459885
1779958165176332000,4.64233203125,-0.004886921960860491,-0.02779436856508255,-0.02168571576476097
1779958165192684500,4.6586845703125,-0.002138028386980295,-0.03955352306365967,-0.030085112899541855
1779958165209014800,4.675014892578125,-0.004123340360820293,-0.037110064178705215,-0.03176499158143997
1779958165225364500,4.691364501953125,-0.001832595793530345,-0.03481931984424591,-0.029168816283345222
1779958165241674500,4.707674560546875,0.008246680721640587,-0.054367005825042725,-0.03298672288656235
1779958165258023400,4.7240234375,0.013439035043120384,-0.05757404863834381,-0.03191770985722542
1779958165274356000,4.74035595703125,0.01237002108246088,-0.03588833287358284,-0.030237829312682152
1779958165290688800,4.756688720703125,0.008246680721640587,-0.04199698567390442,-0.021074850112199783
1779958165307016200,4.77301611328125,0.0065668015740811825,-0.04535674303770065,-0.009773843921720982
1779958165323355100,4.789355224609375,0.007024950347840786,-0.043218716979026794,-0.004428773187100887
1779958165339708200,4.805708251953125,0.009926560334861279,-0.06108652427792549,-0.0006108652451075613
1779958165356017000,4.822016845703125,0.01771509274840355,-0.07208210229873657,-0.0019853119738399982
1779958165372345900,4.838345947265625,0.020463986322283745,-0.06658431142568588,0.0029016099870204926
1779958165388679700,4.8546796875,0.021074850112199783,-0.036651913076639175,0.005497787147760391
1779958165405021700,4.871021728515625,0.02122756652534008,-0.030695978552103043,0.01466076634824276
1779958165421314600,4.887314453125,0.020616702735424042,-0.06185010448098183,0.02871066704392433
1779958165437662500,4.903662353515625,0.021532999351620674,-0.07528914511203766,0.03084869496524334
1779958165454013200,4.92001318359375,0.017867809161543846,-0.06230825558304787,0.00855211354792118
1779958165470338300,4.93633837890625,0.012675453908741474,-0.051312681287527084,-0.015118914656341076
1779958165486657500,4.952657470703125,0.011301007121801376,-0.05543602257966995,-0.021532999351620674
1779958165503010800,4.9690107421875,0.00809396430850029,-0.06368270516395569,-0.023060163483023643
1779958165519316500,4.98531640625,0.00427605677396059,-0.07880161702632904,-0.027030786499381065
1779958165535656400,5.001656494140625,0.0010690141934901476,-0.08994990587234497,-0.028557950630784035
1779958165551989800,5.01798974609375,-0.0006108652451075613,-0.08674286305904388,-0.04001167416572571
1779958165568309200,5.034309326171875,-0.001679879380390048,-0.0682641938328743,-0.040164388716220856
1779958165584653000,5.050653076171875,-0.0024434609804302454,-0.0455094613134861,-0.043218716979026794
1779958165600986600,5.066986572265625,-0.00733038317412138,-0.050854530185461044,-0.04932736977934837
1779958165617317400,5.0833173828125,-0.008246680721640587,-0.07299839705228806,-0.034666601568460464
1779958165633650400,5.099650390625,-0.007941247895359993,-0.08429940044879913,-0.01710422709584236
1779958165649980700,5.115980712890625,-0.0039706239476799965,-0.06352998316287994,-0.016798794269561768
1779958165666302700,5.132302734375,-0.0065668015740811825,-0.02779436856508255,-0.02321287989616394
1779958165682646300,5.148646240234375,-0.01237002108246088,-0.001679879380390048,-0.024129176512360573
1779958165698995200,5.1649951171875,-0.011301007121801376,-0.004123340360820293,-0.019853120669722557
1779958165715321900,5.18132177734375,-0.005039638374000788,-0.039248090237379074,-0.006261368747800589
1779958165731655000,5.197655029296875,0.0024434609804302454,-0.07162395119667053,0.013133603148162365
1779958165747965000,5.21396484375,0.009773843921720982,-0.07269296050071716,0.013286318629980087
1779958165764320000,5.230320068359375,0.007941247895359993,-0.04138612002134323,0.001527163083665073
1779958165780650200,5.246650146484375,-0.00015271631127689034,0.0019853119738399982,-0.006261368747800589
1779958165796983300,5.2629833984375,-0.001679879380390048,0.008246680721640587,-0.009926560334861279
1779958165813315600,5.279315673828125,-0.00015271631127689034,-0.00045814894838258624,-0.001679879380390048
1779958165829646300,5.295646240234375,-0.0012217304902151227,-0.01542434748262167,0.005497787147760391
1779958165845979000,5.311978759765625,0.0013744467869400978,-0.044745877385139465,0.005650503560900688
1779958165862313000,5.32831298828125,0.0013744467869400978,-0.03375030308961868,0.0024434609804302454
1779958165878636300,5.34463623046875,-0.00015271631127689034,0.005192354787141085,-0.012217304669320583
1779958165894975000,5.36097509765625,-0.0065668015740811825,0.015577063895761967,-0.018936822190880775
1779958165911306200,5.37730615234375,-0.008857546374201775,-0.0007635815418325365,-0.004734205547720194
1779958165927663600,5.39366357421875,-0.004428773187100887,-0.02626720629632473,-0.001527163083665073
1779958165943957200,5.409957275390625,-0.00045814894838258624,-0.023365596309304237,-0.00366519158706069
1779958165960290600,5.42629052734375,0.001527163083665073,-0.005650503560900688,-0.015271631069481373
1779958165976630500,5.442630615234375,0.001527163083665073,-0.0009162978967651725,-0.01572977937757969
1779958165992950000,5.458949951171875,-0.0039706239476799965,0.0007635815418325365,-0.01160643994808197
1779958166009280300,5.4752802734375,-0.008246680721640587,-0.007635815534740686,-0.008246680721640587
1779958166025624600,5.49162451171875,-0.006872233934700489,-0.018936822190880775,-0.005345070734620094
1779958166041940500,5.5079404296875,-0.0009162978967651725,-0.029932396486401558,-0.004734205547720194
1779958166058282500,5.524282470703125,0.004428773187100887,-0.018325956538319588,-0.005650503560900688
1779958166074617600,5.54061767578125,0.001527163083665073,0.019089538604021072,-0.007024950347840786
1779958166090948600,5.556948486328125,-0.004123340360820293,0.03145955875515938,-0.007177666760981083
1779958166107279400,5.573279296875,-0.006719517521560192,0.020922135561704636,0.0012217304902151227
1779958166123612400,5.5896123046875,-0.004428773187100887,0.00045814894838258624,0.009621127508580685
1779958166139943700,5.605943603515625,-0.001832595793530345,-0.01542434748262167,0.010231993161141872
1779958166156274400,5.6222744140625,-0.004428773187100887,-0.0027488935738801956,0.009162978269159794
1779958166172607700,5.638607666015625,-0.006719517521560192,0.020311269909143448,0.005497787147760391
1779958166188951800,5.654951904296875,-0.006261368747800589,0.019089538604021072,-0.003054326167330146
1779958166205275000,5.67127490234375,-0.00427605677396059,0.014508049935102463,0.00015271631127689034
1779958166221616600,5.68761669921875,0.0009162978967651725,0.012980886735022068,0.002138028386980295
1779958166237923600,5.703923583984375,0.00366519158706069,0.018325956538319588,-0.0019853119738399982
1779958166254281000,5.720281005859375,0.0009162978967651725,0.025656340643763542,-0.005650503560900688
1779958166278767400,5.744767333984375,-0.001527163083665073,0.02733621932566166,-0.01160643994808197
1779958166295096800,5.761096923828125,0.0009162978967651725,0.022449297830462456,-0.010537425056099892
1779958166311430400,5.777430419921875,0.004734205547720194,0.007177666760981083,-0.01114829070866108
1779958166327763500,5.793763427734375,0.00045814894838258624,0.02535090781748295,-0.01038470957428217
1779958166344089600,5.810089599609375,-0.003512475173920393,0.030237829312682152,-0.010690141469240189
1779958166360430300,5.826430419921875,-0.001679879380390048,0.021074850112199783,-0.004581489134579897
1779958166376775400,5.842775390625,-0.00015271631127689034,0.020463986322283745,0.0007635815418325365
1779958166393108200,5.859108154296875,0.0013744467869400978,0.024892758578062057,0.0032070425804704428
1779958166409434000,5.87543408203125,0.001679879380390048,0.01924225501716137,0.008246680721640587
1779958166425769000,5.89176904296875,0.0012217304902151227,0.01878410577774048,0.008246680721640587
1779958166442099700,5.908099609375,0.00045814894838258624,0.01878410577774048,0.005955935921519995
1779958166458402300,5.92440234375,0.0013744467869400978,0.014202617108821869,0.0013744467869400978
1779958166474747600,5.94074755859375,0.0013744467869400978,0.015577063895761967,0.0032070425804704428
1779958166491084500,5.95708447265625,0.0007635815418325365,0.021074850112199783,0.00931569468230009
1779958166507413800,5.973413818359375,0.001679879380390048,0.02687807008624077,0.01114829070866108
1779958166523748000,5.989748046875,0.00733038317412138,0.023976460099220276,0.005192354787141085
1779958166540059600,6.0060595703125,0.010079276748001575,0.023518312722444534,0.0010690141934901476
1779958166556393000,6.02239306640625,0.0065668015740811825,0.03390302136540413,-0.001679879380390048
1779958166572743000,6.038742919921875,0.005039638374000788,0.013286318629980087,0.001679879380390048
1779958166589073700,6.05507373046875,0.005192354787141085,-0.012217304669320583,0.00855211354792118
1779958166605407000,6.071406982421875,0.0039706239476799965,-0.011759156361222267,0.009162978269159794
1779958166621740800,6.08774072265625,0.0024434609804302454,0.00366519158706069,0.0039706239476799965
1779958166638070300,6.1040703125,0.0027488935738801956,0.01160643994808197,0.0029016099870204926
1779958166654403000,6.120403076171875,0.0032070425804704428,0.016035212203860283,0.00855211354792118
1779958166670739700,6.13673974609375,0.00427605677396059,0.0019853119738399982,0.011453723534941673
1779958166687083300,6.153083251953125,0.005803219974040985,-0.005650503560900688,0.00733038317412138
1779958166703417900,6.16941796875,0.0029016099870204926,0.0019853119738399982,0.005345070734620094
1779958166719743700,6.18574365234375,-0.0019853119738399982,0.00855211354792118,0.0027488935738801956
1779958166736077800,6.202077880859375,-0.004428773187100887,0.00855211354792118,0.005192354787141085
1779958166752405200,6.2184052734375,-0.003054326167330146,0.005192354787141085,0.005039638374000788
1779958166768747000,6.2347470703125,0.0024434609804302454,-0.007635815534740686,0.002138028386980295
1779958166785054700,6.2510546875,0.004734205547720194,-0.001527163083665073,-0.001679879380390048
1779958166801407500,6.267407470703125,0.0007635815418325365,0.011453723534941673,-0.0013744467869400978
1779958166817739000,6.283739013671875,-0.00366519158706069,0.01572977937757969,0.00366519158706069
1779958166834070800,6.30007080078125,-0.0027488935738801956,-0.00427605677396059,0.011759156361222267
1779958166850401000,6.316401123046875,0.0025961773935705423,-0.02886338345706463,0.022143865004181862
1779958166866732300,6.332732177734375,0.006872233934700489,-0.03222314268350601,0.018325956538319588
1779958166883068000,6.34906787109375,0.0029016099870204926,-0.005955935921519995,0.012522737495601177
1779958166899396600,6.365396728515625,-0.0013744467869400978,0.019547687843441963,0.012828170321881771
1779958166915729400,6.3817294921875,-0.00015271631127689034,0.01863138936460018,0.00855211354792118
1779958166932058600,6.39805859375,0.003054326167330146,-0.00015271631127689034,0.011759156361222267
1779958166948398000,6.414398193359375,0.005803219974040985,-0.013591751456260681,0.012064588256180286
1779958166964722200,6.43072216796875,0.005955935921519995,-0.015271631069481373,0.01237002108246088
1779958166981044500,6.44704443359375,0.003817907767370343,-0.013897184282541275,0.01160643994808197
1779958166997372700,6.46337255859375,-0.001832595793530345,-0.00733038317412138,0.011759156361222267
1779958167013708000,6.4797080078125,-0.004428773187100887,0.004734205547720194,0.005803219974040985
1779958167030028000,6.496028076171875,-0.00366519158706069,-0.0012217304902151227,0.0064140851609408855
1779958167046388500,6.512388427734375,-0.001527163083665073,-0.014049900695681572,0.009162978269159794
1779958167062692600,6.528692626953125,-0.0009162978967651725,-0.009926560334861279,0.013744467869400978
1779958167079025400,6.545025390625,-0.0013744467869400978,-0.006261368747800589,0.010079276748001575
1779958167095369200,6.561369140625,-0.0009162978967651725,-0.010231993161141872,0.00855211354792118
1779958167111701800,6.57770166015625,-0.002138028386980295,-0.010842857882380486,0.00427605677396059
1779958167128032500,6.594032470703125,-0.0012217304902151227,-0.003512475173920393,0.001679879380390048
1779958167144366300,6.610366455078125,-0.0012217304902151227,0.0003054326225537807,0.006108652334660292
1779958167160695000,6.626695068359375,-0.0024434609804302454,-0.010231993161141872,0.0065668015740811825
1779958167177033200,6.643033203125,-0.00427605677396059,-0.01710422709584236,0.009162978269159794
1779958167193362200,6.659362060546875,-0.005039638374000788,-0.013439035043120384,0.005192354787141085
1779958167209694000,6.67569384765625,-0.003817907767370343,-0.0032070425804704428,-0.0029016099870204926
1779958167226025700,6.692025634765625,-0.002138028386980295,0.0065668015740811825,-0.001679879380390048
1779958167242355200,6.708355224609375,-0.0006108652451075613,0.013286318629980087,0.008704829961061478
1779958167258692400,6.7246923828125,0.00366519158706069,0.0009162978967651725,0.011453723534941673
1779958167275039700,6.741039794921875,0.006872233934700489,-0.006719517521560192,0.013286318629980087
1779958167291366700,6.75736669921875,0.005192354787141085,0.001527163083665073,0.012980886735022068
1779958167307700000,6.773699951171875,0.003054326167330146,0.00809396430850029,0.0074830991216003895
1779958167324028200,6.790028076171875,0.0013744467869400978,0.004734205547720194,0.003359758760780096
1779958167340368000,6.806367919921875,-0.0006108652451075613,0.01725694350898266,0.00366519158706069
1779958167356696300,6.8226962890625,0,0.012064588256180286,-0.001679879380390048
1779958167373030000,6.83902978515625,0.0012217304902151227,0.004734205547720194,0.005803219974040985
1779958167389359400,6.855359375,0.004428773187100887,0.0010690141934901476,0.014966198243200779
1779958167405694000,6.87169384765625,0.0027488935738801956,-0.004581489134579897,0.016951510682702065
1779958167422023400,6.8880234375,-0.0010690141934901476,0.012675453908741474,0.018020525574684143
1779958167438355000,6.90435498046875,-0.0013744467869400978,0.02168571576476097,0.021074850112199783
1779958167454685700,6.920685791015625,-0.004428773187100887,0.004734205547720194,0.03833179548382759
1779958167471024600,6.937024658203125,-0.012980886735022068,-0.012980886735022068,0.0633772686123848
1779958167487349800,6.953349853515625,-0.013439035043120384,-0.03344487398862839,0.07971791177988052
1779958167503671600,6.969671630859375,0.006261368747800589,-0.07895433157682419,0.09758572280406952
1779958167520002000,6.986001953125,0.039706241339445114,-0.14706580340862274,0.13240504264831543
1779958167536332000,7.00233203125,0.0734565481543541,-0.20204368233680725,0.1635591685771942
1779958167552668200,7.018668212890625,0.04734205827116966,-0.22220222651958466,0.17241671681404114
1779958167568998700,7.03499853515625,0.029168816283345222,-0.17150041460990906,0.14156801998615265
1779958167585331500,7.05133154296875,0.008704829961061478,-0.11194105446338654,0.09666942805051804
1779958167601664800,7.067664794921875,-0.038637228310108185,-0.08261952549219131,0.09117163717746735
1779958167617998800,7.083998779296875,-0.048716504126787186,0.01542434748262167,0.05513058975338936
1779958167634327800,7.100327880859375,-0.01542434748262167,0.11499538272619247,0.012522737495601177
1779958167650660000,7.11666015625,0.027488935738801956,0.11041389405727386,-0.016951510682702065
1779958167667000600,7.13300048828125,0.04566217586398125,0.07147123664617538,-0.011301007121801376
1779958167683332600,7.14933251953125,0.03985895588994026,0.09896016865968704,-0.006719517521560192
1779958167699668700,7.165668701171875,0.028099801391363144,0.18219055235385895,-0.016493361443281174
1779958167716001000,7.1820009765625,0.03130684420466423,0.22663100063800812,-0.009468411095440388
1779958167732325000,7.1983251953125,0.03145955875515938,0.27550023794174194,0.004886921960860491
1779958167748675600,7.214675537109375,0.03481931984424591,0.2678644061088562,0.01710422709584236
1779958167764994300,7.230994384765625,0.02580905705690384,0.2330450862646103,0.039248090237379074
1779958167781332000,7.24733203125,0.019853120669722557,0.22586742043495178,0.053297992795705795
1779958167797663500,7.26366357421875,0.010079276748001575,0.2776382565498352,0.059864792972803116
1779958167813993700,7.27999365234375,0.01924225501716137,0.3188716471195221,0.05604688450694084
1779958167830325000,7.296324951171875,0.033597588539123535,0.33826664090156555,0.03848451003432274
1779958167846642000,7.312641845703125,0.04138612002134323,0.34345898032188416,0.021838432177901268
1779958167862991400,7.328991455078125,0.038026362657547,0.39354994893074036,-0.003817907767370343
1779958167879321000,7.345321044921875,0.03634648025035858,0.46334129571914673,-0.029932396486401558
1779958167895654400,7.361654296875,0.04382958263158798,0.47479501366615295,-0.03894266113638878
1779958167911960600,7.377960693359375,0.03451388701796532,0.44089198112487793,-0.030237829312682152
1779958167928318200,7.394318115234375,0.039095375686883926,0.36483925580978394,-0.003054326167330146
1779958167944651500,7.410651611328125,0.025503624230623245,0.3101668357849121,0.005497787147760391
1779958167960982800,7.426982666015625,0.007941247895359993,0.3136793076992035,-0.0009162978967651725
1779958167977312000,7.44331201171875,0.00931569468230009,0.3309362530708313,-0.03405573591589928
1779958167993631500,7.459631591796875,0,0.3425426781177521,-0.05146539583802223
1779958168009970700,7.475970703125,0.006872233934700489,0.3013092875480652,-0.04688390716910362
1779958168026279700,7.49227978515625,0.026114489883184433,0.23854288458824158,-0.03985895588994026
1779958168042610700,7.508610595703125,0.030237829312682152,0.20402899384498596,-0.042760565876960754
1779958168058961200,7.524961181640625,0.01572977937757969,0.15485434234142303,-0.040164388716220856
1779958168075281200,7.54128125,0.005497787147760391,0.09605856239795685,-0.01725694350898266
1779958168091626800,7.557626708984375,0.02474004216492176,-0.006719517521560192,-0.0025961773935705423
1779958168107959800,7.573959716796875,0.01237002108246088,-0.019547687843441963,-0.010537425056099892
1779958168124291300,7.590291259765625,0.011759156361222267,-0.021074850112199783,-0.00931569468230009
1779958168140622000,7.6066220703125,0.004123340360820293,-0.044135015457868576,-0.010690141469240189
1779958168156953000,7.622953125,-0.0019853119738399982,-0.07467827945947647,-0.00855211354792118
1779958168173315000,7.639315185546875,-0.009162978269159794,-0.08475755155086517,-0.005955935921519995
1779958168189632500,7.655632568359375,-0.013591751456260681,-0.09941831976175308,0.009621127508580685
1779958168205962500,7.67196240234375,-0.01237002108246088,-0.10873401165008545,0.015882495790719986
1779958168222286600,7.68828662109375,-0.01038470957428217,-0.08704829961061478,0.001679879380390048
1779958168238636000,7.704635986328125,-0.008857546374201775,-0.07162395119667053,-0.007941247895359993
1779958168254945500,7.720945556640625,-0.01114829070866108,-0.0455094613134861,-0.017867809161543846
1779958168271280000,7.737280029296875,-0.009621127508580685,-0.046731192618608475,-0.019394971430301666
1779958168287611400,7.753611328125,-0.009926560334861279,-0.05314527451992035,-0.022449297830462456
1779958168303942400,7.7699423828125,-0.019089538604021072,-0.08674286305904388,-0.023365596309304237
1779958168320276000,7.78627587890625,-0.025961773470044136,-0.11453723162412643,-0.02474004216492176
1779958168336608000,7.80260791015625,-0.023060163483023643,-0.0910189226269722,-0.03039054572582245
1779958168352955400,7.818955322265625,-0.02122756652534008,-0.04596760869026184,-0.025045474991202354
1779958168369274000,7.835274169921875,-0.015882495790719986,-0.04734205827116966,-0.02535090781748295
1779958168385618400,7.851618408203125,-0.005497787147760391,-0.09957103431224823,-0.029016099870204926
1779958168401948400,7.867948486328125,-0.00045814894838258624,-0.14004085958003998,-0.02168571576476097
1779958168418281000,7.884281005859375,-0.007635815534740686,-0.14477506279945374,-0.009773843921720982
1779958168434614000,7.900614013671875,-0.023060163483023643,-0.17348572611808777,0.014508049935102463
1779958168450947300,7.916947265625,-0.025961773470044136,-0.1996002197265625,0.029932396486401558
1779958168467274200,7.933274169921875,-0.009773843921720982,-0.1921171247959137,0.030695978552103043
1779958168483596800,7.9495966796875,0.0074830991216003895,-0.15561792254447937,0.014355333521962166
1779958168499927300,7.96592724609375,0.005803219974040985,-0.10033461451530457,0.010231993161141872
1779958168516261600,7.98226171875,-0.0027488935738801956,-0.09208793938159943,0.00931569468230009
1779958168532593400,7.998593505859375,-0.010995574295520782,-0.1062905490398407,0.013133603148162365
1779958168548924200,8.014924072265625,-0.015118914656341076,-0.1215621829032898,0.016951510682702065
1779958168565257000,8.031257080078126,-0.009621127508580685,-0.13820825517177582,0.027183502912521362
1779958168581590800,8.0475908203125,-0.005650503560900688,-0.05955936014652252,0.004886921960860491
1779958168597909500,8.063909423828125,0.0032070425804704428,-0.04214970022439957,0.028557950630784035
1779958168614250500,8.08025048828125,0.005192354787141085,-0.11163562536239624,0.012675453908741474
1779958168630631700,8.096631591796875,0.009773843921720982,-0.03481931984424591,-0.01160643994808197
1779958168646917400,8.11291748046875,0.012675453908741474,0.014966198243200779,-0.03237585723400116
1779958168663267300,8.129267333984375,0.017562376335263252,0.04245513305068016,-0.03756821155548096
1779958168679594000,8.145593994140626,0.025656340643763542,0.060933809727430344,-0.03695734590291977
1779958168695926000,8.161926025390626,0.03298672288656235,0.10155634582042694,-0.04306599870324135
1779958168712260400,8.17826025390625,0.03344487398862839,0.14340060949325562,-0.04077525436878204
1779958168728575000,8.194574951171875,0.031612277030944824,0.16004669666290283,-0.02871066704392433
1779958168744902400,8.21090234375,0.027183502912521362,0.15913039445877075,-0.008399397134780884
1779958168761260500,8.227260498046874,0.01970040425658226,0.16325373947620392,0.009773843921720982
1779958168777589200,8.24358935546875,0.015271631069481373,0.18051068484783173,0.005803219974040985
1779958168793918500,8.25991845703125,0.014202617108821869,0.19532416760921478,-0.00809396430850029
1779958168810251500,8.27625146484375,0.015271631069481373,0.19364428520202637,-0.013897184282541275
1779958168826583800,8.292583740234376,0.01542434748262167,0.18219055235385895,-0.009621127508580685
1779958168842915800,8.308915771484376,0.007941247895359993,0.17791450023651123,-0.009621127508580685
1779958168859247400,8.325247314453126,-0.0010690141934901476,0.17088955640792847,-0.013133603148162365
1779958168875563500,8.3415634765625,0.0007635815418325365,0.14813482761383057,-0.012217304669320583
1779958168891911000,8.357910888671874,0.007177666760981083,0.152105450630188,-0.014966198243200779
1779958168908221000,8.374220947265625,0.01191187184303999,0.18646661937236786,-0.02321287989616394
1779958168924581400,8.390581298828126,0.010842857882380486,0.18280142545700073,-0.028099801391363144
1779958168940911400,8.406911376953126,0.005955935921519995,0.13759739696979523,-0.02015855349600315
1779958168957238300,8.42323828125,0.006719517521560192,0.08231408894062042,-0.008704829961061478
1779958168973560300,8.439560302734375,0.0012217304902151227,0.07895433157682419,-0.0027488935738801956
1779958168989890000,8.45589013671875,0.021074850112199783,0.05971207842230797,0.009010262787342072
1779958169006226700,8.472226806640625,0.00855211354792118,0.09315694868564606,0.010995574295520782
1779958169022556200,8.48855615234375,0.023060163483023643,0.10445795953273773,0.016951510682702065
1779958169038890500,8.504890380859376,0.028099801391363144,0.12996158003807068,0.01191187184303999
1779958169055219200,8.52121923828125,0.02229658141732216,0.16523905098438263,0.005192354787141085
1779958169071545300,8.53754541015625,0.023365596309304237,0.15515977144241333,-0.003054326167330146
1779958169087883800,8.5538837890625,0.044287730008363724,0.126143679022789,-0.00733038317412138
1779958169104215000,8.570215087890626,0.023365596309304237,0.14065171778202057,-0.00366519158706069
1779958169120548900,8.586548828125,0.014202617108821869,0.1258382350206375,0.01114829070866108
1779958169136877300,8.602877197265625,0.03527746722102165,0.09758572280406952,0.018020525574684143
1779958169153227500,8.6192275390625,0.030085112899541855,0.1339322030544281,-0.0019853119738399982
1779958169169562600,8.635562744140625,0.014202617108821869,0.25931230187416077,-0.02886338345706463
1779958169185888800,8.651888671875,0.01191187184303999,0.266642689704895,-0.039706241339445114
1779958169202235000,8.66823486328125,0.001832595793530345,0.1992947906255722,-0.023060163483023643
1779958169218552600,8.684552490234376,0,0.13775011897087097,-0.019547687843441963
1779958169234886400,8.700886474609375,0.004886921960860491,0.08888089656829834,-0.026114489883184433
1779958169251237600,8.717237548828125,-0.00015271631127689034,0.046731192618608475,-0.013439035043120384
1779958169267550700,8.73355078125,-0.00733038317412138,-0.013744467869400978,0.006261368747800589
1779958169283883000,8.749883056640625,-0.015882495790719986,-0.05268712714314461,0.01725694350898266
1779958169300220400,8.766220458984375,-0.016798794269561768,-0.05955936014652252,0.012064588256180286
1779958169316544800,8.782544677734375,-0.012980886735022068,-0.03145955875515938,0.006108652334660292
1779958169332877300,8.798877197265625,-0.00931569468230009,-0.009621127508580685,0.01466076634824276
1779958169349206800,8.815206787109375,-0.0024434609804302454,-0.014508049935102463,0.015118914656341076
1779958169365540600,8.83154052734375,0.004886921960860491,-0.029626963660120964,0.013439035043120384
1779958169381879600,8.847879638671875,0.007941247895359993,-0.05467243865132332,0.030237829312682152
1779958169398205700,8.864205810546874,0.01237002108246088,-0.07024950534105301,0.044135015457868576
1779958169414539800,8.880539794921875,0.0074830991216003895,-0.06765332818031311,0.04398229718208313
1779958169430873000,8.896873046875,-0.00366519158706069,-0.06734789162874222,0.042760565876960754
1779958169447203800,8.913203857421875,-0.009926560334861279,-0.08689557760953903,0.039706241339445114
1779958169463520300,8.929520263671876,-0.006261368747800589,-0.09483683109283447,0.031612277030944824
1779958169479856000,8.945856201171875,-0.005803219974040985,-0.08552113175392151,0.02886338345706463
1779958169496187600,8.962187744140625,-0.008399397134780884,-0.0835358202457428,0.02519819140434265
1779958169512519200,8.978519287109375,-0.013591751456260681,-0.07238753139972687,0.02015855349600315
1779958169528835300,8.99483544921875,-0.02122756652534008,-0.07712173461914062,0.01771509274840355
1779958169545186000,9.01118603515625,-0.021074850112199783,-0.098502017557621,0.026114489883184433
1779958169561516800,9.027516845703126,-0.01466076634824276,-0.09483683109283447,0.026572637259960175
1779958169577854000,9.04385400390625,-0.014049900695681572,-0.06780604273080826,0.015271631069481373
1779958169594179300,9.060179443359376,-0.007635815534740686,-0.00427605677396059,-0.011301007121801376
1779958169610510000,9.076510009765625,0.09514226019382477,0.775340735912323,-0.5337435007095337
1779958169626852600,9.0928525390625,0.015577063895761967,1.0265589952468872,-0.29856038093566895
1779958169643206400,9.109206298828125,-0.10735956579446793,0.6026185750961304,0.20861047506332397
1779958169659540000,9.1255400390625,-0.07635815441608429,-0.3026837408542633,0.09346238523721695
1779958169675860500,9.141860595703125,0.02229658141732216,-0.47678032517433167,0.06918048858642578
1779958169692185000,9.15818505859375,0.07483099400997162,-0.32528573274612427,0.07559457421302795
1779958169708501000,9.1745009765625,0.08292495459318161,-0.21533000469207764,0.06688974797725677
1779958169724852500,9.1908525390625,0.018325956538319588,-0.11224649101495743,0.04566217586398125
1779958169741171200,9.207171142578124,-0.03573561832308769,-0.009010262787342072,0.003512475173920393
1779958169757509000,9.223509033203126,-0.045204028487205505,-0.02076941914856434,0.003817907767370343
1779958169773847800,9.239847900390625,-0.022907447069883347,-0.07177666574716568,0.016951510682702065
1779958169790176800,9.2561767578125,-0.005039638374000788,-0.06520986557006836,0.007788531947880983
1779958169806509600,9.272509521484375,-0.00045814894838258624,-0.024434609338641167,-0.011301007121801376
1779958169822837200,9.288837158203124,0.003817907767370343,-0.002138028386980295,-0.020463986322283745
1779958169839191600,9.305191650390626,0.00733038317412138,0.0029016099870204926,-0.03145955875515938
1779958169855506400,9.32150634765625,-0.001679879380390048,0.010079276748001575,-0.031154127791523933
1779958169871838500,9.33783837890625,-0.013133603148162365,0.006872233934700489,-0.01466076634824276
1779958169888155600,9.35415576171875,-0.01618792861700058,-0.002138028386980295,-0.004581489134579897
1779958169904500000,9.3705,-0.007024950347840786,-0.013897184282541275,-0.005345070734620094
1779958169920822500,9.386822509765626,0.003359758760780096,-0.008857546374201775,-0.009926560334861279
1779958169937164500,9.40316455078125,0.0029016099870204926,-0.0013744467869400978,-0.012828170321881771
1779958169953486600,9.419486572265624,-0.00366519158706069,-0.004581489134579897,-0.005497787147760391
1779958169969816000,9.435816162109376,-0.007024950347840786,-0.02825251780450344,-0.0019853119738399982
1779958169986150000,9.45214990234375,-0.01191187184303999,-0.036041051149368286,-0.0006108652451075613
1779958170002482700,9.468482666015625,-0.010537425056099892,-0.03878994286060333,-0.00931569468230009
1779958170018813400,9.4848134765625,-0.004123340360820293,-0.031154127791523933,-0.027641652151942253
1779958170035146000,9.50114599609375,-0.004428773187100887,-0.009010262787342072,-0.03329215571284294
1779958170051465700,9.5174658203125,-0.008857546374201775,-0.003054326167330146,-0.03344487398862839
1779958170067810300,9.533810302734375,-0.010690141469240189,-0.02535090781748295,-0.03573561832308769
1779958170084143400,9.550143310546876,-0.008399397134780884,-0.04001167416572571,-0.03741549700498581
1779958170100473600,9.5664736328125,-0.010537425056099892,-0.01725694350898266,-0.039706241339445114
1779958170116806700,9.582806640625,-0.008399397134780884,0.00931569468230009,-0.03649919852614403
1779958170133138700,9.599138671875,-0.0029016099870204926,0.025045474991202354,-0.03344487398862839
1779958170149472500,9.615472412109375,-0.0032070425804704428,0.015118914656341076,-0.029626963660120964
1779958170165816600,9.631816650390626,-0.00366519158706069,-0.04260785132646561,0.008704829961061478
1779958170182148400,9.6481484375,-0.009773843921720982,-0.0705549344420433,0.03680463135242462
1779958170198452700,9.66445263671875,-0.01038470957428217,-0.07971791177988052,0.041691552847623825
1779958170214782500,9.680782470703125,-0.004886921960860491,-0.05192354694008827,0.027947084978222847
1779958170231120600,9.69712060546875,-0.00733038317412138,-0.03237585723400116,0.010079276748001575
1779958170247463400,9.71346337890625,-0.01817324012517929,-0.003817907767370343,-0.004581489134579897
1779958170263795700,9.729795654296876,-0.02825251780450344,0.007635815534740686,0.0006108652451075613
1779958170280127500,9.74612744140625,-0.025656340643763542,-0.004886921960860491,0.0064140851609408855
1779958170296456700,9.762456787109375,-0.00931569468230009,-0.057879481464624405,0.009010262787342072
1779958170312795100,9.778795166015625,0.007177666760981083,-0.07849618047475815,-0.003359758760780096
1779958170329123000,9.795123046875,0.01664607785642147,-0.04963280260562897,-0.015118914656341076
1779958170345456600,9.81145654296875,0.01878410577774048,-0.024434609338641167,-0.03130684420466423
1779958170361788400,9.827788330078125,0.015271631069481373,-0.016951510682702065,-0.033139441162347794
1779958170378122500,9.84412255859375,0.013591751456260681,-0.024892758578062057,-0.029168816283345222
1779958170394452200,9.8604521484375,0.011759156361222267,-0.01710422709584236,-0.029626963660120964
1779958170410785800,9.876785888671876,0.00045814894838258624,0.015118914656341076,-0.030543262138962746
1779958170427130600,9.893130615234375,-0.009773843921720982,0.019853120669722557,-0.03481931984424591
1779958170443445800,9.90944580078125,-0.013133603148162365,0,-0.025503624230623245
1779958170459782700,9.92578271484375,-0.0074830991216003895,-0.013133603148162365,-0.013133603148162365
1779958170476113700,9.94211376953125,-0.009773843921720982,0.008246680721640587,-0.00733038317412138
1779958170492431000,9.95843115234375,-0.004734205547720194,0.02672535367310047,-0.012980886735022068
1779958170508776000,9.97477587890625,-0.001679879380390048,0.031612277030944824,-0.02321287989616394
1779958170525109000,9.99110888671875,-0.0010690141934901476,0.02932153269648552,-0.018325956538319588
1779958170541442800,10.00744287109375,0,0.020922135561704636,-0.01114829070866108
1779958170557773800,10.02377392578125,-0.00366519158706069,-0.010842857882380486,-0.0003054326225537807
1779958170574105000,10.04010498046875,-0.006872233934700489,-0.008246680721640587,0.006872233934700489
1779958170590436900,10.056436767578125,-0.00733038317412138,-0.0027488935738801956,-0.0025961773935705423
1779958170606771500,10.072771484375,-0.00931569468230009,-0.0019853119738399982,-0.0022907445672899485
1779958170623101700,10.089101806640626,-0.011301007121801376,0.005192354787141085,0.001832595793530345
1779958170639432700,10.1054326171875,-0.007635815534740686,-0.01710422709584236,-0.0019853119738399982
1779958170655783700,10.12178369140625,-0.004428773187100887,-0.024129176512360573,-0.004886921960860491
1779958170672105000,10.13810498046875,-0.0032070425804704428,-0.02229658141732216,-0.009468411095440388
1779958170688448300,10.1544482421875,-0.008857546374201775,-0.010842857882380486,-0.010537425056099892
1779958170704779500,10.170779541015625,-0.01160643994808197,-0.012522737495601177,-0.008246680721640587
1779958170721091800,10.187091796875,-0.006108652334660292,0.0009162978967651725,-0.012522737495601177
1779958170737433600,10.20343359375,-0.003817907767370343,0.012522737495601177,-0.014508049935102463
1779958170753781800,10.21978173828125,-0.0012217304902151227,0.00733038317412138,-0.01664607785642147
1779958170770102500,10.2361025390625,0.0003054326225537807,-0.0027488935738801956,-0.014966198243200779
1779958170786435800,10.252435791015625,0.00015271631127689034,-0.017562376335263252,-0.01618792861700058
1779958170802774500,10.2687744140625,-0.0010690141934901476,-0.02122756652534008,-0.013897184282541275
1779958170819068700,10.285068603515626,0.0003054326225537807,-0.01160643994808197,-0.014355333521962166
1779958170835419000,10.3014189453125,-0.0006108652451075613,-0.0024434609804302454,-0.015577063895761967
1779958170851752000,10.317751953125,-0.0022907445672899485,-0.004581489134579897,-0.012522737495601177
1779958170868083700,10.334083740234375,-0.0025961773935705423,-0.009773843921720982,-0.011453723534941673
1779958170884415700,10.350415771484375,-0.0024434609804302454,-0.00366519158706069,-0.008246680721640587
1779958170900731400,10.3667314453125,-0.003054326167330146,-0.00015271631127689034,-0.008704829961061478
1779958170917083400,10.38308349609375,-0.0039706239476799965,-0.010231993161141872,-0.011453723534941673
1779958170933412900,10.399412841796876,-0.0013744467869400978,-0.024129176512360573,-0.01542434748262167
1779958170949742800,10.415742919921875,0.0003054326225537807,-0.025961773470044136,-0.012980886735022068
1779958170966075600,10.43207568359375,-0.0003054326225537807,-0.010079276748001575,-0.007635815534740686
1779958170982408700,10.44840869140625,-0.0019853119738399982,-0.0003054326225537807,-0.0032070425804704428
1779958170998740000,10.464739990234374,-0.0025961773935705423,-0.018478672951459885,0.005803219974040985
1779958171015075300,10.481075439453125,0.0003054326225537807,-0.010995574295520782,0.01160643994808197
1779958171031401500,10.4974013671875,0.0013744467869400978,-0.0064140851609408855,0.012828170321881771
1779958171047736600,10.513736572265625,0.003054326167330146,-0.009468411095440388,0.02321287989616394
1779958171064066800,10.53006689453125,0.004123340360820293,-0.00809396430850029,0.01878410577774048
1779958171080413200,10.5464130859375,0.0074830991216003895,-0.00045814894838258624,0.005650503560900688
1779958171096733000,10.56273291015625,0.004428773187100887,0.015577063895761967,-0.001679879380390048
1779958171113052400,10.579052490234375,-0.0019853119738399982,0.0074830991216003895,-0.004581489134579897
1779958171129397000,10.59539697265625,-0.0065668015740811825,-0.00427605677396059,0.0019853119738399982
1779958171145729000,10.61172900390625,-0.009773843921720982,-0.018020525574684143,0.0074830991216003895
1779958171162078700,10.62807861328125,-0.007024950347840786,-0.03191770985722542,0.010690141469240189
1779958171178404900,10.64440478515625,-0.002138028386980295,-0.027641652151942253,0.005803219974040985
1779958171194735600,10.660735595703125,-0.0006108652451075613,-0.02015855349600315,0.001527163083665073
1779958171211078400,10.677078369140625,-0.0019853119738399982,-0.03695734590291977,0.0009162978967651725
1779958171227402800,10.69340283203125,-0.0025961773935705423,-0.04886921867728233,0.0012217304902151227
1779958171243735600,10.709735595703124,-0.0006108652451075613,-0.04581489413976669,0.001679879380390048
1779958171260070100,10.726070068359375,-0.003054326167330146,-0.04596760869026184,0.0019853119738399982
1779958171276391700,10.7423916015625,-0.005192354787141085,-0.02871066704392433,-0.0029016099870204926
1779958171292738800,10.75873876953125,-0.0039706239476799965,-0.013286318629980087,-0.014966198243200779
1779958171309065200,10.775065185546875,-0.005039638374000788,0.001679879380390048,-0.016951510682702065
1779958171325397000,10.79139697265625,-0.005803219974040985,0.015882495790719986,-0.018020525574684143
1779958171341727000,10.80772705078125,-0.00366519158706069,0.018936822190880775,-0.01038470957428217
1779958171358062600,10.8240625,0.0007635815418325365,0.009468411095440388,-0.008399397134780884
1779958171374391000,10.84039111328125,0.0024434609804302454,0.005192354787141085,-0.008246680721640587
1779958171390709800,10.856709716796875,-0.001679879380390048,0.01878410577774048,0
1779958171407038000,10.873037841796876,-0.007635815534740686,0.03237585723400116,0.0013744467869400978
1779958171423375000,10.889375,-0.00855211354792118,0.031612277030944824,-0.00015271631127689034
1779958171439705900,10.905705810546875,-0.005803219974040985,0.01466076634824276,0.0019853119738399982
1779958171456040000,10.9220400390625,0.0009162978967651725,-0.004886921960860491,0.0013744467869400978
1779958171472371500,10.938371337890626,0.007788531947880983,-0.004581489134579897,0.0012217304902151227
1779958171488699600,10.95469970703125,0.00855211354792118,0.016798794269561768,0.003512475173920393
1779958171505033500,10.971033447265626,0.007177666760981083,0.017562376335263252,0.011301007121801376
1779958171521371100,10.98737109375,0.007177666760981083,-0.0025961773935705423,0.015271631069481373
1779958171537699800,11.003699951171875,0.007177666760981083,-0.011759156361222267,0.013591751456260681
1779958171554031600,11.020031494140625,0.003817907767370343,-0.017562376335263252,0.010231993161141872
1779958171570351400,11.036351318359374,0.003512475173920393,-0.01924225501716137,0.01191187184303999
1779958171586697200,11.052697265625,0.003512475173920393,-0.020463986322283745,0.008704829961061478
1779958171603028200,11.0690283203125,0.003054326167330146,-0.018936822190880775,0.002138028386980295
1779958171619359200,11.085359130859375,-0.001679879380390048,-0.014355333521962166,-0.004428773187100887
1779958171635698000,11.101697998046875,-0.005955935921519995,-0.014966198243200779,-0.004123340360820293
1779958171652012800,11.1180126953125,-0.00809396430850029,-0.0032070425804704428,-0.004581489134579897
1779958171668378600,11.134378662109375,-0.010079276748001575,0.013286318629980087,-0.003359758760780096
1779958171684678700,11.1506787109375,-0.007635815534740686,0.014202617108821869,0.001527163083665073
1779958171701021200,11.167021240234375,-0.00045814894838258624,-0.008399397134780884,0.013744467869400978
1779958171717350700,11.1833505859375,0.0074830991216003895,-0.00809396430850029,0.02519819140434265
1779958171733685500,11.199685546875,0.012522737495601177,0.0024434609804302454,0.027947084978222847
1779958171750018600,11.2160185546875,0.01160643994808197,0.0012217304902151227,0.038179077208042145
1779958171766350000,11.23235009765625,0.009773843921720982,0.008704829961061478,0.040622539818286896
1779958171782699800,11.24869970703125,0.006719517521560192,0.0065668015740811825,0.029168816283345222
1779958171799030800,11.26503076171875,0.0039706239476799965,0.0022907445672899485,0.018020525574684143
1779958171815364900,11.28136474609375,0.0029016099870204926,0.010690141469240189,0.015577063895761967
1779958171831694600,11.297694580078126,0.0065668015740811825,0.015882495790719986,0.005039638374000788
1779958171848022500,11.3140224609375,0.0065668015740811825,0.016035212203860283,-0.004123340360820293
1779958171864339000,11.3303388671875,0.002138028386980295,0.017867809161543846,-0.004428773187100887
1779958171880652500,11.346652587890626,-0.001679879380390048,0.023060163483023643,-0.0013744467869400978
1779958171897014800,11.363014892578125,-0.0024434609804302454,0.013439035043120384,0.0022907445672899485
1779958171913339400,11.37933935546875,0.00045814894838258624,0.0006108652451075613,0.006872233934700489
1779958171929668900,11.3956689453125,0.003359758760780096,-0.004123340360820293,0.01191187184303999
1779958171946002000,11.412001953125,0.001527163083665073,0.0003054326225537807,0.01237002108246088
1779958171962334700,11.428334716796876,0.0007635815418325365,-0.00855211354792118,0.020616702735424042
1779958171978666200,11.444666259765626,-0.0025961773935705423,-0.007788531947880983,0.023365596309304237
1779958171995001600,11.461001708984375,0.0003054326225537807,-0.012675453908741474,0.020311269909143448
1779958172011337000,11.4773369140625,0.00366519158706069,-0.015882495790719986,0.014355333521962166
1779958172027653000,11.493653076171874,0.0022907445672899485,-0.022907447069883347,0.012980886735022068
1779958172043996200,11.50999609375,-0.0012217304902151227,-0.03084869496524334,0.003359758760780096
1779958172060307200,11.52630712890625,-0.008399397134780884,-0.020922135561704636,-0.0065668015740811825
1779958172076656000,11.54265625,-0.012675453908741474,-0.013439035043120384,-0.011759156361222267
1779958172092994600,11.55899462890625,-0.014202617108821869,-0.00855211354792118,-0.0074830991216003895
1779958172109323000,11.575322998046875,-0.008246680721640587,-0.009773843921720982,-0.0007635815418325365
1779958172125655300,11.5916552734375,0.0022907445672899485,-0.019853120669722557,0.010995574295520782
1779958172141988000,11.607988037109376,0.010995574295520782,-0.017867809161543846,0.014966198243200779
1779958172158322000,11.624322021484375,0.006872233934700489,-0.020463986322283745,0.01038470957428217
1779958172174666800,11.640666748046876,-0.0027488935738801956,-0.013286318629980087,0.013439035043120384
1779958172190992100,11.6569921875,-0.01038470957428217,-0.01237002108246088,0.015118914656341076
1779958172207328500,11.67332861328125,-0.01114829070866108,-0.004581489134579897,0.012217304669320583
1779958172223662600,11.68966259765625,-0.005955935921519995,0.011301007121801376,-0.0003054326225537807
1779958172239974700,11.705974609375,0.0013744467869400978,0.009926560334861279,-0.006872233934700489
1779958172256326000,11.722325927734374,0.004734205547720194,0.0074830991216003895,-0.010079276748001575
1779958172272661200,11.7386611328125,0.004886921960860491,0.0009162978967651725,-0.01237002108246088
1779958172289005800,11.755005859375,0.002138028386980295,-0.00015271631127689034,-0.007635815534740686
1779958172305305600,11.7713056640625,-0.0019853119738399982,-0.002138028386980295,-0.0019853119738399982
1779958172321654000,11.787654052734375,-0.0032070425804704428,-0.014355333521962166,-0.00045814894838258624
1779958172337985300,11.8039853515625,-0.0039706239476799965,-0.016035212203860283,-0.00427605677396059
1779958172354318600,11.820318603515625,-0.001832595793530345,-0.016493361443281174,-0.009773843921720982
1779958172370618600,11.83661865234375,-0.0009162978967651725,-0.013439035043120384,-0.011759156361222267
1779958172386977500,11.8529775390625,0.0010690141934901476,-0.0032070425804704428,-0.015577063895761967
1779958172403304200,11.86930419921875,-0.0010690141934901476,0.0013744467869400978,-0.009010262787342072
1779958172419629000,11.885629150390624,-0.003512475173920393,-0.007941247895359993,-0.003817907767370343
1779958172435967200,11.90196728515625,-0.0010690141934901476,-0.00733038317412138,-0.010537425056099892
1779958172452298000,11.918298095703125,0.0009162978967651725,0.005955935921519995,-0.012980886735022068
1779958172468631000,11.934631103515626,0.00045814894838258624,0.01191187184303999,-0.013133603148162365
1779958172484960500,11.95096044921875,-0.00366519158706069,0.008246680721640587,-0.010079276748001575
1779958172501313500,11.9673134765625,-0.007788531947880983,0.0022907445672899485,-0.006261368747800589
1779958172517622800,11.983622802734375,-0.00809396430850029,-0.0024434609804302454,-0.009162978269159794
1779958172533959700,11.999959716796875,-0.003359758760780096,-0.0029016099870204926,-0.012217304669320583
1779958172550289200,12.0162890625,-0.004123340360820293,0.014813481830060482,-0.02382374368607998
1779958172566620400,12.032620361328124,-0.006261368747800589,0.012064588256180286,-0.02779436856508255
1779958172582958800,12.048958740234376,-0.0029016099870204926,-0.005955935921519995,-0.024892758578062057
1779958172599285200,12.06528515625,0.0022907445672899485,-0.005192354787141085,-0.025961773470044136
1779958172615618300,12.081618408203125,0.0006108652451075613,-0.004581489134579897,-0.03222314268350601
1779958172631952400,12.097952392578126,0.0027488935738801956,-0.022907447069883347,-0.029016099870204926
1779958172648278300,12.1142783203125,0.0024434609804302454,-0.02168571576476097,-0.014355333521962166
1779958172664635400,12.130635498046875,-0.0027488935738801956,-0.02229658141732216,-0.01191187184303999
1779958172680944600,12.146944580078125,-0.010079276748001575,-0.020616702735424042,-0.01160643994808197
1779958172697293800,12.1632939453125,-0.005955935921519995,-0.05253441259264946,-0.007177666760981083
1779958172713626000,12.179626220703126,-0.01817324012517929,-0.020922135561704636,-0.005955935921519995
1779958172729955300,12.195955322265625,0.012522737495601177,-0.10415252298116684,0.019853120669722557
1779958172746292500,12.21229248046875,0.012828170321881771,-0.03695734590291977,0.00045814894838258624
1779958172762618400,12.228618408203126,-0.007788531947880983,0.05803219974040985,-0.08414668589830399
1779958172778951200,12.244951171875,0.022907447069883347,0.027183502912521362,-0.10812314599752426
1779958172795285200,12.26128515625,0.004886921960860491,-0.07498370856046677,-0.05100724846124649
1779958172811612400,12.2776123046875,0.06429356336593628,-0.04337143152952194,-0.07712173461914062
1779958172827953200,12.293953125,0.006872233934700489,0.045204028487205505,-0.10781771689653397
1779958172844274700,12.310274658203125,-0.01160643994808197,0.23747386038303375,-0.25182920694351196
1779958172860607000,12.32660693359375,0.0679587572813034,0.4537201523780823,-0.2739730477333069
1779958172876941300,12.34294140625,0.0377209298312664,0.12232576310634613,-0.10720685124397278
1779958172893265400,12.359265380859375,-0.004886921960860491,-0.1215621829032898,0.013897184282541275
1779958172909595100,12.37559521484375,0.014355333521962166,-0.046273041516542435,-0.018325956538319588
1779958172925927200,12.39192724609375,0.008246680721640587,0.005955935921519995,-0.10919216275215149
1779958172942255400,12.40825537109375,0.044745877385139465,-0.027183502912521362,-0.03726277872920036
1779958172958592500,12.424592529296875,0.027488935738801956,-0.051770828664302826,0.04932736977934837
1779958172974925800,12.44092578125,0.0009162978967651725,-0.14569136500358582,0.036193765699863434
1779958172991271200,12.457271240234375,-0.019547687843441963,-0.2612976133823395,0.05345070734620094
1779958173007585500,12.47358544921875,-0.11331550031900406,-0.7930558323860168,0.4720461070537567
1779958173023920600,12.489920654296874,0.033597588539123535,-0.12492194026708603,0.10674870014190674
1779958173040252700,12.506252685546874,0.03298672288656235,0.12278391420841217,-0.1319468915462494
1779958173056582000,12.522581787109376,0.012064588256180286,0.14416420459747314,-0.0933096632361412
1779958173072919600,12.53891943359375,-0.012675453908741474,0.08933904021978378,-0.03894266113638878
1779958173089249500,12.55524951171875,-0.03695734590291977,0.054367005825042725,-0.01038470957428217
1779958173105578500,12.57157861328125,-0.03420845419168472,-0.014508049935102463,-0.03680463135242462
1779958173121916200,12.587916259765626,-0.09896016865968704,-0.423329621553421,0.07254024595022202
1779958173138244600,12.60424462890625,-0.14874568581581116,-0.4902193546295166,0.14278975129127502
1779958173154578700,12.62057861328125,-0.21135938167572021,-0.290313720703125,0.14019356667995453
1779958173170926000,12.636926025390625,-0.07666359096765518,-0.01924225501716137,0.12293662875890732
1779958173187256300,12.65325634765625,0.0003054326225537807,0.016340645030140877,0.008857546374201775
1779958173203589400,12.66958935546875,-0.01191187184303999,-0.12263119965791702,-0.07009678333997726
1779958173219918800,12.6859189453125,0.07956519722938538,-0.3462078869342804,0.09834930300712585
1779958173236234800,12.70223486328125,0.7031059265136719,-0.7221954464912415,0.266642689704895
1779958173252586200,12.718586181640624,1.136362075805664,-0.6372851729393005,0.06704246252775192
1779958173268900000,12.734900146484375,0.25931230187416077,0.14782938361167908,0.20433442294597626
1779958173285250300,12.751250244140625,-0.12476922571659088,0.4818199574947357,0.3943135142326355
1779958173301579300,12.767579345703124,-0.06765332818031311,0.33567044138908386,0.3182607889175415
1779958173317910800,12.783910888671874,-0.006261368747800589,0.040164388716220856,0.15332718193531036
1779958173334245400,12.800245361328125,-0.02779436856508255,-0.16508632898330688,0.10934487730264664
1779958173350575600,12.81657568359375,-0.01771509274840355,-0.11453723162412643,0.05375614017248154
1779958173366903800,12.83290380859375,-0.01924225501716137,0.03039054572582245,-0.027947084978222847
1779958173383228000,12.849227783203125,0.1134682223200798,0.6453791260719299,-0.42699480056762695
1779958173399544800,12.865544921875,0.3703370690345764,1.4763085842132568,-1.0343475341796875
1779958173415880000,12.8818798828125,-0.04046982154250145,0.5036584138870239,-0.6159048676490784
1779958173432227000,12.89822705078125,-0.23151792585849762,-0.5823072791099548,-0.11423180252313614
1779958173448556800,12.914556884765625,0.13286319375038147,-0.22708915174007416,-0.2739730477333069
1779958173464889300,12.930889404296876,0.2744311988353729,0.15012013912200928,-0.5448917746543884
1779958173481215200,12.94721533203125,0.21120665967464447,0.8961393237113953,-0.9187413454055786
1779958173497558500,12.96355859375,0.025961773470044136,0.697149932384491,-0.6913467645645142
1779958173513884400,12.979884521484376,0.03894266113638878,0.5451972484588623,-0.4625777006149292
1779958173530214700,12.996214599609376,0.8393288254737854,0.46761733293533325,-0.2814561724662781
1779958173546546400,13.01254638671875,1.4372131824493408,0.18020524084568024,-0.182648703455925
1779958173562871000,13.02887109375,0.7779368758201599,-0.3188716471195221,-0.21212296187877655
1779958173579211300,13.045211181640624,0.27840182185173035,-0.2791654169559479,-0.09773843735456467
1779958173595544600,13.061544677734375,0.02535090781748295,-0.6346889734268188,0.02122756652534008
1779958173611878000,13.0778779296875,-0.8689557909965515,-1.3255776166915894,0.22602014243602753
1779958173628207000,13.09420703125,-3.051730155944824,-1.9422460794448853,0.057879481464624405
1779958173644538400,13.110538330078125,-2.8825204372406006,-1.4931073188781738,0.0354301854968071
1779958173660864800,13.12686474609375,-2.0398318767547607,-0.06536258012056351,-0.25793784856796265
1779958173677220000,13.14322021484375,-1.4590516090393066,0.6571382880210876,-0.21319197118282318
1779958173693541400,13.159541259765625,-1.1621711254119873,1.6989690065383911,-0.06398813426494598
1779958173709881600,13.175881591796875,-1.2060006856918335,1.7243198156356812,0.39354994893074036
1779958173726212000,13.192212158203125,-0.6001750826835632,1.40269935131073,0.4265366494655609
1779958173742550800,13.20855078125,-0.0403171069920063,1.2559388875961304,0.12492194026708603
1779958173758876000,13.2248759765625,0.031612277030944824,1.0212140083312988,-0.07788532227277756
1779958173775197400,13.241197509765625,-0.01191187184303999,0.8752171993255615,-0.08888089656829834
1779958173791530500,13.257530517578125,-0.2971859276294708,1.108262300491333,-0.12034045159816742
1779958173807861800,13.27386181640625,-0.7250970602035522,2.065793514251709,-0.42898011207580566
1779958173824194600,13.290194580078126,-1.0018190145492554,2.8402180671691895,-0.806647539138794
1779958173840511700,13.30651171875,-1.440267562866211,3.585015296936035,-0.6650795340538025
1779958173856850200,13.32285009765625,-1.688736915588379,4.092949867248535,-0.6890559792518616
1779958173873192000,13.33919189453125,-1.607797384262085,3.640756845474243,0.04459316283464432
1779958173889521400,13.355521484375,-1.1943942308425903,1.8955148458480835,0.8434522151947021
1779958173905855700,13.371855712890625,-1.3006848096847534,1.3535246849060059,1.3045027256011963
1779958173922187300,13.388187255859375,-1.3464996814727783,1.2342532873153687,1.4256067276000977
1779958173938522600,13.404522705078126,-1.176831841468811,1.9691240787506104,1.7134770154953003
1779958173954856000,13.42085595703125,-0.9917397499084473,2.629163980484009,1.9210184812545776
1779958173971195600,13.437195556640624,-1.0325149297714233,2.716670513153076,2.4908030033111572
1779958173987537200,13.453537109375,-0.7997753024101257,4.4513750076293945,3.461315155029297
1779958174003853300,13.469853271484375,-1.322981357574463,5.9003472328186035,1.7472273111343384
1779958174020175000,13.486175048828125,-1.9048305749893188,6.14912223815918,1.238071084022522
1779958174036516600,13.5025166015625,-2.972928524017334,4.910593032836914,2.31945538520813
1779958174052821000,13.518821044921875,-4.009108543395996,3.1977267265319824,3.06745982170105
1779958174069174000,13.535174072265624,-4.83301305770874,2.4071145057678223,2.9040534496307373
1779958174085509000,13.551509033203125,-5.642409324645996,1.7623462677001953,2.300671339035034
1779958174101843500,13.567843505859376,-6.6288042068481445,1.1116219758987427,1.740660548210144
1779958174118171100,13.584171142578125,-7.295258045196533,0.27779096364974976,1.236391305923462
1779958174134505000,13.6005048828125,-7.746076583862305,-0.29596421122550964,0.6391177773475647
1779958174150837800,13.616837646484376,-7.914675712585449,-0.11713340878486633,0.24358251690864563
1779958174167168000,13.63316796875,-8.0198974609375,0.8706356883049011,-0.04948008432984352
1779958174183515400,13.649515380859375,-7.537008285522461,1.54640531539917,-0.36682456731796265
1779958174208021500,13.674021484375,-6.291148662567139,1.902539849281311,-0.5937610268592834
1779958174224339200,13.690339111328125,-5.811313629150391,1.6421585083007812,-0.46853363513946533
1779958174240649000,13.70664892578125,-5.886908531188965,1.2785409688949585,-0.18585574626922607
1779958174256996000,13.72299609375,-5.915618896484375,1.4414892196655273,0.007024950347840786
1779958174273337000,13.739337158203124,-5.71830940246582,1.9646953344345093,0.26572638750076294
1779958174289655800,13.75565576171875,-5.173264980316162,2.308917999267578,0.6264423131942749
1779958174305994000,13.771993896484375,-4.545448303222656,2.677422285079956,0.998153805732727
1779958174322322200,13.788322265625,-4.033390522003174,3.1413745880126953,1.2429580688476562
1779958174338660400,13.804660400390626,-3.802025318145752,4.2307000160217285,1.4410310983657837
1779958174354984700,13.820984619140624,-3.623194456100464,1.845423936843872,0.2509129047393799
1779958174371320000,13.837320068359375,-3.166114568710327,0.2545780837535858,-0.6061310172080994
1779958174387652600,13.853652587890625,-2.78340744972229,1.3536773920059204,-0.5076290369033813
1779958174403985000,13.86998486328125,-2.4992024898529053,1.0082330703735352,-0.8903360962867737
1779958174420308500,13.88630859375,-2.0535762310028076,0.2768746614456177,-1.3506230115890503
1779958174436645000,13.90264501953125,-1.1423180103302002,0.6527095437049866,-1.611920714378357
1779958174452995300,13.918995361328125,-0.15851953625679016,0.8910996913909912,-2.045787811279297
1779958174469328400,13.935328369140626,0.35521814227104187,0.8092437386512756,-2.1109976768493652
1779958174485638100,13.95163818359375,0.2793181240558624,0.49816060066223145,-1.685835361480713
1779958174501985300,13.9679853515625,0.055283304303884506,-0.05360342562198639,-1.0181596279144287
1779958174518305000,13.984304931640626,0.07269296050071716,-0.8810204267501831,-0.3810271918773651
1779958174534643700,14.000643798828126,0.2561052441596985,-1.6653714179992676,0.015118914656341076
1779958174550975000,14.01697509765625,0.27382034063339233,-2.211332082748413,0.12446379661560059
1779958174567301600,14.033301513671875,-0.022143865004181862,-2.484847068786621,0.18249599635601044
1779958174583641300,14.049641357421875,-0.4156937897205353,-2.333963394165039,0.1693623960018158
1779958174599971300,14.065971435546874,-0.651029646396637,-1.9459112882614136,0.06505715101957321
1779958174616299000,14.082299072265625,-0.5994115471839905,-1.7466164827346802,-0.11942415684461594
1779958174632636200,14.09863623046875,-0.22876903414726257,-1.4906638860702515,-0.3251330256462097
1779958174648967700,14.1149677734375,0.8439103364944458,-0.7985535860061646,-0.5267185568809509
1779958174665297200,14.131297119140624,1.4567608833312988,0.04001167416572571,-0.8029823899269104
1779958174681646800,14.147646728515625,1.0419833660125732,0.40424007177352905,-0.997237503528595
1779958174697974300,14.163974365234376,0.608421802520752,0.4158465266227722,-0.7499898076057434
1779958174714290700,14.180290771484374,0.4043927788734436,0.2125810980796814,-0.40622538328170776
1779958174730625800,14.196625732421875,0.28787025809288025,0.10033461451530457,-0.3168863356113434
1779958174746964500,14.212964599609375,0.25793784856796265,0.056810468435287476,-0.3582724630832672
1779958174763304400,14.229304443359375,0.3098613917827606,0.04566217586398125,-0.328340083360672
1779958174779635700,14.2456357421875,0.35063666105270386,0.005345070734620094,-0.24404066801071167
1779958174795965700,14.261965576171875,0.25045475363731384,0.11759155988693237,-0.12186761945486069
1779958174812322000,14.278322021484374,0.1638645976781845,0.11209376901388168,-0.023060163483023643
1779958174828632600,14.294632568359376,0.13209961354732513,0.01237002108246088,0.01542434748262167
1779958174844948700,14.31094873046875,0.12980885803699493,-0.152105450630188,-0.022143865004181862
1779958174861283000,14.327282958984375,0.18035796284675598,-0.30344730615615845,-0.0555887371301651
1779958174877615600,14.34361572265625,0.23136521875858307,-0.36789360642433167,-0.05345070734620094
1779958174893947400,14.359947509765625,0.27458393573760986,-0.41599923372268677,-0.024587325751781464
1779958174910269200,14.376269287109375,0.31031954288482666,-0.41920626163482666,0.02672535367310047
1779958174926608000,14.39260791015625,0.2739730477333069,-0.36453384160995483,0.022143865004181862
1779958174942962400,14.40896240234375,0.23808473348617554,-0.25473082065582275,-0.027183502912521362
1779958174959269400,14.425269287109375,0.22098049521446228,-0.17058411240577698,-0.08185594528913498
1779958174975607800,14.44160791015625,0.23839016258716583,-0.10613783448934555,-0.042760565876960754
1779958174991938800,14.457938720703124,0.2762638032436371,-0.15225815773010254,0.08170322328805923
1779958175008271000,14.47427099609375,0.2739730477333069,-0.2528982162475586,0.25671613216400146
1779958175024603400,14.490603271484375,0.2561052441596985,-0.45005497336387634,0.48976120352745056
1779958175040937000,14.50693701171875,0.24266621470451355,-0.7782423496246338,0.7341073155403137
1779958175057264600,14.5232646484375,0.3349068760871887,-1.146135926246643,0.8978192210197449
1779958175073602800,14.539602783203126,0.5816964507102966,-1.4895949363708496,1.0319041013717651
1779958175089928700,14.5559287109375,1.0071641206741333,-1.8568776845932007,1.3125966787338257
1779958175106267000,14.572266845703124,1.4750868082046509,-2.4555256366729736,1.7979291677474976
1779958175122584600,14.58858447265625,1.9330830574035645,-3.168405294418335,2.470491886138916
1779958175138916000,14.604916015625,2.4947736263275146,-3.805079698562622,3.1480939388275146
1779958175155260200,14.62126025390625,3.154966354370117,-3.8620429039001465,3.4991888999938965
1779958175171611100,14.637611083984375,3.6955819129943848,-3.520874500274658,3.386789560317993
1779958175187937300,14.653937255859375,3.969860553741455,-3.04546856880188,2.9689579010009766
1779958175204271900,14.67027197265625,4.269032001495361,-2.663067102432251,2.411237955093384
1779958175220576000,14.686575927734374,4.680755138397217,-2.3803892135620117,1.5833626985549927
1779958175236934400,14.702934326171874,4.711756229400635,-2.1485657691955566,0.7305948138237
1779958175253267700,14.719267822265625,4.501465797424316,-1.6479617357254028,0.001527163083665073
1779958175269601300,14.735601318359375,4.1190643310546875,-1.2447906732559204,-0.37430769205093384
1779958175285933800,14.751933837890626,3.6919169425964355,-1.2365440130233765,-0.29474249482154846
1779958175302262500,14.768262451171875,3.2618677616119385,-1.6407840251922607,0.1817324161529541
1779958175318594800,14.7845947265625,3.1593949794769287,-1.9228510856628418,0.41401392221450806
1779958175334909700,14.80090966796875,3.369074583053589,-1.9662225246429443,0.3436116874217987
1779958175351246000,14.81724609375,3.2152891159057617,-1.899485468864441,0.022143865004181862
1779958175367578600,14.83357861328125,2.8238773345947266,-1.9004018306732178,-0.1661553531885147
1779958175383908400,14.849908447265625,2.5807528495788574,-1.5700763463974,-0.15225815773010254
1779958175400239400,14.8662392578125,2.311819553375244,-0.9404270648956299,0.08338310569524765
1779958175416573400,14.882573486328125,1.6013832092285156,-0.9699012637138367,0.4034765064716339
1779958175432912100,14.898912109375,0.7269296646118164,-1.7925840616226196,0.6621779203414917
1779958175449239000,14.915239013671876,0.41493022441864014,-2.8402180671691895,0.6395758986473083
1779958175465583900,14.931583984375,0.3767511546611786,-3.0946433544158936,0.45692721009254456
1779958175481899000,14.94789892578125,0.22281309962272644,-2.263713836669922,0.2744311988353729
1779958175498234000,14.964234130859374,-0.07727445662021637,-0.9862419366836548,0.30925053358078003
1779958175514566100,14.980566162109374,-0.23625212907791138,0.6099489331245422,0.5345070958137512
1779958175530899700,14.996899658203125,0.07208210229873657,1.1238393783569336,0.8342891931533813
1779958175547229700,15.013229736328125,0.04596760869026184,1.2189816236495972,1.049619197845459
1779958175563563800,15.029563720703125,0.08292495459318161,1.0151053667068481,1.2030991315841675
1779958175579896300,15.045896240234375,0.2454151064157486,1.9653061628341675,1.1655309200286865
1779958175596226000,15.06222607421875,0.07070764899253845,2.3238840103149414,1.2863295078277588
1779958175612559000,15.07855908203125,-0.0809396430850029,1.666898488998413,1.527010440826416
1779958175628892700,15.094892578125,0.6600399017333984,0.9042332768440247,1.7418822050094604
1779958175645222700,15.11122265625,1.8031214475631714,1.7901406288146973,0.8077165484428406
1779958175661556700,15.127556640625,1.4912748336791992,1.027169942855835,0.019547687843441963
1779958175677902600,15.143902587890626,1.3100005388259888,1.0141890048980713,0.29764407873153687
1779958175694237200,15.1602373046875,1.3994922637939453,1.5372424125671387,0.870330274105072
1779958175710543600,15.176543701171875,1.4060590267181396,1.4827226400375366,0.5754350423812866
1779958175726881300,15.19288134765625,1.7724255323410034,1.9706512689590454,0.06719517707824707
1779958175743215000,15.209215087890625,1.804801344871521,1.3852896690368652,-0.44257187843322754
1779958175759547400,15.22554736328125,1.9579758644104004,1.5471689701080322,-0.4538728892803192
1779958175775879200,15.241879150390625,1.744783878326416,2.218967914581299,-0.608727216720581
1779958175792212700,15.258212646484376,1.0989465713500977,2.1116085052490234,-0.9149234294891357
1779958175808543000,15.27454296875,0.636521577835083,1.7907514572143555,-0.8713992834091187
1779958175824877000,15.290876953125,0.5526803135871887,1.5748106241226196,-0.6198754906654358
1779958175841208300,15.307208251953124,0.6146831512451172,1.485166072845459,-0.3162754774093628
1779958175857543400,15.32354345703125,0.7484626173973083,1.4558446407318115,-0.030085112899541855
1779958175873870000,15.3398701171875,0.7889324426651001,1.1566733121871948,0.2353358417749405
1779958175890204000,15.356203857421875,0.651029646396637,0.3827070891857147,0.30833423137664795
1779958175906535000,15.372534912109375,0.49785518646240234,0.25824329257011414,-0.01618792861700058
1779958175922871800,15.388871826171876,0.4518875777721405,0.4977024495601654,-0.37888917326927185
1779958175939213000,15.405213134765624,0.41951170563697815,0.7489207983016968,-0.5283984541893005
1779958175955547400,15.42154736328125,0.11407908797264099,0.7394523620605469,-0.25335636734962463
1779958175971860500,15.437860595703125,-0.05360342562198639,0.6097962260246277,0.1365283876657486
1779958175988196900,15.45419677734375,0.08689557760953903,0.5340489149093628,0.20586158335208893
1779958176004529200,15.470529052734374,0.07208210229873657,0.4031710624694824,-0.11850785464048386
1779958176020846300,15.486846435546875,0.02977968007326126,0.2503020465373993,-0.49296826124191284
1779958176037196800,15.50319677734375,0.10690141469240189,-0.011453723534941673,-0.6000223755836487
1779958176053534700,15.51953466796875,0.35292738676071167,-0.25793784856796265,-0.40973785519599915
1779958176069854500,15.5358544921875,0.4922046661376953,-0.5884159207344055,-0.28955012559890747
1779958176086190600,15.552190673828125,0.5951354503631592,-1.041067123413086,-0.4389066696166992
1779958176102522400,15.5685224609375,1.1339186429977417,-1.892460584640503,-1.0366383790969849
1779958176118856200,15.584856201171876,1.7773123979568481,-3.213456630706787,-1.7159204483032227
1779958176135186000,15.60118603515625,2.2658519744873047,-4.230241775512695,-2.0841195583343506
1779958176151519500,15.61751953125,2.4967589378356934,-4.162588596343994,-2.277458429336548
1779958176167851800,15.633851806640624,2.3745858669281006,-3.8870882987976074,-2.4272730350494385
1779958176184198000,15.650197998046876,2.448806047439575,-3.5049920082092285,-2.361604928970337
1779958176200526600,15.666526611328125,2.1908681392669678,-2.987283706665039,-1.8428276777267456
1779958176216853800,15.682853759765624,2.1039726734161377,-2.398562431335449,-1.5738942623138428
1779958176233175000,15.699175048828126,0.3614795207977295,-2.0428860187530518,-1.4555391073226929
1779958176249514000,15.715513916015626,-0.7209737300872803,-2.325258493423462,-1.359480619430542
1779958176265847000,15.731846923828124,-0.0010690141934901476,-2.355801820755005,-1.3655892610549927
1779958176282173200,15.748173095703125,0.5109887719154358,-1.617876648902893,-0.6513350605964661
1779958176298514200,15.76451416015625,0.6389650702476501,-0.9584475755691528,0.18875735998153687
1779958176314836700,15.780836669921875,0.6600399017333984,-0.5557346343994141,0.4761694669723511
1779958176331170000,15.797170166015626,0.7623597979545593,-0.4576907753944397,0.2638937830924988
1779958176347505700,15.813505615234375,1.0997101068496704,-1.613753318786621,-0.23945917189121246
1779958176363837700,15.829837646484375,1.7259997129440308,-1.520138144493103,-0.14676037430763245
1779958176380163000,15.8461630859375,0.9750936627388,-1.404226541519165,-0.5161811113357544
1779958176396499200,15.862499267578125,0.18005253374576569,-1.8947513103485107,-0.3698789179325104
1779958176412850700,15.8788505859375,-0.28557950258255005,-2.1569652557373047,0.03940080851316452
1779958176429174800,15.8951748046875,-0.8074111342430115,-1.8414533138275146,0.712574303150177
1779958176445511000,15.911510986328125,-0.7736608386039734,-1.4384349584579468,0.789237916469574
1779958176461823000,15.927822998046874,-0.2356412708759308,-0.954018771648407,0.8768970370292664
1779958176478163000,15.944162841796874,0.4593706727027893,-0.29306259751319885,0.656069278717041
1779958176494491600,15.96049169921875,1.023352026939392,0.4599815309047699,0.42012256383895874
1779958176510825700,15.97682568359375,1.3448197841644287,1.0485502481460571,0.11698069423437119
1779958176527156500,15.993156494140624,1.5230398178100586,1.2533427476882935,-0.24648413062095642
1779958176543489300,16.0094892578125,1.7705929279327393,0.6423248052597046,-0.39965859055519104
1779958176559821800,16.02582177734375,1.9352210760116577,-0.2669481039047241,-0.0806342139840126
1779958176576150000,16.04214990234375,1.720807433128357,-0.9382890462875366,-0.02229658141732216
1779958176592482000,16.05848193359375,1.4752395153045654,-0.22403483092784882,0.24892759323120117
1779958176608806000,16.074805908203125,0.7215845584869385,-0.5468770861625671,0.0981965884566307
1779958176625139700,16.0911396484375,-0.18906278908252716,-0.7762570381164551,0.015271631069481373
1779958176641479400,16.1074794921875,-0.8953757286071777,-0.9065240025520325,-0.046731192618608475
1779958176657816000,16.123816162109375,-1.069472312927246,-0.9877691268920898,-0.01542434748262167
1779958176674133800,16.1401337890625,-1.1223121881484985,-0.6038402915000916,0.08536841720342636
1779958176690476300,16.156476318359374,-0.3384193480014801,0.375071257352829,0.11881329119205475
1779958176706824200,16.17282421875,0.00855211354792118,0.593913733959198,0.2174680233001709
1779958176723158500,16.189158447265626,0.044135015457868576,-0.062460970133543015,0.03680463135242462
1779958176739486200,16.205486328125,0.0656680166721344,-0.1722639948129654,0.07666359096765518
1779958176755819000,16.221819091796874,0.09743300825357437,-0.19517144560813904,0.08674286305904388
1779958176772150800,16.23815087890625,0.0780380368232727,-0.07696902006864548,0.10308351367712021
1779958176788481300,16.254481201171874,0.14477506279945374,-0.053297992795705795,0.12599095702171326
1779958176804799500,16.270799560546877,0.17088955640792847,0.01114829070866108,0.11881329119205475
1779958176821134000,16.287134033203124,0.15683965384960175,-0.001679879380390048,0.12858712673187256
1779958176837467100,16.303467041015626,0.13973543047904968,-0.05619960278272629,0.1739438772201538
1779958176853797600,16.319797607421876,0.15882496535778046,-0.07406741380691528,0.21288654208183289
1779958176870130000,16.3361298828125,0.2041817009449005,-0.09285151958465576,0.22342395782470703
1779958176886459000,16.352458984375,0.28557950258255005,-0.059864792972803116,0.23411411046981812
1779958176902815700,16.368815673828124,0.22586742043495178,-0.1950187236070633,0.16982053220272064
1779958176919138800,16.385138916015624,0.0907134860754013,-0.24526239931583405,0.11224649101495743
1779958176935473000,16.401472900390626,-0.0377209298312664,-0.1889100819826126,-0.07284568250179291
1779958176951796200,16.417796142578126,-0.032528575509786606,-0.1365283876657486,-0.11759155988693237
1779958176968125400,16.43412548828125,-0.021991148591041565,-0.1293507218360901,-0.024892758578062057
1779958176984441900,16.45044189453125,0.00733038317412138,-0.10461067408323288,0.03787364438176155
1779958177000775000,16.46677490234375,0.011301007121801376,-0.0835358202457428,-0.018325956538319588
1779958177017119200,16.483119140625,0.04734205827116966,-0.08994990587234497,0.0074830991216003895
1779958177033451800,16.49945166015625,0.09682214260101318,-0.043218716979026794,0.060475658625364304
1779958177049781500,16.515781494140626,0.3003929853439331,-0.04444044828414917,0.07941248267889023
1779958177066123000,16.532123046875,0.2977968156337738,-0.010842857882380486,0.06963863968849182
1779958177082444300,16.5484443359375,-0.16783522069454193,0.0861319974064827,0.007941247895359993
1779958177098779000,16.56477880859375,-0.03573561832308769,0.012522737495601177,-0.027030786499381065
1779958177115111000,16.58111083984375,-0.02779436856508255,0.1696678251028061,-0.05451972410082817
1779958177131444700,16.59744482421875,-0.020463986322283745,0.25244006514549255,-0.10567969083786011
1779958177147775700,16.613775634765624,0.003512475173920393,0.19654589891433716,-0.06429356336593628
1779958177164108000,16.63010791015625,0.005803219974040985,0.13377949595451355,0.02733621932566166
1779958177180440800,16.64644091796875,0.005955935921519995,0.011301007121801376,0.018325956538319588
1779958177196786400,16.662786376953125,0.005955935921519995,0.050243668258190155,0.021532999351620674
1779958177213118000,16.679117919921875,0.006719517521560192,-0.00045814894838258624,0.033597588539123535
1779958177229449000,16.695448974609373,0.13286319375038147,0.11667526513338089,-0.013286318629980087
1779958177245752000,16.711751953125,0.1293507218360901,0.09666942805051804,-0.0027488935738801956
1779958177262099500,16.728099365234375,0.09514226019382477,0.14187344908714294,-0.07376197725534439
1779958177278436400,16.744436279296874,-0.00015271631127689034,0.07116580009460449,-0.04841107130050659
1779958177294766000,16.76076611328125,-0.029474247246980667,0.020005837082862854,-0.02886338345706463
1779958177311082800,16.777082763671874,-0.04749477282166481,0.001679879380390048,-0.027488935738801956
1779958177327429600,16.7934296875,-0.09407325088977814,0.14019356667995453,-0.05742133408784866
1779958177343761200,16.80976123046875,-0.08429940044879913,0.2538145184516907,-0.0007635815418325365
1779958177360092000,16.826091796875,-0.1540907621383667,0.08643743395805359,-0.05803219974040985
1779958177376422100,16.842422119140625,-0.39584067463874817,0.31184670329093933,0.024434609338641167
1779958177392761300,16.85876123046875,-0.5926920175552368,0.47510045766830444,0.03680463135242462
1779958177409090600,16.875090576171875,-0.6539312601089478,0.1872301995754242,0.06154467165470123
1779958177425431800,16.891431884765623,-0.6269004344940186,0.05665775015950203,0.09834930300712585
1779958177441767200,16.90776708984375,-0.5691736936569214,0.060322944074869156,0.11270463466644287
1779958177458084600,16.924084716796877,-0.5232060551643372,0.03344487398862839,0.09468411654233932
1779958177474417000,16.9404169921875,-0.4011857509613037,-0.12247848510742188,0.14019356667995453
1779958177490745600,16.95674560546875,-0.2814561724662781,-0.3911064863204956,0.1569923609495163
1779958177507081500,16.97308154296875,-0.08811730891466141,-0.5520694851875305,0.05543602257966995
1779958177523412000,16.989411865234374,0.04902193695306778,-0.4743368625640869,-0.02076941914856434
1779958177539747300,17.005747314453124,0.14446963369846344,-0.3248275816440582,-0.040164388716220856
1779958177556106800,17.022106689453125,0.13439035415649414,-0.3614795207977295,-0.009621127508580685
1779958177572406800,17.03840673828125,0.01114829070866108,-0.3998112976551056,0.1111774742603302
1779958177588742100,17.0547421875,-0.06719517707824707,-0.5073235630989075,0.31001409888267517
1779958177605073400,17.071073486328125,-0.17409659922122955,-0.697760820388794,0.42271876335144043
1779958177621399800,17.08739990234375,-0.3179553747177124,-0.8278751373291016,0.4558582007884979
1779958177637738500,17.103738525390625,-0.5928447246551514,-0.761443555355072,0.5166392922401428
1779958177654070800,17.12007080078125,-1.1519391536712646,-1.1059715747833252,0.485027015209198
1779958177670395400,17.1363955078125,-1.9060522317886353,-1.820225715637207,0.20433442294597626
1779958177686749200,17.152749267578123,-2.0065395832061768,-1.4188872575759888,-0.11927144229412079
1779958177703081000,17.1690810546875,-1.0149526596069336,0.06902777403593063,-0.21303924918174744
1779958177719407400,17.185407470703126,-0.07162395119667053,0.4769330322742462,0.050854530185461044
1779958177735748000,17.201748046875,0.17821992933750153,0.13836097717285156,0.29107728600502014
1779958177752074200,17.21807421875,0.03191770985722542,0.294437050819397,0.27550023794174194
1779958177768411000,17.234410888671874,0.02122756652534008,0.2716823220252991,0.09896016865968704
1779958177784724700,17.250724853515624,0.07971791177988052,0.1469130963087082,-0.0809396430850029
1779958177801059600,17.2670595703125,0.17272214591503143,0.2064724564552307,-0.08536841720342636
1779958177817392000,17.28339208984375,0.23671028017997742,0.09666942805051804,-0.031612277030944824
1779958177833723400,17.299723388671875,0.29504790902137756,0.009621127508580685,-0.025503624230623245
1779958177850055000,17.316054931640625,0.29657506942749023,-0.144622340798378,0.013591751456260681
1779958177866386700,17.33238671875,0.18035796284675598,-0.21120665967464447,0.039248090237379074
1779958177882732300,17.348732177734377,0.02580905705690384,-0.25534167885780334,0.06765332818031311
1779958177899071700,17.36507177734375,-0.11652254313230515,-0.3039054572582245,0.10231992602348328
1779958177915379700,17.381379638671874,-0.04505131021142006,-0.44135013222694397,0.12095131725072861
1779958177931726600,17.3977265625,0.07391469180583954,-0.6265950202941895,0.0705549344420433
1779958177948049700,17.414049560546875,0.10231992602348328,-0.4430300295352936,0.1062905490398407
1779958177964380400,17.43038037109375,0.19013181328773499,-0.15424346923828125,0.10980302840471268
1779958177980709400,17.44670947265625,0.3484986126422882,-0.09697485715150833,0.07681630551815033
1779958177997044200,17.463044189453125,0.5062545537948608,-0.5751296281814575,-0.09437867999076843
1779958178013377000,17.479376953125,0.29764407873153687,-1.3173309564590454,0.22159136831760406
1779958178029707000,17.49570703125,0.2866485118865967,-1.9434677362442017,0.4488332271575928
1779958178046054400,17.512054443359375,0.554818332195282,-1.814269781112671,0.2376265823841095
1779958178062384400,17.52838427734375,0.5864306092262268,-0.6653849482536316,0.20295998454093933
1779958178078705200,17.544705078125,0.5102251768112183,0.3706424832344055,0.19303341209888458
1779958178095036200,17.5610361328125,0.27779096364974976,0.25564709305763245,0.05955936014652252
1779958178111370000,17.577369873046877,-0.030085112899541855,-0.8023715019226074,0.6380487680435181
1779958178127700700,17.59370068359375,0.2278527319431305,-1.5180001258850098,0.8254316449165344
1779958178144033800,17.61003369140625,0.12690725922584534,-0.41462478041648865,-0.08429940044879913
1779958178160354000,17.62635400390625,0.050854530185461044,0.06520986557006836,-0.45814892649650574
1779958178176711400,17.64271142578125,0.029016099870204926,0.032681290060281754,-0.08124507963657379
1779958178193047300,17.65904736328125,0.009773843921720982,0.0074830991216003895,0.09422596544027328
1779958178209373200,17.675373291015624,-0.009468411095440388,-0.057879481464624405,0.03084869496524334
1779958178225706500,17.69170654296875,-0.02321287989616394,-0.02535090781748295,0.001832595793530345
1779958178242030000,17.708030029296875,-0.014049900695681572,-0.010842857882380486,-0.009468411095440388
1779958178258369000,17.724369140625,-0.0039706239476799965,0.016340645030140877,-0.011301007121801376
1779958178274671000,17.740671142578126,0.00015271631127689034,0.01572977937757969,-0.0022907445672899485
1779958178291022000,17.75702197265625,-0.009010262787342072,-0.003359758760780096,0.0013744467869400978
1779958178307354600,17.773354736328123,-0.01466076634824276,-0.0003054326225537807,0.002138028386980295
1779958178323686100,17.78968603515625,-0.005803219974040985,0.016951510682702065,-0.008704829961061478
1779958178340017700,17.806017578125,0.002138028386980295,0.015271631069481373,-0.012064588256180286
1779958178356351000,17.82235107421875,0.0029016099870204926,0.012675453908741474,-0.0039706239476799965
1779958178372732700,17.838732666015623,0.0003054326225537807,0.012675453908741474,-0.004123340360820293
1779958178389030700,17.85503076171875,-0.0024434609804302454,0.031612277030944824,-0.009621127508580685
1779958178405360400,17.8713603515625,-0.005803219974040985,0.04917465150356293,-0.012217304669320583
1779958178421683000,17.887682861328123,-0.0022907445672899485,0.042760565876960754,-0.01114829070866108
1779958178438008300,17.90400830078125,0,0.029626963660120964,-0.00427605677396059
1779958178454342700,17.9203427734375,-0.0012217304902151227,0.03436116874217987,0.005345070734620094
1779958178470662700,17.93666259765625,-0.001527163083665073,0.030237829312682152,0.007024950347840786
1779958178487006700,17.9530068359375,-0.001679879380390048,0.02122756652534008,-0.005039638374000788
1779958178503336700,17.969336669921876,-0.0074830991216003895,0.01618792861700058,-0.012828170321881771
1779958178519673000,17.985673095703124,-0.007788531947880983,0.005803219974040985,-0.01542434748262167
1779958178536008000,18.002008056640626,-0.005039638374000788,-0.009010262787342072,-0.019394971430301666
1779958178552360200,18.018360107421874,-0.005650503560900688,-0.00809396430850029,-0.01924225501716137
1779958178568667000,18.0346669921875,-0.007635815534740686,-0.0029016099870204926,-0.005803219974040985
1779958178584999000,18.0509990234375,-0.005192354787141085,-0.009162978269159794,0.009926560334861279
1779958178601332700,18.067332763671875,-0.00045814894838258624,-0.02932153269648552,0.013897184282541275
1779958178617663500,18.08366357421875,0.00045814894838258624,-0.02825251780450344,0.014049900695681572
1779958178633996500,18.09999658203125,-0.0019853119738399982,-0.02122756652534008,0.013439035043120384
1779958178650306000,18.11630615234375,-0.004123340360820293,-0.016340645030140877,0.01771509274840355
1779958178666655500,18.132655517578126,0.0007635815418325365,-0.03573561832308769,0.020922135561704636
1779958178683008300,18.14900830078125,0.012675453908741474,-0.04993823543190956,0.021532999351620674
1779958178699340800,18.1653408203125,0.0029016099870204926,-0.05543602257966995,0.005497787147760391
1779958178715669000,18.1816689453125,-0.0029016099870204926,-0.04963280260562897,-0.001527163083665073
1779958178732003000,18.198003173828123,-0.005803219974040985,-0.03985895588994026,-0.010537425056099892
1779958178748331300,18.214331298828125,-0.006719517521560192,-0.01863138936460018,-0.009468411095440388
1779958178764649700,18.230649658203124,-0.010690141469240189,0.004428773187100887,-0.01038470957428217
1779958178780985600,18.246985595703126,-0.012675453908741474,0.009926560334861279,-0.019547687843441963
1779958178797317000,18.263317138671876,-0.014355333521962166,0.004123340360820293,-0.016340645030140877
1779958178813645300,18.279645263671874,-0.008704829961061478,-0.015271631069481373,-0.0025961773935705423
1779958178829984000,18.29598388671875,0.0064140851609408855,-0.02474004216492176,0.0007635815418325365
1779958178846309600,18.3123095703125,0.012980886735022068,-0.020922135561704636,-0.0064140851609408855
1779958178862649000,18.328649169921874,0.00855211354792118,0.00366519158706069,-0.013133603148162365
1779958178878989000,18.344989013671874,-0.00015271631127689034,0.01863138936460018,-0.005345070734620094
1779958178895322600,18.361322509765625,-0.005955935921519995,0.009162978269159794,-0.002138028386980295
1779958178911654000,18.37765380859375,-0.005497787147760391,-0.00427605677396059,0.003359758760780096
1779958178927982600,18.393982666015624,-0.0029016099870204926,-0.007177666760981083,0.007941247895359993
1779958178944305000,18.410304931640624,0,-0.01572977937757969,0.012217304669320583
1779958178960627500,18.42662744140625,0.0027488935738801956,-0.01710422709584236,0.0019853119738399982
1779958178976968200,18.44296826171875,-0.0013744467869400978,-0.009468411095440388,-0.014813481830060482
1779958178993301800,18.4593017578125,-0.004428773187100887,0.015882495790719986,-0.011301007121801376
1779958179009635300,18.47563525390625,-0.003512475173920393,0.011453723534941673,0.0007635815418325365
1779958179025967400,18.49196728515625,0.0024434609804302454,-0.012828170321881771,0.013744467869400978
1779958179042298600,18.508298583984374,0.005650503560900688,-0.032681290060281754,0.019394971430301666
1779958179058642400,18.524642333984374,0.002138028386980295,-0.03344487398862839,0.012522737495601177
1779958179074960400,18.54096044921875,-0.005650503560900688,-0.020005837082862854,0.006261368747800589
1779958179091295500,18.55729541015625,-0.0074830991216003895,-0.010079276748001575,0.0010690141934901476
1779958179107626200,18.573626220703126,-0.002138028386980295,-0.015577063895761967,0.0029016099870204926
1779958179123962400,18.58996240234375,0.0039706239476799965,-0.01710422709584236,0.0019853119738399982
1779958179140289000,18.6062890625,0.002138028386980295,-0.02382374368607998,-0.004428773187100887
1779958179156620000,18.6226201171875,-0.002138028386980295,-0.01970040425658226,-0.003512475173920393
1779958179172965400,18.63896533203125,-0.003817907767370343,-0.021380282938480377,-0.005803219974040985
1779958179189300200,18.65530029296875,-0.001527163083665073,-0.022907447069883347,-0.005650503560900688
1779958179205631500,18.671631591796874,0.0010690141934901476,-0.01970040425658226,-0.00855211354792118
1779958179221963500,18.687963623046876,0.0012217304902151227,-0.014355333521962166,-0.008704829961061478
1779958179238294300,18.704294189453126,0.0013744467869400978,-0.010231993161141872,-0.00809396430850029
1779958179254612700,18.72061279296875,-0.0010690141934901476,-0.005803219974040985,-0.005039638374000788
1779958179270946600,18.736946533203124,0.0007635815418325365,-0.004123340360820293,-0.003054326167330146
1779958179287280400,18.7532802734375,0.001679879380390048,-0.010537425056099892,-0.0039706239476799965
1779958179303611000,18.76961083984375,-0.001679879380390048,-0.0006108652451075613,-0.01237002108246088
1779958179319943400,18.785943359375,-0.005345070734620094,0.013897184282541275,-0.011759156361222267
1779958179336272100,18.802272216796876,-0.0032070425804704428,0.005955935921519995,-0.00809396430850029
1779958179352634400,18.81863427734375,0.00366519158706069,-0.008399397134780884,-0.006261368747800589
1779958179368951300,18.834951416015624,0.005192354787141085,-0.004581489134579897,-0.01572977937757969
1779958179385286000,18.851285888671875,0.0010690141934901476,0.007788531947880983,-0.023060163483023643
1779958179401616400,18.867616455078124,-0.0022907445672899485,0.014813481830060482,-0.016798794269561768
1779958179417948400,18.883948486328126,0.001527163083665073,0.006108652334660292,-0.01618792861700058
1779958179434262300,18.90026220703125,0.004581489134579897,0.005192354787141085,-0.020311269909143448
1779958179450582800,18.916582763671876,-0.00015271631127689034,0.02275473065674305,-0.024434609338641167
1779958179466930700,18.9329306640625,-0.005650503560900688,0.030085112899541855,-0.022143865004181862
1779958179483260700,18.9492607421875,-0.00427605677396059,0.017409659922122955,-0.007788531947880983
1779958179499598000,18.96559814453125,0.003359758760780096,0.0010690141934901476,0.0039706239476799965
1779958179515927300,18.98192724609375,0.00855211354792118,0.003054326167330146,0.005497787147760391
1779958179532276000,18.99827587890625,0.004581489134579897,0.012675453908741474,-0.005192354787141085
1779958179548596500,19.014596435546874,-0.001527163083665073,0.01542434748262167,-0.008704829961061478
1779958179564938200,19.030938232421875,-0.00427605677396059,0.021991148591041565,-0.014966198243200779
1779958179581254400,19.04725439453125,-0.005803219974040985,0.02779436856508255,-0.02382374368607998
1779958179597588700,19.063588623046876,-0.0024434609804302454,0.019089538604021072,-0.021991148591041565
1779958179613920000,19.079919921875,0.001832595793530345,0.012980886735022068,-0.020463986322283745
1779958179630252000,19.096251953125,0.0025961773935705423,0.008399397134780884,-0.02168571576476097
1779958179646568000,19.11256787109375,-0.0025961773935705423,0.009010262787342072,-0.02229658141732216
1779958179662907100,19.1289072265625,-0.003512475173920393,0.010231993161141872,-0.022143865004181862
1779958179679248600,19.14524853515625,-0.00015271631127689034,0.010995574295520782,-0.01572977937757969
1779958179695580700,19.16158056640625,0.003054326167330146,0.01970040425658226,-0.01191187184303999
1779958179711913200,19.177913330078123,0.004581489134579897,0.014966198243200779,-0.0064140851609408855
1779958179728243700,19.19424365234375,0.004886921960860491,-0.004886921960860491,0.0024434609804302454
1779958179744577300,19.210577392578124,0.0027488935738801956,-0.024434609338641167,0.01237002108246088
1779958179760909300,19.226909423828126,0.00366519158706069,-0.016035212203860283,0.006108652334660292
1779958179777242600,19.24324267578125,0.0006108652451075613,0,-0.005192354787141085
1779958179793557200,19.25955712890625,-0.0064140851609408855,0.011301007121801376,0.0024434609804302454
1779958179809893400,19.275893310546873,-0.004428773187100887,-0.010537425056099892,0.01160643994808197
1779958179826237700,19.29223779296875,0.0074830991216003895,-0.04352414980530739,0.01466076634824276
1779958179842574000,19.308573974609374,0.014813481830060482,-0.050243668258190155,0.00809396430850029
1779958179858900700,19.324900634765626,0.012064588256180286,-0.023518312722444534,-0.005192354787141085
1779958179875234300,19.341234375,0.0025961773935705423,0.0074830991216003895,-0.01466076634824276
1779958179891566600,19.357566650390623,-0.001679879380390048,0.024892758578062057,-0.012522737495601177
1779958179907918300,19.37391845703125,-0.0006108652451075613,0.02779436856508255,-0.005803219974040985
1779958179924223000,19.390222900390626,0.007941247895359993,0.020005837082862854,-0.00931569468230009
1779958179940559400,19.406559326171877,0.012064588256180286,0.02580905705690384,-0.023060163483023643
1779958179956897000,19.42289697265625,0.007941247895359993,0.04993823543190956,-0.040622539818286896
1779958179973225200,19.43922509765625,-0.0025961773935705423,0.0907134860754013,-0.05360342562198639
1779958179989557200,19.45555712890625,-0.005497787147760391,0.1036943718791008,-0.05726861581206322
1779958180005892000,19.47189208984375,0.0019853119738399982,0.09086620807647705,-0.046273041516542435
1779958180022238500,19.488238525390624,0.010537425056099892,0.07208210229873657,-0.042760565876960754
1779958180038563600,19.5045634765625,0.00809396430850029,0.06902777403593063,-0.04077525436878204
1779958180054902500,19.520902587890625,0.004428773187100887,0.07788532227277756,-0.04108068719506264
1779958180071229000,19.53722900390625,0.006261368747800589,0.07269296050071716,-0.03985895588994026
1779958180087551000,19.553551025390625,0.007941247895359993,0.06658431142568588,-0.029016099870204926
1779958180103895600,19.5698955078125,0.007024950347840786,0.05314527451992035,-0.020463986322283745
1779958180120214300,19.58621435546875,0.005497787147760391,0.03573561832308769,-0.012675453908741474
1779958180136544800,19.602544677734375,0.0025961773935705423,0.014049900695681572,0.0010690141934901476
1779958180152881700,19.618881591796875,0.003512475173920393,-0.0006108652451075613,0.005803219974040985
1779958180169211000,19.6352109375,0.0013744467869400978,-0.006261368747800589,0.005192354787141085
1779958180185543400,19.65154345703125,0.0012217304902151227,-0.009010262787342072,0.00427605677396059
1779958180201879300,19.66787939453125,0.0024434609804302454,-0.028099801391363144,0.00045814894838258624
1779958180218216200,19.68421630859375,0,-0.040164388716220856,0.004734205547720194
1779958180234541000,19.700541015625,-0.0012217304902151227,-0.04199698567390442,0.0074830991216003895
1779958180250872000,19.7168720703125,0.0012217304902151227,-0.055741455405950546,0.014355333521962166
1779958180267197000,19.733197021484376,0.0074830991216003895,-0.06551529467105865,0.026114489883184433
1779958180283536000,19.749535888671875,0.006108652334660292,-0.05955936014652252,0.030543262138962746
1779958180299867600,19.76586767578125,-0.00045814894838258624,-0.062460970133543015,0.027641652151942253
1779958180316200000,19.782199951171876,-0.004886921960860491,-0.06887505948543549,0.029932396486401558
1779958180332549400,19.79854931640625,-0.004123340360820293,-0.06398813426494598,0.029168816283345222
1779958180348878600,19.814878662109376,0.00015271631127689034,-0.06261368840932846,0.023060163483023643
