time,seconds_elapsed,z,y,x
1779909907305987600,0.111987548828125,-2.474071502685547,1.221944808959961,-2.175590991973877
1779909907322326500,0.128326416015625,-1.6860733032226562,2.5263891220092773,-2.435558319091797
1779909907338667500,0.14466748046875,1.6134204864501953,0.32869720458984375,-0.4024132192134857
1779909907355000800,0.161000732421875,2.8187952041625977,-1.613455057144165,0.006535351276397705
1779909907371334100,0.177334228515625,3.0930747985839844,-2.0452282428741455,-0.018180256709456444
1779909907387663600,0.19366357421875,2.16811466217041,-2.411268711090088,0.17985942959785461
1779909907404003300,0.21000341796875,-2.006298542022705,-2.7846670150756836,-0.5381588935852051
1779909907420348700,0.2263486328125,-4.266708850860596,-1.1073532104492188,-1.2486284971237183
1779909907436665600,0.24266552734375,-5.802646636962891,-0.037568092346191406,-4.558684825897217
1779909907452998000,0.258997802734375,-2.8847908973693848,-0.03507518768310547,-4.318249702453613
1779909907469333200,0.275333251953125,-1.996190071105957,-3.11671781539917,-1.1431185007095337
1779909907485664300,0.291664306640625,0.5060882568359375,-2.497645616531372,0.0971900224685669
1779909907501997800,0.307997802734375,0.5598573684692383,-1.2208597660064697,-0.41898369789123535
1779909907518326000,0.324325927734375,-0.17066097259521484,-1.707289457321167,0.04782581329345703
1779909907534670000,0.340670166015625,-0.36652278900146484,-0.9724540710449219,-0.33972233533859253
1779909907551009500,0.357009521484375,-0.184173583984375,-0.362623929977417,-0.4759299159049988
1779909907567330800,0.373330810546875,1.0922660827636719,-0.17281675338745117,-0.3808261752128601
1779909907583669000,0.3896689453125,2.3576412200927734,-0.6316618919372559,-0.525004506111145
1779909907599989000,0.405989013671875,2.6628217697143555,-0.8911789655685425,-0.48818230628967285
1779909907616329500,0.42232958984375,1.9171638488769531,-0.9254804849624634,-0.6240461468696594
1779909907632662500,0.43866259765625,-0.30455493927001953,-0.8216209411621094,-1.084954023361206
1779909907648995800,0.454995849609375,-3.0360922813415527,-0.6231765747070312,-1.2473630905151367
1779909907665322800,0.47132275390625,-5.195901870727539,-1.1002655029296875,-1.1287753582000732
1779909907681656300,0.48765625,-6.9874982833862305,-2.46466064453125,-1.0250211954116821
1779909907698008300,0.50400830078125,-7.497057914733887,-3.582273483276367,-2.619148015975952
1779909907714344700,0.5203447265625,-8.794876098632812,-3.4071807861328125,-5.179468154907227
1779909907730673400,0.53667333984375,-11.017349243164062,-4.844028472900391,-5.636436462402344
1779909907746990800,0.552990966796875,-11.934093475341797,-6.913599491119385,-5.091339588165283
1779909907763326500,0.569326416015625,-11.426843643188477,-8.263050079345703,-5.065749168395996
1779909907779660000,0.585659912109375,-10.196642875671387,-8.705066680908203,-4.231807708740234
1779909907795994600,0.60199462890625,-7.144009590148926,-10.368240356445312,-3.147812843322754
1779909907812325000,0.6183251953125,-3.884488344192505,-12.762439727783203,-0.7187862396240234
1779909907828659200,0.6346591796875,-0.5555634498596191,-10.797446250915527,2.215930938720703
1779909907844991700,0.65099169921875,0.9988275766372681,-10.008535385131836,6.087543487548828
1779909907861326000,0.667326171875,2.945470094680786,-8.948334693908691,10.882847785949707
1779909907877654500,0.683654541015625,1.6755406856536865,-8.11865234375,13.90333080291748
1779909907893993200,0.6999931640625,1.2854862213134766,-6.466788291931152,16.537900924682617
1779909907910321200,0.716321044921875,-0.3466729521751404,-6.401159286499023,20.02077865600586
1779909907926659000,0.7326591796875,-1.5832221508026123,-3.68349027633667,22.9827880859375
1779909907942978800,0.748978759765625,0.6722798943519592,1.5931062698364258,24.396339416503906
1779909907959323600,0.76532373046875,-1.9365357160568237,5.414577960968018,21.71688461303711
1779909907975650300,0.781650390625,-1.0379323959350586,5.460312843322754,19.207048416137695
1779909907991989800,0.79798974609375,-1.5451247692108154,4.627559661865234,17.648927688598633
1779909908008326400,0.814326416015625,-11.280546188354492,3.6200432777404785,13.108261108398438
1779909908024673300,0.83067333984375,-10.16649055480957,2.4743964672088623,5.375560760498047
1779909908040971500,0.846971435546875,-4.753018856048584,-0.7438488006591797,5.540255546569824
1779909908057309200,0.86330908203125,1.8626549243927002,-3.935779094696045,7.936071395874023
1779909908073642200,0.879642333984375,0.8393765687942505,-1.5564379692077637,4.951213836669922
1779909908089975000,0.89597509765625,0.06831693649291992,1.675539493560791,0.15580272674560547
1779909908106308900,0.912308837890625,0.6081991791725159,2.4090452194213867,-0.304290771484375
1779909908122641200,0.92864111328125,2.6948883533477783,-1.9825925827026367,-0.5101046562194824
1779909908138976000,0.94497607421875,1.9846384525299072,-4.274067401885986,-1.0887551307678223
1779909908155307300,0.961307373046875,0.5561530590057373,3.283017635345459,-8.316329002380371
1779909908171646200,0.977646240234375,-1.8726986646652222,2.136017084121704,-5.060980796813965
1779909908187989500,0.993989501953125,-0.48149585723876953,4.222750663757324,-10.950227737426758
1779909908204319200,1.0103193359375,-10.290596008300781,5.684009075164795,-11.455883026123047
1779909908220650800,1.026650634765625,-2.018786907196045,3.6285300254821777,-10.056355476379395
1779909908236981800,1.042981689453125,-0.897915244102478,1.5906240940093994,-6.038100719451904
1779909908253321500,1.059321533203125,0.5345596075057983,1.8946731090545654,-4.824424743652344
1779909908269651500,1.0756513671875,0.687651515007019,2.036383628845215,-2.3249363899230957
1779909908285983200,1.091983154296875,1.6305269002914429,1.849672794342041,-1.8685860633850098
1779909908302304800,1.1083046875,-0.4434782862663269,5.3330888748168945,2.274777412414551
1779909908318650400,1.124650390625,-2.908696413040161,4.3850202560424805,-0.5731143951416016
1779909908334982700,1.140982666015625,-1.0500576496124268,1.4064006805419922,-1.2778558731079102
1779909908351316200,1.157316162109375,-1.040554404258728,3.8922128677368164,-0.467742919921875
1779909908367646500,1.173646484375,-2.4412806034088135,2.876607894897461,1.0398073196411133
1779909908383986000,1.18998583984375,-2.0767006874084473,3.5147383213043213,0.36853981018066406
1779909908400334000,1.206333984375,-0.6680461168289185,2.5006861686706543,1.4545345306396484
1779909908416664300,1.222664306640625,-0.8443572521209717,4.064521789550781,3.4391160011291504
1779909908432978700,1.238978759765625,-3.3046200275421143,4.669684410095215,4.6683807373046875
1779909908449315300,1.2553154296875,-5.149590015411377,3.1174139976501465,2.7246007919311523
1779909908465648000,1.271648193359375,-3.99202036857605,2.017514705657959,2.764801025390625
1779909908481980700,1.287980712890625,-1.9739775657653809,-1.8501553535461426,4.637032985687256
1779909908498314200,1.304314208984375,0.10726892948150635,-5.388829708099365,5.617660045623779
1779909908514642200,1.32064208984375,0.26225900650024414,-3.881342887878418,5.034398078918457
1779909908530999000,1.3369990234375,0.33106350898742676,-1.9075288772583008,4.5309600830078125
1779909908547308000,1.35330810546875,2.2575621604919434,-1.8173775672912598,4.109128475189209
1779909908563651000,1.369651123046875,3.9887027740478516,-0.4350452423095703,3.2494120597839355
1779909908579975700,1.3859755859375,6.280250549316406,-5.028702735900879,3.575995922088623
1779909908596321800,1.40232177734375,6.732287406921387,-8.998675346374512,2.0601139068603516
1779909908612646000,1.41864599609375,1.0633198022842407,-8.953126907348633,-2.497650623321533
1779909908628975000,1.43497509765625,-3.2395753860473633,-7.15002965927124,-3.3599932193756104
1779909908645322200,1.451322265625,-0.021787703037261963,-6.151054859161377,-2.296570301055908
1779909908661673200,1.467673095703125,0.414023756980896,-4.414740085601807,-1.0025887489318848
1779909908677991400,1.483991455078125,0.4601375460624695,-3.2162461280822754,-0.7394781112670898
1779909908694325000,1.500324951171875,2.753006935119629,-3.5301365852355957,1.8516926765441895
1779909908710656300,1.51665625,5.092859268188477,-2.205872058868408,0.8041572570800781
1779909908726984200,1.532984130859375,-0.4966726303100586,1.8443164825439453,-2.3923468589782715
1779909908743313000,1.54931298828125,1.9629336595535278,0.5690975189208984,-2.4539642333984375
1779909908759643100,1.56564306640625,0.5462501049041748,0.7325000762939453,-4.402730941772461
1779909908775975200,1.58197509765625,-4.455280303955078,5.0864176750183105,-7.958615303039551
1779909908792309000,1.59830908203125,-5.721963405609131,6.954017639160156,-8.647414207458496
1779909908808642000,1.61464208984375,-1.9742013216018677,8.011021614074707,-7.170797824859619
1779909908824971800,1.6309716796875,0.07628202438354492,9.50852108001709,-5.693423271179199
1779909908841311200,1.647311279296875,-0.16836953163146973,9.76583480834961,-3.850607395172119
1779909908857639000,1.663638916015625,-1.9874038696289062,9.703145027160645,-3.2167623043060303
1779909908873977000,1.67997705078125,-3.6985795497894287,8.12839412689209,-2.90566086769104
1779909908890303000,1.696302978515625,-3.9558768272399902,6.002440452575684,-2.935667037963867
1779909908906643500,1.7126435546875,-2.7211642265319824,2.661379337310791,-2.423736095428467
1779909908922974200,1.72897412109375,1.2039761543273926,-1.9045543670654297,-1.560265064239502
1779909908939293200,1.745293212890625,5.897109031677246,-6.37175178527832,3.732752799987793
1779909908955639600,1.7616396484375,4.219732284545898,-7.638427257537842,10.621564865112305
1779909908971959600,1.77795947265625,-0.8913847208023071,-7.231064796447754,12.081795692443848
1779909908988306400,1.794306396484375,-0.9664157629013062,-4.22390079498291,6.546224594116211
1779909909004638000,1.810637939453125,1.683098554611206,-2.7133708000183105,3.1002049446105957
1779909909020971000,1.826970947265625,2.034987211227417,-6.1406474113464355,3.3353724479675293
1779909909037305000,1.84330517578125,3.9457695484161377,-7.6913371086120605,1.8163166046142578
1779909909053638400,1.859638427734375,1.9726643562316895,-2.7776732444763184,-0.24459552764892578
1779909909069957600,1.87595751953125,-0.7582253217697144,3.4692816734313965,0.6746563911437988
1779909909086293500,1.89229345703125,0.8421101570129395,-0.3759136199951172,1.5102152824401855
1779909909102625500,1.90862548828125,-0.23960018157958984,3.5707554817199707,4.762111186981201
1779909909118959000,1.924958984375,-3.7550649642944336,11.845816612243652,12.139354705810547
1779909909135291000,1.941290771484375,-1.8145231008529663,0.9017834663391113,10.408353805541992
1779909909151625700,1.957625732421875,-2.0849030017852783,-1.27093505859375,5.75966215133667
1779909909167958000,1.9739580078125,-1.0581786632537842,-1.3081769943237305,2.9885268211364746
1779909909184290300,1.990290283203125,1.0609238147735596,-1.5789775848388672,3.4275307655334473
1779909909200623600,2.00662353515625,-0.6548305153846741,3.5746006965637207,1.12748122215271
1779909909216956700,2.022956787109375,-0.7573221921920776,5.122244358062744,1.1355454921722412
1779909909233290800,2.039290771484375,2.138071060180664,4.291817665100098,1.2342922687530518
1779909909249631700,2.0556318359375,6.735288619995117,-1.5107612609863281,0.9929344654083252
1779909909265958400,2.07195849609375,-2.546184539794922,-4.672215461730957,-0.05356597900390625
1779909909282287600,2.08828759765625,0.505020260810852,-2.4085302352905273,-1.69160795211792
1779909909298623200,2.104623291015625,0.6641439199447632,-2.2983150482177734,-0.8170101642608643
1779909909314954800,2.120954833984375,-0.4483344554901123,-3.904125213623047,1.025672197341919
1779909909331303400,2.137303466796875,5.247300148010254,-1.0463924407958984,1.544626235961914
1779909909347630000,2.153630126953125,7.238367557525635,-0.5325193405151367,0.03644990921020508
1779909909363957800,2.169957763671875,9.039787292480469,1.2741212844848633,-2.8272008895874023
1779909909380298200,2.18629833984375,4.139286994934082,2.3106508255004883,-6.079834938049316
1779909909396632600,2.202632568359375,-7.022732257843018,3.521270751953125,-7.2052154541015625
1779909909412965400,2.21896533203125,-1.538644790649414,1.998730182647705,-3.262068271636963
1779909909429298700,2.235298583984375,2.6868484020233154,3.190251350402832,-1.4312578439712524
1779909909445631700,2.2516318359375,3.1979966163635254,4.144550800323486,-0.27080079913139343
1779909909461964800,2.26796484375,2.6333234310150146,4.694456577301025,-0.548944354057312
1779909909478292200,2.284292236328125,5.110091686248779,6.266307830810547,-1.840619683265686
1779909909494636500,2.300636474609375,5.187788009643555,6.404876708984375,-1.5201139450073242
1779909909510965500,2.316965576171875,-5.2294416427612305,2.8882617950439453,0.046462178230285645
1779909909527297000,2.333297119140625,-6.445610046386719,-0.197357177734375,0.7698293924331665
1779909909543645400,2.3496455078125,-2.670597553253174,-0.48722362518310547,0.7219119668006897
1779909909559995000,2.365994873046875,-1.9282031059265137,-0.4945564270019531,0.8853738903999329
1779909909576314400,2.382314453125,-0.30833005905151367,-1.9489717483520508,1.2550020217895508
1779909909592640800,2.398640869140625,-0.37639713287353516,-4.656920433044434,1.6112866401672363
1779909909608976100,2.41497607421875,-7.2308197021484375,-7.217345237731934,2.11545991897583
1779909909625288200,2.4312880859375,-6.922919273376465,-5.855086326599121,3.400247097015381
1779909909641639400,2.447639404296875,-5.164963722229004,1.228668212890625,0.448793888092041
1779909909657960000,2.4639599609375,-2.592022657394409,-1.722463607788086,-0.4947469234466553
1779909909674294800,2.480294677734375,0.798893928527832,-4.43358039855957,-0.6344274282455444
1779909909690626600,2.49662646484375,8.511959075927734,-4.3889007568359375,-2.2326855659484863
1779909909706960400,2.51296044921875,4.330458164215088,-6.108058929443359,-2.651414394378662
1779909909723294000,2.5292939453125,0.03715658187866211,-3.3452987670898438,-1.2781476974487305
1779909909739623400,2.54562353515625,-0.8082897663116455,3.8766798973083496,0.5278691053390503
1779909909755963600,2.561963623046875,0.042897939682006836,5.609412670135498,-1.154923915863037
1779909909772285000,2.578284912109375,4.268759727478027,7.291313171386719,-2.1553611755371094
1779909909788622800,2.594622802734375,5.989341735839844,6.186159610748291,-2.2970452308654785
1779909909804967000,2.610966796875,6.294373035430908,3.878495693206787,-1.9743335247039795
1779909909821291500,2.62729150390625,9.727956771850586,5.008001327514648,-0.09274458885192871
1779909909837620200,2.6436201171875,6.937808990478516,5.274115562438965,0.3272416591644287
1779909909853961000,2.6599609375,-6.806002616882324,2.494147300720215,2.010719060897827
1779909909870283300,2.676283203125,-2.34553599357605,1.7999696731567383,1.9062615633010864
1779909909886621400,2.692621337890625,5.047307968139648,2.1703929901123047,1.485535979270935
1779909909902950400,2.708950439453125,6.623780727386475,0.8552913665771484,1.3637205362319946
1779909909919279000,2.725279052734375,5.536203384399414,-0.22213459014892578,1.2358930110931396
1779909909935625000,2.741625,3.9824609756469727,-10.796911239624023,2.1069138050079346
1779909909951957000,2.75795703125,1.031483769416809,-19.42327117919922,0.8809348940849304
1779909909968296700,2.774296630859375,-1.171261191368103,-1.7529239654541016,-2.6094679832458496
1779909909984623000,2.790623046875,-2.3650755882263184,0.7626438140869141,-2.048332452774048
1779909910000955000,2.806954833984375,-4.434577941894531,2.6727046966552734,-1.2556438446044922
1779909910017289200,2.823289306640625,-3.0166287422180176,2.507692813873291,-0.4507357180118561
1779909910033639400,2.839639404296875,-0.7170725464820862,0.5288467407226562,1.2374155521392822
1779909910049969700,2.8559697265625,0.897070050239563,-0.23769855499267578,2.4203920364379883
1779909910066296000,2.872296142578125,-0.4804432988166809,-0.2259988784790039,2.5914902687072754
1779909910082624800,2.888624755859375,-2.4819626808166504,-0.027957916259765625,1.838411569595337
1779909910098950100,2.9049501953125,-2.820904493331909,0.14196491241455078,1.5626672506332397
1779909910115291000,2.921290771484375,-1.4655474424362183,-0.11391353607177734,2.5459625720977783
1779909910131604200,2.937604248046875,-0.07382917404174805,-0.7909355163574219,3.2262122631073
1779909910147957200,2.953957275390625,-0.3433724641799927,-0.707545280456543,3.4406332969665527
1779909910164287000,2.970286865234375,-1.7636010646820068,-0.30991363525390625,4.298464775085449
1779909910180616700,2.98661669921875,-2.4867501258850098,-0.6281089782714844,4.671625137329102
1779909910196961500,3.00296142578125,-1.7570350170135498,-1.2293682098388672,4.29350471496582
1779909910213275400,3.019275390625,-2.4140591621398926,-1.712855339050293,4.654872894287109
1779909910229619500,3.035619384765625,-2.5331196784973145,-1.9088544845581055,3.877779960632324
1779909910245930200,3.05193017578125,-2.8365068435668945,-2.6756467819213867,4.413495063781738
1779909910262283800,3.06828369140625,-1.6823774576187134,-2.629042625427246,5.4301347732543945
1779909910278616300,3.0846162109375,-0.7110342979431152,-2.5182180404663086,5.144601345062256
1779909910294952000,3.100951904296875,-1.5331339836120605,-2.277730941772461,4.121310234069824
1779909910311285800,3.11728564453125,-2.0691890716552734,-1.2409706115722656,0.7168887257575989
1779909910327613400,3.133613525390625,-3.010281801223755,-2.4613399505615234,-2.557490825653076
1779909910343955000,3.149954833984375,-0.9935015439987183,-5.657170295715332,-3.9124412536621094
1779909910360283000,3.166282958984375,4.353123188018799,-7.008004188537598,-4.436608791351318
1779909910376616000,3.182615966796875,5.783443927764893,-5.348224639892578,-4.150256156921387
1779909910392950500,3.198950439453125,3.7305450439453125,-3.202094078063965,-3.376546859741211
1779909910409282800,3.21528271484375,1.222726821899414,-2.183485984802246,-2.0601396560668945
1779909910425633500,3.231633544921875,-0.2795231342315674,-1.1782197952270508,-0.23982417583465576
1779909910441945300,3.2479453125,-0.14654994010925293,-0.5884628295898438,1.711882472038269
1779909910458264600,3.2642646484375,0.4660177230834961,0.5339279174804688,2.870908737182617
1779909910474618000,3.2806181640625,2.685094118118286,0.37801456451416016,2.3601791858673096
1779909910490948400,3.2969482421875,2.512573719024658,0.7261466979980469,1.3151898384094238
1779909910507265800,3.313265869140625,2.073207378387451,0.9296212196350098,0.6873747706413269
1779909910523605500,3.32960546875,2.265071392059326,1.481278419494629,0.19289559125900269
1779909910539934700,3.345934814453125,2.948488712310791,2.1922059059143066,-0.1336401104927063
1779909910556280800,3.36228076171875,4.835568428039551,3.3200783729553223,-0.06988266110420227
1779909910572599000,3.37859912109375,5.835490703582764,5.041653633117676,-0.23025231063365936
1779909910588948700,3.39494873046875,5.881542205810547,5.99128532409668,-0.6147426962852478
1779909910605280000,3.411280029296875,5.360078811645508,5.974577903747559,-0.875949501991272
1779909910621632000,3.427632080078125,5.01321268081665,5.568673133850098,-1.1619430780410767
1779909910637956000,3.4439560546875,4.804521083831787,5.702615737915039,-1.3134244680404663
1779909910654296300,3.46029638671875,3.3954150676727295,5.526718616485596,-1.481850028038025
1779909910670621000,3.476620849609375,1.1890463829040527,4.923370361328125,-1.5539469718933105
1779909910686963500,3.49296337890625,-2.0279440879821777,3.6323065757751465,-1.2660117149353027
1779909910703287300,3.509287353515625,-6.621600151062012,0.07587814331054688,-0.2670340836048126
1779909910719609900,3.52560986328125,-10.204483032226562,-6.904751777648926,2.0349278450012207
1779909910735944000,3.54194384765625,-7.605545997619629,-17.896785736083984,4.200572967529297
1779909910752270000,3.55827001953125,-5.651001453399658,-11.979024887084961,-0.04968315362930298
1779909910768610600,3.574610595703125,-5.909453392028809,-0.8859853744506836,-1.283982753753662
1779909910784944000,3.590944091796875,-3.91440749168396,3.5018234252929688,-2.7182421684265137
1779909910801262000,3.607261962890625,-1.0509850978851318,2.4398608207702637,-3.119356393814087
1779909910817597000,3.623596923828125,-2.1951780319213867,-2.9810380935668945,-1.0735299587249756
1779909910833932300,3.639932373046875,3.79542875289917,-8.979509353637695,1.6125645637512207
1779909910850264000,3.65626416015625,11.94479751586914,-12.957253456115723,3.864072322845459
1779909910866597400,3.672597412109375,2.7930641174316406,-3.1582889556884766,-1.7382240295410156
1779909910882931000,3.688930908203125,2.6178181171417236,5.366331100463867,-3.988759994506836
1779909910899261000,3.705260986328125,-1.3123061656951904,7.699697971343994,-5.743312835693359
1779909910915595500,3.721595458984375,0.4416494369506836,6.530031204223633,-4.923000335693359
1779909910931929900,3.737929931640625,8.908323287963867,5.687383651733398,-2.555436134338379
1779909910948278000,3.754278076171875,10.921565055847168,3.2873711585998535,-0.5429617762565613
1779909910964607700,3.770607666015625,8.43561840057373,-1.3149805068969727,0.40671879053115845
1779909910980939800,3.786939697265625,4.649728775024414,-4.514283180236816,0.490673303604126
1779909910997273900,3.80327392578125,-4.21647834777832,-10.28745174407959,1.0315485000610352
1779909911013607000,3.81960693359375,-5.699843883514404,-5.611811637878418,4.350764274597168
1779909911029941000,3.83594091796875,2.2225942611694336,1.3334474563598633,4.832263946533203
1779909911046290700,3.852290771484375,5.425577163696289,2.268617630004883,3.237830877304077
1779909911062620200,3.8686201171875,3.5409445762634277,2.6061768531799316,0.9929549694061279
1779909911078956500,3.88495654296875,1.4054529666900635,3.1440682411193848,0.18261191248893738
1779909911095285200,3.90128515625,-0.34759020805358887,2.3544540405273438,-0.7839900255203247
1779909911111605500,3.91760546875,-0.40914809703826904,1.1207008361816406,-1.468371868133545
1779909911127952400,3.933952392578125,-1.2881317138671875,1.1674995422363281,-1.2621240615844727
1779909911144288000,3.9502880859375,-0.6669117212295532,1.220494270324707,-0.1890859454870224
1779909911160616200,3.9666162109375,-0.420620322227478,1.228799819946289,0.8604165315628052
1779909911176955000,3.982954833984375,-1.651389479637146,1.3212976455688477,1.219270944595337
1779909911193268700,3.999268798828125,-2.267214775085449,0.9648847579956055,1.121612310409546
1779909911209600800,4.015600830078125,-1.9926414489746094,0.5479393005371094,1.080415964126587
1779909911225920500,4.03192041015625,-1.0405086278915405,0.14312458038330078,1.6236778497695923
1779909911242270500,4.0482705078125,-0.856081485748291,0.23069381713867188,2.6013293266296387
1779909911258600000,4.064599853515625,-1.283096194267273,0.7018613815307617,3.3676071166992188
1779909911274939600,4.080939697265625,-1.6449143886566162,0.28583335876464844,3.7328884601593018
1779909911291268900,4.097268798828125,-1.4107674360275269,-0.8734493255615234,3.4348361492156982
1779909911307602700,4.113602783203125,-1.341721773147583,-0.9104118347167969,4.293867111206055
1779909911323934500,4.1299345703125,-1.8976974487304688,-0.9106130599975586,5.770064830780029
1779909911340287700,4.146287841796875,-2.5803565979003906,-1.7272510528564453,6.0198774337768555
1779909911356613000,4.162613037109375,-1.9786306619644165,-1.899460792541504,4.812369346618652
1779909911372956000,4.178955810546875,-2.509138584136963,-1.7711458206176758,4.350568771362305
1779909911389265700,4.195265625,-3.4445676803588867,-2.0541906356811523,3.8643577098846436
1779909911405625300,4.211625244140625,-2.3931965827941895,-2.559473991394043,3.781708002090454
1779909911421966600,4.227966552734375,-1.506697416305542,-4.036250114440918,4.5517683029174805
1779909911438278400,4.2442783203125,-1.044227957725525,-3.6920080184936523,4.249792098999023
1779909911454590200,4.260590087890625,-0.6942617297172546,-1.9502687454223633,1.890624761581421
1779909911470932700,4.2769326171875,-1.994114637374878,-0.8276548385620117,-1.5900771617889404
1779909911487266300,4.293266357421875,-2.6705524921417236,-2.9108152389526367,-4.104454517364502
1779909911503599400,4.309599365234375,1.2985196113586426,-5.875344276428223,-5.216291904449463
1779909911519934200,4.325934326171875,4.865793228149414,-6.749279022216797,-5.3360795974731445
1779909911536265700,4.342265625,4.90627908706665,-5.279148101806641,-4.813321113586426
1779909911552593200,4.35859326171875,3.456637382507324,-3.162672996520996,-3.901026964187622
1779909911568920800,4.3749208984375,1.3523344993591309,-1.5172080993652344,-1.842774510383606
1779909911585251600,4.39125146484375,-1.3653342723846436,-0.7014427185058594,0.6914725303649902
1779909911601585700,4.407585693359375,-1.9999902248382568,-0.6312713623046875,3.203690767288208
1779909911617919500,4.42391943359375,1.2054672241210938,-0.2875699996948242,4.487265586853027
1779909911634253600,4.440253662109375,3.107858657836914,0.7033929824829102,2.5992939472198486
1779909911650584800,4.456584716796875,2.2313005924224854,0.45130252838134766,1.7072590589523315
1779909911666921000,4.4729208984375,1.965533971786499,1.0138754844665527,0.7705972194671631
1779909911683251500,4.48925146484375,2.55972957611084,2.4228625297546387,0.31078681349754333
1779909911699600000,4.505599853515625,4.0560302734375,3.5399885177612305,0.03282402455806732
1779909911715929300,4.521929443359375,5.821794033050537,4.872302055358887,-0.11630524694919586
1779909911732263700,4.538263671875,6.372679233551025,6.00390625,-0.25001654028892517
1779909911748598000,4.554597900390625,6.035449504852295,6.172109127044678,-0.5150420069694519
1779909911764926000,4.570926025390625,5.281428337097168,5.197558403015137,-1.0319850444793701
1779909911781263400,4.587263427734375,4.586785316467285,4.820438385009766,-1.6820147037506104
1779909911797598000,4.603597900390625,3.8937368392944336,5.559159278869629,-1.8824608325958252
1779909911813925600,4.619925537109375,2.4062247276306152,5.322075843811035,-1.6293388605117798
1779909911830282000,4.636281982421875,-0.44806766510009766,4.40852689743042,-1.2695770263671875
1779909911846605600,4.65260546875,-4.752575874328613,2.046790599822998,-0.38109809160232544
1779909911862956500,4.66895654296875,-9.194328308105469,-4.0176496505737305,1.268709421157837
1779909911879275300,4.685275146484375,-9.0936861038208,-14.736184120178223,4.706130027770996
1779909911895584500,4.70158447265625,-7.466609954833984,-16.9526424407959,3.965593099594116
1779909911911924000,4.717924072265625,-5.174086093902588,-4.283255577087402,-0.19499102234840393
1779909911928258000,4.734258056640625,-6.536591529846191,2.546182632446289,-1.5867137908935547
1779909911944589600,4.750589599609375,-2.243828296661377,4.306772232055664,-2.61948299407959
1779909911960922600,4.766922607421875,0.49095702171325684,1.041064739227295,-2.278738260269165
1779909911977258800,4.7832587890625,-0.6834309101104736,-2.075410842895508,-0.2752501964569092
1779909911993591600,4.799591552734375,6.894350051879883,-6.073204040527344,1.0879340171813965
1779909912009926100,4.815926025390625,12.761838912963867,-10.409421920776367,0.6622771620750427
1779909912026242300,4.8322421875,0.9511866569519043,-2.657186508178711,-4.128093242645264
1779909912042595300,4.84859521484375,-2.65718674659729,3.1480283737182617,-4.32797908782959
1779909912058939400,4.864939453125,-4.190055847167969,4.853816509246826,-4.167417049407959
1779909912075286300,4.881286376953125,3.1096854209899902,4.623755931854248,-2.1788623332977295
1779909912091588000,4.897588134765625,10.35847282409668,5.008157730102539,-0.41336965560913086
1779909912107935000,4.91393505859375,9.811689376831055,3.106630325317383,1.1431834697723389
1779909912124257300,4.93025732421875,7.8176164627075195,-0.991114616394043,1.3832883834838867
1779909912140602000,4.94660205078125,4.374919414520264,-4.021651268005371,1.0724236965179443
1779909912156938000,4.96293798828125,-6.486297130584717,-10.119077682495117,1.4525166749954224
1779909912173270300,4.979270263671875,-3.7317633628845215,-2.507969856262207,3.8815300464630127
1779909912189573000,4.995572998046875,3.0510759353637695,2.1383743286132812,3.7903683185577393
1779909912205911600,5.01191162109375,4.258477210998535,2.5999207496643066,2.180044412612915
1779909912222244900,5.028244873046875,2.531226634979248,2.9706621170043945,0.2818574011325836
1779909912238588700,5.044588623046875,1.1863688230514526,3.0326056480407715,-1.5288381576538086
1779909912254921500,5.06092138671875,-0.7982208728790283,1.5732917785644531,-2.7344794273376465
1779909912271254800,5.0772548828125,-1.4123886823654175,1.0331010818481445,-3.0589118003845215
1779909912287584800,5.093584716796875,-0.7036458849906921,1.2325830459594727,-1.752568006515503
1779909912303924500,5.109924560546875,0.40225884318351746,1.0346155166625977,-0.0758146196603775
1779909912320272600,5.126272705078125,-0.7642247676849365,0.9931840896606445,0.9711804389953613
1779909912336603000,5.142602783203125,-2.026528835296631,0.7208967208862305,1.3172441720962524
1779909912352909600,5.15890966796875,-2.469865322113037,0.2757291793823242,1.1505014896392822
1779909912369268200,5.175268310546875,-1.689758539199829,0.19443702697753906,1.3309451341629028
1779909912385578000,5.191577880859375,-0.4337606430053711,0.2989940643310547,2.169469118118286
1779909912401924900,5.2079248046875,-0.008808672428131104,0.7134180068969727,3.6199569702148438
1779909912418262500,5.224262451171875,-0.8227521181106567,0.16855239868164062,4.647629737854004
1779909912434602200,5.240602294921875,-1.4689371585845947,-1.1241846084594727,4.225669860839844
1779909912450914300,5.256914306640625,-1.1628267765045166,-1.4584846496582031,4.222598552703857
1779909912467240700,5.27324072265625,-1.711717128753662,-1.3875789642333984,5.317883491516113
1779909912483585300,5.289585205078125,-2.1351847648620605,-1.949030876159668,6.026956558227539
1779909912499918800,5.3059189453125,-2.012038469314575,-1.7156257629394531,5.771583557128906
1779909912516238600,5.322238525390625,-1.758435845375061,-0.8245725631713867,4.548789978027344
1779909912532584700,5.338584716796875,-3.846560478210449,-1.1543340682983398,4.577655792236328
1779909912548933400,5.354933349609375,-2.8764562606811523,-2.6304588317871094,3.9500532150268555
1779909912565247200,5.371247314453125,-1.5812562704086304,-2.7143898010253906,4.118459701538086
1779909912581604400,5.387604248046875,-2.3772788047790527,-3.1442527770996094,4.52338981628418
1779909912597924400,5.40392431640625,-1.5238709449768066,-2.0132951736450195,3.600635290145874
1779909912614240300,5.420240234375,-1.369813323020935,-0.533564567565918,1.3027610778808594
1779909912630571500,5.436571533203125,-2.4471652507781982,-1.2545528411865234,-1.418048620223999
1779909912646904800,5.45290478515625,-2.1019229888916016,-4.807809829711914,-3.6326911449432373
1779909912663236400,5.469236328125,2.627500057220459,-7.523892402648926,-4.475241661071777
1779909912679571000,5.485571044921875,4.630188465118408,-6.837691307067871,-4.113874435424805
1779909912695903000,5.501903076171875,3.8694772720336914,-4.1326799392700195,-3.333761215209961
1779909912712236500,5.518236572265625,2.0930542945861816,-2.375239372253418,-2.3975889682769775
1779909912728568600,5.534568603515625,0.366497278213501,-1.968134880065918,-1.244777798652649
1779909912744905200,5.5509052734375,-1.3632581233978271,-1.5345468521118164,-0.180046945810318
1779909912761234700,5.567234619140625,-0.6613616943359375,0.17199230194091797,2.44311261177063
1779909912777568500,5.583568603515625,1.389857292175293,0.7709741592407227,3.296738862991333
1779909912793901800,5.59990185546875,2.754460334777832,1.400106430053711,2.735318183898926
1779909912810233600,5.616233642578125,2.590719223022461,0.3586902618408203,2.480262041091919
1779909912826569000,5.63256884765625,3.025071144104004,0.2994813919067383,1.1950562000274658
1779909912842902500,5.648902587890625,3.3389949798583984,1.6856584548950195,0.1965785026550293
1779909912859233000,5.66523291015625,4.417144775390625,2.871856689453125,-0.3439812660217285
1779909912875567400,5.6815673828125,5.784116268157959,4.381051540374756,-0.7075140476226807
1779909912891915800,5.697915771484375,6.3266401290893555,5.834045886993408,-1.2184654474258423
1779909912908245800,5.714245849609375,5.415567874908447,6.0105133056640625,-1.3766218423843384
1779909912924578300,5.730578369140625,4.7076568603515625,5.6192522048950195,-1.612642526626587
1779909912940911000,5.7469111328125,4.180297374725342,5.502501010894775,-1.607851505279541
1779909912957244200,5.763244140625,3.994765281677246,5.685242652893066,-1.4277032613754272
1779909912973578200,5.779578125,2.5666913986206055,4.9305925369262695,-1.7804770469665527
1779909912989911800,5.795911865234375,1.231048583984375,3.889716148376465,-1.758249044418335
1779909913006243300,5.812243408203125,-2.9946019649505615,1.344010353088379,-1.249244213104248
1779909913022577400,5.828577392578125,-7.896008491516113,-4.19443416595459,0.17861539125442505
1779909913038910700,5.84491064453125,-10.207988739013672,-14.469110488891602,3.164313316345215
1779909913055256600,5.861256591796875,-10.029047012329102,-15.867231369018555,3.8170435428619385
1779909913071602200,5.877602294921875,-5.533326625823975,-2.6293067932128906,0.34524017572402954
1779909913087919900,5.893919921875,-6.696258544921875,3.686253547668457,-1.2289129495620728
1779909913104265500,5.910265380859375,-1.5869548320770264,6.006299018859863,-1.7064216136932373
1779909913120587500,5.92658740234375,1.2350986003875732,2.4982924461364746,-2.4443726539611816
1779909913136906000,5.942906005859375,-0.5135951042175293,-1.6390924453735352,-0.823515772819519
1779909913153256400,5.95925634765625,4.802335262298584,-5.868396759033203,0.05233354866504669
1779909913169588700,5.975588623046875,11.640912055969238,-10.310342788696289,0.19167539477348328
1779909913185903600,5.991903564453125,0.3195967674255371,-8.752503395080566,-3.405026912689209
1779909913202228500,6.008228515625,-3.1211531162261963,0.3035106658935547,-2.558053493499756
1779909913218579200,6.0245791015625,-1.0639395713806152,4.0233378410339355,-2.3635449409484863
1779909913234903300,6.0409033203125,1.3895505666732788,5.3958740234375,-2.8861947059631348
1779909913251245600,6.05724560546875,5.190656661987305,5.25187349319458,-2.153552770614624
1779909913267567900,6.07356787109375,9.246672630310059,5.899948596954346,-1.3754541873931885
1779909913283911700,6.08991162109375,8.373560905456543,2.7441678047180176,-0.2259541153907776
1779909913300241000,6.106240966796875,5.80051851272583,-0.5081491470336914,0.10685661435127258
1779909913316587000,6.1225869140625,1.1058964729309082,-4.684897422790527,-0.21337544918060303
1779909913332917500,6.13891748046875,-5.851120471954346,-10.708919525146484,1.1951963901519775
1779909913349239600,6.155239501953125,-0.05373358726501465,-2.3182802200317383,4.498617649078369
1779909913365559000,6.17155908203125,5.226694583892822,1.3806657791137695,4.197974681854248
1779909913381905000,6.18790478515625,4.645200252532959,2.7090091705322266,2.3848447799682617
1779909913398238200,6.20423828125,2.0699462890625,3.4313740730285645,1.0295157432556152
1779909913414567700,6.220567626953125,-0.39513349533081055,2.996983528137207,-0.8452852964401245
1779909913430908200,6.236908203125,-0.1725490689277649,1.7579126358032227,-2.5723471641540527
1779909913447237000,6.253237060546875,-0.30963122844696045,1.1949825286865234,-2.6337082386016846
1779909913463569200,6.269569091796875,-0.9197756052017212,1.0439577102661133,-1.4329428672790527
1779909913479914500,6.28591455078125,-1.2151849269866943,1.0493812561035156,0.019671425223350525
1779909913496233700,6.302233642578125,-2.3941259384155273,1.0699329376220703,1.5726975202560425
1779909913512571600,6.318571533203125,-2.250469446182251,0.32331180572509766,2.7696142196655273
1779909913528903200,6.334903076171875,-2.0962905883789062,-0.6084728240966797,3.0254995822906494
1779909913545245700,6.35124560546875,-2.7628188133239746,-1.3847723007202148,2.868752956390381
1779909913561604400,6.367604248046875,-2.3724441528320312,-0.7106714248657227,2.751140594482422
1779909913577916400,6.38391650390625,-1.511967658996582,-0.5351104736328125,3.3364295959472656
1779909913594236700,6.400236572265625,-2.1750621795654297,-1.5268745422363281,3.770042657852173
1779909913610580700,6.416580810546875,-2.251330852508545,-1.3157758712768555,4.0871100425720215
1779909913626915800,6.432915771484375,-2.232285261154175,0.04609966278076172,5.569935321807861
1779909913643249000,6.449248779296875,-3.8881783485412598,-0.21458053588867188,6.781683921813965
1779909913659577000,6.4655771484375,-4.289242267608643,-1.5748910903930664,6.412892818450928
1779909913675897000,6.48189697265625,-3.2298507690429688,-2.0767364501953125,5.566896915435791
1779909913692222500,6.498222412109375,-3.95261812210083,-2.9259910583496094,5.61158561706543
1779909913708554200,6.51455419921875,-3.3157052993774414,-2.561582565307617,4.074757099151611
1779909913724903400,6.5309033203125,-1.9667439460754395,-2.425564765930176,3.907695770263672
1779909913741233000,6.54723291015625,-0.3218719959259033,-1.7080297470092773,3.8156533241271973
1779909913757563400,6.5635634765625,-0.8617850542068481,-1.8874855041503906,2.4231207370758057
1779909913773903000,6.579903076171875,-1.8349047899246216,-4.072416305541992,-0.967663049697876
1779909913790228700,6.596228759765625,-1.1194090843200684,-7.320920944213867,-3.3055217266082764
1779909913806584600,6.61258447265625,2.4738621711730957,-8.364163398742676,-4.160023212432861
1779909913822913300,6.628913330078125,3.7815635204315186,-5.863864898681641,-3.9382293224334717
1779909913839243500,6.645243408203125,3.954233169555664,-3.255091667175293,-3.228419780731201
1779909913855578600,6.66157861328125,2.624316692352295,-2.078190803527832,-2.109536647796631
1779909913871897600,6.677897705078125,0.7279065847396851,-1.2621259689331055,-0.4558357000350952
1779909913888263200,6.69426318359375,-1.2865126132965088,-0.6533288955688477,1.254338026046753
1779909913904577800,6.710577880859375,0.4015674591064453,0.7297735214233398,3.434436321258545
1779909913920895000,6.72689501953125,1.063323974609375,0.9324331283569336,4.705853462219238
1779909913937227000,6.74322705078125,1.8427402973175049,0.5752496719360352,3.3320112228393555
1779909913953561000,6.75956103515625,1.2849173545837402,0.18445396423339844,1.8137364387512207
1779909913969914600,6.77591455078125,2.4037036895751953,0.5599794387817383,0.8114751577377319
1779909913986229000,6.79222900390625,4.102788925170898,2.210327625274658,0.22841477394104004
1779909914002563000,6.80856298828125,6.369812965393066,3.403359889984131,-0.018177330493927002
1779909914018895400,6.824895263671875,7.50157356262207,4.817906856536865,-0.2353692352771759
1779909914035221200,6.84122119140625,7.358654022216797,5.563622951507568,-0.6433860063552856
1779909914051565600,6.857565673828125,6.399507999420166,5.564265727996826,-1.3513802289962769
1779909914067906000,6.873906005859375,4.939676284790039,5.427082061767578,-1.8523201942443848
1779909914084246000,6.89024609375,4.168085098266602,5.985713958740234,-2.3083407878875732
1779909914100558300,6.906558349609375,3.399618625640869,5.960448265075684,-2.3421881198883057
1779909914116885500,6.922885498046875,2.2744686603546143,5.116999626159668,-1.9573367834091187
1779909914133226800,6.939226806640625,0.4127070903778076,3.650521755218506,-1.737048625946045
1779909914149574100,6.95557421875,-3.679363489151001,-0.05983257293701172,-1.1449363231658936
1779909914165877000,6.971876953125,-7.281146049499512,-8.81033706665039,-0.2863354980945587
1779909914182226700,6.988226806640625,-8.03762435913086,-19.609804153442383,1.807276964187622
1779909914198548500,7.004548583984375,-10.98767375946045,-11.648391723632812,2.342566728591919
1779909914214893000,7.02089306640625,-8.201933860778809,-0.6149463653564453,1.9230557680130005
1779909914231225000,7.03722509765625,-5.945748329162598,5.006819248199463,2.3760249614715576
1779909914247557000,7.05355712890625,0.3658146858215332,9.166370391845703,2.848170042037964
1779909914263907600,7.069907470703125,1.9921503067016602,5.070727348327637,2.384486198425293
1779909914280248300,7.086248291015625,4.836389541625977,-0.10070133209228516,2.7495322227478027
1779909914296538400,7.102538330078125,14.4951810836792,-8.200764656066895,1.2632163763046265
1779909914312878600,7.118878662109375,10.225604057312012,-17.1636962890625,-2.4453132152557373
1779909914329216800,7.135216796875,-13.842521667480469,-13.400985717773438,-5.415724754333496
1779909914345545700,7.151545654296875,-6.352405071258545,0.8097190856933594,-5.58248233795166
1779909914361877800,7.167877685546875,0.20032405853271484,6.982390880584717,-4.853427886962891
1779909914378211300,7.18421142578125,6.274945259094238,7.338664531707764,-3.81825590133667
1779909914394560500,7.200560546875,11.937066078186035,8.431510925292969,-2.7605788707733154
1779909914410886400,7.216886474609375,10.667398452758789,6.642435550689697,0.21604788303375244
1779909914427222800,7.233222900390625,7.249661445617676,2.2386083602905273,0.11925168335437775
1779909914443549700,7.2495498046875,3.3907535076141357,-2.991212844848633,-2.268627166748047
1779909914459882000,7.265882080078125,-4.109457969665527,-9.706620216369629,-1.838731288909912
1779909914476222700,7.28222265625,-2.872605800628662,-4.832345008850098,4.64422082901001
1779909914492555300,7.29855517578125,5.504882335662842,0.47183990478515625,5.894866466522217
1779909914508888800,7.314888916015625,6.44336462020874,2.361598491668701,5.428712844848633
1779909914525221400,7.331221435546875,0.6542539000511169,3.408052444458008,3.800361156463623
1779909914541555000,7.347554931640625,-2.5409679412841797,3.1607003211975098,0.3306637108325958
1779909914557899800,7.363899658203125,-2.867380380630493,1.315913200378418,-2.1590631008148193
1779909914574239200,7.3802392578125,-1.0204265117645264,0.46854496002197266,-2.392117977142334
1779909914590566100,7.396566162109375,-0.8795890808105469,0.851069450378418,-1.1892621517181396
1779909914606899500,7.4128994140625,-1.0801746845245361,0.9229459762573242,0.20438356697559357
1779909914623234300,7.429234375,-2.0273213386535645,0.628718376159668,1.0081387758255005
1779909914639566800,7.44556689453125,-2.1691157817840576,0.19706249237060547,1.6127183437347412
1779909914655900200,7.461900146484375,-2.425370931625366,-0.09411239624023438,1.9512135982513428
1779909914672216800,7.478216796875,-2.97969126701355,-0.28548336029052734,2.378159999847412
1779909914688552400,7.494552490234375,-2.212161064147949,-0.14240646362304688,2.9115185737609863
1779909914704885800,7.5108857421875,-1.2707157135009766,0.20399856567382812,3.3481240272521973
1779909914721217500,7.527217529296875,-2.1771903038024902,-0.6323251724243164,3.8083033561706543
1779909914737551600,7.543551513671875,-2.144026517868042,-1.4345693588256836,3.8308215141296387
1779909914753876200,7.559876220703125,-1.5507760047912598,-0.9906005859375,4.285541534423828
1779909914770234600,7.576234619140625,-3.1193032264709473,-0.956242561340332,4.514123439788818
1779909914786564000,7.592564208984375,-3.6757967472076416,-1.7795610427856445,3.8866961002349854
1779909914802898400,7.6088984375,-2.8090925216674805,-2.024862289428711,3.562906265258789
1779909914819230500,7.62523046875,-3.665766716003418,-2.503042221069336,4.30645227432251
1779909914835549000,7.641548828125,-3.68435001373291,-3.2251434326171875,4.112347602844238
1779909914851891200,7.65789111328125,-1.958754539489746,-3.7040624618530273,3.849642515182495
1779909914868216600,7.674216552734375,-0.7822896242141724,-2.8238162994384766,3.896435499191284
1779909914884549600,7.690549560546875,-1.1027332544326782,-2.2496519088745117,3.452751636505127
1779909914900881400,7.70688134765625,-2.1020233631134033,-2.055490493774414,1.2094485759735107
1779909914917215500,7.723215576171875,-3.0043044090270996,-3.159605026245117,-2.6325740814208984
1779909914933539000,7.7395390625,-1.3384015560150146,-5.135715484619141,-4.253055572509766
1779909914949891800,7.755891845703125,2.209146022796631,-6.789358139038086,-4.947046756744385
1779909914966214400,7.77221435546875,3.5803141593933105,-5.5054168701171875,-4.53281831741333
1779909914982548500,7.788548583984375,2.9476444721221924,-3.3121509552001953,-3.8029935359954834
1779909914998877700,7.804877685546875,0.9370980262756348,-1.939626693725586,-2.654890537261963
1779909915015196700,7.82119677734375,-1.0067298412322998,-1.5280847549438477,-0.4448760449886322
1779909915031547100,7.837547119140625,-0.2153003215789795,-1.2011899948120117,1.7697854042053223
1779909915047874300,7.853874267578125,1.1383520364761353,0.18396949768066406,3.5610930919647217
1779909915064197400,7.870197265625,2.1409969329833984,0.38814830780029297,3.060299873352051
1779909915080535000,7.88653515625,2.570944309234619,0.4498414993286133,1.386955976486206
1779909915096867600,7.90286767578125,2.2388038635253906,0.9411449432373047,0.491909384727478
1779909915113199600,7.91919970703125,2.7278008460998535,2.190013885498047,0.1434457153081894
1779909915129534500,7.935534423828125,3.859274387359619,2.735210418701172,0.1629449427127838
1779909915145866800,7.95186669921875,5.308420181274414,3.909335136413574,0.3028249144554138
1779909915162199300,7.96819921875,6.137896537780762,5.518121719360352,0.3708944320678711
1779909915178533600,7.98453369140625,5.918998718261719,6.380341529846191,0.11957383155822754
1779909915194866200,8.0008662109375,5.126624584197998,6.272856712341309,-0.4662628769874573
1779909915211193300,8.017193359375,4.561277866363525,6.096161842346191,-0.8022676110267639
1779909915227528400,8.033528564453125,4.018055438995361,6.265777587890625,-0.6418352127075195
1779909915243886600,8.049886474609375,2.551290988922119,6.32803201675415,-0.7820050716400146
1779909915260200400,8.066200439453125,-0.30942583084106445,5.533191680908203,-0.968852162361145
1779909915276545300,8.082545166015626,-3.808854341506958,2.6376757621765137,-1.195507526397705
1779909915292884000,8.098884033203126,-11.865829467773438,-4.464111328125,-0.8081673383712769
1779909915309205800,8.115205810546875,-12.960212707519531,-15.81401252746582,1.9225554466247559
1779909915325547300,8.13154736328125,-2.860058307647705,-17.572601318359375,-0.5545951724052429
1779909915341872600,8.14787255859375,-1.1081571578979492,-5.902665138244629,-3.2625246047973633
1779909915358217000,8.164217041015625,-4.691771507263184,4.723781108856201,-4.039842128753662
1779909915374555400,8.180555419921875,-2.2589972019195557,9.561120986938477,-3.819005012512207
1779909915390875600,8.196875732421875,-4.089939117431641,3.7705888748168945,-4.097683429718018
1779909915407225300,8.213225341796875,-2.6085829734802246,-4.635991096496582,-1.71514892578125
1779909915423555000,8.22955517578125,10.401182174682617,-12.385129928588867,2.324653387069702
1779909915439871000,8.24587109375,9.998933792114258,-12.63899040222168,-1.0906658172607422
1779909915456204800,8.262204833984375,3.692338705062866,-0.644108772277832,-4.605343341827393
1779909915472541000,8.278541015625,1.2364978790283203,3.6698365211486816,-2.876499891281128
1779909915488875000,8.294875,5.263813495635986,5.003765106201172,-1.580956220626831
1779909915505206000,8.3112060546875,8.24929141998291,5.03082275390625,0.16024546325206757
1779909915521540900,8.327540771484376,9.166364669799805,3.6592864990234375,1.0893864631652832
1779909915537874200,8.343874267578125,7.763192653656006,0.8747396469116211,1.3832117319107056
1779909915554222600,8.36022265625,5.198983192443848,-2.995481491088867,0.9555572867393494
1779909915570537200,8.376537109375,-1.768919825553894,-10.921992301940918,0.10167008638381958
1779909915586884600,8.392884521484374,-4.691303730010986,-7.471630096435547,3.3505544662475586
1779909915603217700,8.4092177734375,0.40580248832702637,0.7148523330688477,4.7585129737854
1779909915619547100,8.425547119140624,3.317119836807251,3.2345690727233887,2.9849376678466797
1779909915635891500,8.441891357421875,1.5238956212997437,3.463937282562256,0.543570339679718
1779909915652201500,8.458201416015624,0.5895393490791321,3.7126455307006836,-1.0769355297088623
1779909915668537000,8.474537109375,1.894991397857666,2.806826114654541,-1.6781814098358154
1779909915684872700,8.490872802734375,1.6126441955566406,1.8241500854492188,-0.6411524415016174
1779909915701204200,8.507204345703125,-0.2096855640411377,1.566603660583496,0.542231559753418
1779909915717540600,8.52354052734375,-1.618263840675354,1.7424049377441406,0.6978054642677307
1779909915733868000,8.539867919921875,-2.7809901237487793,1.4719915390014648,0.4387474060058594
1779909915750205400,8.556205322265624,-3.7830591201782227,0.5203857421875,0.5625459551811218
1779909915766547200,8.572547119140625,-3.135030746459961,-0.12012290954589844,1.0712671279907227
1779909915782882600,8.588882568359375,-1.853629469871521,-0.10549259185791016,2.1770641803741455
1779909915799199500,8.605199462890624,-0.5188412070274353,0.3942146301269531,3.4686150550842285
1779909915815569200,8.621569091796875,-0.522503137588501,0.6308813095092773,4.277443885803223
1779909915831865600,8.637865478515625,-1.9032902717590332,0.27682971954345703,4.570789813995361
1779909915848216600,8.654216552734376,-2.401498794555664,-0.6328868865966797,3.987833023071289
1779909915864561200,8.67056103515625,-1.7459111213684082,-1.278712272644043,3.630460262298584
1779909915880883000,8.686883056640625,-1.7871763706207275,-1.4646625518798828,4.608681678771973
1779909915897211600,8.703211669921876,-2.386704921722412,-1.9298639297485352,5.658648490905762
1779909915913547000,8.719547119140625,-2.7608935832977295,-2.36855411529541,5.761795520782471
1779909915929879600,8.735879638671875,-3.0449299812316895,-1.7574520111083984,4.7106733322143555
1779909915946198800,8.75219873046875,-3.3366782665252686,-1.6030197143554688,4.20742130279541
1779909915962544400,8.76854443359375,-3.5966148376464844,-2.61673641204834,4.618840217590332
1779909915978868500,8.784868408203126,-1.3117051124572754,-2.7618160247802734,4.206275939941406
1779909915995198700,8.80119873046875,-0.46420562267303467,-2.751544952392578,4.358628749847412
1779909916011535600,8.81753564453125,-0.8644554018974304,-2.6285791397094727,4.1861796379089355
1779909916027868000,8.833867919921875,-0.7586292624473572,-1.7277812957763672,3.0203359127044678
1779909916044197400,8.850197265625,-1.0832209587097168,-0.8805885314941406,0.1759554147720337
1779909916060546600,8.866546630859375,-1.6107561588287354,-2.761410713195801,-2.452864408493042
1779909916076861400,8.882861328125,0.037324875593185425,-5.407830238342285,-3.707443952560425
1779909916093210600,8.899210693359375,3.2164881229400635,-6.565793991088867,-4.111735820770264
1779909916109543200,8.915543212890626,4.22326135635376,-4.819585800170898,-3.7715225219726562
1779909916125879300,8.93187939453125,3.53250789642334,-2.922941207885742,-3.3449866771698
1779909916142178000,8.948177978515625,1.4967659711837769,-1.9897117614746094,-2.4276795387268066
1779909916158518000,8.96451806640625,-0.9020829200744629,-1.3610973358154297,-0.4846729636192322
1779909916174850800,8.980850830078126,-2.234299421310425,-0.4988584518432617,2.0564146041870117
1779909916191182800,8.997182861328126,0.0634002685546875,0.22458267211914062,3.978959321975708
1779909916207517200,9.01351708984375,2.9086990356445312,0.6646108627319336,3.511808395385742
1779909916223850500,9.0298505859375,2.2715346813201904,0.037735939025878906,3.0363335609436035
1779909916240183800,9.046183837890625,2.129347801208496,-0.0696706771850586,1.602440595626831
1779909916256515600,9.062515625,2.8683862686157227,1.427724838256836,0.7387406826019287
1779909916272849700,9.078849609375,3.6453120708465576,2.6880083084106445,0.18605366349220276
1779909916289182700,9.0951826171875,5.894321441650391,4.080609321594238,0.06514579057693481
1779909916305516500,9.1115166015625,6.683183670043945,5.697552680969238,-0.23645591735839844
1779909916321848300,9.127848388671875,5.776670455932617,6.241174221038818,-0.36311885714530945
1779909916338185200,9.144185302734375,5.257971286773682,5.8815507888793945,-0.49152565002441406
1779909916354527000,9.16052685546875,4.360614776611328,5.729202747344971,-1.1041159629821777
1779909916370859300,9.176859375,4.15297269821167,5.814483642578125,-1.3357014656066895
1779909916387191000,9.19319091796875,2.9703054428100586,5.561488628387451,-1.755780577659607
1779909916403527400,9.20952734375,0.3523538112640381,4.920632362365723,-1.725459337234497
1779909916419861200,9.225861328125,-2.1055691242218018,3.0447745323181152,-1.4042131900787354
1779909916436192300,9.242192138671875,-6.238870143890381,-1.781540870666504,-0.5187332034111023
1779909916452529400,9.258529296875,-8.959267616271973,-11.095757484436035,0.6208246946334839
1779909916468857000,9.274857177734376,-9.546871185302734,-19.326520919799805,0.388482004404068
1779909916485190700,9.291190673828124,-6.222388744354248,-7.6163787841796875,-0.8950034379959106
1779909916501525000,9.30752490234375,-6.050591468811035,1.8111915588378906,-1.0478930473327637
1779909916517860000,9.323860107421876,-3.7302746772766113,5.525812149047852,-2.61221981048584
1779909916534191400,9.34019140625,-1.2345290184020996,1.7546215057373047,-2.0494112968444824
1779909916550521300,9.356521240234375,-0.8732690811157227,-6.078238487243652,0.6439367532730103
1779909916566859300,9.372859375,6.027121543884277,-14.080403327941895,3.6290688514709473
1779909916583205000,9.389205078125,9.516420364379883,-11.736214637756348,2.4551098346710205
1779909916599519700,9.405519775390625,4.321234226226807,3.243704319000244,-2.3518168926239014
1779909916615869200,9.421869140625,1.750245213508606,9.736721992492676,-5.045742511749268
1779909916632186600,9.4381865234375,-2.376635789871216,8.750319480895996,-5.3025007247924805
1779909916648522500,9.4545224609375,4.455022811889648,7.1385908126831055,-2.6009466648101807
1779909916664856600,9.470856689453125,10.626045227050781,5.178577423095703,-0.20308487117290497
1779909916681185800,9.487185791015625,10.401070594787598,1.209275245666504,1.1843771934509277
1779909916697523700,9.503523681640624,7.07669734954834,-3.273509979248047,1.2154731750488281
1779909916713858000,9.519858154296875,3.073274612426758,-9.648134231567383,1.047196865081787
1779909916730187000,9.53618701171875,-6.143504619598389,-13.332769393920898,3.3417959213256836
1779909916746524200,9.552524169921876,-3.6278014183044434,-1.444993019104004,5.08740234375
1779909916762855200,9.568855224609376,2.4906418323516846,2.593620777130127,3.009159803390503
1779909916779198200,9.5851982421875,4.82880973815918,3.293671131134033,0.9620304107666016
1779909916795517000,9.601516845703125,2.416815996170044,3.454218864440918,-0.40356674790382385
1779909916811859200,9.617859130859374,0.7923460006713867,3.3374462127685547,-1.195559024810791
1779909916828186600,9.6341865234375,0.18019074201583862,1.6979598999023438,-1.5666229724884033
1779909916844519700,9.650519775390626,0.897354006767273,1.2761955261230469,-1.1477625370025635
1779909916860851500,9.6668515625,0.84119713306427,1.029555320739746,-0.05183523893356323
1779909916877185800,9.683185791015624,0.625525176525116,1.2428998947143555,0.5995953679084778
1779909916893504500,9.69950439453125,-1.9988130331039429,1.5819377899169922,0.4840719401836395
1779909916909842400,9.715842529296875,-4.7437005043029785,1.6985654830932617,-0.10354560613632202
1779909916926172200,9.732172119140625,-3.5931358337402344,1.452305793762207,-0.10292881727218628
1779909916942518500,9.7485185546875,-1.806878924369812,0.4045877456665039,1.922952651977539
1779909916958853400,9.764853271484375,-0.019104838371276855,-0.5343456268310547,3.837200403213501
1779909916975184000,9.781183837890625,-0.35425806045532227,-0.18509769439697266,4.395450592041016
1779909916991504000,9.79750390625,-3.11789608001709,-0.29781627655029297,3.8533618450164795
1779909917007853000,9.81385302734375,-3.222132682800293,-1.1904878616333008,2.7585315704345703
1779909917024183600,9.83018359375,-1.8981038331985474,-1.9470138549804688,2.8452372550964355
1779909917040515300,9.846515380859374,-1.3757461309432983,-1.249516487121582,4.422865867614746
1779909917056850200,9.86285009765625,-2.9551262855529785,-0.6130027770996094,5.943445205688477
1779909917073199900,9.879199951171875,-3.445870876312256,-1.3655977249145508,6.590230941772461
1779909917089502700,9.895502685546875,-2.251981258392334,-1.5799999237060547,5.639022350311279
1779909917105861000,9.911861083984375,-2.4964797496795654,-1.4581184387207031,4.624281883239746
1779909917122176300,9.92817626953125,-3.422748327255249,-2.438211441040039,3.6794626712799072
1779909917138517200,9.944517333984376,-2.151597499847412,-3.6748132705688477,3.3742599487304688
1779909917154847000,9.960846923828125,-1.3014626502990723,-3.973200798034668,4.045340538024902
1779909917171181600,9.977181640625,-1.1493237018585205,-3.527040481567383,3.6048083305358887
1779909917187510300,9.99351025390625,-0.8394325971603394,-2.7080650329589844,2.2199933528900146
1779909917203852800,10.009852783203126,-1.4565526247024536,-1.425724983215332,-0.5694659948348999
1779909917220176400,10.02617626953125,-1.7552319765090942,-2.698031425476074,-3.3949992656707764
1779909917236519400,10.04251953125,0.9754385352134705,-5.3908586502075195,-4.611058235168457
1779909917252847000,10.05884716796875,3.913611888885498,-6.245476722717285,-4.678344249725342
1779909917269191000,10.07519091796875,4.117178916931152,-4.452017784118652,-3.888777494430542
1779909917285527300,10.09152734375,2.90130877494812,-2.704936981201172,-2.87893009185791
1779909917301845800,10.107845703125,0.9870107769966125,-2.0407915115356445,-1.4298841953277588
1779909917318190000,10.124190185546874,-2.0235862731933594,-1.644662857055664,0.6761963367462158
1779909917334526200,10.140526123046875,-1.7231266498565674,-0.8117389678955078,3.419895648956299
1779909917350854700,10.156854736328125,1.0875494480133057,-0.14269351959228516,4.734769821166992
1779909917367194000,10.173194091796875,2.658452033996582,0.35720252990722656,3.21044659614563
1779909917383519700,10.189519775390625,2.1408352851867676,0.5321292877197266,1.5637874603271484
1779909917399860700,10.20586083984375,2.041349411010742,1.219968318939209,0.5248128175735474
1779909917416192000,10.22219189453125,3.0745925903320312,2.6068978309631348,-0.10183745622634888
1779909917432524300,10.238524169921876,4.594284534454346,3.645235538482666,-0.41302546858787537
1779909917448862700,10.25486279296875,5.9526824951171875,4.914325714111328,-0.41785940527915955
1779909917465166600,10.27116650390625,6.007879257202148,6.138828754425049,-0.471064031124115
1779909917481517800,10.287517822265626,5.150185585021973,6.27454948425293,-0.6134881973266602
1779909917497843500,10.303843505859374,4.579753398895264,5.813270568847656,-0.6161240339279175
1779909917514175700,10.32017578125,3.9473042488098145,5.535390853881836,-0.7932493686676025
1779909917530504700,10.336504638671874,3.6749632358551025,5.709275722503662,-0.8707489967346191
1779909917546842600,10.352842529296876,3.11618709564209,5.922350883483887,-1.108708381652832
1779909917563178200,10.36917822265625,1.4114201068878174,5.490788459777832,-1.4309287071228027
1779909917579508500,10.385508544921874,-1.0316550731658936,4.230770111083984,-1.433040976524353
1779909917595842000,10.401842041015625,-5.15989875793457,0.2998781204223633,-1.1817878484725952
1779909917612174300,10.41817431640625,-12.80577278137207,-10.364112854003906,0.30319684743881226
1779909917628507100,10.434507080078125,-11.453937530517578,-20.223697662353516,3.353606700897217
1779909917644840200,10.450840087890626,-3.5206756591796875,-12.755339622497559,1.2375333309173584
1779909917661173800,10.467173828125,-6.439453125,0.08913993835449219,-2.0892162322998047
1779909917677504800,10.4835048828125,-5.451104164123535,6.802070140838623,-4.027843475341797
1779909917693841200,10.499841064453125,-2.9887712001800537,4.269540786743164,-3.7653069496154785
1779909917710171400,10.51617138671875,-3.0497658252716064,-4.989973068237305,-2.6962313652038574
1779909917726506000,10.532506103515624,4.896327972412109,-14.485325813293457,1.733398675918579
1779909917742838500,10.548838623046874,12.439577102661133,-16.070415496826172,2.920952081680298
1779909917759172000,10.565172119140625,6.306309700012207,0.6194057464599609,-3.051469087600708
1779909917775505200,10.581505126953125,3.5367696285247803,8.135986328125,-4.285045623779297
1779909917791838000,10.597837890625,0.8104243278503418,8.365856170654297,-4.48270845413208
1779909917808157400,10.614157470703125,6.767629623413086,6.442320823669434,-2.352696180343628
1779909917824493300,10.630493408203124,10.464881896972656,3.845902442932129,-1.5696450471878052
1779909917840825600,10.64682568359375,8.61378288269043,1.024007797241211,-1.1358249187469482
1779909917857160200,10.66316015625,5.284701347351074,-1.9058475494384766,-0.9114741683006287
1779909917873492700,10.67949267578125,0.08001458644866943,-5.714653015136719,-0.6621330976486206
1779909917889824500,10.695824462890625,-5.304501056671143,-9.786617279052734,1.3907973766326904
1779909917906172000,10.712171875,0.22281408309936523,-2.677029609680176,6.553535461425781
1779909917922490000,10.728489990234374,4.19155740737915,1.3197145462036133,6.037106513977051
1779909917938835200,10.744835205078125,3.392354726791382,3.1039199829101562,3.6439695358276367
1779909917955168800,10.761168701171876,1.5551657676696777,3.636033058166504,1.58416748046875
1779909917971512300,10.77751220703125,0.811333954334259,3.3426971435546875,0.6617475152015686
1779909917987833900,10.793833740234374,1.6685142517089844,1.4406471252441406,-0.8877199292182922
1779909918004168400,10.81016845703125,0.9126695394515991,0.9272756576538086,-0.7298134565353394
1779909918020500000,10.8265,-2.9622018337249756,0.9323625564575195,-0.05265280604362488
1779909918036834600,10.84283447265625,-4.77040433883667,1.0102806091308594,0.2811726927757263
1779909918053177600,10.859177490234375,-4.598506450653076,0.7584505081176758,0.6657191514968872
1779909918069500400,10.87550048828125,-2.8775622844696045,0.19330120086669922,1.72782564163208
1779909918085826000,10.891825927734375,-0.29751116037368774,-0.06242179870605469,3.008096218109131
1779909918102166800,10.908166748046876,0.8470327854156494,0.1822805404663086,3.4669809341430664
1779909918118497000,10.9244970703125,-1.4370951652526855,-0.23662757873535156,3.1576757431030273
1779909918134835000,10.9408349609375,-4.1672163009643555,-0.27481842041015625,2.5269346237182617
1779909918151163600,10.95716357421875,-2.616039752960205,-0.4193096160888672,2.402073860168457
1779909918167499000,10.9734990234375,-0.854861319065094,-1.4153194427490234,3.245115280151367
1779909918183831300,10.989831298828125,-0.9918797612190247,-1.471766471862793,3.972492218017578
1779909918200164600,11.00616455078125,-1.9102317094802856,-0.4176368713378906,4.825469017028809
1779909918216498200,11.022498291015625,-2.9497179985046387,-0.5482397079467773,5.539692401885986
1779909918232830700,11.038830810546875,-3.0035083293914795,-1.541116714477539,5.407757759094238
1779909918249163500,11.05516357421875,-2.420316696166992,-1.4943294525146484,3.9484691619873047
1779909918265482200,11.071482177734374,-3.638749361038208,-1.863265037536621,3.6391191482543945
1779909918281829000,11.0878291015625,-3.9169869422912598,-2.628049850463867,4.211647033691406
1779909918298161000,11.104160888671874,-1.5195379257202148,-3.203939437866211,4.680837631225586
1779909918314500600,11.12050048828125,-0.6763480305671692,-3.4288864135742188,5.269010543823242
1779909918330830800,11.136830810546876,-1.0399863719940186,-3.230093002319336,4.933919906616211
1779909918347163400,11.153163330078126,-1.1663427352905273,-2.1515140533447266,3.012974500656128
1779909918363496400,11.169496337890624,-0.9038989543914795,-1.488856315612793,0.19577935338020325
1779909918379828700,11.185828857421875,-1.6925121545791626,-2.8191490173339844,-2.4907946586608887
1779909918396162300,11.202162353515625,-0.5338242053985596,-5.574573516845703,-4.32019567489624
1779909918412494300,11.218494384765625,2.5682308673858643,-7.384437561035156,-4.941122055053711
1779909918428827100,11.2348271484375,4.041008472442627,-5.846261978149414,-4.551415920257568
1779909918445148200,11.251148193359375,3.1092116832733154,-3.3219385147094727,-3.898796319961548
1779909918461481700,11.267481689453126,1.5906609296798706,-1.6957159042358398,-2.8469736576080322
1779909918477826800,11.283826904296875,-0.03323101997375488,-0.6427116394042969,-0.673839271068573
1779909918494161400,11.300161376953126,-1.9804892539978027,0.22163009643554688,1.9602816104888916
1779909918510492700,11.31649267578125,0.09037184715270996,0.5542011260986328,4.047592639923096
1779909918526825700,11.33282568359375,2.8650662899017334,0.6142435073852539,3.647770404815674
1779909918543159600,11.34915966796875,2.2040343284606934,0.15128231048583984,2.7380740642547607
1779909918559493400,11.365493408203125,1.9557780027389526,-0.1219329833984375,1.5765618085861206
1779909918575810600,11.381810546875,3.1204113960266113,1.6410841941833496,0.4495570659637451
1779909918592146200,11.398146240234375,4.104043006896973,3.378488063812256,-0.11835037916898727
1779909918608479200,11.414479248046876,5.6286420822143555,4.6477131843566895,-0.4009025990962982
1779909918624813300,11.430813232421874,6.097227096557617,5.590694904327393,-0.6789657473564148
1779909918641146000,11.44714599609375,5.352180004119873,5.731348037719727,-0.7678329944610596
1779909918657478700,11.463478759765625,5.151365280151367,5.596949577331543,-0.8572269082069397
1779909918673814000,11.47981396484375,4.400003910064697,5.820962905883789,-1.1116130352020264
1779909918690146800,11.496146728515624,4.299864292144775,6.482312202453613,-1.2496267557144165
1779909918706479600,11.512479736328125,3.593733072280884,6.805553436279297,-1.567409634590149
1779909918722825700,11.52882568359375,1.952967882156372,6.272375583648682,-1.411609172821045
1779909918739156500,11.545156494140626,-0.2600104808807373,5.09051513671875,-0.8962290287017822
1779909918755490300,11.561490234375,-5.576810836791992,0.040355682373046875,0.2545161247253418
1779909918771809800,11.577809814453126,-11.128971099853516,-12.934273719787598,2.1287269592285156
1779909918788156700,11.59415673828125,-13.97118854522705,-25.58356475830078,5.57200288772583
1779909918804488700,11.61048876953125,-3.969667434692383,-12.568868637084961,1.19868803024292
1779909918820821200,11.6268212890625,-7.580469131469727,2.1844253540039062,-1.9272481203079224
1779909918837142300,11.643142333984375,-4.615114688873291,9.550233840942383,-3.100407600402832
1779909918853487400,11.6594873046875,0.29615092277526855,9.27746295928955,-3.8530654907226562
1779909918869821200,11.6758212890625,-0.7341220378875732,2.143432140350342,-1.483530044555664
1779909918886153000,11.692153076171875,6.352239608764648,-4.596558570861816,1.6577666997909546
1779909918902487800,11.70848779296875,15.683839797973633,-14.150113105773926,0.511135458946228
1779909918918819600,11.724819580078124,1.2173421382904053,-15.188798904418945,-2.479116201400757
1779909918935153700,11.741153564453125,-4.323601722717285,-1.571187973022461,-1.3162444829940796
1779909918951477000,11.75747705078125,2.190060615539551,5.68953800201416,-2.588200092315674
1779909918967815400,11.7738154296875,2.0980641841888428,8.557289123535156,-3.3172640800476074
1779909918984156400,11.790156494140625,5.564473628997803,6.936951637268066,-2.371631145477295
1779909919000475600,11.8064755859375,9.162001609802246,5.234438419342041,-2.1022233963012695
1779909919016818000,11.82281787109375,8.015915870666504,2.3804931640625,-0.8292915225028992
1779909919033150200,11.839150146484375,6.213643550872803,-1.244725227355957,-0.6137353181838989
1779909919049488100,11.855488037109374,1.7986143827438354,-4.969607353210449,-0.8413751721382141
1779909919065808000,11.871807861328126,-3.7438530921936035,-11.630317687988281,-0.3094800114631653
1779909919082152400,11.88815234375,-2.274315357208252,-6.377701759338379,5.779503345489502
1779909919098481400,11.9044814453125,2.150662422180176,0.15595531463623047,6.249170780181885
1779909919114816500,11.92081640625,4.3270087242126465,3.0788979530334473,4.53428840637207
1779909919131149000,11.937149169921875,2.442211866378784,3.2452926635742188,2.1852612495422363
1779909919147483600,11.953483642578124,0.2458304464817047,3.743997097015381,1.1851868629455566
1779909919163811600,11.9698115234375,-0.4232497811317444,2.47841215133667,-0.00755484402179718
1779909919180139300,11.98613916015625,-0.18493643403053284,0.3869485855102539,-1.6989926099777222
1779909919196480000,12.00247998046875,-0.12096793949604034,0.7652301788330078,-1.580998182296753
1779909919212818000,12.01881787109375,-0.8606868386268616,1.1859722137451172,-0.0779450535774231
1779909919229149200,12.035149169921874,-1.3022664785385132,1.5212364196777344,0.8952066898345947
1779909919245482200,12.051482177734375,-3.3006701469421387,1.683730125427246,1.0476661920547485
1779909919261818000,12.067818115234376,-3.3109564781188965,0.9173059463500977,0.6408198475837708
1779909919278148400,12.0841484375,-1.7949950695037842,0.4419536590576172,0.7160698771476746
1779909919294477800,12.100477783203125,-0.8419639468193054,0.10723400115966797,1.8480452299118042
1779909919310817300,12.1168173828125,-1.0400432348251343,0.2406778335571289,3.1901845932006836
1779909919327148000,12.13314794921875,-1.6421864032745361,0.23372173309326172,3.8952603340148926
1779909919343479600,12.1494794921875,-2.0933642387390137,-1.112722396850586,3.711766242980957
1779909919359809500,12.1658095703125,-2.0387206077575684,-1.7837247848510742,3.3975143432617188
1779909919376135400,12.182135498046875,-1.944616675376892,-1.5297107696533203,4.305072784423828
1779909919392483300,12.1984833984375,-3.04913592338562,-2.169846534729004,5.41912317276001
1779909919408811800,12.214811767578125,-3.1422746181488037,-2.722872734069824,5.699176788330078
1779909919425146400,12.231146484375,-3.1125893592834473,-2.5164384841918945,5.359464645385742
1779909919441463600,12.247463623046874,-3.417097568511963,-2.1752548217773438,5.268990516662598
1779909919457813500,12.2638134765625,-2.781801223754883,-2.812295913696289,5.991633415222168
1779909919474145500,12.2801455078125,-1.335633635520935,-2.649092674255371,4.481632709503174
1779909919490476800,12.296476806640625,-1.0627645254135132,-3.5355005264282227,4.1776604652404785
1779909919506811000,12.312810791015625,-1.098705530166626,-2.714588165283203,3.5151796340942383
1779909919523129300,12.32912939453125,-1.1536173820495605,-1.7474470138549805,1.6833246946334839
1779909919539480300,12.345480224609375,-1.9446736574172974,-1.6006908416748047,-0.8226481080055237
1779909919555811600,12.3618115234375,-2.8735265731811523,-3.27590274810791,-3.35288143157959
1779909919572143900,12.378143798828125,0.029505357146263123,-5.86417293548584,-4.54927921295166
1779909919588477200,12.394477294921876,3.4605541229248047,-6.239502906799316,-4.573723316192627
1779909919604810500,12.410810546875,3.71773099899292,-4.12161922454834,-4.0251359939575195
1779909919621141500,12.4271416015625,2.731518268585205,-2.610536575317383,-3.469245195388794
1779909919637476000,12.44347607421875,0.569748044013977,-1.7860040664672852,-2.071868658065796
1779909919653809400,12.459809326171875,-1.3933453559875488,-1.3013782501220703,0.655268132686615
1779909919670160400,12.476160400390626,-0.851952075958252,-1.3251276016235352,3.1752045154571533
1779909919686460000,12.4924599609375,1.1316773891448975,-0.9975709915161133,4.237790107727051
1779909919702795500,12.50879541015625,3.3735527992248535,-0.8800907135009766,3.3520326614379883
1779909919719130000,12.525130126953124,2.6622984409332275,-1.2661457061767578,2.432669162750244
1779909919735462400,12.54146240234375,2.4214560985565186,-0.5781869888305664,1.3257490396499634
1779909919751795000,12.557794921875,3.1278958320617676,1.2070403099060059,0.44776350259780884
1779909919768129800,12.5741298828125,4.706906318664551,2.3949780464172363,-0.17327263951301575
1779909919784460500,12.59046044921875,5.945252418518066,3.9677629470825195,-0.6844202280044556
1779909919800794000,12.606794189453124,6.325094223022461,5.51396369934082,-1.1964428424835205
1779909919817127400,12.62312744140625,5.111516952514648,6.93507719039917,-1.5839828252792358
1779909919833461000,12.6394609375,4.621674537658691,6.5920820236206055,-1.4590809345245361
1779909919849793500,12.65579345703125,4.534695148468018,5.646240234375,-0.9802796840667725
1779909919866127000,12.672127197265626,3.966313600540161,4.994165420532227,-0.5059781074523926
1779909919882463000,12.688462890625,2.4506030082702637,4.400174140930176,-0.06812101602554321
1779909919898804200,12.70480419921875,-0.1522073745727539,3.1626224517822266,-0.04582655429840088
1779909919915138300,12.72113818359375,-4.748231410980225,0.770815372467041,-0.10882943868637085
1779909919931458600,12.73745849609375,-10.087554931640625,-3.14571475982666,0.9579162001609802
1779909919947806500,12.753806396484375,-9.490659713745117,-7.970044136047363,2.403590679168701
1779909919964137000,12.770136962890625,-6.6624627113342285,-7.408546447753906,2.1648895740509033
1779909919980469200,12.78646923828125,-3.8030056953430176,-3.0264978408813477,0.015664994716644287
1779909919996804600,12.8028046875,-2.051908016204834,-1.9241952896118164,-2.003772258758545
1779909920013137000,12.819136962890624,-0.8791790008544922,-7.117271423339844,-3.6681041717529297
1779909920029454000,12.8354541015625,1.1015186309814453,-13.03032112121582,-1.1605064868927002
1779909920045807600,12.8518076171875,3.344630718231201,-6.965146064758301,-3.8978147506713867
1779909920062124300,12.868124267578125,4.436502456665039,6.027866363525391,-5.249068260192871
1779909920078469000,12.88446923828125,3.5535857677459717,6.604251861572266,-5.065972328186035
1779909920094788400,12.900788330078125,0.5043694972991943,4.147525787353516,-5.375840663909912
1779909920111125500,12.91712548828125,7.029685974121094,2.923614025115967,-1.9538564682006836
1779909920127467800,12.9334677734375,9.83926773071289,3.346374034881592,1.0003286600112915
1779909920143803100,12.94980322265625,10.23291015625,1.6180200576782227,2.746462345123291
1779909920160122600,12.96612255859375,6.562124729156494,-1.6557741165161133,2.2283246517181396
1779909920176467500,12.982467529296875,-0.1826174259185791,-5.6309099197387695,2.3672609329223633
1779909920192800800,12.99880078125,-5.581110954284668,-5.870327949523926,3.3559751510620117
1779909920209136000,13.01513623046875,-2.4410860538482666,-2.1024160385131836,2.0700557231903076
1779909920225464300,13.03146435546875,1.214332103729248,1.0474472045898438,1.880698561668396
1779909920241789400,13.04778955078125,2.0237648487091064,3.329207420349121,2.317044973373413
1779909920258133500,13.064133544921875,2.4711859226226807,3.2481446266174316,2.8074615001678467
1779909920274466300,13.08046630859375,1.652956247329712,2.1763863563537598,2.538235664367676
1779909920290799900,13.0967998046875,0.45364895462989807,1.8670454025268555,2.0988452434539795
1779909920307147300,13.113147216796875,0.0642654299736023,1.1376514434814453,1.3804832696914673
1779909920323479300,13.129479248046875,0.027823716402053833,0.643010139465332,0.7032010555267334
1779909920339819500,13.145819580078125,0.38858774304389954,0.5732908248901367,0.3035608232021332
1779909920356138200,13.16213818359375,-0.1127903163433075,0.5739011764526367,0.2702076733112335
1779909920372485400,13.1784853515625,-0.64284348487854,0.7321739196777344,0.15015949308872223
1779909920388819200,13.194819091796875,-0.880447268486023,1.0041799545288086,-0.19336986541748047
1779909920405140500,13.211140380859375,-1.9697177410125732,1.451375961303711,-0.6821449995040894
1779909920421489200,13.2274892578125,-2.9201107025146484,0.8689794540405273,-0.8832864165306091
1779909920437810200,13.24381005859375,-3.1790854930877686,-0.19768810272216797,0.30379465222358704
1779909920454148400,13.2601484375,-1.7030210494995117,-0.885589599609375,2.4878060817718506
1779909920470472000,13.276471923828124,-0.14304780960083008,-0.5731430053710938,4.302717208862305
1779909920486803200,13.29280322265625,-1.4154613018035889,-0.5914468765258789,4.230155944824219
1779909920503128000,13.309128173828125,-2.1761605739593506,-0.8370656967163086,2.7825944423675537
1779909920519462400,13.32546240234375,-1.593932867050171,-0.8667287826538086,2.4909145832061768
1779909920535803000,13.341802978515625,-1.9819332361221313,-1.0449018478393555,3.7225594520568848
1779909920552128300,13.358128173828124,-1.9584434032440186,-1.7156858444213867,5.183513641357422
1779909920568461000,13.3744609375,-1.443685531616211,-2.4464111328125,6.082424163818359
1779909920584786200,13.3907861328125,-1.7074720859527588,-2.865654945373535,5.396867752075195
1779909920601126000,13.4071259765625,-2.134469509124756,-3.5169057846069336,4.139860153198242
1779909920617462000,13.4234619140625,-2.066758871078491,-3.905233383178711,3.0362443923950195
1779909920633781500,13.439781494140625,-1.6792205572128296,-5.889826774597168,2.784389019012451
1779909920650132500,13.456132568359376,-1.1663932800292969,-3.881903648376465,1.5701863765716553
1779909920666460000,13.4724599609375,-1.700173020362854,-1.5385808944702148,0.7199942469596863
1779909920682797800,13.4887978515625,-1.9154151678085327,0.1251230239868164,-0.19310688972473145
1779909920699129600,13.505129638671875,-2.670201063156128,0.005755424499511719,-1.9041088819503784
1779909920715455500,13.52145556640625,-1.1723623275756836,-2.088153839111328,-3.2131073474884033
1779909920731780600,13.537780517578126,2.3923497200012207,-4.591538429260254,-3.919597625732422
1779909920748125200,13.554125244140625,3.9075045585632324,-4.975560188293457,-3.7371983528137207
1779909920764458200,13.570458251953125,2.4597644805908203,-3.330303192138672,-2.9897682666778564
1779909920780792800,13.586792724609374,0.9223846197128296,-1.9303617477416992,-2.2973012924194336
1779909920797122000,13.6031220703125,-0.06521356105804443,-0.9225282669067383,-1.2488497495651245
1779909920813460200,13.619460205078125,-0.08560800552368164,-0.3518943786621094,-0.3728116750717163
1779909920829814000,13.63581396484375,1.1003599166870117,0.10564517974853516,0.5058746933937073
1779909920846141200,13.65214111328125,2.427978515625,0.19563579559326172,1.168068528175354
1779909920862471700,13.6684716796875,2.9074363708496094,0.35968589782714844,1.7191343307495117
1779909920878806800,13.684806884765624,3.1016805171966553,0.6090059280395508,1.818790078163147
1779909920895151400,13.7011513671875,2.338778495788574,1.520233154296875,1.4721451997756958
1779909920911485200,13.717485107421876,1.8581838607788086,2.742497444152832,1.3251290321350098
1779909920927798300,13.73379833984375,2.2832791805267334,3.850674629211426,1.335425615310669
1779909920944141800,13.750141845703125,4.052092552185059,4.988032341003418,0.9457651972770691
1779909920960452900,13.766452880859376,4.692582130432129,6.054695129394531,0.6922427415847778
1779909920976763100,13.78276318359375,4.974402904510498,6.024049758911133,0.6473284959793091
1779909920993110000,13.799110107421875,4.821248531341553,5.713106632232666,0.07616722583770752
1779909921009457200,13.81545703125,4.156322002410889,5.3902130126953125,-1.1286895275115967
1779909921025784800,13.831784912109375,2.6043574810028076,5.373741149902344,-1.8648028373718262
1779909921042126000,13.8481259765625,1.22456955909729,6.025547027587891,-1.6493642330169678
1779909921058451700,13.86445166015625,-0.990903377532959,5.619592666625977,-1.2102320194244385
1779909921074789000,13.8807890625,-4.771074295043945,3.1051182746887207,-0.642490029335022
1779909921091119400,13.897119384765626,-9.931939125061035,-3.0051651000976562,0.2457948923110962
1779909921107452700,13.91345263671875,-12.834603309631348,-13.241695404052734,3.108731269836426
1779909921123788300,13.929788330078125,-6.506176948547363,-15.787627220153809,2.8916995525360107
1779909921140122000,13.9461220703125,-2.9694361686706543,-5.0506181716918945,-0.6544603109359741
1779909921156451600,13.96245166015625,-4.865056991577148,2.6950221061706543,-1.824449062347412
1779909921172788000,13.9787880859375,-1.3258023262023926,5.875469207763672,-3.237839460372925
1779909921189117700,13.99511767578125,-1.6150777339935303,1.5836586952209473,-3.6119885444641113
1779909921205469700,14.0114697265625,0.1408705711364746,-2.8002405166625977,-1.5795599222183228
1779909921221796000,14.027796142578126,10.613626480102539,-8.765300750732422,0.8224460482597351
1779909921238101000,14.04410107421875,6.846818447113037,-11.794967651367188,-2.802281379699707
1779909921254447600,14.060447509765625,-3.698086738586426,-4.6629486083984375,-5.76017427444458
1779909921270787600,14.07678759765625,1.18305242061615,2.5831522941589355,-1.3331432342529297
1779909921287115800,14.09311572265625,2.789832830429077,4.58112096786499,-1.0901364088058472
1779909921303435300,14.109435302734376,4.946188926696777,5.1719160079956055,-0.6478624939918518
1779909921319771600,14.125771728515625,8.091931343078613,6.109977722167969,-0.2604721188545227
1779909921336103000,14.14210302734375,7.844208240509033,4.049907684326172,1.2257208824157715
1779909921352437000,14.15843701171875,6.6421217918396,0.874293327331543,1.3650888204574585
1779909921368770800,14.174770751953124,4.9616804122924805,-2.8596086502075195,0.8252203464508057
1779909921385102600,14.1911025390625,-3.080488681793213,-9.090388298034668,1.360025405883789
1779909921401435600,14.207435546875,-3.5716755390167236,-3.6270923614501953,4.867042541503906
1779909921417769500,14.22376953125,2.380337953567505,1.3391132354736328,4.639917373657227
1779909921434107000,14.24010693359375,4.584373950958252,2.842428207397461,2.2950539588928223
1779909921450445800,14.25644580078125,2.962958812713623,3.3965587615966797,0.5423075556755066
1779909921466781400,14.272781494140625,1.6612470149993896,2.386242389678955,-0.7590910196304321
1779909921483113500,14.289113525390626,0.2318652868270874,1.1577281951904297,-1.74745512008667
1779909921499448800,14.30544873046875,-0.9808295965194702,0.7566041946411133,-1.5504555702209473
1779909921515778300,14.3217783203125,-2.419849157333374,0.4332733154296875,-0.6429082751274109
1779909921532112600,14.338112548828125,-2.910423994064331,0.33098602294921875,0.6064077019691467
1779909921548446000,14.354446044921875,-2.912123918533325,0.36033058166503906,1.4755076169967651
1779909921564779800,14.37077978515625,-1.8533594608306885,0.15357112884521484,2.1466238498687744
1779909921581110300,14.3871103515625,-0.7649320363998413,0.1014699935913086,2.7198057174682617
1779909921597445400,14.4034453125,-0.41315168142318726,-0.025838851928710938,3.0027596950531006
1779909921613779200,14.419779296875,-2.204637050628662,-0.34146881103515625,2.9127376079559326
1779909921630116400,14.436116455078125,-4.19698429107666,-0.22931861877441406,2.3047595024108887
1779909921646444000,14.452444091796876,-3.1016898155212402,-0.16900253295898438,2.6172642707824707
1779909921662779400,14.468779296875,-1.2691923379898071,-1.043161392211914,4.211956024169922
1779909921679109600,14.485109619140625,-1.1191892623901367,-1.3277645111083984,4.773906707763672
1779909921695443200,14.501443115234375,-2.4327917098999023,-0.43773460388183594,5.1743245124816895
1779909921711763700,14.517763671875,-4.24229097366333,-0.21570491790771484,5.592067241668701
1779909921728093200,14.53409326171875,-3.659184455871582,-1.2964277267456055,5.148562431335449
1779909921744443000,14.55044287109375,-2.187584161758423,-2.4092044830322266,5.021344184875488
1779909921760775000,14.56677490234375,-2.21559739112854,-2.9376020431518555,5.383814334869385
1779909921777108700,14.583108642578125,-2.6038804054260254,-2.4271020889282227,5.125985145568848
1779909921793432800,14.599432861328125,-1.7898478507995605,-3.2437496185302734,4.4988274574279785
1779909921809788200,14.6157880859375,-0.8290956020355225,-3.595364570617676,4.25154447555542
1779909921826103600,14.632103515625,-0.6262602210044861,-2.755671501159668,2.904499053955078
1779909921842441500,14.64844140625,-1.3039672374725342,-2.8863649368286133,-0.24023574590682983
1779909921858775300,14.664775390625,-1.9696433544158936,-4.415572166442871,-2.8784146308898926
1779909921875106600,14.6811064453125,0.615750789642334,-6.1467695236206055,-4.093822956085205
1779909921891435300,14.697435302734375,3.2982897758483887,-5.631620407104492,-4.275085926055908
1779909921907772200,14.713772216796874,3.8244707584381104,-3.6787729263305664,-4.049770832061768
1779909921924108800,14.73010888671875,2.5416769981384277,-2.3238420486450195,-3.2973155975341797
1779909921940455000,14.746454833984375,0.7808244228363037,-1.8071966171264648,-1.6579318046569824
1779909921956769300,14.762769287109375,-0.04450559616088867,-1.2751092910766602,1.6967867612838745
1779909921973123300,14.779123291015624,0.4318838119506836,-1.0841093063354492,4.2153239250183105
1779909921989436200,14.795436279296876,2.0818490982055664,-0.4941854476928711,5.029927730560303
1779909922005770000,14.81177001953125,1.7876408100128174,-0.6005973815917969,3.7610459327697754
1779909922022103300,14.828103271484375,1.7346224784851074,-0.18875789642333984,1.911337971687317
1779909922038441000,14.84444091796875,1.3277027606964111,0.8179607391357422,0.8538181781768799
1779909922054758700,14.860758544921875,3.023775577545166,2.376742362976074,0.38900822401046753
1779909922071104000,14.87710400390625,5.299162864685059,4.095220565795898,0.3507999777793884
1779909922087421000,14.8934208984375,7.001228332519531,5.549170017242432,-0.050567030906677246
1779909922103760400,14.909760498046875,6.801409721374512,6.157876014709473,-0.2876153588294983
1779909922120093400,14.926093505859376,6.342627048492432,5.990297317504883,-0.1472395658493042
1779909922136424400,14.942424560546876,6.0116143226623535,5.7501068115234375,-0.823992133140564
1779909922152757800,14.9587578125,4.646060943603516,6.034455299377441,-1.5845699310302734
1779909922169091000,14.975091064453125,3.6897215843200684,6.365329742431641,-1.804398775100708
1779909922185423600,14.991423583984375,1.7791945934295654,5.733931064605713,-1.6249715089797974
1779909922201755600,15.007755615234375,-0.3063058853149414,4.490966320037842,-1.082229733467102
1779909922218090800,15.0240908203125,-3.9412386417388916,0.8482599258422852,-0.48763221502304077
1779909922234422000,15.040422119140626,-8.248392105102539,-7.518335342407227,-0.02607184648513794
1779909922250758700,15.056758544921875,-9.839825630187988,-20.199562072753906,1.0481582880020142
1779909922267098600,15.0730986328125,-8.244416236877441,-15.476761817932129,0.03618830442428589
1779909922283433000,15.089432861328126,-6.189074516296387,-1.707646369934082,0.5981723070144653
1779909922299767300,15.105767333984375,-5.468174457550049,5.1007537841796875,0.40134352445602417
1779909922316100000,15.12210009765625,-0.6340327262878418,8.617012023925781,0.2461184859275818
1779909922332430000,15.13843017578125,0.18844318389892578,3.1168336868286133,1.186202883720398
1779909922348768500,15.1547685546875,3.0123209953308105,-2.6734437942504883,2.1517648696899414
1779909922365117000,15.171116943359374,13.82813549041748,-11.399846076965332,1.3915035724639893
1779909922381426400,15.187426513671875,5.530337333679199,-15.230454444885254,-2.712897777557373
1779909922397775600,15.203775634765625,-5.151776313781738,-3.67617130279541,-5.160777568817139
1779909922414099200,15.22009912109375,-1.0388543605804443,3.2058072090148926,-3.7000415325164795
1779909922430430200,15.23643017578125,1.8189845085144043,5.972666263580322,-2.419494867324829
1779909922446764800,15.252764892578124,7.359017372131348,6.193982124328613,-1.261364221572876
1779909922463097600,15.26909765625,11.369467735290527,6.362545490264893,-0.3672284483909607
1779909922479431000,15.285430908203125,8.867518424987793,2.9715938568115234,0.09725183248519897
1779909922495764500,15.301764404296875,6.502382278442383,-0.4594583511352539,-0.3719980716705322
1779909922512097000,15.318096923828126,1.387163519859314,-5.542668342590332,-2.2414238452911377
1779909922528442400,15.3344423828125,-9.49832534790039,-9.151598930358887,-0.04142838716506958
1779909922544763600,15.350763671875,0.26156699657440186,-1.3304023742675781,4.46353816986084
1779909922561094400,15.367094482421875,6.083683490753174,1.565159797668457,5.499361038208008
1779909922577430300,15.38343017578125,4.908322811126709,2.4024391174316406,4.7151947021484375
1779909922593762000,15.399761962890626,1.5172948837280273,3.3703341484069824,2.434617519378662
1779909922610109200,15.416109130859375,-1.6444180011749268,2.4878554344177246,0.12373174726963043
1779909922626427400,15.432427490234375,-1.3944891691207886,1.0625839233398438,-1.7592039108276367
1779909922642762500,15.448762451171875,-0.6995989680290222,1.0041475296020508,-1.8450987339019775
1779909922659094000,15.465093994140625,-1.5012212991714478,1.0062322616577148,-0.44820448756217957
1779909922675427800,15.481427734375,-1.5698256492614746,0.8940324783325195,0.6101346611976624
1779909922691747800,15.497747802734375,-2.304238796234131,0.8181362152099609,1.2123868465423584
1779909922708123400,15.514123291015625,-1.6594200134277344,0.7531805038452148,1.438795566558838
1779909922724423400,15.53042333984375,-1.4536690711975098,0.5499382019042969,1.756091594696045
1779909922740772600,15.546772705078125,-1.5217950344085693,0.0489654541015625,2.2296032905578613
1779909922757095700,15.563095703125,-2.1883530616760254,0.0650634765625,2.590023994445801
1779909922773439000,15.57943896484375,-2.886796712875366,0.08301258087158203,2.9430270195007324
1779909922789784000,15.5957841796875,-2.2675552368164062,-0.7131729125976562,3.636234760284424
1779909922806089000,15.6120888671875,-1.866363763809204,-1.6728248596191406,3.910482406616211
1779909922822422500,15.628422607421875,-1.9269359111785889,-1.125931739807129,4.1007890701293945
1779909922838761500,15.644761474609375,-3.0309300422668457,-0.9020261764526367,4.826285362243652
1779909922855069700,15.661069580078125,-3.1868367195129395,-2.010586738586426,4.966350078582764
1779909922871430000,15.677429931640624,-1.6154487133026123,-2.7538557052612305,4.95156717300415
1779909922887741200,15.6937412109375,-1.706117033958435,-3.5131072998046875,5.090945720672607
1779909922904090000,15.710090087890626,-2.038008689880371,-3.6907196044921875,4.63820219039917
1779909922920423200,15.726423095703124,-2.2558541297912598,-3.701380729675293,4.018560409545898
1779909922936759000,15.742759033203125,-1.017933964729309,-4.974705696105957,3.7177624702453613
1779909922953074700,15.75907470703125,-0.3870164155960083,-3.2390575408935547,2.7908687591552734
1779909922969425200,15.775425048828126,-0.7074563503265381,-1.3698511123657227,1.2679204940795898
1779909922985755600,15.791755615234376,-1.9052002429962158,0.548619270324707,-1.451977014541626
1779909923002089500,15.80808935546875,-2.395761728286743,-0.44086742401123047,-3.522859811782837
1779909923018422000,15.824422119140625,0.08880914747714996,-2.8046188354492188,-4.664527416229248
1779909923034750700,15.840750732421874,3.331073760986328,-5.04469108581543,-4.782026767730713
1779909923051071700,15.85707177734375,4.182442665100098,-4.466460227966309,-4.226727485656738
1779909923067423700,15.873423828125,2.6853857040405273,-2.8280372619628906,-3.07808256149292
1779909923083738000,15.889738037109375,1.5424013137817383,-1.864532470703125,-1.018894910812378
1779909923100093200,15.90609326171875,1.1301188468933105,-1.8904457092285156,1.1975407600402832
1779909923116419800,15.922419921875,-1.6606340408325195,-1.3902015686035156,3.08184552192688
1779909923132753400,15.93875341796875,0.9207816123962402,-0.8969593048095703,3.300346612930298
1779909923149085700,15.955085693359376,2.4106807708740234,0.008835792541503906,2.454871892929077
1779909923165423600,15.971423583984375,1.8704825639724731,-0.006481170654296875,1.9153125286102295
1779909923181762800,15.9877626953125,1.711531400680542,0.7616653442382812,1.4092329740524292
1779909923198080000,16.004080078125,2.2871317863464355,1.4544529914855957,0.7859345078468323
1779909923214419200,16.020419189453126,3.387004852294922,2.746716022491455,0.16483964025974274
1779909923230739000,16.036739013671873,4.629636287689209,4.306539058685303,-0.3520025610923767
1779909923247072500,16.053072509765624,4.833775997161865,5.453596115112305,-0.5119858980178833
1779909923263406800,16.06940673828125,4.6542463302612305,5.794530391693115,-0.3236474096775055
1779909923279741000,16.085740966796877,4.591662406921387,5.556585311889648,-0.21201661229133606
1779909923296071700,16.10207177734375,3.9411699771881104,5.361621856689453,-0.3704976439476013
1779909923312404500,16.118404541015625,3.5286784172058105,5.321389198303223,-0.45568418502807617
1779909923328738300,16.13473828125,2.459345817565918,5.611423969268799,-0.5551369190216064
1779909923345071600,16.151071533203126,0.8419466018676758,5.585629463195801,-0.45650649070739746
1779909923361398500,16.1673984375,-1.5404753684997559,4.974335670471191,-0.16025859117507935
1779909923377736700,16.18373681640625,-5.1294965744018555,2.381470203399658,0.11309194564819336
1779909923394069800,16.20006982421875,-9.80179500579834,-3.5174341201782227,1.061622142791748
1779909923410404000,16.216404052734376,-7.589211463928223,-11.969977378845215,2.60052490234375
1779909923426736600,16.232736572265626,-3.722275972366333,-14.9446382522583,0.8361242413520813
1779909923443068700,16.249068603515624,-4.436002731323242,-4.879523277282715,-1.2779425382614136
1779909923459402800,16.26540283203125,-4.894283294677734,3.057068347930908,-0.9181346893310547
1779909923475736800,16.28173681640625,-1.535400390625,6.569513320922852,-1.1134324073791504
1779909923492068000,16.298068115234376,-1.5073964595794678,2.4381332397460938,-2.821939706802368
1779909923508400600,16.314400634765626,-1.9511439800262451,-2.8671646118164062,-0.6763225197792053
1779909923524737000,16.330737060546873,4.945455551147461,-9.998066902160645,0.05141693353652954
1779909923541078800,16.347078857421874,7.056239604949951,-15.72348403930664,0.691162645816803
1779909923557410600,16.36341064453125,-0.8059067726135254,-6.010733604431152,-3.0678815841674805
1779909923573747700,16.379747802734375,1.6155065298080444,3.8566203117370605,-2.527426242828369
1779909923590072300,16.396072265625,1.1259369850158691,7.041253089904785,-3.344898223876953
1779909923606411800,16.412411865234375,3.624910354614258,7.490833282470703,-2.8000237941741943
1779909923622754000,16.428754150390624,9.288607597351074,6.4142045974731445,-1.4063977003097534
1779909923639076000,16.445076171875,9.558918952941895,4.781127452850342,-0.15653087198734283
1779909923655414000,16.4614140625,7.271217346191406,1.0005521774291992,0.13338890671730042
1779909923671735000,16.477735107421875,5.239187240600586,-2.8161535263061523,0.03328260779380798
1779909923688081400,16.494081298828124,-2.639583110809326,-10.889140129089355,-0.3888874650001526
1779909923704422400,16.51042236328125,-5.227301597595215,-6.811435699462891,4.28422737121582
1779909923720749800,16.526749755859374,1.0230324268341064,0.6732368469238281,5.386615753173828
1779909923737096400,16.543096435546875,3.578230142593384,2.4094719886779785,3.5328681468963623
1779909923753395500,16.5593955078125,1.9686784744262695,2.673593521118164,1.3092074394226074
1779909923769755600,16.575755615234375,-0.05422186851501465,2.9789838790893555,-0.25608256459236145
1779909923786059800,16.592059814453126,0.10780023038387299,1.752793312072754,-1.2986137866973877
1779909923802409500,16.608409423828125,1.0492100715637207,1.528879165649414,-1.2053511142730713
1779909923818750200,16.624750244140625,0.017808645963668823,1.1138935089111328,-0.09565654397010803
1779909923835075000,16.641074951171873,-1.193333387374878,0.9487972259521484,0.8268464803695679
1779909923851408100,16.657408203125,-3.206223487854004,0.941436767578125,0.8942822217941284
1779909923867738400,16.67373828125,-3.872830867767334,0.6065359115600586,0.8076750040054321
1779909923884085200,16.690085205078127,-2.425795555114746,0.4274311065673828,1.378694772720337
1779909923900401400,16.7064013671875,-1.139449954032898,0.11676311492919922,2.3485360145568848
1779909923916756500,16.722756591796873,-0.5681933164596558,0.06890010833740234,3.1550092697143555
1779909923933083600,16.739083740234374,-1.2986788749694824,0.0970449447631836,3.8059475421905518
1779909923949420300,16.755420166015625,-3.8647663593292236,0.0740060806274414,4.027787208557129
1779909923965753900,16.77175390625,-3.7352442741394043,-0.7429676055908203,3.471877098083496
1779909923982069500,16.788069580078126,-1.3163715600967407,-1.5725221633911133,3.130373477935791
1779909923998405600,16.804405517578125,-0.8154851794242859,-0.9107656478881836,3.083346366882324
1779909924014741800,16.82074169921875,-3.275390625,-0.5306882858276367,3.7754416465759277
1779909924031071000,16.837071044921874,-4.5883259773254395,-1.3999338150024414,4.187386989593506
1779909924047401500,16.8534013671875,-2.577214479446411,-1.7661199569702148,3.3049445152282715
1779909924063740700,16.86974072265625,-2.733417510986328,-2.635542869567871,3.5497989654541016
1779909924080071700,16.88607177734375,-3.707397699356079,-3.9768238067626953,4.006061553955078
1779909924096406500,16.902406494140624,-2.3471808433532715,-3.145275115966797,2.9241933822631836
1779909924112739300,16.9187392578125,-2.006904363632202,-2.6641950607299805,3.628491163253784
1779909924129070800,16.93507080078125,-1.4639697074890137,-2.102023124694824,3.91479754447937
1779909924145404000,16.95140380859375,-1.214881181716919,-1.7917518615722656,2.999454975128174
1779909924161734400,16.967734375,-1.637587070465088,-1.2849006652832031,0.6560019254684448
1779909924178067500,16.9840673828125,-1.9739996194839478,-2.396693229675293,-2.330231189727783
1779909924194403800,17.00040380859375,0.8817710876464844,-5.775052070617676,-3.6188101768493652
1779909924210734300,17.016734375,3.6601991653442383,-6.589740753173828,-3.9399044513702393
1779909924227068700,17.033068603515623,3.331956148147583,-4.816329002380371,-3.7159085273742676
1779909924243403500,17.049403564453126,2.3290131092071533,-2.438640594482422,-2.8483428955078125
1779909924259736600,17.065736572265624,1.218919038772583,-1.6715068817138672,-0.8546636700630188
1779909924276070100,17.082070068359375,-0.3743758201599121,-1.8971443176269531,1.799346923828125
1779909924292414700,17.098414794921876,0.12577533721923828,-1.213104248046875,3.567601442337036
1779909924308730400,17.11473046875,1.1901094913482666,0.16085052490234375,3.997814655303955
1779909924325067300,17.1310673828125,0.9389936923980713,0.7904605865478516,3.296825647354126
1779909924341400000,17.147400146484376,1.0321869850158691,1.2452692985534668,1.9537431001663208
1779909924357734700,17.163734619140627,1.3011260032653809,1.4538655281066895,0.7621064186096191
1779909924374064600,17.180064697265625,3.470909595489502,2.8725366592407227,-0.0609712079167366
1779909924390397700,17.196397705078127,5.802830219268799,4.352663516998291,-0.15483053028583527
1779909924406732500,17.212732666015626,6.273501396179199,5.202671051025391,0.19008363783359528
1779909924423064000,17.22906396484375,6.981992244720459,5.275123596191406,0.2510092854499817
1779909924439399400,17.2453994140625,5.668024063110352,5.268237590789795,-0.14497819542884827
1779909924455731700,17.261731689453125,4.997162342071533,5.2988176345825195,-0.7040740251541138
1779909924472064000,17.27806396484375,3.9102931022644043,5.673040390014648,-0.9533785581588745
1779909924488394000,17.29439404296875,3.287644863128662,5.840188980102539,-1.1459319591522217
1779909924504733400,17.3107333984375,1.515739917755127,5.191550254821777,-1.2718050479888916
1779909924521062700,17.327062744140626,-1.3454267978668213,4.191631317138672,-1.085810661315918
1779909924537399600,17.343399658203126,-5.1317291259765625,0.6432094573974609,-0.8512039184570312
1779909924553719300,17.35971923828125,-9.83133316040039,-7.894423484802246,0.35924726724624634
1779909924570066400,17.37606640625,-9.70433235168457,-19.256210327148438,1.8539944887161255
1779909924586395400,17.3923955078125,-5.551997184753418,-13.613730430603027,-0.9478387832641602
1779909924602729000,17.40872900390625,-6.241547584533691,-0.897273063659668,-2.0963850021362305
1779909924619062000,17.42506201171875,-4.602768898010254,4.87456750869751,-2.5172271728515625
1779909924635393800,17.441393798828123,0.04353046417236328,4.88740348815918,-2.4344429969787598
1779909924651715000,17.457715087890627,-0.21713900566101074,-0.03075122833251953,-0.7820256352424622
1779909924668064000,17.47406396484375,4.080088138580322,-7.5399885177612305,-0.07656091451644897
1779909924684405800,17.49040576171875,9.020866394042969,-12.887996673583984,0.8778538703918457
1779909924700724200,17.50672412109375,0.7785670757293701,-3.559795379638672,-2.643077850341797
1779909924717074200,17.52307421875,2.0068821907043457,4.3092875480651855,-1.8802412748336792
1779909924733404700,17.53940478515625,2.1766977310180664,7.182750701904297,-2.3947179317474365
1779909924749742300,17.555742431640624,4.039186000823975,7.002880096435547,-0.7901968955993652
1779909924766041000,17.572041015625,8.693181037902832,5.782835960388184,0.3911411762237549
1779909924782395400,17.5883955078125,8.685625076293945,3.215333938598633,0.034560803323984146
1779909924798712600,17.604712646484376,7.370849609375,-0.895289421081543,-0.6601588726043701
1779909924815042800,17.621042724609374,3.6650338172912598,-4.241718292236328,-0.908454418182373
1779909924831379000,17.63737890625,-10.239789962768555,-11.135848999023438,-1.8787446022033691
1779909924847713500,17.653713623046876,-4.036303520202637,-3.680111885070801,4.313074588775635
1779909924864052500,17.670052490234376,3.861210584640503,1.284623146057129,5.163835525512695
1779909924880379000,17.68637890625,5.314200401306152,2.4464259147644043,4.0264482498168945
1779909924896710400,17.70271044921875,2.9189205169677734,2.7025842666625977,2.316986560821533
1779909924913045000,17.719044921875,0.9113205671310425,2.70192289352417,1.2816553115844727
1779909924929394000,17.735393798828124,-1.0823770761489868,1.7465934753417969,-0.20048211514949799
1779909924945721000,17.75172119140625,-0.2692171633243561,1.2603225708007812,-1.0099382400512695
1779909924962061000,17.76806103515625,-1.6687548160552979,1.3591394424438477,-0.7395739555358887
1779909924978389500,17.784389404296874,-2.303861618041992,1.2890100479125977,-0.31305545568466187
1779909924994720300,17.80072021484375,-2.465602159500122,1.2530364990234375,-0.1648564338684082
1779909925011057000,17.817056884765623,-2.2005393505096436,1.0911493301391602,0.5734337568283081
1779909925027386600,17.83338671875,-1.1387537717819214,0.5932369232177734,1.328049898147583
1779909925043723800,17.849723876953124,-0.9530627727508545,0.380828857421875,1.811194658279419
1779909925060054500,17.866054443359374,-1.465819239616394,-0.18134784698486328,1.9076743125915527
1779909925076389000,17.88238916015625,-2.4328062534332275,-0.04764556884765625,1.6084060668945312
1779909925092721700,17.8987216796875,-2.308337450027466,0.0042514801025390625,1.8858542442321777
1779909925109053400,17.915053466796873,-1.7146522998809814,-0.9324359893798828,3.02980899810791
1779909925125387300,17.93138720703125,-1.2560646533966064,-1.1373977661132812,3.857665538787842
1779909925141711400,17.94771142578125,-1.6586973667144775,-0.29347896575927734,5.052431106567383
1779909925158048000,17.964048095703124,-3.5150694847106934,-0.5386219024658203,5.665063858032227
1779909925174388700,17.980388671875,-3.0977015495300293,-1.4629478454589844,4.625046730041504
1779909925190715400,17.99671533203125,-2.6124956607818604,-2.235161781311035,4.164471626281738
1779909925207054300,18.013054443359376,-3.2134718894958496,-3.2556676864624023,4.63822078704834
1779909925223389400,18.029389404296875,-2.9769225120544434,-3.792778968811035,4.533312797546387
1779909925239719000,18.045718994140625,-1.846084713935852,-3.238184928894043,4.601460933685303
1779909925256054500,18.062054443359376,-2.3125545978546143,-3.141956329345703,4.823619842529297
1779909925272398000,18.078398193359376,-1.4508304595947266,-1.536764144897461,3.465975522994995
1779909925288732200,18.094732177734375,-1.5945872068405151,-0.20001697540283203,1.3930028676986694
1779909925305064200,18.111064208984374,-2.5767040252685547,0.1488513946533203,-1.2041819095611572
1779909925321381000,18.127381103515624,-2.405395746231079,-2.8859434127807617,-3.4849395751953125
1779909925337713700,18.143713623046875,0.860917329788208,-6.165872573852539,-4.303023815155029
1779909925354052600,18.160052490234374,3.641049385070801,-8.039525032043457,-4.271373748779297
1779909925370376200,18.176376220703126,3.733882188796997,-6.149004936218262,-3.440589666366577
1779909925386716000,18.1927158203125,3.1652603149414062,-3.933722496032715,-2.5450632572174072
1779909925403049200,18.20904931640625,0.31502294540405273,-3.159687042236328,-1.1032843589782715
1779909925419381800,18.2253818359375,-2.053788661956787,-2.1938772201538086,1.1347832679748535
1779909925435702000,18.241701904296875,-1.5996825695037842,-0.7620449066162109,3.435847759246826
1779909925452048100,18.258048095703124,1.3501859903335571,0.4877462387084961,4.420430660247803
1779909925468380700,18.274380615234374,1.3472142219543457,0.5000953674316406,3.8966004848480225
1779909925484701700,18.29070166015625,1.1305603981018066,0.22328472137451172,2.3231124877929688
1779909925501045200,18.307045166015627,2.2353641986846924,0.025728225708007812,0.8231357932090759
1779909925517375500,18.32337548828125,4.074854373931885,1.5368428230285645,-0.30776071548461914
1779909925533704400,18.339704345703126,5.39174747467041,3.5167436599731445,-1.0556259155273438
1779909925550045400,18.35604541015625,6.946523666381836,5.067313194274902,-1.30234956741333
1779909925566378800,18.372378662109377,6.583301544189453,6.261903762817383,-1.2871172428131104
1779909925582714000,18.388714111328124,5.3430633544921875,6.714294910430908,-1.2187955379486084
1779909925599040800,18.405040771484376,4.605220794677734,6.850523948669434,-1.1650818586349487
1779909925615369200,18.421369140625,4.165469646453857,6.74329948425293,-1.1038744449615479
1779909925631698200,18.4376982421875,3.693244218826294,6.4628753662109375,-1.0573272705078125
1779909925648032800,18.45403271484375,2.3206286430358887,5.7671685218811035,-0.9910315275192261
1779909925664366600,18.47036669921875,-0.10249567031860352,4.835000991821289,-0.7174167633056641
1779909925680698000,18.486697998046875,-3.67075514793396,2.5699243545532227,-0.010544538497924805
1779909925697030700,18.50303076171875,-5.691813945770264,-2.4531631469726562,1.4461495876312256
1779909925713364500,18.519364501953124,-7.962342262268066,-11.466594696044922,2.7913572788238525
1779909925729702000,18.535701904296875,-11.164406776428223,-19.280845642089844,2.0763227939605713
1779909925746029000,18.552029052734376,-6.565042495727539,-7.4928741455078125,-1.7076342105865479
1779909925762379000,18.56837890625,-5.534902095794678,2.132080078125,-2.445281982421875
1779909925778710300,18.584710205078125,-1.452805519104004,5.699619293212891,-4.615166187286377
1779909925795041000,18.601041015625,0.5122227668762207,1.9416346549987793,-3.236729860305786
1779909925811375400,18.617375244140625,0.8646509647369385,-4.150718688964844,-2.6534945964813232
1779909925827705300,18.633705322265627,5.382486343383789,-9.630971908569336,-0.11593365669250488
1779909925844044500,18.65004443359375,2.742440700531006,-11.414857864379883,-0.7029710412025452
1779909925860362500,18.666362548828126,2.3643429279327393,0.9565792083740234,-1.7083889245986938
1779909925876720600,18.682720703125,3.283475160598755,4.377106189727783,-1.7888284921646118
1779909925893050600,18.699050537109375,3.1394801139831543,5.320055961608887,-1.8570886850357056
1779909925909392000,18.715391845703124,5.411599636077881,5.209641456604004,-0.45034509897232056
1779909925925721300,18.731721435546874,8.316878318786621,4.300369739532471,0.5394819974899292
1779909925942035000,18.748034912109375,8.79284381866455,2.1534719467163086,0.5648714303970337
1779909925958371000,18.76437109375,6.946202278137207,-1.513925552368164,0.11789506673812866
1779909925974718200,18.78071826171875,3.0733516216278076,-5.189432144165039,0.03234219551086426
1779909925991035600,18.79703564453125,-7.187841892242432,-9.603241920471191,-0.6253957748413086
1779909926007372000,18.8133720703125,-2.386697769165039,-2.5796194076538086,3.6218066215515137
1779909926023696400,18.8296962890625,3.2902824878692627,1.6430835723876953,3.3168487548828125
1779909926040038000,18.846037841796875,3.914755344390869,2.601590156555176,1.7984542846679688
1779909926056370700,18.86237060546875,2.0409512519836426,2.9942727088928223,0.3873741328716278
1779909926072705000,18.878705078125,1.1762588024139404,3.0682783126831055,-0.5165082216262817
1779909926089036300,18.895036376953126,0.960001528263092,1.3335456848144531,-1.3200246095657349
1779909926105370600,18.91137060546875,0.4830425977706909,1.164790153503418,-1.2813745737075806
1779909926121683200,18.92768310546875,-1.3926347494125366,1.2260761260986328,-0.33493033051490784
1779909926138032000,18.9440322265625,-1.9038259983062744,1.335418701171875,0.9218753576278687
1779909926154372600,18.96037255859375,-2.3916780948638916,1.2551193237304688,1.800784707069397
1779909926170702000,18.9767021484375,-2.6304938793182373,1.22064208984375,2.314846992492676
1779909926187033900,18.993033935546876,-2.189906120300293,0.8248109817504883,2.366626501083374
1779909926203368400,19.009368408203127,-1.5194008350372314,0.18680191040039062,2.524726152420044
1779909926219701800,19.02570166015625,-0.9715204238891602,-0.2682161331176758,2.8049354553222656
1779909926236035000,19.04203515625,-2.07234263420105,-0.4831247329711914,3.1432952880859375
1779909926252362800,19.05836279296875,-2.7562410831451416,-0.10264873504638672,3.368518114089966
1779909926268704000,19.0747041015625,-2.426779270172119,-0.47586631774902344,3.481480598449707
1779909926285033500,19.091033447265627,-2.2549805641174316,-1.1212730407714844,3.6326851844787598
1779909926301367000,19.107366943359374,-1.8463834524154663,-0.8428487777709961,4.4532575607299805
1779909926317696000,19.123696044921875,-2.126732349395752,-0.6195154190063477,5.781095504760742
1779909926334036000,19.140035888671875,-3.3087844848632812,-1.4003686904907227,5.898215293884277
1779909926350362400,19.1563623046875,-2.4204487800598145,-1.8162641525268555,4.135798454284668
1779909926366701300,19.172701416015624,-3.01753830909729,-2.636897087097168,4.062882423400879
1779909926383018500,19.1890185546875,-2.5679314136505127,-3.379246711730957,3.959819793701172
1779909926399363000,19.205363037109375,-1.2438288927078247,-3.425734519958496,3.8070688247680664
1779909926415698400,19.221698486328126,-1.2019615173339844,-3.954763412475586,4.397672653198242
1779909926432018000,19.238017822265626,-1.4482598304748535,-3.921292304992676,4.189332962036133
1779909926448364000,19.254364013671875,-0.8149851560592651,-1.9541044235229492,2.1960737705230713
1779909926464697600,19.270697509765625,-1.7003929615020752,-0.33139610290527344,0.1168806254863739
1779909926481028900,19.28702880859375,-3.2641613483428955,-0.007277488708496094,-2.5766847133636475
1779909926497347000,19.30334716796875,-2.380962371826172,-2.6888179779052734,-4.532557487487793
1779909926513686300,19.319686279296874,1.1439186334609985,-6.181026458740234,-5.1328654289245605
1779909926530030600,19.336030517578124,3.8601527214050293,-7.355416297912598,-4.7800211906433105
1779909926546361900,19.35236181640625,3.5498456954956055,-5.165792465209961,-3.5846269130706787
1779909926562691600,19.368691650390623,2.473018169403076,-3.1975793838500977,-1.9790775775909424
1779909926579018500,19.3850185546875,0.23381543159484863,-2.352262496948242,0.28081947565078735
1779909926595369200,19.401369140625,-0.9120745658874512,-1.1932973861694336,2.9527857303619385
1779909926611687700,19.417687744140625,-0.8350026607513428,-0.7368106842041016,5.361278057098389
1779909926628023600,19.4340234375,2.376072645187378,0.10604095458984375,4.4291276931762695
1779909926644379600,19.450379638671876,2.08204984664917,1.2375712394714355,2.315516948699951
1779909926660692500,19.4666923828125,1.7826695442199707,1.1413626670837402,1.080405831336975
1779909926677039900,19.483039794921876,2.8552894592285156,1.420337200164795,-0.030391275882720947
1779909926693387300,19.49938720703125,3.9607207775115967,2.5996031761169434,-0.5864328145980835
1779909926709706200,19.515706298828125,4.5637946128845215,4.092474460601807,-0.6997172832489014
1779909926726018800,19.532018798828126,6.416289329528809,5.573284149169922,-0.6038962602615356
1779909926742359000,19.548359130859374,5.988919258117676,6.312382698059082,-0.46203023195266724
1779909926758679000,19.564678955078126,5.504290580749512,6.292538642883301,-0.2801196873188019
1779909926775012600,19.5810126953125,4.795170783996582,6.103815078735352,-0.354675829410553
1779909926791346200,19.59734619140625,4.1234450340271,6.300644874572754,-0.5470091104507446
1779909926807679200,19.61367919921875,2.9700839519500732,6.500223159790039,-0.7183759212493896
1779909926824012300,19.63001220703125,1.4000396728515625,5.878971099853516,-0.7353585362434387
1779909926840344800,19.6463447265625,-1.1562671661376953,4.726430416107178,-0.39429670572280884
1779909926856677600,19.662677734375,-5.446434020996094,1.049544334411621,-0.03749585151672363
1779909926873012000,19.679011962890623,-10.968406677246094,-7.9051971435546875,1.6998302936553955
1779909926889344300,19.69534423828125,-9.42144775390625,-20.687267303466797,3.847771167755127
1779909926905678000,19.711677978515624,-5.117676734924316,-14.686436653137207,-0.03431367874145508
1779909926922009600,19.728009521484374,-6.194195747375488,-0.740971565246582,-1.7717875242233276
1779909926938346200,19.74434619140625,-5.150047302246094,6.3162689208984375,-1.9721903800964355
1779909926954685200,19.760685302734377,0.12225198745727539,8.696060180664062,-2.576171398162842
1779909926971023000,19.777023193359376,-1.0393476486206055,2.4837141036987305,-1.7319767475128174
1779909926987355600,19.793355712890627,2.6786270141601562,-2.504791259765625,0.6566286087036133
1779909927003685400,19.809685302734376,10.842839241027832,-10.06777286529541,0.09620034694671631
1779909927020008000,19.826008056640624,3.4947965145111084,-14.563982963562012,-2.994107723236084
1779909927036353300,19.842353271484374,-5.462813854217529,-4.05457878112793,-4.057740211486816
1779909927052683500,19.85868359375,1.317237138748169,2.6368746757507324,-1.2366359233856201
1779909927069015600,19.875015625,3.0414958000183105,6.205033302307129,-1.5856997966766357
1779909927085353200,19.891353271484373,5.722901344299316,6.9402666091918945,-0.6642282009124756
1779909927101687000,19.90768701171875,8.837541580200195,6.58919620513916,-0.3343254029750824
1779909927118018800,19.924018798828126,8.727949142456055,3.932375431060791,0.3142000734806061
1779909927134352100,19.94035205078125,7.557291030883789,-0.19521236419677734,-0.262286514043808
1779909927150684200,19.95668408203125,4.960792541503906,-3.5833892822265625,-0.4592931866645813
1779909927167016700,19.9730166015625,-7.607426166534424,-10.905434608459473,-1.4128942489624023
1779909927183351300,19.989351318359375,-4.292439937591553,-4.013038635253906,3.9100728034973145
1779909927199684400,20.005684326171874,2.8835196495056152,1.2728099822998047,4.695419788360596
1779909927216034000,20.022033935546876,5.289000988006592,2.480910301208496,3.4034910202026367
1779909927232350500,20.0383505859375,2.093322515487671,2.973501205444336,1.5798836946487427
1779909927248698000,20.054697998046876,-0.5974335670471191,2.954376697540283,0.1483880877494812
1779909927265030400,20.071030517578127,0.3183786869049072,1.9343552589416504,-0.8857853412628174
1779909927281361400,20.087361328125,1.3847154378890991,1.3249530792236328,-0.6868404746055603
1779909927297673000,20.1036728515625,-0.554581880569458,0.9866704940795898,0.2046489268541336
1779909927314019000,20.12001904296875,-2.382075071334839,1.2037458419799805,0.8226003646850586
1779909927330347300,20.13634716796875,-4.154351234436035,1.1151981353759766,1.0989809036254883
1779909927346677000,20.152677001953126,-3.0633544921875,0.8429422378540039,1.2637205123901367
1779909927363014700,20.1690146484375,-1.6045271158218384,0.010905265808105469,2.035796880722046
1779909927379347700,20.18534765625,-0.9757994413375854,-0.7392902374267578,3.059814691543579
1779909927395680800,20.2016806640625,-1.5823911428451538,-0.8527421951293945,3.5039186477661133
1779909927412014300,20.218014404296873,-3.046679973602295,-0.15084457397460938,2.9862852096557617
1779909927428341800,20.234341796875,-2.987617254257202,0.07674121856689453,3.0617475509643555
1779909927444671200,20.250671142578124,-1.8673207759857178,-0.9152212142944336,4.001265525817871
1779909927461018000,20.26701806640625,-1.5691109895706177,-1.5909767150878906,4.603128910064697
1779909927477341000,20.2833408203125,-1.9642879962921143,-1.3710994720458984,5.516963958740234
1779909927493684200,20.299684326171874,-3.22243070602417,-1.4728050231933594,6.198509216308594
1779909927510011600,20.31601171875,-3.1354832649230957,-1.8562326431274414,6.073080062866211
1779909927526345500,20.332345458984374,-2.2895302772521973,-1.6680936813354492,5.074410915374756
1779909927542678800,20.3486787109375,-3.209622383117676,-2.3808412551879883,4.959056377410889
1779909927559011300,20.36501123046875,-2.7071902751922607,-2.9054622650146484,3.9721126556396484
1779909927575343900,20.38134375,-2.4944357872009277,-3.723104476928711,3.932882785797119
1779909927591686700,20.397686767578126,-2.547158718109131,-4.406197547912598,3.856048107147217
1779909927607997700,20.413997802734375,-1.1091071367263794,-1.9622211456298828,2.4840099811553955
1779909927624341500,20.430341552734376,-1.5741209983825684,-0.8015871047973633,0.558987557888031
1779909927640676900,20.4466767578125,-3.1390836238861084,-2.2245874404907227,-2.5494542121887207
1779909927656996000,20.46299609375,-1.2509039640426636,-5.352482795715332,-4.52738094329834
1779909927673345800,20.479345703125,2.9952621459960938,-6.9902143478393555,-4.9478583335876465
1779909927689690000,20.495690185546874,3.3749125003814697,-5.572016716003418,-4.480958461761475
1779909927706006000,20.512006103515624,1.9675524234771729,-3.426921844482422,-3.6387336254119873
1779909927722340600,20.528340576171875,0.7125418782234192,-2.5554800033569336,-2.4074935913085938
1779909927738674200,20.544674072265625,-0.7340602874755859,-1.8162422180175781,-0.505173921585083
1779909927755008300,20.56100830078125,-0.8309929370880127,-1.2065057754516602,1.8552725315093994
1779909927771340300,20.57734033203125,0.28058743476867676,-0.182373046875,3.958035945892334
1779909927787670500,20.59367041015625,3.057774305343628,0.32287025451660156,3.1532435417175293
1779909927804012300,20.61001220703125,3.1259045600891113,0.40363407135009766,2.0298688411712646
1779909927820360700,20.626360595703126,1.9663947820663452,0.0658721923828125,1.0216574668884277
1779909927836686000,20.64268603515625,2.686919689178467,1.1702518463134766,0.06340113282203674
1779909927853020400,20.6590205078125,3.5870096683502197,2.7483668327331543,-0.5226391553878784
1779909927869353700,20.675353759765624,4.665489673614502,4.124296188354492,-0.7273825407028198
1779909927885672000,20.691671875,5.534816265106201,5.727861404418945,-0.7280118465423584
1779909927902001700,20.708001708984376,5.537864685058594,6.898329734802246,-0.5044820308685303
1779909927918338300,20.72433837890625,4.978187561035156,6.956137180328369,-0.4285787343978882
1779909927934658000,20.740657958984375,4.284275054931641,6.943100929260254,-0.632865309715271
1779909927951002600,20.757002685546876,3.805391788482666,7.110288619995117,-0.670086681842804
