time,seconds_elapsed,z,y,x
1779909907305987600,0.111987548828125,-0.7970264554023743,-0.6800457239151001,2.7672195434570312
1779909907322326500,0.128326416015625,-1.4164438247680664,-1.9698877334594727,1.4966198205947876
1779909907338667500,0.14466748046875,-2.0636556148529053,-2.2879958152770996,-0.14966198801994324
1779909907355000800,0.161000732421875,-2.096031427383423,-1.7847955226898193,-1.1962268352508545
1779909907371334100,0.177334228515625,-1.6326900720596313,-1.4608842134475708,-1.490816593170166
1779909907387663600,0.19366357421875,-1.0716103315353394,-0.7011205554008484,-1.0980303287506104
1779909907404003300,0.21000341796875,-0.5181664228439331,-0.5195409059524536,-0.4853324294090271
1779909907420348700,0.2263486328125,-0.13897185027599335,-0.9263771176338196,0.11178833991289139
1779909907436665600,0.24266552734375,0.06551529467105865,-1.6966781616210938,0.4970915913581848
1779909907452998000,0.258997802734375,0.49816060066223145,-1.9929478168487549,0.5180137157440186
1779909907469333200,0.275333251953125,1.0968085527420044,-1.499216079711914,0.020922135561704636
1779909907485664300,0.291664306640625,1.2296717166900635,-0.8515461683273315,-0.8695666790008545
1779909907501997800,0.307997802734375,1.0920743942260742,0.03237585723400116,-1.5398385524749756
1779909907518326000,0.324325927734375,0.9323330521583557,0.3917173445224762,-1.9365955591201782
1779909907534670000,0.340670166015625,0.8165740966796875,0.3352122902870178,-2.0702223777770996
1779909907551009500,0.357009521484375,0.608727216720581,0.06123924255371094,-2.0360138416290283
1779909907567330800,0.373330810546875,0.31871894001960754,-0.3839288055896759,-1.8518379926681519
1779909907583669000,0.3896689453125,0.18784105777740479,-0.5630650520324707,-1.5419765710830688
1779909907599989000,0.405989013671875,0.23319780826568604,-0.4876231849193573,-1.2223412990570068
1779909907616329500,0.42232958984375,0.46853363513946533,-0.2716823220252991,-0.9521862268447876
1779909907632662500,0.43866259765625,0.697149932384491,-0.25244006514549255,-0.7363980412483215
1779909907648995800,0.454995849609375,0.7458664774894714,-0.7203628420829773,-0.5839871764183044
1779909907665322800,0.47132275390625,0.8087855577468872,-1.4801265001296997,-0.3222314119338989
1779909907681656300,0.48765625,1.0340421199798584,-2.4159719944000244,0.1437060534954071
1779909907698008300,0.50400830078125,1.6108516454696655,-3.2896621227264404,0.7344127297401428
1779909907714344700,0.5203447265625,2.4020748138427734,-4.0463714599609375,1.3892602920532227
1779909907730673400,0.53667333984375,2.964987277984619,-5.072319507598877,2.0755674839019775
1779909907746990800,0.552990966796875,3.453068494796753,-6.23403263092041,2.816241502761841
1779909907763326500,0.569326416015625,3.777437925338745,-7.020979881286621,3.508810043334961
1779909907779660000,0.585659912109375,3.952908992767334,-7.553043365478516,3.8166861534118652
1779909907795994600,0.60199462890625,4.461606979370117,-7.966293811798096,3.701232433319092
1779909907812325000,0.6183251953125,5.31422233581543,-7.81052303314209,3.458566188812256
1779909907828659200,0.6346591796875,6.001903533935547,-7.1758341789245605,2.964987277984619
1779909907844991700,0.65099169921875,6.311917781829834,-6.1819562911987305,2.417346477508545
1779909907861326000,0.667326171875,6.372851848602295,-5.085758686065674,1.9802724123001099
1779909907877654500,0.683654541015625,6.024658679962158,-3.961155652999878,1.6471980810165405
1779909907893993200,0.6999931640625,5.890420913696289,-3.316540241241455,1.7825047969818115
1779909907910321200,0.716321044921875,5.980523586273193,-2.6061038970947266,1.9478965997695923
1779909907926659000,0.7326591796875,5.6515727043151855,-2.4361305236816406,1.9955440759658813
1779909907942978800,0.748978759765625,4.762916088104248,-2.3240368366241455,1.751503348350525
1779909907959323600,0.76532373046875,3.6102135181427,-1.8697057962417603,1.182482361793518
1779909907975650300,0.781650390625,2.3880250453948975,-1.0630582571029663,0.5212207436561584
1779909907991989800,0.79798974609375,1.4427109956741333,0.41722095012664795,0.001527163083665073
1779909908008326400,0.814326416015625,0.693026602268219,0.40393465757369995,-0.03985895588994026
1779909908024673300,0.83067333984375,-0.15286903083324432,-0.7736608386039734,0.42439863085746765
1779909908040971500,0.846971435546875,-1.0129673480987549,-0.7055493593215942,0.24342979490756989
1779909908057309200,0.86330908203125,-0.7254024744033813,0.4740314185619354,-0.8316930532455444
1779909908073642200,0.879642333984375,-0.22739458084106445,2.0247128009796143,-1.0888673067092896
1779909908089975000,0.89597509765625,-0.6768386960029602,2.5642595291137695,-0.461355984210968
1779909908106308900,0.912308837890625,-1.905135989189148,1.8034268617630005,0.4040873646736145
1779909908122641200,0.92864111328125,-2.208583354949951,1.1985175609588623,1.337336778640747
1779909908138976000,0.94497607421875,-1.668120265007019,1.2945761680603027,1.9448422193527222
1779909908155307300,0.961307373046875,-0.6960809230804443,1.7325665950775146,1.7037031650543213
1779909908171646200,0.977646240234375,-0.8222246170043945,1.0468703508377075,1.5615242719650269
1779909908187989500,0.993989501953125,-0.3649919927120209,0.9098837971687317,1.386358618736267
1779909908204319200,1.0103193359375,-0.22876903414726257,-1.3478741645812988,0.5404630303382874
1779909908220650800,1.026650634765625,0.19776763021945953,-1.8219056129455566,0.6711881756782532
1779909908236981800,1.042981689453125,0.8752171993255615,-1.241125464439392,0.9219483733177185
1779909908253321500,1.059321533203125,1.5752687454223633,-1.1737775802612305,0.9790642857551575
1779909908269651500,1.0756513671875,1.8781051635742188,-0.675616979598999,1.1872166395187378
1779909908285983200,1.091983154296875,2.0778582096099854,-0.3066543638706207,1.0415252447128296
1779909908302304800,1.1083046875,2.010204792022705,0.09560041129589081,0.5862779021263123
1779909908318650400,1.124650390625,1.8545868396759033,-0.7394523620605469,0.351400226354599
1779909908334982700,1.140982666015625,2.0282254219055176,-0.6672175526618958,0.14828753471374512
1779909908351316200,1.157316162109375,2.109928607940674,-0.3246748745441437,-0.4082106947898865
1779909908367646500,1.173646484375,2.076483726501465,-0.5476406812667847,-0.8240572214126587
1779909908383986000,1.18998583984375,1.99447500705719,-0.5723807215690613,-0.2612976133823395
1779909908400334000,1.206333984375,1.535562515258789,-1.1302534341812134,0.3026837408542633
1779909908416664300,1.222664306640625,1.0207557678222656,-1.3672691583633423,0.12736541032791138
1779909908432978700,1.238978759765625,0.6252205967903137,-0.9888381361961365,-0.7402159571647644
1779909908449315300,1.2553154296875,0.5873469114303589,-0.9399688839912415,-1.6885842084884644
1779909908465648000,1.271648193359375,0.40133845806121826,-0.8923214077949524,-2.500576972961426
1779909908481980700,1.287980712890625,-0.05665775015950203,-0.5009095072746277,-2.464688539505005
1779909908498314200,1.304314208984375,-0.30375275015830994,-0.2025018334388733,-1.7085901498794556
1779909908514642200,1.32064208984375,-0.24602597951889038,0.13927727937698364,-0.720820963382721
1779909908530999000,1.3369990234375,-0.589790403842926,-0.15683965384960175,0.10735956579446793
1779909908547308000,1.35330810546875,-1.1636983156204224,-0.22663100063800812,0.11270463466644287
1779909908563651000,1.369651123046875,-1.6250542402267456,0.09392052888870239,-0.0936150997877121
1779909908579975700,1.3859755859375,-1.8484781980514526,0.7909177541732788,-0.16371189057826996
1779909908596321800,1.40232177734375,-1.4482088088989258,1.7165313959121704,0.006872233934700489
1779909908612646000,1.41864599609375,-0.683863639831543,2.1371121406555176,0.3536909818649292
1779909908628975000,1.43497509765625,-0.1820378452539444,1.3141238689422607,1.2373075485229492
1779909908645322200,1.451322265625,-0.13011430203914642,0.3767511546611786,2.1126773357391357
1779909908661673200,1.467673095703125,-0.3572034537792206,-0.053297992795705795,2.3606886863708496
1779909908677991400,1.483991455078125,-0.3214678466320038,0.1898263692855835,1.9333884716033936
1779909908694325000,1.500324951171875,-0.2330450862646103,1.468672752380371,1.3823879957199097
1779909908710656300,1.51665625,-0.08368854224681854,2.9487993717193604,1.528690218925476
1779909908726984200,1.532984130859375,-0.6007859706878662,2.7394251823425293,1.1980594396591187
1779909908743313000,1.54931298828125,-0.8239045143127441,2.3692407608032227,1.4262176752090454
1779909908759643100,1.56564306640625,-0.5316054821014404,2.716670513153076,2.1867449283599854
1779909908775975200,1.58197509765625,-0.3459024429321289,1.478141188621521,0.7693848013877869
1779909908792309000,1.59830908203125,0.4306600093841553,1.231046199798584,0.059406645596027374
1779909908808642000,1.61464208984375,0.7064656615257263,0.9726501703262329,-0.010995574295520782
1779909908824971800,1.6309716796875,0.7005097270011902,0.3620903789997101,0.1498146951198578
1779909908841311200,1.647311279296875,0.7064656615257263,0.5613851547241211,0.0936150997877121
1779909908857639000,1.663638916015625,0.8845328688621521,0.7757988572120667,-0.15775595605373383
1779909908873977000,1.67997705078125,1.0264062881469727,0.6702718734741211,-0.39645153284072876
1779909908890303000,1.696302978515625,1.2976305484771729,0.2298380434513092,-0.6611089110374451
1779909908906643500,1.7126435546875,1.5369369983673096,-0.31551191210746765,-0.6298020482063293
1779909908922974200,1.72897412109375,1.7163785696029663,-0.835358202457428,-0.005803219974040985
1779909908939293200,1.745293212890625,1.1818715333938599,-1.1146763563156128,0.32849279046058655
1779909908955639600,1.7616396484375,-0.00045814894838258624,0.4450153410434723,-0.3225368559360504
1779909908971959600,1.77795947265625,-0.0754418596625328,1.4259121417999268,-1.0242682695388794
1779909908988306400,1.794306396484375,0.05161811411380768,1.0204503536224365,-0.49098294973373413
1779909909004638000,1.810637939453125,0.33536502718925476,0.9225592613220215,-0.49098294973373413
1779909909020971000,1.826970947265625,0.9604328870773315,0.9416487812995911,-1.0009026527404785
1779909909037305000,1.84330517578125,1.9081902503967285,0.4709770977497101,-1.3046554327011108
1779909909053638400,1.859638427734375,2.4436137676239014,0.5632177591323853,-1.7577646970748901
1779909909069957600,1.87595751953125,2.2514965534210205,1.2318097352981567,-1.7531832456588745
1779909909086293500,1.89229345703125,2.0085248947143555,1.410029649734497,-1.3603968620300293
1779909909102625500,1.90862548828125,2.0007364749908447,1.0795515775680542,-1.3258830308914185
1779909909118959000,1.924958984375,0.9859365224838257,-0.3604104816913605,-1.3164145946502686
1779909909135291000,1.941290771484375,-0.09743300825357437,-1.7176003456115723,-1.2719742059707642
1779909909151625700,1.957625732421875,1.356731653213501,-2.2122485637664795,-1.2654073238372803
1779909909167958000,1.9739580078125,1.9970711469650269,-2.9123001098632812,-1.5653421878814697
1779909909184290300,1.990290283203125,2.1626157760620117,-2.814103364944458,-1.7537940740585327
1779909909200623600,2.00662353515625,1.1591167449951172,-2.8929049968719482,-1.757153868675232
1779909909216956700,2.022956787109375,-0.289702832698822,-3.2203288078308105,-1.4772248268127441
1779909909233290800,2.039290771484375,-1.3657419681549072,-2.434298038482666,-1.5008958578109741
1779909909249631700,2.0556318359375,-1.9813414812088013,-1.4372131824493408,-0.9245445728302002
1779909909265958400,2.07195849609375,-1.6424639225006104,-1.0286970138549805,-0.4202753007411957
1779909909282287600,2.08828759765625,0.26710084080696106,-3.0162999629974365,0.03649919852614403
1779909909298623200,2.104623291015625,2.2206478118896484,-4.372115135192871,0.028099801391363144
1779909909314954800,2.120954833984375,3.967111587524414,-4.6631927490234375,-0.31841349601745605
1779909909331303400,2.137303466796875,4.66594123840332,-4.340044975280762,-0.977689802646637
1779909909347630000,2.153630126953125,4.3423357009887695,-2.831360340118408,-1.8124371767044067
1779909909363957800,2.169957763671875,3.3883168697357178,-0.88361656665802,-2.526844024658203
1779909909380298200,2.18629833984375,1.5485434532165527,1.7362316846847534,-2.280665397644043
1779909909396632600,2.202632568359375,-0.32849279046058655,1.2139419317245483,-1.389107584953308
1779909909412965400,2.21896533203125,-0.8860600590705872,-1.1441506147384644,-0.6264423131942749
1779909909429298700,2.235298583984375,-0.7922922372817993,-1.840842366218567,-0.2848159074783325
1779909909445631700,2.2516318359375,-0.6609562039375305,-1.5546520948410034,-0.015577063895761967
1779909909461964800,2.26796484375,-0.4079052805900574,-0.9210320711135864,0.19822576642036438
1779909909478292200,2.284292236328125,-0.4011857509613037,0.008399397134780884,0.28466320037841797
1779909909494636500,2.300636474609375,-0.6997461318969727,2.417499303817749,0.08949175477027893
1779909909510965500,2.316965576171875,-0.48227810859680176,2.922532081604004,0.47769662737846375
1779909909527297000,2.333297119140625,0.05726861581206322,-0.1212567538022995,1.0264062881469727
1779909909543645400,2.3496455078125,0.328340083360672,-1.8646661043167114,1.1788171529769897
1779909909559995000,2.365994873046875,0.21502456068992615,-2.317622661590576,0.8393288254737854
1779909909576314400,2.382314453125,-0.09926560521125793,-2.0050125122070312,0.4158465266227722
1779909909592640800,2.398640869140625,-0.3854559659957886,-0.28069257736206055,0.0659734457731247
1779909909608976100,2.41497607421875,-0.2932153046131134,0.1342376321554184,-0.30802878737449646
1779909909625288200,2.4312880859375,0.1514945775270462,-0.7735081315040588,-0.6293439269065857
1779909909641639400,2.447639404296875,-0.03680463135242462,-0.8736900091171265,-0.932485818862915
1779909909657960000,2.4639599609375,-0.11591167747974396,-0.9297369122505188,-0.946382999420166
1779909909674294800,2.480294677734375,-0.20525072515010834,-0.774118959903717,-1.085965633392334
1779909909690626600,2.49662646484375,-0.6641632318496704,0.6105598211288452,-0.5804746747016907
1779909909706960400,2.51296044921875,-1.0106765031814575,2.953991651535034,0.9636399149894714
1779909909723294000,2.5292939453125,-0.9367618560791016,3.1059443950653076,1.5796974897384644
1779909909739623400,2.54562353515625,-0.5952881574630737,1.615127682685852,1.8185458183288574
1779909909755963600,2.561963623046875,0.3165809214115143,-0.44913867115974426,1.0102183818817139
1779909909772285000,2.578284912109375,0.7015787363052368,-1.6061174869537354,0.18219055235385895
1779909909788622800,2.594622802734375,0.8799513578414917,-1.2498302459716797,0.4199698567390442
1779909909804967000,2.610966796875,0.9760099649429321,-0.45265114307403564,1.2455542087554932
1779909909821291500,2.62729150390625,0.470671683549881,0.96883225440979,0.932485818862915
1779909909837620200,2.6436201171875,0.05314527451992035,2.607630968093872,0.042760565876960754
1779909909853961000,2.6599609375,0.1085812970995903,2.8715248107910156,0.19486601650714874
1779909909870283300,2.676283203125,0.23197607696056366,1.5890132188796997,1.50211763381958
1779909909886621400,2.692621337890625,0.18631389737129211,0.4355469346046448,1.506240963935852
1779909909902950400,2.708950439453125,0.2382374405860901,0.39187005162239075,1.1281154155731201
1779909909919279000,2.725279052734375,0.5351179838180542,0.5842925906181335,2.311514139175415
1779909909935625000,2.741625,0.8648324608802795,0.13454307615756989,2.892141580581665
1779909909951957000,2.75795703125,1.2446379661560059,-0.07635815441608429,2.2259929180145264
1779909909968296700,2.774296630859375,0.3471241891384125,0.7999280095100403,1.7889188528060913
1779909909984623000,2.790623046875,0.206777885556221,1.8041905164718628,1.6154330968856812
1779909910000955000,2.806954833984375,0.47448956966400146,1.434922456741333,1.0190759897232056
1779909910017289200,2.823289306640625,0.5056437253952026,0.7863363027572632,0.508698046207428
1779909910033639400,2.839639404296875,0.4262312352657318,0.790154218673706,0.5396994352340698
1779909910049969700,2.8559697265625,0.39874228835105896,1.306488037109375,0.7380779385566711
1779909910066296000,2.872296142578125,0.4893030524253845,1.608102798461914,0.7524332404136658
1779909910082624800,2.888624755859375,0.6243042945861816,1.3765848875045776,0.6626361012458801
1779909910098950100,2.9049501953125,0.7322747111320496,0.998153805732727,0.4885394871234894
1779909910115291000,2.921290771484375,0.7921395301818848,0.849255383014679,0.17440202832221985
1779909910131604200,2.937604248046875,0.6073527932167053,1.0532844066619873,-0.010842857882380486
1779909910147957200,2.953957275390625,0.31413745880126953,1.2495248317718506,0.09896016865968704
1779909910164287000,2.970286865234375,0.20372356474399567,0.9222537875175476,0.28878653049468994
1779909910180616700,2.98661669921875,0.11133018881082535,0.40164390206336975,0.44593164324760437
1779909910196961500,3.00296142578125,-0.02687807008624077,0.03390302136540413,0.4242459237575531
1779909910213275400,3.019275390625,-0.10781771689653397,0.1927279829978943,0.26679539680480957
1779909910229619500,3.035619384765625,-0.28237244486808777,-0.009621127508580685,-0.01114829070866108
1779909910245930200,3.05193017578125,-0.3878994286060333,-0.2590068578720093,-0.3066543638706207
1779909910262283800,3.06828369140625,-0.7644978761672974,-0.8846855759620667,-0.8379544019699097
1779909910278616300,3.0846162109375,-1.2139419317245483,-0.9094256162643433,-1.1823296546936035
1779909910294952000,3.100951904296875,-1.4607315063476562,-1.271515965461731,-1.6963727474212646
1779909910311285800,3.11728564453125,-1.3732250928878784,-1.7246253490447998,-2.1510093212127686
1779909910327613400,3.133613525390625,-1.307709813117981,-2.3092234134674072,-2.3971879482269287
1779909910343955000,3.149954833984375,-0.9445503950119019,-2.9718594551086426,-2.515542984008789
1779909910360283000,3.166282958984375,-0.18555031716823578,-2.5360071659088135,-2.501340389251709
1779909910376616000,3.182615966796875,0.3674354553222656,-0.9709703326225281,-2.4301745891571045
1779909910392950500,3.198950439453125,0.460897833108902,0.33429601788520813,-2.4970643520355225
1779909910409282800,3.21528271484375,0.3738495409488678,0.6449210047721863,-2.654515027999878
1779909910425633500,3.231633544921875,0.23518311977386475,-0.0780380368232727,-2.6838364601135254
1779909910441945300,3.2479453125,0.20036379992961884,-1.3103059530258179,-2.5453226566314697
1779909910458264600,3.2642646484375,0.22602014243602753,-2.2371411323547363,-2.507449150085449
1779909910474618000,3.2806181640625,0.0025961773935705423,-1.988824486732483,-2.30525279045105
1779909910490948400,3.2969482421875,-0.2739730477333069,-1.214400053024292,-2.0260872840881348
1779909910507265800,3.313265869140625,-0.48869219422340393,-0.8678867816925049,-1.793653130531311
1779909910523605500,3.32960546875,-0.7296785116195679,-1.108567714691162,-1.4731014966964722
1779909910539934700,3.345934814453125,-0.9573785662651062,-1.6435329914093018,-1.1737775802612305
1779909910556280800,3.36228076171875,-0.9831876158714294,-2.1171061992645264,-1.0085384845733643
1779909910572599000,3.37859912109375,-0.8912523984909058,-2.2088887691497803,-0.9062185883522034
1779909910588948700,3.39494873046875,-0.7738135457038879,-2.1029036045074463,-0.7258606553077698
1779909910605280000,3.411280029296875,-0.6363688707351685,-1.9587393999099731,-0.3982841372489929
1779909910621632000,3.427632080078125,-0.4308127164840698,-1.6201673746109009,0.03176499158143997
1779909910637956000,3.4439560546875,-0.2217440903186798,-1.202946424484253,0.5459607839584351
1779909910654296300,3.46029638671875,-0.13347405195236206,-0.660803496837616,1.0561859607696533
1779909910670621000,3.476620849609375,-0.07467827945947647,-0.14905111491680145,1.5819882154464722
1779909910686963500,3.49296337890625,-0.14233160018920898,0.4147774875164032,2.1754438877105713
1779909910703287300,3.509287353515625,-0.13026700913906097,0.4021020531654358,2.411695957183838
1779909910719609900,3.52560986328125,0.164170041680336,0.12064588814973831,1.6743816137313843
1779909910735944000,3.54194384765625,0.07910704612731934,0.3741549551486969,0.6299547553062439
1779909910752270000,3.55827001953125,-0.096211276948452,-0.5148066878318787,-0.4196644127368927
1779909910768610600,3.574610595703125,-0.49816060066223145,-1.4787520170211792,-1.0236574411392212
1779909910784944000,3.590944091796875,-0.5117523670196533,-2.4167356491088867,-0.8098546266555786
1779909910801262000,3.607261962890625,-0.2822197377681732,-1.6368134021759033,-0.14446963369846344
1779909910817597000,3.623596923828125,0.20433442294597626,-0.16814066469669342,0.5256495475769043
1779909910833932300,3.639932373046875,0.2047925740480423,1.572825312614441,0.5736024379730225
1779909910850264000,3.65626416015625,-0.44196099042892456,3.8429532051086426,-0.016798794269561768
1779909910866597400,3.672597412109375,-0.9818131923675537,3.8015670776367188,0.24205535650253296
1779909910882931000,3.688930908203125,-1.0261008739471436,1.9588921070098877,0.4008803069591522
1779909910907426300,3.71342626953125,-0.20311269164085388,0.005039638374000788,0.6221662759780884
1779909910923762200,3.72976220703125,0.46150869131088257,-0.3663664162158966,0.7015787363052368
1779909910940100900,3.746100830078125,0.8165740966796875,1.1116219758987427,1.1485793590545654
1779909910956440800,3.76244091796875,1.2696833610534668,2.6254987716674805,1.9517145156860352
1779909910972777200,3.778777099609375,2.052354574203491,3.545156478881836,2.4434609413146973
1779909910989104000,3.795104248046875,2.472935199737549,3.2933273315429688,2.1064159870147705
1779909911005437400,3.8114375,1.6901113986968994,0.554818332195282,1.0178542137145996
1779909911021766700,3.8277666015625,0.23411411046981812,-1.1513283252716064,0.8057312369346619
1779909911038088400,3.84408837890625,-0.517250120639801,0.1647808998823166,0.9896016716957092
1779909911054454800,3.860454833984375,-0.636521577835083,1.8733710050582886,1.198823094367981
1779909911070782200,3.8767822265625,-0.7104362845420837,2.3234260082244873,1.5560264587402344
1779909911087124000,3.8931240234375,-0.7698429226875305,1.75608491897583,1.9410243034362793
1779909911103437600,3.9094375,-0.4781547784805298,0.9634872078895569,1.9263635873794556
1779909911119786500,3.925786376953125,0.047800205647945404,0.8396342992782593,1.406822681427002
1779909911136096300,3.94209619140625,0.4043927788734436,1.0633636713027954,1.0057896375656128
1779909911152456000,3.9584560546875,0.5833762884140015,1.3530665636062622,0.8955284357070923
1779909911168788500,3.97478857421875,0.7151705026626587,1.2977832555770874,0.9720393419265747
1779909911185119000,3.991118896484375,0.7619016766548157,0.864679753780365,1.0769554376602173
1779909911201412600,4.00741259765625,0.7660250067710876,0.6352998614311218,1.15178644657135
1779909911217771000,4.02377099609375,0.765566885471344,0.9005680680274963,1.1184942722320557
1779909911234092000,4.040092041015625,0.7785477638244629,1.309084177017212,0.9219483733177185
1779909911250432800,4.056432861328125,0.8310821652412415,1.3041973114013672,0.5334380865097046
1779909911266774000,4.07277392578125,0.7771732807159424,1.1125383377075195,0.30802878737449646
1779909911283102000,4.08910205078125,0.5827654600143433,1.049619197845459,0.4306600093841553
1779909911299437600,4.1054375,0.45494189858436584,0.9906707406044006,0.45295658707618713
1779909911315769000,4.12176904296875,0.3623957931995392,0.7506006956100464,0.2603813111782074
1779909911332131300,4.13813134765625,0.09376781433820724,0.4990769028663635,0.3045163154602051
1779909911348434200,4.15443408203125,-0.08002334833145142,0.08567385375499725,0.48059824109077454
1779909911364783600,4.17078369140625,-0.19257527589797974,-0.08552113175392151,0.4291328489780426
1779909911381114000,4.187114013671875,-0.3113885521888733,-0.16432274878025055,0.1485929638147354
1779909911397445000,4.203445068359375,-0.3929390609264374,-0.6062837839126587,-0.24556782841682434
1779909911413753600,4.219753662109375,-0.6692028641700745,-1.0167851448059082,-0.7475463151931763
1779909911430124500,4.23612451171875,-1.1580477952957153,-1.1930198669433594,-1.2849550247192383
1779909911446429200,4.25242919921875,-1.4075862169265747,-1.289994716644287,-1.8547395467758179
1779909911462768600,4.2687685546875,-1.440267562866211,-1.4223997592926025,-2.3466389179229736
1779909911479095600,4.285095458984375,-1.44057297706604,-2.0051651000976562,-2.637563467025757
1779909911495438300,4.301438232421875,-1.1537717580795288,-2.8464794158935547,-2.6876542568206787
1779909911511752700,4.317752685546875,-0.40973785519599915,-2.537381410598755,-2.5720481872558594
1779909911528100400,4.334100341796875,0.32818734645843506,-1.0888673067092896,-2.4022276401519775
1779909911544448000,4.350447998046875,0.7192938327789307,0.503963828086853,-2.451402187347412
1779909911560747000,4.3667470703125,0.7055493593215942,1.4903584718704224,-2.629163980484009
1779909911577087200,4.383087158203125,0.4619668424129486,1.333213448524475,-2.799442768096924
1779909911593420800,4.3994208984375,0.16203200817108154,-0.5732970237731934,-2.5844180583953857
1779909911609752600,4.415752685546875,0.12339477986097336,-2.423149824142456,-2.3993258476257324
1779909911626085000,4.432085205078125,0.008246680721640587,-2.194380760192871,-2.288912057876587
1779909911642418200,4.448418212890625,-0.45494189858436584,-1.1522445678710938,-2.026545524597168
1779909911658752800,4.464752685546875,-0.7993171811103821,-0.7834346890449524,-1.761277198791504
1779909911675084800,4.481084716796875,-0.875064492225647,-1.1172724962234497,-1.434617042541504
1779909911691437600,4.4974375,-0.9042332768440247,-1.7565430402755737,-1.1007791757583618
1779909911707759900,4.513759765625,-0.9285151958465576,-2.308459758758545,-0.8663596510887146
1779909911724098800,4.530098876953125,-0.9082038998603821,-2.5419631004333496,-0.7434229850769043
1779909911740422700,4.546422607421875,-0.746630072593689,-2.525927782058716,-0.6682865619659424
1779909911756763400,4.562763427734375,-0.5598580241203308,-2.32586932182312,-0.418748140335083
1779909911773095700,4.579095703125,-0.3269656300544739,-1.7847955226898193,0.05100724846124649
1779909911789416700,4.595416748046875,-0.1267545372247696,-1.0448850393295288,0.671493649482727
1779909911805762300,4.61176220703125,-0.10613783448934555,-0.3309362530708313,1.2777774333953857
1779909911822091800,4.628091796875,-0.10323622822761536,0.29046642780303955,1.856572151184082
1779909911838442500,4.6444423828125,-0.2373211532831192,0.7081455588340759,2.4434609413146973
1779909911854763000,4.660762939453125,-0.31871894001960754,0.503963828086853,2.6167941093444824
1779909911871106300,4.677106201171875,0.020463986322283745,0.3306308090686798,1.6675094366073608
1779909911887420700,4.693420654296875,-0.08017606288194656,0.7032586336135864,0.3663664162158966
1779909911903778600,4.709778564453125,-0.1518000066280365,-0.5250386595726013,-0.9062185883522034
1779909911920102700,4.7261025390625,-0.4763221740722656,-1.6588045358657837,-1.345583438873291
1779909911936444000,4.74244384765625,-0.5073235630989075,-2.6313021183013916,-0.9051495790481567
1779909911952744400,4.758744384765625,-0.21609358489513397,-1.9081902503967285,-0.04856378585100174
1779909911969093000,4.775093017578125,0.3332269787788391,-0.1771509200334549,0.4285219609737396
1779909911985426400,4.791426513671875,0.2834414839744568,1.145830512046814,0.5480988621711731
1779909912001745700,4.80774560546875,-0.37568211555480957,3.048064947128296,0.26374107599258423
1779909912018093000,4.824093017578125,-0.5258022546768188,4.329202175140381,0.769690215587616
1779909912034424800,4.8404248046875,-0.6649268269538879,2.623666286468506,0.7052439451217651
1779909912050759400,4.856759521484375,-0.3400992155075073,0.2747366428375244,0.4593706727027893
1779909912067104800,4.873104736328125,0.25763240456581116,-1.3704761266708374,0.408363401889801
1779909912083434500,4.8894345703125,0.727998673915863,-0.612850546836853,0.7832819819450378
1779909912099776000,4.90577587890625,0.8323038816452026,1.5007431507110596,1.3423763513565063
1779909912116107000,4.92210693359375,1.0986411571502686,2.8538095951080322,1.9233092069625854
1779909912132431000,4.93843115234375,1.6229162216186523,3.324634075164795,2.3131940364837646
1779909912148761300,4.95476123046875,1.809230089187622,2.602285861968994,1.806023120880127
1779909912165103900,4.971103759765625,0.8747590184211731,-0.21609358489513397,1.1003210544586182
1779909912181428200,4.98742822265625,-0.27229318022727966,-0.8817839622497559,1.1879801750183105
1779909912197752600,5.003752685546875,-0.7999280095100403,0.5439754724502563,1.2819007635116577
1779909912214090800,5.0200908203125,-0.8240572214126587,1.5735888481140137,1.5025757551193237
1779909912230420700,5.036420654296875,-0.7713701128959656,1.538158655166626,1.7954856157302856
1779909912246751500,5.05275146484375,-0.6113234162330627,1.215621829032898,1.9040669202804565
1779909912263093200,5.06909326171875,-0.09865473955869675,0.903164267539978,1.5016595125198364
1779909912279422500,5.08542236328125,0.35842517018318176,0.8863654732704163,1.0919215679168701
1779909912295754000,5.10175390625,0.5578727126121521,1.1409435272216797,1.0291552543640137
1779909912312092400,5.118092529296875,0.6401867866516113,1.4297300577163696,1.0309878587722778
1779909912328432600,5.1344326171875,0.6678284406661987,1.2530373334884644,1.0816895961761475
1779909912344759600,5.150759521484375,0.7199047207832336,1.0432051420211792,1.151481032371521
1779909912361099800,5.167099853515625,0.7997753024101257,1.1464413404464722,1.1827877759933472
1779909912377429000,5.183428955078125,0.8600982427597046,1.3709343671798706,1.032820463180542
1779909912393770800,5.199770751953125,0.921184778213501,1.4253013134002686,0.5981897711753845
1779909912410100000,5.216099853515625,0.864068865776062,1.3394747972488403,0.32559117674827576
1779909912426415600,5.23241552734375,0.6256787180900574,1.2113457918167114,0.44913867115974426
1779909912442737200,5.248737060546875,0.4251621961593628,0.9854783415794373,0.5163338780403137
1779909912459085600,5.26508544921875,0.33108896017074585,0.8290968537330627,0.35735616087913513
1779909912475420000,5.281419921875,0.14492778480052948,0.68951416015625,0.32650747895240784
1779909912491738600,5.297738525390625,-0.015271631069481373,0.34086281061172485,0.41233405470848083
1779909912508085800,5.314085693359375,-0.0685696229338646,0.10231992602348328,0.4668537676334381
1779909912524417800,5.330417724609375,-0.19776763021945953,0.12247848510742188,0.34147366881370544
1779909912540763600,5.346763671875,-0.1889100819826126,-0.38026362657546997,0.0607810914516449
1779909912557098200,5.36309814453125,-0.3222314119338989,-0.7093672752380371,-0.43875396251678467
1779909912573437200,5.379437255859375,-0.7854200005531311,-0.6684392690658569,-0.955545961856842
1779909912589764000,5.39576416015625,-1.2479976415634155,-0.9219483733177185,-1.3898711204528809
1779909912606066000,5.41206591796875,-1.4078916311264038,-1.2628111839294434,-1.887115478515625
1779909912622403600,5.428403564453125,-1.4202617406845093,-1.65834641456604,-2.327702045440674
1779909912638740000,5.444739990234375,-1.3014483451843262,-2.280818223953247,-2.5500569343566895
1779909912655069200,5.461069091796875,-1.0123564004898071,-2.783254861831665,-2.5952610969543457
1779909912671399000,5.47739892578125,-0.4821254014968872,-2.0021109580993652,-2.4181101322174072
1779909912687735300,5.4937353515625,-0.04535674303770065,-0.5592471361160278,-2.2569942474365234
1779909912704069600,5.510069580078125,0.07467827945947647,0.6033821702003479,-2.384207010269165
1779909912720403000,5.52640283203125,0.048716504126787186,1.0387763977050781,-2.6363415718078613
1779909912736738000,5.542738037109375,0.04001167416572571,0.6313292384147644,-2.7867672443389893
1779909912753069000,5.559069091796875,0.02535090781748295,-0.8631525635719299,-2.5089762210845947
1779909912769403100,5.575403076171875,-0.05192354694008827,-2.2012529373168945,-2.1235203742980957
1779909912785735700,5.591735595703125,-0.2574796974658966,-2.36985182762146,-1.9146044254302979
1779909912802069500,5.608069580078125,-0.7072292566299438,-1.984701156616211,-1.8319848775863647
1779909912818400500,5.624400390625,-0.9957103729248047,-1.8167132139205933,-1.6687310934066772
1779909912834736600,5.640736572265625,-0.9990701079368591,-1.813048005104065,-1.4387403726577759
1779909912851068000,5.65706787109375,-0.9816604256629944,-2.1453588008880615,-1.1476631164550781
1779909912867400200,5.673400146484375,-0.9462302923202515,-2.4660630226135254,-0.9178250432014465
1779909912883747600,5.68974755859375,-0.9615018963813782,-2.4723243713378906,-0.759305477142334
1779909912900085500,5.70608544921875,-0.9439395070075989,-2.2350032329559326,-0.611934244632721
1779909912916412200,5.722412109375,-0.8234463334083557,-2.0871739387512207,-0.3478877544403076
1779909912932744200,5.738744140625,-0.6259841322898865,-1.8574885129928589,0.053297992795705795
1779909912949079000,5.7550791015625,-0.4938845634460449,-1.377501130104065,0.6482807397842407
1779909912965405200,5.7714052734375,-0.3842342495918274,-0.6789767146110535,1.229519009590149
1779909912981730800,5.787730712890625,-0.29016098380088806,-0.15974126756191254,1.711033582687378
1779909912998077200,5.8040771484375,-0.31062498688697815,0.2941316068172455,2.185370445251465
1779909913014412300,5.820412353515625,-0.22815817594528198,0.025961773470044136,2.1697933673858643
1779909913030743000,5.836742919921875,0.04337143152952194,-0.19547687470912933,0.8119926452636719
1779909913047094500,5.853094482421875,-0.04993823543190956,0.2513710558414459,-0.25763240456581116
1779909913063436000,5.86943603515625,0.01863138936460018,-0.9143125414848328,-0.6310238242149353
1779909913079747000,5.8857470703125,-0.20463985204696655,-1.5720616579055786,-0.7286095023155212
1779909913096092400,5.902092529296875,-0.2893974184989929,-2.1988093852996826,-0.346818745136261
1779909913112423700,5.918423583984375,-0.23716843128204346,-1.4306464195251465,0.1609629988670349
1779909913128757000,5.934757080078125,0.10247264802455902,-0.0679587572813034,0.5218316316604614
1779909913145088000,5.951087890625,0.33628132939338684,0.7565566301345825,0.9410378932952881
1779909913161402400,5.96740234375,0.036041051149368286,2.339003086090088,0.8747590184211731
1779909913177742600,5.98374267578125,-0.1290452778339386,4.142429828643799,1.0458012819290161
1779909913194076000,6.000075927734375,-0.36361753940582275,2.9492573738098145,0.7095199823379517
1779909913210406100,6.01640625,-0.5377141237258911,0.8651378750801086,0.19318613409996033
1779909913226741800,6.03274169921875,-0.16340644657611847,-0.10812314599752426,0.22189679741859436
1779909913243074000,6.049073974609375,0.24617868661880493,0.08781187981367111,0.6962336897850037
1779909913259407600,6.06540771484375,0.5748242139816284,1.0731375217437744,1.0978775024414062
1779909913275740200,6.081740234375,0.7215845584869385,2.5476136207580566,1.4653129577636719
1779909913292077000,6.0980771484375,1.2664763927459717,3.639840602874756,1.9011653661727905
1779909913308420400,6.11442041015625,1.9089539051055908,3.7585010528564453,2.1542162895202637
1779909913324754200,6.130754150390625,1.7985399961471558,1.811673641204834,1.6380351781845093
1779909913341069600,6.147069580078125,0.5143485069274902,-1.1467467546463013,1.2330315113067627
1779909913357403600,6.163403564453125,-0.4642575979232788,-0.5375614166259766,1.6980526447296143
1779909913373737200,6.1797373046875,-0.7509061098098755,1.4089607000350952,1.8090773820877075
1779909913390080000,6.196080078125,-0.7574729323387146,2.2033908367156982,1.8364136219024658
1779909913406404600,6.212404541015625,-0.6449210047721863,1.9008599519729614,1.9398025274276733
1779909913422739000,6.228739013671875,-0.2692388594150543,1.3087787628173828,2.009593963623047
1779909913439070700,6.24507080078125,0.2142609804868698,1.3972015380859375,1.617876648902893
1779909913455405000,6.261405029296875,0.5632177591323853,1.6010777950286865,1.2499829530715942
1779909913471723500,6.2777236328125,0.8028296232223511,1.4706580638885498,1.146135926246643
1779909913488072000,6.294072021484375,0.889267086982727,1.1725558042526245,1.1885910034179688
1779909913504403200,6.3104033203125,0.7809911966323853,0.9062185883522034,1.212720274925232
1779909913520735500,6.326735595703125,0.5615378618240356,1.2223412990570068,1.1621711254119873
1779909913537068300,6.343068359375,0.46242499351501465,1.85244882106781,0.9689850211143494
1779909913553422000,6.359422119140625,0.5679519772529602,1.9698877334594727,0.5433646440505981
1779909913569748700,6.375748779296875,0.6829473376274109,1.6934711933135986,0.07116580009460449
1779909913586083300,6.392083251953125,0.6079636216163635,1.5961909294128418,0.014508049935102463
1779909913602411000,6.408410888671875,0.4112650156021118,1.4526375532150269,0.20555615425109863
1779909913618750000,6.42475,0.2125810980796814,1.2454015016555786,0.10399980843067169
1779909913635065000,6.441065185546875,-0.03894266113638878,1.202946424484253,-0.025656340643763542
1779909913651414300,6.457414306640625,-0.24862214922904968,0.7605272531509399,0.08659014850854874
1779909913667715600,6.473715576171875,-0.25503623485565186,0.1388191282749176,0.13484850525856018
1779909913684071200,6.4900712890625,-0.3352122902870178,-0.02672535367310047,-0.1333213448524475
1779909913700384300,6.50638427734375,-0.47800204157829285,-0.33887749910354614,-0.5844452977180481
1779909913716721000,6.522720947265625,-0.7764097452163696,-0.7544185519218445,-1.17240309715271
1779909913733071600,6.539071533203125,-1.2056952714920044,-1.1229230165481567,-1.8570303916931152
1779909913749406000,6.555406005859375,-1.4934128522872925,-1.267698049545288,-2.434298038482666
1779909913765720300,6.57172021484375,-1.4764612913131714,-1.6586518287658691,-2.7068965435028076
1779909913782056000,6.588055908203125,-1.371850609779358,-2.3292291164398193,-2.6974282264709473
1779909913798402300,6.60440234375,-0.9750936627388,-2.6875016689300537,-2.5718953609466553
1779909913814745600,6.62074560546875,-0.18356500566005707,-1.8779524564743042,-2.3406829833984375
1779909913831075600,6.63707568359375,0.28649580478668213,-0.5904012322425842,-2.317011833190918
1779909913847411700,6.65341162109375,0.351400226354599,0.5864306092262268,-2.581974744796753
1779909913863732200,6.669732177734375,0.26771169900894165,0.903164267539978,-2.7985262870788574
1779909913880078300,6.686078369140625,0.14492778480052948,0.04566217586398125,-2.785851001739502
1779909913896407800,6.70240771484375,-0.002138028386980295,-1.6774359941482544,-2.4491114616394043
1779909913912750000,6.71875,-0.15913039445877075,-2.152841806411743,-2.378861904144287
1779909913929077500,6.735077392578125,-0.5201517343521118,-1.920865774154663,-2.1734585762023926
1779909913945411300,6.751411376953125,-1.0224356651306152,-1.6464345455169678,-1.75303053855896
1779909913961719000,6.767718994140625,-1.309084177017212,-1.880243182182312,-1.4332425594329834
1779909913978064100,6.784064208984375,-1.2260065078735352,-2.3351850509643555,-1.060920238494873
1779909913994393600,6.8003935546875,-1.1911872625350952,-2.721710205078125,-0.7727445363998413
1779909914010731800,6.816731689453125,-1.1643091440200806,-2.7841711044311523,-0.6427829265594482
1779909914027062500,6.8330625,-1.0856602191925049,-2.701857089996338,-0.7081455588340759
1779909914043397600,6.849397705078125,-0.903164267539978,-2.514932155609131,-0.6759223937988281
1779909914059745800,6.865745849609375,-0.6672175526618958,-2.152689218521118,-0.37461310625076294
1779909914076076500,6.88207666015625,-0.44745880365371704,-1.7292068004608154,0.20631973445415497
1779909914092409000,6.8984091796875,-0.36651915311813354,-1.0473284721374512,1.048092007637024
1779909914108743000,6.914742919921875,-0.3237585723400116,-0.3911064863204956,1.6630805730819702
1779909914125075000,6.931074951171875,-0.2658790946006775,0.1488984078168869,2.116189956665039
1779909914141406700,6.94740673828125,-0.27229318022727966,0.6249151229858398,2.6542093753814697
1779909914157737200,6.9637373046875,-0.18341228365898132,0.4769330322742462,2.9466612339019775
1779909914174048800,6.980048828125,0.17760907113552094,0.30253100395202637,1.7747162580490112
1779909914190392300,6.996392333984375,0.11743884533643723,0.09117163717746735,-0.39736783504486084
1779909914206727000,7.012726806640625,0.005039638374000788,-2.0221166610717773,-1.7119498252868652
1779909914223059700,7.029059814453125,-0.07406741380691528,-3.282484292984009,-2.0755674839019775
1779909914239393500,7.0453935546875,-0.1036943718791008,-3.101210117340088,-1.41384756565094
1779909914255724500,7.061724609375,-0.25274550914764404,-0.9046914577484131,-0.05711590126156807
1779909914272063200,7.078063232421875,-0.2945897579193115,1.13758385181427,1.081842303276062
1779909914288406300,7.09440625,-0.6731734871864319,2.5586090087890625,2.1868975162506104
1779909914304706300,7.110706298828125,-0.5528330206871033,4.754974842071533,2.5167648792266846
1779909914321045800,7.127045654296875,0.6540839672088623,4.749629974365234,1.7898352146148682
1779909914337382400,7.14338232421875,0.7686212062835693,-0.5787948369979858,-0.2961169183254242
1779909914353709300,7.159709228515625,0.1918116807937622,-2.930778741836548,-0.6288857460021973
1779909914370047200,7.176047119140625,0.14676037430763245,-2.3904683589935303,0.08628471940755844
1779909914386378800,7.192378662109375,0.5006040930747986,-0.07513642311096191,0.7111998796463013
1779909914402728000,7.20872802734375,0.5503895878791809,3.2566752433776855,1.3768903017044067
1779909914419054800,7.225054931640625,0.7744244337081909,5.382944583892822,2.308154344558716
1779909914435375000,7.241375,1.5708400011062622,5.6402716636657715,2.7685940265655518
1779909914451712300,7.257712158203125,1.572825312614441,2.813797950744629,1.4479033946990967
1779909914468056300,7.274056396484375,0.6498079299926758,-2.1258111000061035,0.5511531829833984
1779909914484388900,7.290388916015625,-0.18814650177955627,-2.9164233207702637,2.0474674701690674
1779909914500722000,7.306721923828125,-0.9384417533874512,-0.13041973114013672,2.6285531520843506
1779909914517047300,7.32304736328125,-1.0858129262924194,2.2879958152770996,1.9408715963363647
1779909914533376000,7.3393759765625,-1.0018190145492554,2.415361166000366,1.5928311347961426
1779909914549723600,7.3557236328125,-0.7787004709243774,1.7647897005081177,1.7985399961471558
1779909914566069200,7.3720693359375,-0.3136793076992035,1.4033101797103882,1.5697709321975708
1779909914582400300,7.388400146484375,0.18096883594989777,1.4732542037963867,1.0699304342269897
1779909914598719000,7.404718994140625,0.5074763298034668,1.4729487895965576,0.7903069257736206
1779909914615032000,7.421031982421875,0.6569855809211731,1.4340062141418457,0.9447031021118164
1779909914631393800,7.437393798828125,0.675616979598999,1.2267701625823975,1.1643091440200806
1779909914647738600,7.453738525390625,0.6487388610839844,1.1015427112579346,1.2165381908416748
1779909914664053200,7.47005322265625,0.6401867866516113,1.2428053617477417,1.1120802164077759
1779909914680384500,7.486384521484375,0.6626361012458801,1.4196507930755615,0.8946121335029602
1779909914696719600,7.5027197265625,0.7021896243095398,1.443474531173706,0.5143485069274902
1779909914713052700,7.519052734375,0.6235406994819641,1.3852896690368652,0.29825496673583984
1779909914729383200,7.535383056640625,0.45433104038238525,1.0248792171478271,0.44837507605552673
1779909914745725700,7.5517255859375,0.3039054572582245,0.6692028641700745,0.5418374538421631
1779909914762051600,7.568051513671875,0.13515393435955048,0.7186829447746277,0.46502116322517395
1779909914778398500,7.5843984375,-0.043218716979026794,0.5920811295509338,0.4499022662639618
1779909914794728400,7.600728515625,-0.11041389405727386,0.3683517575263977,0.39645153284072876
1779909914811066400,7.61706640625,-0.1713477075099945,0.34956762194633484,0.15073099732398987
1779909914827398000,7.63339794921875,-0.2964223623275757,0.14584407210350037,-0.1843285858631134
1779909914843715000,7.649715087890625,-0.479834645986557,-0.2018909603357315,-0.6559165716171265
1779909914860052700,7.666052734375,-0.9349292516708374,-0.45326200127601624,-1.3603968620300293
1779909914876382500,7.682382568359375,-1.4741705656051636,-0.6349944472312927,-1.942704200744629
1779909914892716000,7.698716064453125,-1.7356208562850952,-1.0103710889816284,-2.283414363861084
1779909914909051000,7.71505078125,-1.6022995710372925,-1.5276212692260742,-2.429105758666992
1779909914925383200,7.731383056640625,-1.4078916311264038,-2.1642956733703613,-2.4964535236358643
1779909914941720300,7.74772021484375,-0.9202684760093689,-2.4246768951416016,-2.448806047439575
1779909914958049300,7.76404931640625,-0.11621711403131485,-1.772883653640747,-2.3654229640960693
1779909914974381600,7.780381591796875,0.5123631954193115,-0.6397286057472229,-2.447584390640259
1779909914990715400,7.79671533203125,0.71318519115448,0.2015855312347412,-2.580142021179199
1779909915007043600,7.813043701171875,0.5633704662322998,0.10583240538835526,-2.610074520111084
1779909915023384800,7.829384765625,0.47601673007011414,-1.013578176498413,-2.6841418743133545
1779909915039715000,7.845715087890625,0.669966459274292,-1.9352210760116577,-3.00118088722229
1779909915056063700,7.862063720703125,0.4544837474822998,-2.1349740028381348,-2.9136745929718018
1779909915072361500,7.878361572265625,-0.06475171446800232,-1.6351335048675537,-2.4194846153259277
1779909915088703200,7.894703125,-0.40973785519599915,-1.0152580738067627,-2.046398639678955
1779909915105035500,7.911035400390625,-0.5451972484588623,-0.96883225440979,-1.772578239440918
1779909915121369900,7.927369873046875,-0.7347181439399719,-1.38849675655365,-1.4857770204544067
1779909915137701000,7.943701171875,-0.8078693151473999,-1.9255999326705933,-1.268614411354065
1779909915154034400,7.960034423828125,-0.7771732807159424,-2.285705089569092,-1.1742357015609741
1779909915170366700,7.97636669921875,-0.6188064813613892,-2.367713689804077,-1.07771897315979
1779909915186701000,7.992701171875,-0.43127086758613586,-2.2655465602874756,-0.7658722996711731
1779909915203032300,8.0090322265625,-0.23854288458824158,-2.021047592163086,-0.25335636734962463
1779909915219367000,8.025366943359375,-0.13057245314121246,-1.613753318786621,0.40775254368782043
1779909915235702500,8.04170263671875,-0.06001751124858856,-1.1525499820709229,0.9973902106285095
1779909915252044000,8.0580439453125,-0.11499538272619247,-0.7709119319915771,1.4388930797576904
1779909915268377300,8.07437744140625,-0.3900374472141266,-0.30146199464797974,1.9248363971710205
1779909915284712400,8.09071240234375,-0.5319108963012695,0.14584407210350037,2.1922426223754883
1779909915301041000,8.107041015625,-0.17989981174468994,-0.023365596309304237,1.2038626670837402
1779909915317374000,8.1233740234375,-0.346818745136261,-0.09056077152490616,0.37827831506729126
1779909915333717500,8.139717529296876,-0.44318273663520813,-0.03390302136540413,-0.3260493278503418
1779909915350040300,8.156040283203126,-0.5532912015914917,-0.5700899958610535,-0.982729434967041
1779909915366389500,8.172389404296876,-0.4853324294090271,-1.3715451955795288,-1.0403034687042236
1779909915382725000,8.18872509765625,-0.011759156361222267,-1.0737483501434326,-0.7452555894851685
1779909915399055000,8.20505517578125,0.779464066028595,-0.31413745880126953,-0.3982841372489929
1779909915415389200,8.22138916015625,0.5558874011039734,1.4669928550720215,-0.21960605680942535
1779909915431687200,8.237687255859376,0.2428189367055893,3.905414342880249,0.8063421249389648
1779909915448050400,8.254050537109375,0.20815233886241913,4.064086437225342,1.0994046926498413
1779909915464374800,8.270374755859375,-0.4859432876110077,1.7733417749404907,0.48487427830696106
1779909915480708400,8.286708251953126,-0.2672535479068756,0.39614611864089966,0.6151412725448608
1779909915497039000,8.3030390625,0.16264286637306213,1.3093897104263306,1.274264931678772
1779909915513374500,8.31937451171875,0.3090978264808655,2.2264511585235596,1.889711618423462
1779909915529706200,8.335706298828125,0.4749477207660675,2.861140012741089,2.3437371253967285
1779909915546042000,8.3520419921875,1.1520918607711792,3.1694743633270264,2.616335868835449
1779909915562368000,8.368367919921875,1.8535178899765015,2.9570460319519043,2.3629794120788574
1779909915578724900,8.384724853515625,1.3326025009155273,0.7831292152404785,1.3765848875045776
1779909915595052300,8.40105224609375,0.0013744467869400978,-0.3013092875480652,1.4220943450927734
1779909915611385300,8.41738525390625,-0.618195652961731,0.982729434967041,1.7092009782791138
1779909915627735800,8.43373583984375,-0.7240280508995056,2.554791212081909,1.7562376260757446
1779909915644036400,8.450036376953125,-0.751669704914093,2.4439191818237305,1.965153455734253
1779909915660370000,8.466369873046874,-0.6140722632408142,1.4172073602676392,1.9297232627868652
1779909915676705300,8.482705322265625,-0.1797471046447754,1.3868168592453003,1.4787520170211792
1779909915693049900,8.4990498046875,0.2603813111782074,2.0398318767547607,1.1166616678237915
1779909915709371100,8.51537109375,0.5268712639808655,2.2227859497070312,1.2218831777572632
1779909915725702100,8.5317021484375,0.5868887901306152,1.702786922454834,1.4818063974380493
1779909915742035500,8.548035400390624,0.6614143252372742,0.8747590184211731,1.47844660282135
1779909915758382800,8.5643828125,0.8118399381637573,0.5035057067871094,1.2953397035598755
1779909915774722800,8.580722900390626,0.9150761365890503,1.084591269493103,1.0250319242477417
1779909915791043600,8.597043701171875,0.9083566069602966,1.853365182876587,0.6623306274414062
1779909915807392500,8.613392578125,0.8370380997657776,2.102445363998413,0.3081815242767334
1779909915823711000,8.6297109375,0.7370089292526245,1.7928894758224487,0.18448130786418915
1779909915840046800,8.646046875,0.5526803135871887,1.183398723602295,0.36331209540367126
1779909915856382000,8.6623818359375,0.3930917978286743,0.803440511226654,0.4899139404296875
1779909915872725000,8.67872509765625,0.31322115659713745,0.7704538106918335,0.4156937897205353
1779909915889040400,8.695040283203125,0.09575312584638596,0.7889324426651001,0.34758231043815613
1779909915905380900,8.711380859375,-0.13026700913906097,0.4352414906024933,0.42730024456977844
1779909915921682700,8.7276826171875,-0.053297992795705795,0.022449297830462456,0.5647448897361755
1779909915938043400,8.74404345703125,0.0630718395113945,-0.14874568581581116,0.43967026472091675
1779909915954367700,8.76036767578125,0.00427605677396059,-0.27641651034355164,0.03145955875515938
1779909915970699300,8.77669921875,-0.10033461451530457,-0.7267768979072571,-0.3784310221672058
1779909915987033300,8.793033447265625,-0.46792277693748474,-0.8830057382583618,-0.8023715019226074
1779909916003367000,8.809366943359375,-1.0548115968704224,-1.042594313621521,-1.2864822149276733
1779909916019698700,8.82569873046875,-1.3895657062530518,-1.3666582107543945,-1.6934711933135986
1779909916036030500,8.842030517578126,-1.3994922637939453,-1.6725490093231201,-2.0334177017211914
1779909916052371500,8.858371337890626,-1.3318389654159546,-2.0230329036712646,-2.2996022701263428
1779909916068712200,8.874712158203126,-1.200502872467041,-2.4695754051208496,-2.5031731128692627
1779909916085045000,8.891044921875,-0.8257371187210083,-2.4165828227996826,-2.506532907485962
1779909916101391000,8.90739111328125,-0.20845776796340942,-1.427744746208191,-2.3162481784820557
1779909916117707300,8.923707275390624,0.194713294506073,-0.16890424489974976,-2.258979558944702
1779909916134029300,8.940029296875,0.3170390725135803,0.707534670829773,-2.4080307483673096
1779909916150352000,8.956351806640624,0.25702154636383057,0.6209444999694824,-2.5282185077667236
1779909916166685700,8.972685791015625,0.16844609379768372,-0.5755877494812012,-2.538145065307617
1779909916183017200,8.989017333984375,0.1736384481191635,-2.39825701713562,-2.3438899517059326
1779909916199351800,9.005351806640626,0.02626720629632473,-2.936734676361084,-2.3021984100341797
1779909916215683000,9.02168310546875,-0.4164573848247528,-2.065182685852051,-2.1843013763427734
1779909916232017700,9.038017578125,-0.7631233930587769,-1.5068517923355103,-1.944231390953064
1779909916248349200,9.05434912109375,-0.813825249671936,-1.5008958578109741,-1.6600263118743896
1779909916264684000,9.07068408203125,-0.8206974864006042,-1.8712329864501953,-1.3918564319610596
1779909916281016800,9.087016845703126,-0.8432994484901428,-2.422996997833252,-1.2090550661087036
1779909916297350400,9.103350341796874,-0.8678867816925049,-2.5757133960723877,-1.1563678979873657
1779909916313682700,9.1196826171875,-0.8715519905090332,-2.5300512313842773,-1.117730736732483
1779909916330015000,9.136014892578125,-0.7568620443344116,-2.539824962615967,-0.8755226135253906
1779909916346363400,9.15236328125,-0.589790403842926,-2.2814290523529053,-0.375529408454895
1779909916362695400,9.1686953125,-0.4340197443962097,-1.9630154371261597,0.3016147017478943
1779909916379026700,9.185026611328125,-0.299018532037735,-1.4677565097808838,0.9685268402099609
1779909916395360500,9.201360595703125,-0.24633140861988068,-0.8472700715065002,1.5256359577178955
1779909916411688400,9.2176884765625,-0.3153591752052307,-0.27030786871910095,2.1096231937408447
1779909916428027100,9.234027099609374,-0.29657506942749023,0.09193521738052368,2.523637056350708
1779909916444383700,9.2503837890625,0.09254608303308487,0.09941831976175308,2.032959461212158
1779909916460702000,9.266701904296875,0.3003929853439331,0.6155994534492493,0.4424191415309906
1779909916477025500,9.283025634765625,-0.06872233748435974,-0.5816964507102966,-0.46822822093963623
1779909916493358800,9.29935888671875,-0.4031710624694824,-1.9541579484939575,-1.1184942722320557
1779909916509691600,9.315691650390624,-0.4001167416572571,-2.8480064868927,-1.051146388053894
1779909916526026500,9.332026611328125,-0.2961169183254242,-2.3295345306396484,-0.5447390675544739
1779909916542356700,9.348356689453125,0.08552113175392151,-0.44196099042892456,-0.01817324012517929
1779909916558702800,9.364702880859374,0.19532416760921478,1.5477797985076904,0.11133018881082535
1779909916575023000,9.381023193359376,-0.34804046154022217,3.6616790294647217,-0.12293662875890732
1779909916591352300,9.397352294921875,-1.026253581047058,3.310736894607544,0.45326200127601624
1779909916607697000,9.41369677734375,-1.2015719413757324,1.6997325420379639,0.23197607696056366
1779909916624027100,9.430027099609376,-0.8338310718536377,0.3880521357059479,0.31749722361564636
1779909916640354800,9.446354736328125,-0.060322944074869156,-0.7719809412956238,0.618195652961731
1779909916656690200,9.462690185546874,0.5145012736320496,0.1495092660188675,0.9961684942245483
1779909916673022000,9.47902197265625,0.8538368940353394,1.7418822050094604,1.9949331283569336
1779909916689359400,9.495359375,1.3416128158569336,2.8971810340881348,3.050966501235962
1779909916705688800,9.511688720703125,1.9191858768463135,2.9906435012817383,3.3455562591552734
1779909916722019300,9.528019287109375,1.8301522731781006,1.5508341789245605,1.9882136583328247
1779909916738357800,9.544357666015625,0.6210972666740417,-0.8932377099990845,0.4812090992927551
1779909916754677800,9.560677734375,-0.2431243658065796,-0.9824240207672119,0.8582656979560852
1779909916771033000,9.577033203125,-0.6682865619659424,0.5001459121704102,1.2147055864334106
1779909916787371800,9.593371826171875,-0.8055785298347473,1.8354973793029785,1.6297885179519653
1779909916803679200,9.60967919921875,-0.9578366875648499,1.686140775680542,2.1901047229766846
1779909916820020500,9.6260205078125,-0.8827002644538879,0.9734137654304504,2.3883304595947266
1779909916836345000,9.642344970703125,-0.38011088967323303,0.5997169613838196,1.9756909608840942
1779909916852687400,9.658687255859375,0.08781187981367111,1.1617130041122437,1.39323091506958
1779909916869019600,9.67501953125,0.394008070230484,1.7979291677474976,1.2599095106124878
1779909916885342500,9.691342529296875,0.555429220199585,1.969276785850525,1.3987287282943726
1779909916901674500,9.707674560546875,0.722348153591156,1.1772900819778442,1.5708400011062622
1779909916918011400,9.724011474609375,0.8704829812049866,0.06185010448098183,1.5708400011062622
1779909916934351600,9.7403515625,0.8390234112739563,0.11820242553949356,1.2789990901947021
1779909916950684400,9.756684326171875,0.7603744864463806,1.1788171529769897,0.979216992855072
1779909916967017500,9.773017578125,0.6834055185317993,2.177276372909546,0.6783658266067505
1779909916983352300,9.789352294921875,0.5493205785751343,2.169487953186035,0.4127921760082245
1779909916999684000,9.80568408203125,0.4349360466003418,1.29549241065979,0.4358523488044739
1779909917016018400,9.822018310546875,0.35033121705055237,0.8184067010879517,0.489608496427536
1779909917032350000,9.838349853515625,0.2793181240558624,0.9970847964286804,0.30573806166648865
1779909917048684000,9.85468408203125,0.07559457421302795,1.2634220123291016,0.11331550031900406
1779909917065032400,9.871032470703126,-0.2376265823841095,0.8471173644065857,0.22220222651958466
1779909917081362200,9.887362060546875,-0.26481008529663086,0.08170322328805923,0.43249258399009705
1779909917097693000,9.90369287109375,-0.182648703455925,-0.15393804013729095,0.384845107793808
1779909917122176300,9.92817626953125,-0.33047810196876526,-0.3407101035118103,-0.07437284290790558
1779909917138517200,9.944517333984376,-0.5044219493865967,-0.7483099102973938,-0.5528330206871033
1779909917154847000,9.960846923828125,-0.8190175890922546,-1.0561859607696533,-1.1606439352035522
1779909917171181600,9.977181640625,-1.3319916725158691,-1.1122329235076904,-1.6307047605514526
1779909917187510300,9.99351025390625,-1.493565559387207,-1.2327260971069336,-2.052201747894287
1779909917203852800,10.009852783203126,-1.3949108123779297,-1.569007396697998,-2.4274258613586426
1779909917220176400,10.02617626953125,-1.2906055450439453,-2.130392551422119,-2.6537513732910156
1779909917236519400,10.04251953125,-0.8394815921783447,-2.395660877227783,-2.7308731079101562
1779909917252847000,10.05884716796875,-0.166460782289505,-1.6812539100646973,-2.649627923965454
1779909917269191000,10.07519091796875,0.2768746614456177,-0.4427245855331421,-2.554027557373047
1779909917285527300,10.09152734375,0.3666718602180481,0.5737552046775818,-2.5447118282318115
1779909917301845800,10.107845703125,0.3608686327934265,0.9714284539222717,-2.5692992210388184
1779909917318190000,10.124190185546874,0.24572055041790009,-0.11316278576850891,-2.391690254211426
1779909917334526200,10.140526123046875,0.07590000331401825,-2.2006421089172363,-2.26737904548645
1779909917350854700,10.156854736328125,0.10873401165008545,-2.6762006282806396,-2.565175771713257
1779909917367194000,10.173194091796875,-0.1661553531885147,-2.1626157760620117,-2.48209810256958
1779909917383519700,10.189519775390625,-0.5946773290634155,-1.5471689701080322,-2.1699459552764893
1779909917399860700,10.20586083984375,-0.6950119137763977,-1.4424055814743042,-1.7800613641738892
1779909917416192000,10.22219189453125,-0.7363980412483215,-1.7186694145202637,-1.3807082176208496
1779909917432524300,10.238524169921876,-0.7728972434997559,-1.9788979291915894,-1.0911580324172974
1779909917448862700,10.25486279296875,-0.7761042714118958,-2.0473148822784424,-0.9172141551971436
1779909917465166600,10.27116650390625,-0.7806857824325562,-1.9507981538772583,-0.8232936263084412
1779909917481517800,10.287517822265626,-0.6908885836601257,-1.8727601766586304,-0.6250678896903992
1779909917497843500,10.303843505859374,-0.5674937963485718,-1.7478381395339966,-0.24908030033111572
1779909917514175700,10.32017578125,-0.4060726761817932,-1.4492777585983276,0.21639901399612427
1779909917530504700,10.336504638671874,-0.28909197449684143,-1.056491494178772,0.7722864151000977
1779909917546842600,10.352842529296876,-0.18051068484783173,-0.6414085030555725,1.3122912645339966
1779909917563178200,10.36917822265625,-0.08689557760953903,-0.23121249675750732,1.829694151878357
1779909917579508500,10.385508544921874,-0.1007927656173706,0.043676864355802536,2.3625214099884033
1779909917595842000,10.401842041015625,-0.15393804013729095,-0.024892758578062057,2.5810582637786865
1779909917612174300,10.41817431640625,0.10995574295520782,-0.346818745136261,1.1207849979400635
1779909917628507100,10.434507080078125,-0.03726277872920036,-0.36422839760780334,-0.3104722499847412
1779909917644840200,10.450840087890626,-0.3833179473876953,-0.7973318696022034,-0.7588473558425903
1779909917661173800,10.467173828125,-0.3700316250324249,-0.9970847964286804,-0.9529497623443604
1779909917677504800,10.4835048828125,-0.4648684561252594,-1.5222761631011963,-0.5772676467895508
1779909917693841200,10.499841064453125,-0.21838432550430298,-1.2635747194290161,-0.23350323736667633
1779909917710171400,10.51617138671875,0.5972734689712524,-0.3199406862258911,-0.2971859276294708
1779909917726506000,10.532506103515624,0.5251913666725159,1.2705997228622437,-0.45066583156585693
1779909917742838500,10.548838623046874,-0.126143679022789,3.5938730239868164,0.5473352670669556
1779909917759172000,10.565172119140625,-0.7492262125015259,3.176651954650879,0.8307767510414124
1779909917775505200,10.581505126953125,-0.9497427344322205,1.5474743843078613,0.3257438838481903
1779909917791838000,10.597837890625,-0.5540547966957092,0.8336783647537231,0.4205807149410248
1779909917808157400,10.614157470703125,0.12476922571659088,1.0932960510253906,1.1157454252243042
1779909917824493300,10.630493408203124,0.670577347278595,1.9909625053405762,2.146427869796753
1779909917840825600,10.64682568359375,1.3238977193832397,3.141221761703491,2.736370801925659
1779909917857160200,10.66316015625,2.119244337081909,3.6702311038970947,2.847548246383667
1779909917873492700,10.67949267578125,2.548682451248169,2.9487993717193604,2.3988678455352783
1779909917889824500,10.695824462890625,1.5373951196670532,-0.26679539680480957,1.0027352571487427
1779909917906172000,10.712171875,0.22663100063800812,-1.2889256477355957,0.8772025108337402
1779909917922490000,10.728489990234374,-0.399200439453125,0.49984049797058105,1.4329371452331543
1779909917938835200,10.744835205078125,-0.6481280326843262,1.8990273475646973,1.7383698225021362
1779909917955168800,10.761168701171876,-0.8710938692092896,1.9324722290039062,1.9062049388885498
1779909917971512300,10.77751220703125,-0.9166033267974854,1.5651894807815552,2.0221166610717773
1779909917987833900,10.793833740234374,-0.574976921081543,1.3753631114959717,1.9811886548995972
1779909918004168400,10.81016845703125,-0.10797043144702911,1.9396498203277588,1.617876648902893
1779909918020500000,10.8265,0.2664899528026581,1.7742581367492676,1.29381263256073
1779909918036834600,10.84283447265625,0.5097670555114746,0.8762862086296082,1.2160799503326416
1779909918053177600,10.859177490234375,0.6131559610366821,0.24297164380550385,1.2044734954833984
1779909918069500400,10.87550048828125,0.565203070640564,0.3449861407279968,0.9892962574958801
1779909918085826000,10.891825927734375,0.5316054821014404,1.1293370723724365,0.737772524356842
1779909918102166800,10.908166748046876,0.5025894045829773,2.094046115875244,0.6146831512451172
1779909918118497000,10.9244970703125,0.47708576917648315,2.330756425857544,0.641255795955658
1779909918134835000,10.9408349609375,0.5934556126594543,1.355051875114441,0.7437284588813782
1779909918151163600,10.95716357421875,0.7414376735687256,0.4205807149410248,0.6035348773002625
1779909918167499000,10.9734990234375,0.7654141783714294,0.6130032539367676,0.3066543638706207
1779909918183831300,10.989831298828125,0.5650503635406494,1.2583824396133423,0.15806138515472412
1779909918200164600,11.00616455078125,0.23151792585849762,1.2947288751602173,0.14828753471374512
1779909918216498200,11.022498291015625,-0.06627888232469559,0.7512115240097046,0.2945897579193115
1779909918232830700,11.038830810546875,-0.1469130963087082,0.12370020896196365,0.46868637204170227
1779909918249163500,11.05516357421875,-0.11468994617462158,0.018478672951459885,0.5346598029136658
1779909918265482200,11.071482177734374,-0.1333213448524475,0.15515977144241333,0.33200526237487793
1779909918281829000,11.0878291015625,-0.15531249344348907,-0.13301590085029602,-0.049785517156124115
1779909918298161000,11.104160888671874,-0.2921462953090668,-0.4970915913581848,-0.49357911944389343
1779909918314500600,11.12050048828125,-0.7710646390914917,-0.608421802520752,-0.9392052888870239
1779909918330830800,11.136830810546876,-1.2345587015151978,-0.8804095387458801,-1.3946053981781006
1779909918347163400,11.153163330078126,-1.405295491218567,-1.3991868495941162,-1.771356463432312
1779909918363496400,11.169496337890624,-1.5322027206420898,-1.7117971181869507,-2.1813998222351074
1779909918379828700,11.185828857421875,-1.5315918922424316,-2.017993450164795,-2.540894031524658
1779909918396162300,11.202162353515625,-1.2961033582687378,-2.4110851287841797,-2.6836836338043213
1779909918412494300,11.218494384765625,-0.6591235995292664,-2.0783162117004395,-2.607783794403076
1779909918428827100,11.2348271484375,0.05146539583802223,-0.9117164015769958,-2.4714081287384033
1779909918445148200,11.251148193359375,0.4034765064716339,0.27320948243141174,-2.473546028137207
1779909918461481700,11.267481689453126,0.47510045766830444,0.9404270648956299,-2.573880672454834
1779909918477826800,11.283826904296875,0.3312416672706604,0.6766859889030457,-2.6448938846588135
1779909918494161400,11.300161376953126,0.1437060534954071,-0.9491318464279175,-2.495689868927002
1779909918510492700,11.31649267578125,0.001832595793530345,-2.484541654586792,-2.481487274169922
1779909918526825700,11.33282568359375,-0.21212296187877655,-2.199267625808716,-2.5244007110595703
1779909918543159600,11.34915966796875,-0.746630072593689,-1.4089607000350952,-2.1817052364349365
1779909918559493400,11.365493408203125,-1.0421360731124878,-1.2455542087554932,-1.7869335412979126
1779909918575810600,11.381810546875,-0.9708175659179688,-1.3539828062057495,-1.500590443611145
1779909918592146200,11.398146240234375,-0.8651378750801086,-1.7449365854263306,-1.3232868909835815
1779909918608479200,11.414479248046876,-0.8666650652885437,-2.1562016010284424,-1.2278391122817993
1779909918624813300,11.430813232421874,-0.9132435321807861,-2.3846652507781982,-1.1582005023956299
1779909918641146000,11.44714599609375,-0.8579602241516113,-2.4413230419158936,-0.9750936627388
1779909918657478700,11.463478759765625,-0.6719517707824707,-2.314262866973877,-0.5931501388549805
1779909918673814000,11.47981396484375,-0.47601673007011414,-1.9781343936920166,-0.03741549700498581
1779909918690146800,11.496146728515624,-0.31902438402175903,-1.4631749391555786,0.6531676650047302
1779909918706479600,11.512479736328125,-0.1976149082183838,-0.8342891931533813,1.3532192707061768
1779909918722825700,11.52882568359375,-0.1134682223200798,-0.304669052362442,2.0036380290985107
1779909918739156500,11.545156494140626,-0.11041389405727386,0.021380282938480377,2.556929111480713
1779909918755490300,11.561490234375,-0.06612616032361984,-0.35445454716682434,2.6065618991851807
1779909918771809800,11.577809814453126,0.3666718602180481,-0.1160643994808197,0.5923865437507629
1779909918788156700,11.59415673828125,-0.0959058403968811,0.28359419107437134,-0.7533495426177979
1779909918804488700,11.61048876953125,-0.37888917326927185,-1.4850133657455444,-1.2260065078735352
1779909918820821200,11.6268212890625,-0.5128213763237,-1.7916678190231323,-1.1951578855514526
1779909918837142300,11.643142333984375,-0.5934556126594543,-2.4579689502716064,-0.5016731023788452
1779909918853487400,11.6594873046875,-0.3856086730957031,-1.525483250617981,-0.11392636597156525
1779909918869821200,11.6758212890625,0.12629638612270355,-0.43386703729629517,-0.04764748737215996
1779909918886153000,11.692153076171875,-0.028099801391363144,0.8952230215072632,0.9292787313461304
1779909918902487800,11.70848779296875,-0.024587325751781464,3.497509002685547,1.6270395517349243
1779909918918819600,11.724819580078124,0.14355333149433136,4.402353286743164,1.203251838684082
1779909918935153700,11.741153564453125,-0.5836817622184753,1.1290316581726074,-0.3338378667831421
1779909918951477000,11.75747705078125,-0.6075055003166199,0.13118331134319305,-0.3799581825733185
1779909918967815400,11.7738154296875,-0.3449861407279968,-0.0659734457731247,0.10873401165008545
1779909918984156400,11.790156494140625,0.05925392732024193,0.6873761415481567,0.7939720749855042
1779909919000475600,11.8064755859375,0.6152940392494202,2.08274507522583,1.4581353664398193
1779909919016818000,11.82281787109375,1.0803152322769165,3.369685411453247,2.180636167526245
1779909919033150200,11.839150146484375,1.8115209341049194,3.808439254760742,2.9290988445281982
1779909919049488100,11.855488037109374,2.2899811267852783,3.310584306716919,3.034931182861328
1779909919065808000,11.871807861328126,1.7360789775848389,0.6824892163276672,1.494939923286438
1779909919082152400,11.88815234375,0.5682573914527893,-1.6421585083007812,0.4283692538738251
1779909919098481400,11.9044814453125,-0.13729196786880493,-0.7086036801338196,0.9799805879592896
1779909919114816500,11.92081640625,-0.6736316680908203,1.1549934148788452,1.3691017627716064
1779909919131149000,11.937149169921875,-0.8596401214599609,2.113746404647827,1.6937766075134277
1779909919147483600,11.953483642578124,-0.9256135821342468,1.7899879217147827,1.8916969299316406
1779909919163811600,11.9698115234375,-0.8428413271903992,1.384678840637207,1.9194912910461426
1779909919180139300,11.98613916015625,-0.3484986126422882,1.197295904159546,1.6143641471862793
1779909919196480000,12.00247998046875,0.1788308024406433,1.4098769426345825,1.1965322494506836
1779909919212818000,12.01881787109375,0.44394633173942566,1.3235923051834106,1.0422887802124023
1779909919229149200,12.035149169921874,0.5983424782752991,1.1965322494506836,1.1876747608184814
1779909919245482200,12.051482177734375,0.7082982659339905,0.926835298538208,1.400255799293518
1779909919261818000,12.067818115234376,0.7941248416900635,0.6258314251899719,1.4411838054656982
1779909919278148400,12.0841484375,0.8959866166114807,0.8432994484901428,1.2299771308898926
1779909919294477800,12.100477783203125,0.9654725193977356,1.3978123664855957,0.9393580555915833
1779909919310817300,12.1168173828125,0.9714284539222717,1.5111279487609863,0.6459900140762329
1779909919327148000,12.13314794921875,0.8663596510887146,1.2446379661560059,0.4499022662639618
1779909919343479600,12.1494794921875,0.6681338548660278,1.0613783597946167,0.4893030524253845
1779909919359809500,12.1658095703125,0.46334129571914673,1.0374019145965576,0.5053382515907288
1779909919376135400,12.182135498046875,0.25045475363731384,1.1534663438796997,0.4053090810775757
1779909919392483300,12.1984833984375,0.015577063895761967,1.0033462047576904,0.43875396251678467
1779909919408811800,12.214811767578125,-0.07696902006864548,0.48915034532546997,0.5250386595726013
1779909919425146400,12.231146484375,-0.058184914290905,0.22846360504627228,0.5564982295036316
1779909919441463600,12.247463623046874,-0.12079860270023346,0.27259862422943115,0.2845104932785034
1779909919457813500,12.2638134765625,-0.17867808043956757,-0.05345070734620094,-0.2822197377681732
1779909919474145500,12.2801455078125,-0.39385536313056946,-0.4378376603126526,-0.7386888265609741
1779909919490476800,12.296476806640625,-0.9027060866355896,-0.8313875794410706,-1.1244502067565918
1779909919506811000,12.312810791015625,-1.4314099550247192,-1.2034045457839966,-1.5306755304336548
1779909919523129300,12.32912939453125,-1.6759088039398193,-1.4074335098266602,-1.9167424440383911
1779909919539480300,12.345480224609375,-1.633148193359375,-1.6015359163284302,-2.3803892135620117
1779909919555811600,12.3618115234375,-1.476613998413086,-2.0838141441345215,-2.699108123779297
1779909919572143900,12.378143798828125,-1.0140362977981567,-2.349998712539673,-2.7426321506500244
1779909919588477200,12.394477294921876,-0.3243694305419922,-1.5703818798065186,-2.5581510066986084
1779909919604810500,12.410810546875,0.16737708449363708,-0.313373863697052,-2.4773640632629395
1779909919621141500,12.4271416015625,0.3604104816913605,0.6282749176025391,-2.5844180583953857
1779909919637476000,12.44347607421875,0.3413209617137909,0.9750936627388,-2.7398834228515625
1779909919653809400,12.459809326171875,0.07024950534105301,-0.14706580340862274,-2.6732990741729736
1779909919670160400,12.476160400390626,-0.1111774742603302,-1.6922494173049927,-2.652682304382324
1779909919686460000,12.4924599609375,-0.09529497474431992,-2.3379340171813965,-2.77531361579895
1779909919702795500,12.50879541015625,-0.5537493228912354,-2.0922133922576904,-2.5303566455841064
1779909919719130000,12.525130126953124,-1.1146763563156128,-1.524566888809204,-2.244624376296997
1779909919735462400,12.54146240234375,-1.238071084022522,-1.5031867027282715,-2.069153308868408
1779909919751795000,12.557794921875,-1.1030699014663696,-1.7974709272384644,-1.9202549457550049
1779909919768129800,12.5741298828125,-0.9723447561264038,-2.3574817180633545,-1.8767307996749878
1779909919784460500,12.59046044921875,-0.9181304574012756,-2.7351491451263428,-1.8944458961486816
1779909919800794000,12.606794189453124,-0.8636107444763184,-2.7962355613708496,-1.804495930671692
1779909919817127400,12.62312744140625,-0.7032586336135864,-2.5360071659088135,-1.3432927131652832
1779909919833461000,12.6394609375,-0.5502368807792664,-2.2423336505889893,-0.7000515460968018
1779909919849793500,12.65579345703125,-0.34147366881370544,-1.7890715599060059,-0.096211276948452
1779909919866127000,12.672127197265626,-0.23365595936775208,-1.3814717531204224,0.4749477207660675
1779909919882463000,12.688462890625,-0.2565633952617645,-0.9573785662651062,1.059698462486267
1779909919898804200,12.70480419921875,-0.3481931984424591,-0.4639521539211273,1.5031867027282715
1779909919915138300,12.72113818359375,-0.4764748811721802,-0.03894266113638878,1.3829989433288574
1779909919931458600,12.73745849609375,-0.46379944682121277,0.08261952549219131,0.47448956966400146
1779909919947806500,12.753806396484375,-0.27488934993743896,-0.6896668672561646,0.5018258094787598
1779909919964137000,12.770136962890625,-0.01863138936460018,-1.326341152191162,0.8148942589759827
1779909919980469200,12.78646923828125,-0.1540907621383667,-1.417970895767212,0.7961101531982422
1779909919996804600,12.8028046875,-0.40591996908187866,-1.1705704927444458,0.4502076804637909
1779909920013137000,12.819136962890624,-0.3546072840690613,-0.10247264802455902,0.0007635815418325365
1779909920029454000,12.8354541015625,-0.25182920694351196,1.4986051321029663,-0.37797287106513977
1779909920045807600,12.8518076171875,-0.05849034711718559,2.3237314224243164,0.6290385127067566
1779909920062124300,12.868124267578125,-0.005345070734620094,1.7768542766571045,0.7528914213180542
1779909920078469000,12.88446923828125,-0.01924225501716137,1.5668693780899048,0.5247332453727722
1779909920094788400,12.900788330078125,0.27091872692108154,1.0212140083312988,0.7651087045669556
1779909920111125500,12.91712548828125,0.5639813542366028,1.8174768686294556,1.3498594760894775
1779909920127467800,12.9334677734375,0.7631233930587769,2.6732990741729736,2.0260872840881348
1779909920143803100,12.94980322265625,0.7044803500175476,3.1343495845794678,2.9523117542266846
1779909920160122600,12.96612255859375,0.8077165484428406,3.3144021034240723,3.55340313911438
1779909920176467500,12.982467529296875,1.1362093687057495,3.2258267402648926,3.085327625274658
1779909920192800800,12.99880078125,1.335504174232483,2.157728672027588,1.7508925199508667
1779909920209136000,13.01513623046875,1.176831841468811,0.15347988903522491,0.5097670555114746
1779909920225464300,13.03146435546875,0.8177958726882935,-0.1788308024406433,-0.011453723534941673
1779909920241789400,13.04778955078125,0.2515237629413605,0.5094616413116455,0.47601673007011414
1779909920258133500,13.064133544921875,-0.2597704529762268,1.1711814403533936,1.39323091506958
1779909920274466300,13.08046630859375,-0.5114469528198242,0.9598219990730286,1.9072740077972412
1779909920290799900,13.0967998046875,-0.5818491578102112,0.30970868468284607,1.807397484779358
1779909920307147300,13.113147216796875,-0.40653082728385925,-0.07299839705228806,1.6142114400863647
1779909920323479300,13.129479248046875,-0.22281309962272644,0.06383541971445084,1.6667457818984985
1779909920339819500,13.145819580078125,-0.126143679022789,0.5352706909179688,1.6157386302947998
1779909920356138200,13.16213818359375,0.060475658625364304,0.9553932547569275,1.4132367372512817
1779909920372485400,13.1784853515625,0.26679539680480957,1.0462594032287598,1.2808316946029663
1779909920388819200,13.194819091796875,0.4150829315185547,0.8956811428070068,1.400255799293518
1779909920405140500,13.211140380859375,0.545655369758606,0.6562219858169556,1.6418530941009521
1779909920421489200,13.2274892578125,0.661719799041748,0.29397889971733093,1.650099754333496
1779909920437810200,13.24381005859375,0.7640396952629089,0.16279558837413788,1.3924673795700073
1779909920454148400,13.2601484375,0.7515169382095337,0.7699956297874451,0.9075930118560791
1779909920470472000,13.276471923828124,0.5885686874389648,1.7791450023651123,0.20555615425109863
1779909920486803200,13.29280322265625,0.3378084897994995,2.065640926361084,-0.1569923609495163
1779909920503128000,13.309128173828125,0.1414152979850769,1.4792101383209229,0.10919216275215149
1779909920519462400,13.32546240234375,0.07696902006864548,0.8943067193031311,0.42928555607795715
1779909920535803000,13.341802978515625,0.07437284290790558,0.6801984310150146,0.5028948187828064
1779909920552128300,13.358128173828124,0.0003054326225537807,0.5036584138870239,0.4101960062980652
1779909920568461000,13.3744609375,-0.15653422474861145,0.24083362519741058,0.2623666226863861
1779909920584786200,13.3907861328125,-0.2942843437194824,-0.1281289905309677,0.2716823220252991
1779909920601126000,13.4071259765625,-0.3153591752052307,-0.5771149396896362,0.22540926933288574
1779909920617462000,13.4234619140625,-0.4075998365879059,-0.9624181985855103,-0.013897184282541275
1779909920633781500,13.439781494140625,-0.6937901973724365,-1.0395399332046509,-0.4558582007884979
1779909920650132500,13.456132568359376,-0.9239336848258972,-0.9172141551971436,-1.0482447147369385
1779909920666460000,13.4724599609375,-1.0934487581253052,-0.8943067193031311,-1.5558737516403198
1779909920682797800,13.4887978515625,-1.0968085527420044,-1.091616153717041,-2.0560197830200195
1779909920699129600,13.505129638671875,-1.0198395252227783,-1.5126550197601318,-2.4663684368133545
1779909920715455500,13.52145556640625,-0.7861835956573486,-1.9843957424163818,-2.6451992988586426
1779909920731780600,13.537780517578126,-0.4358523488044739,-1.9289597272872925,-2.5896105766296387
1779909920748125200,13.554125244140625,-0.009926560334861279,-1.0639744997024536,-2.433839797973633
1779909920764458200,13.570458251953125,0.2952006161212921,-0.38377609848976135,-2.3429737091064453
1779909920780792800,13.586792724609374,0.4434881806373596,-0.1417207419872284,-2.4642302989959717
1779909920797122000,13.6031220703125,0.5155702829360962,-0.28756481409072876,-2.6302330493927
1779909920813460200,13.619460205078125,0.5305364727973938,-0.8394815921783447,-2.6114490032196045
1779909920829814000,13.63581396484375,0.5352706909179688,-1.5297592878341675,-2.537075996398926
1779909920846141200,13.65214111328125,0.48548516631126404,-1.6074918508529663,-2.4775166511535645
1779909920862471700,13.6684716796875,0.328340083360672,-1.1033753156661987,-2.375807762145996
1779909920878806800,13.684806884765624,0.02474004216492176,-0.46700647473335266,-2.2237021923065186
1779909920895151400,13.7011513671875,-0.3162754774093628,-0.2611449062824249,-2.027156352996826
1779909920911485200,13.717485107421876,-0.6094908118247986,-0.6803511381149292,-1.8347337245941162
1779909920927798300,13.73379833984375,-0.8153523802757263,-1.3416128158569336,-1.533729910850525
1779909920944141800,13.750141845703125,-0.9135489463806152,-1.7024813890457153,-1.2024881839752197
1779909920960452900,13.766452880859376,-0.8828529715538025,-1.781130313873291,-0.9584475755691528
1779909920976763100,13.78276318359375,-0.7922922372817993,-1.8947513103485107,-0.630871057510376
1779909920993110000,13.799110107421875,-0.5639813542366028,-1.69622004032135,-0.25671613216400146
1779909921009457200,13.81545703125,-0.3127630054950714,-1.1959214210510254,0.25473082065582275
1779909921025784800,13.831784912109375,-0.06811147183179855,-0.6418666839599609,0.8808676600456238
1779909921042126000,13.8481259765625,0.015118914656341076,-0.2509129047393799,1.476613998413086
1779909921058451700,13.86445166015625,-0.02535090781748295,0.18005253374576569,1.9691240787506104
1779909921074789000,13.8807890625,-0.10522153973579407,0.2926044464111328,2.152841806411743
1779909921091119400,13.897119384765626,0.02687807008624077,0.30283644795417786,1.3700180053710938
1779909921107452700,13.91345263671875,0.21914790570735931,0.0024434609804302454,0.3026837408542633
1779909921123788300,13.929788330078125,-0.032070424407720566,-0.6017022728919983,0.3208569586277008
1779909921140122000,13.9461220703125,-0.3649919927120209,-0.7528914213180542,-0.07788532227277756
1779909921156451600,13.96245166015625,-0.4605923891067505,-1.7837265729904175,-0.32421672344207764
1779909921172788000,13.9787880859375,-0.3724750876426697,-2.2542455196380615,-0.2926044464111328
1779909921189117700,13.99511767578125,0.07757988572120667,-1.2237157821655273,-0.20234911143779755
1779909921205469700,14.0114697265625,0.2565633952617645,-0.005650503560900688,0.3459024429321289
1779909921221796000,14.027796142578126,-0.14584407210350037,2.5308146476745605,0.9628763198852539
1779909921238101000,14.04410107421875,-0.004734205547720194,4.585917949676514,1.6490306854248047
1779909921254447600,14.060447509765625,0.02932153269648552,2.979037046432495,1.226617455482483
1779909921270787600,14.07678759765625,-0.422871470451355,1.1670581102371216,0.4040873646736145
1779909921287115800,14.09311572265625,-0.1368338167667389,1.0195341110229492,0.4034765064716339
1779909921303435300,14.109435302734376,0.2154827117919922,1.3251193761825562,0.7773260474205017
1779909921319771600,14.125771728515625,0.4024074673652649,1.8640552759170532,1.274570345878601
1779909921336103000,14.14210302734375,0.4193589985370636,2.6264150142669678,2.1513147354125977
1779909921352437000,14.15843701171875,1.0213667154312134,2.8603765964508057,2.864347219467163
1779909921368770800,14.174770751953124,1.7592918872833252,2.7140743732452393,2.58762526512146
1779909921385102600,14.1911025390625,1.6740761995315552,0.8176431059837341,1.017396092414856
1779909921401435600,14.207435546875,0.7005097270011902,-1.379333734512329,0.8242099285125732
1779909921417769500,14.22376953125,-0.1586722433567047,-0.4505131244659424,1.610698938369751
1779909921434107000,14.24010693359375,-0.493731826543808,1.1635456085205078,1.7056884765625
1779909921450445800,14.25644580078125,-0.7365507483482361,1.771356463432312,1.7215709686279297
1779909921466781400,14.272781494140625,-0.7278459668159485,1.7719674110412598,1.9326249361038208
1779909921483113500,14.289113525390626,-0.3248275816440582,1.521359920501709,1.8658878803253174
1779909921499448800,14.30544873046875,0.0003054326225537807,1.4022411108016968,1.5610661506652832
1779909921515778300,14.3217783203125,0.23289237916469574,1.1122329235076904,1.4404202699661255
1779909921532112600,14.338112548828125,0.36102136969566345,0.8103127479553223,1.3176363706588745
1779909921548446000,14.354446044921875,0.40362921357154846,0.6644686460494995,1.1233811378479004
1779909921564779800,14.37077978515625,0.4294382631778717,0.8758280277252197,0.8886561989784241
1779909921581110300,14.3871103515625,0.4726569950580597,1.424843192100525,0.708450973033905
1779909921597445400,14.4034453125,0.48548516631126404,2.0189096927642822,0.6914994716644287
1779909921613779200,14.419779296875,0.5432119369506836,2.0280725955963135,0.7895433306694031
1779909921630116400,14.436116455078125,0.68951416015625,1.1661417484283447,0.7585419416427612
1779909921646444000,14.452444091796876,0.77472984790802,0.49617528915405273,0.4363104999065399
1779909921662779400,14.468779296875,0.6640105247497559,0.8185594081878662,0.11484266817569733
1779909921679109600,14.485109619140625,0.3556762933731079,1.4824172258377075,0.02122756652534008
1779909921695443200,14.501443115234375,0.06352998316287994,1.3878858089447021,0.02871066704392433
1779909921711763700,14.517763671875,-0.05360342562198639,0.6867652535438538,0.20494529604911804
1779909921728093200,14.53409326171875,-0.050854530185461044,-0.128434419631958,0.3113885521888733
1779909921744443000,14.55044287109375,-0.18005253374576569,-0.26710084080696106,0.1362229436635971
1779909921760775000,14.56677490234375,-0.408363401889801,-0.1840231567621231,-0.19685132801532745
1779909921777108700,14.583108642578125,-0.5835290551185608,-0.5639813542366028,-0.5765040516853333
1779909921793432800,14.599432861328125,-0.9280570149421692,-1.220050573348999,-1.0343475341796875
1779909921809788200,14.6157880859375,-1.3478741645812988,-1.5549575090408325,-1.543809175491333
1779909921826103600,14.632103515625,-1.4899003505706787,-1.6675094366073608,-2.0422751903533936
1779909921842441500,14.64844140625,-1.4743232727050781,-1.8090773820877075,-2.4352142810821533
1779909921858775300,14.664775390625,-1.3478741645812988,-2.2481367588043213,-2.6225972175598145
1779909921875106600,14.6811064453125,-0.8306240439414978,-2.453845739364624,-2.565481424331665
1779909921891435300,14.697435302734375,-0.026419922709465027,-1.7956384420394897,-2.420400857925415
1779909921907772200,14.713772216796874,0.5444336533546448,-0.6814202070236206,-2.395049810409546
1779909921924108800,14.73010888671875,0.6505714654922485,0.11774427443742752,-2.506685495376587
1779909921940455000,14.746454833984375,0.4411974251270294,0.2255619913339615,-2.557081937789917
1779909921956769300,14.762769287109375,0.15332718193531036,-1.0097602605819702,-2.3880250453948975
1779909921973123300,14.779123291015624,0.007941247895359993,-2.0079140663146973,-2.5137104988098145
1779909921989436200,14.795436279296876,-0.14034628868103027,-2.0413589477539062,-2.6945266723632812
1779909922005770000,14.81177001953125,-0.5485569834709167,-1.5783231258392334,-2.428952932357788
1779909922022103300,14.828103271484375,-0.9946413636207581,-1.168279767036438,-1.9706512689590454
1779909922038441000,14.84444091796875,-1.2334896326065063,-1.2487612962722778,-1.5519031286239624
1779909922054758700,14.860758544921875,-1.1468994617462158,-1.788002610206604,-1.2626584768295288
1779909922071104000,14.87710400390625,-1.080467939376831,-2.1875083446502686,-1.1183415651321411
1779909922087421000,14.8934208984375,-1.0332785844802856,-2.4382686614990234,-1.1380419731140137
1779909922103760400,14.909760498046875,-0.9358455538749695,-2.615877628326416,-1.133307695388794
1779909922120093400,14.926093505859376,-0.6951646208763123,-2.7672195434570312,-0.8622363209724426
1779909922136424400,14.942424560546876,-0.42348232865333557,-2.4611761569976807,-0.38377609848976135
1779909922152757800,14.9587578125,-0.23396138846874237,-1.9837849140167236,0.2845104932785034
1779909922169091000,14.975091064453125,-0.11774427443742752,-1.405295491218567,0.9990701079368591
1779909922185423600,14.991423583984375,-0.07223481684923172,-0.7281513810157776,1.6241379976272583
1779909922201755600,15.007755615234375,-0.11957687139511108,-0.04764748737215996,2.2602014541625977
1779909922218090800,15.0240908203125,-0.1647808998823166,0.3474296033382416,2.8289170265197754
1779909922234422000,15.040422119140626,0.058795779943466187,0.3900374472141266,2.4614815711975098
1779909922250758700,15.056758544921875,0.2922990322113037,0.37201693654060364,0.6288857460021973
1779909922267098600,15.0730986328125,-0.004734205547720194,-1.0306823253631592,-0.7188356518745422
1779909922283433000,15.089432861328126,-0.20341812074184418,-2.227672815322876,-1.677894115447998
1779909922299767300,15.105767333984375,-0.22632557153701782,-2.7068965435028076,-1.5748106241226196
1779909922316100000,15.12210009765625,-0.2532036304473877,-1.780824899673462,-0.8807149529457092
1779909922332430000,15.13843017578125,-0.08918632566928864,0.23747386038303375,0.09300423413515091
1779909922348768500,15.1547685546875,-0.21242839097976685,1.8009834289550781,1.0572550296783447
1779909922365117000,15.171116943359374,-0.5497786998748779,3.9240455627441406,1.504713773727417
1779909922381426400,15.187426513671875,0.036651913076639175,4.653876781463623,1.6911804676055908
1779909922397775600,15.203775634765625,0.023365596309304237,1.3981177806854248,0.6006332635879517
1779909922414099200,15.22009912109375,-0.29107728600502014,-1.1187996864318848,-0.34284812211990356
1779909922430430200,15.23643017578125,0.05406157299876213,-1.3238977193832397,0.0858265683054924
1779909922446764800,15.252764892578124,0.3188716471195221,-0.26145032048225403,0.7939720749855042
1779909922463097600,15.26909765625,0.42562034726142883,1.7321083545684814,1.4847079515457153
1779909922479431000,15.285430908203125,0.6287330389022827,3.5072827339172363,2.1930062770843506
1779909922495764500,15.301764404296875,1.410029649734497,4.392426490783691,2.6062564849853516
1779909922512097000,15.318096923828126,1.931708574295044,3.3880114555358887,1.8041905164718628
1779909922528442400,15.3344423828125,1.0219775438308716,-1.1809552907943726,0.4674646258354187
1779909922544763600,15.350763671875,-0.048105638474226,-2.3487768173217773,1.2820534706115723
1779909922561094400,15.367094482421875,-0.737772524356842,-0.3228422701358795,1.8712329864501953
1779909922577430300,15.38343017578125,-0.9502009153366089,1.8837556838989258,1.7354681491851807
1779909922593762000,15.399761962890626,-1.0603092908859253,2.3544273376464844,1.5905404090881348
1779909922610109200,15.416109130859375,-0.9358455538749695,1.9894354343414307,1.7182111740112305
1779909922626427400,15.432427490234375,-0.4616613984107971,1.391703724861145,1.649488925933838
1779909922642762500,15.448762451171875,-0.048258353024721146,1.4546228647232056,1.3602441549301147
1779909922659094000,15.465093994140625,0.2871066629886627,1.370781660079956,1.1470521688461304
1779909922675427800,15.481427734375,0.4983133375644684,1.2475395202636719,1.1020009517669678
1779909922691747800,15.497747802734375,0.618195652961731,1.0761919021606445,1.178053617477417
1779909922708123400,15.514123291015625,0.6820310354232788,0.9190467596054077,1.228297233581543
1779909922724423400,15.53042333984375,0.7148650288581848,0.9812023043632507,1.2504411935806274
1779909922740772600,15.546772705078125,0.7226535677909851,1.0829113721847534,1.2667818069458008
1779909922757095700,15.563095703125,0.7354817390441895,1.1201741695404053,1.028544306755066
1779909922773439000,15.57943896484375,0.7179193496704102,0.9986119866371155,0.5890268087387085
1779909922789784000,15.5957841796875,0.5716171264648438,1.1114692687988281,0.2883284091949463
1779909922806089000,15.6120888671875,0.3124575614929199,1.3784173727035522,0.22540926933288574
1779909922822422500,15.628422607421875,0.13973543047904968,1.280220866203308,0.21242839097976685
1779909922838761500,15.644761474609375,0.0377209298312664,0.8481863737106323,0.3381139039993286
1779909922855069700,15.661069580078125,-0.02871066704392433,0.11133018881082535,0.4948008358478546
1779909922871430000,15.677429931640624,-0.1267545372247696,-0.26603180170059204,0.4046982228755951
1779909922887741200,15.6937412109375,-0.34162637591362,-0.2396118938922882,0.17959438264369965
1779909922904090000,15.710090087890626,-0.5175555944442749,-0.4899139404296875,-0.07956519722938538
1779909922920423200,15.726423095703124,-0.6296493411064148,-1.0293079614639282,-0.37980547547340393
1779909922936759000,15.742759033203125,-0.9363036751747131,-1.3903292417526245,-0.9030115604400635
1779909922953074700,15.75907470703125,-1.2528846263885498,-1.3416128158569336,-1.4915802478790283
1779909922969425200,15.775425048828126,-1.331380844116211,-1.2988522052764893,-1.9422460794448853
1779909922985755600,15.791755615234376,-1.2690725326538086,-1.5210545063018799,-2.30525279045105
1779909923002089500,15.80808935546875,-1.1447614431381226,-2.068237066268921,-2.5897631645202637
1779909923018422000,15.824422119140625,-0.7860308289527893,-2.3441953659057617,-2.7685940265655518
1779909923034750700,15.840750732421874,-0.24846944212913513,-1.842369556427002,-2.7534751892089844
1779909923051071700,15.85707177734375,0.27458393573760986,-0.7292203903198242,-2.6170995235443115
1779909923067423700,15.873423828125,0.4960225820541382,0.1976149082183838,-2.526386022567749
1779909923083738000,15.889738037109375,0.347276896238327,0.35353827476501465,-2.311514139175415
1779909923100093200,15.90609326171875,0.2724458873271942,0.0328340083360672,-2.2771530151367188
1779909923116419800,15.922419921875,0.275958389043808,-1.3281737565994263,-2.3651175498962402
1779909923132753400,15.93875341796875,0.20983220636844635,-2.2879958152770996,-2.565786838531494
1779909923149085700,15.955085693359376,-0.029016099870204926,-1.6322319507598877,-2.590832233428955
1779909923165423600,15.971423583984375,-0.3326161205768585,-1.108262300491333,-2.214081048965454
1779909923181762800,15.9877626953125,-0.6253733038902283,-0.9841039180755615,-1.7693711519241333
1779909923198080000,16.004080078125,-0.7742717266082764,-1.106735110282898,-1.5328136682510376
1779909923214419200,16.020419189453126,-0.7087563872337341,-1.4167492389678955,-1.4245377779006958
1779909923230739000,16.036739013671873,-0.640644907951355,-1.5806138515472412,-1.3043500185012817
1779909923247072500,16.053072509765624,-0.5823072791099548,-1.5540411472320557,-1.09024178981781
1779909923263406800,16.06940673828125,-0.5105306506156921,-1.5874860286712646,-0.7582364678382874
1779909923279741000,16.085740966796877,-0.2932153046131134,-1.4958562850952148,-0.4294382631778717
1779909923296071700,16.10207177734375,-0.1085812970995903,-1.3880385160446167,-0.03176499158143997
1779909923312404500,16.118404541015625,-0.022143865004181862,-1.151481032371521,0.47448956966400146
1779909923328738300,16.13473828125,0.016951510682702065,-0.7939720749855042,1.0140362977981567
1779909923345071600,16.151071533203126,-0.00366519158706069,-0.5042692422866821,1.5120441913604736
1779909923361398500,16.1673984375,-0.1385136991739273,-0.20723603665828705,1.9289597272872925
1779909923377736700,16.18373681640625,-0.2906191349029541,-0.05375614017248154,2.0734293460845947
1779909923394069800,16.20006982421875,-0.04184427112340927,-0.2681698501110077,1.4633276462554932
1779909923410404000,16.216404052734376,0.23289237916469574,-0.5442809462547302,0.8539896011352539
1779909923426736600,16.232736572265626,-0.022602014243602753,-0.22540926933288574,0.22937989234924316
1779909923443068700,16.249068603515624,-0.47571131587028503,-0.6849326491355896,-0.6426302194595337
1779909923459402800,16.26540283203125,-0.7128797173500061,-1.7339409589767456,-0.8106181621551514
1779909923475736800,16.28173681640625,-0.6210972666740417,-1.762804388999939,-0.4098905920982361
1779909923492068000,16.298068115234376,-0.25213462114334106,-0.7791585922241211,0.07452555745840073
1779909923508400600,16.314400634765626,-0.005803219974040985,0.07956519722938538,0.6099489331245422
1779909923524737000,16.330737060546873,-0.15790866315364838,2.001805305480957,1.0195341110229492
1779909923541078800,16.347078857421874,-0.18127426505088806,3.863111734390259,1.214400053024292
1779909923557410600,16.36341064453125,-0.3588833212852478,2.5754079818725586,0.5816964507102966
1779909923573747700,16.379747802734375,-0.7596109509468079,0.8888089060783386,-0.2935207486152649
1779909923590072300,16.396072265625,-0.44547349214553833,0.2379320114850998,-0.2612976133823395
1779909923606411800,16.412411865234375,0.020463986322283745,0.23579397797584534,0.3124575614929199
1779909923622754000,16.428754150390624,0.494189977645874,1.0358747243881226,1.1687378883361816
1779909923639076000,16.445076171875,0.7539604306221008,2.0893118381500244,2.124131202697754
1779909923655414000,16.4614140625,1.315956473350525,2.526538610458374,2.741105079650879
1779909923671735000,16.477735107421875,2.0868682861328125,2.5195136070251465,2.6592490673065186
1779909923688081400,16.494081298828124,2.105194330215454,0.9008735418319702,1.4301882982254028
1779909923704422400,16.51042236328125,0.7947356700897217,-1.979508876800537,0.9379835724830627
1779909923720749800,16.526749755859374,-0.36682456731796265,-1.1575896739959717,1.5810719728469849
1779909923737096400,16.543096435546875,-0.7713701128959656,0.8875871896743774,1.5818355083465576
1779909923753395500,16.5593955078125,-0.8402451276779175,2.155590772628784,1.3790283203125
1779909923769755600,16.575755615234375,-0.9353874325752258,1.8298468589782715,1.686446189880371
1779909923786059800,16.592059814453126,-0.644768238067627,1.1012372970581055,1.771051049232483
1779909923802409500,16.608409423828125,-0.20463985204696655,1.1462886333465576,1.4185818433761597
1779909923818750200,16.624750244140625,0.06368270516395569,1.4407256841659546,1.2362385988235474
1779909923835075000,16.641074951171873,0.28237244486808777,1.3590224981307983,1.2770137786865234
1779909923851408100,16.657408203125,0.39217549562454224,0.9570731520652771,1.3058772087097168
1779909923867738400,16.67373828125,0.4740314185619354,0.37720927596092224,1.2655600309371948
1779909923884085200,16.690085205078127,0.5378668308258057,0.3165809214115143,1.129184365272522
1779909923900401400,16.7064013671875,0.5338962078094482,0.8527678847312927,1.0461066961288452
1779909923916756500,16.722756591796873,0.4489859640598297,1.3794864416122437,1.0306823253631592
1779909923933083600,16.739083740234374,0.37797287106513977,1.5109752416610718,0.9069821834564209
1779909923949420300,16.755420166015625,0.4570799171924591,1.0751228332519531,0.5899431109428406
1779909923965753900,16.77175390625,0.49785518646240234,0.5566509366035461,0.37048977613449097
1779909923982069500,16.788069580078126,0.3387247920036316,0.7622070908546448,0.25824329257011414
1779909923998405600,16.804405517578125,0.15363261103630066,1.2710578441619873,0.1385136991739273
1779909924014741800,16.82074169921875,0.014202617108821869,1.1062769889831543,0.16340644657611847
1779909924031071000,16.837071044921874,-0.060322944074869156,0.15195272862911224,0.4147774875164032
1779909924047401500,16.8534013671875,-0.1693623960018158,-0.18188512325286865,0.536797821521759
1779909924063740700,16.86974072265625,-0.26801711320877075,0.1739438772201538,0.2528982162475586
1779909924080071700,16.88607177734375,-0.35246923565864563,0.13179416954517365,-0.20861047506332397
1779909924096406500,16.902406494140624,-0.5322163701057434,-0.35781431198120117,-0.6575964093208313
1779909924112739300,16.9187392578125,-0.9769262671470642,-0.735634446144104,-1.1731667518615723
1779909924129070800,16.93507080078125,-1.4645494222640991,-0.8521569967269897,-1.674839735031128
1779909924145404000,16.95140380859375,-1.654223084449768,-0.8900306820869446,-2.2452352046966553
1779909924161734400,16.967734375,-1.4682146310806274,-1.2487612962722778,-2.6397013664245605
1779909924178067500,16.9840673828125,-1.2906055450439453,-1.7840319871902466,-2.6451992988586426
1779909924194403800,17.00040380859375,-0.8356636762619019,-2.2124011516571045,-2.5557074546813965
1779909924210734300,17.016734375,0.07895433157682419,-1.6865988969802856,-2.454303741455078
1779909924227068700,17.033068603515623,0.8323038816452026,-0.7574729323387146,-2.4127650260925293
1779909924243403500,17.049403564453126,0.997848391532898,-0.36713001132011414,-2.222327709197998
1779909924259736600,17.065736572265624,0.7281513810157776,-0.11575896292924881,-2.277916431427002
1779909924276070100,17.082070068359375,0.3439171314239502,-0.7185302376747131,-2.320371627807617
1779909924292414700,17.098414794921876,0.04795292019844055,-1.3422236442565918,-2.662914276123047
1779909924308730400,17.11473046875,-0.1514945775270462,-1.2455542087554932,-2.6262624263763428
1779909924325067300,17.1310673828125,-0.4271475374698639,-1.2060006856918335,-2.1952970027923584
1779909924341400000,17.147400146484376,-0.8181012868881226,-1.0193814039230347,-1.7496707439422607
1779909924357734700,17.163734619140627,-0.987463653087616,-1.1436924934387207,-1.3590224981307983
1779909924374064600,17.180064697265625,-0.9150761365890503,-1.5552629232406616,-1.1045970916748047
1779909924390397700,17.196397705078127,-0.8917105197906494,-1.821447491645813,-1.0551170110702515
1779909924406732500,17.212732666015626,-0.8541423082351685,-2.2844831943511963,-1.1155925989151
1779909924423064000,17.22906396484375,-0.612850546836853,-2.5783095359802246,-1.198823094367981
1779909924439399400,17.2453994140625,-0.2857322096824646,-2.6111435890197754,-0.926835298538208
1779909924455731700,17.261731689453125,-0.09040805697441101,-2.3722951412200928,-0.3833179473876953
1779909924472064000,17.27806396484375,-0.013286318629980087,-1.9071213006973267,0.3439171314239502
1779909924488394000,17.29439404296875,-0.029168816283345222,-1.4230105876922607,1.0803152322769165
1779909924504733400,17.3107333984375,-0.09529497474431992,-0.9587529897689819,1.6412421464920044
1779909924521062700,17.327062744140626,-0.2893974184989929,-0.4917465150356293,2.2128593921661377
1779909924537399600,17.343399658203126,-0.4714352488517761,-0.14187344908714294,2.6450464725494385
1779909924553719300,17.35971923828125,-0.20234911143779755,0.21838432550430298,1.9734001159667969
1779909924570066400,17.37606640625,0.10919216275215149,0.37888917326927185,0.656069278717041
1779909924586395400,17.3923955078125,0.003054326167330146,-0.5433646440505981,-0.4280638098716736
1779909924602729000,17.40872900390625,-0.37980547547340393,-1.4275920391082764,-1.2705997228622437
1779909924619062000,17.42506201171875,-0.4280638098716736,-2.34175181388855,-1.171334147453308
1779909924635393800,17.441393798828123,-0.17012597620487213,-1.585806131362915,-0.5665774941444397
1779909924651715000,17.457715087890627,0.33078351616859436,0.24068090319633484,0.17180584371089935
1779909924668064000,17.47406396484375,0.47021353244781494,2.3745858669281006,0.622624397277832
1779909924684405800,17.49040576171875,0.09941831976175308,4.4373250007629395,0.3692680299282074
1779909924700724200,17.50672412109375,-0.6688974499702454,3.2369749546051025,0.6236934065818787
1779909924717074200,17.52307421875,-1.0080803632736206,1.176831841468811,0.49693888425827026
1779909924733404700,17.53940478515625,-0.5581781268119812,0.3556762933731079,0.517250120639801
1779909924749742300,17.555742431640624,-0.0806342139840126,0.34406983852386475,0.7192938327789307
1779909924766041000,17.572041015625,0.2664899528026581,0.9775370955467224,1.5567901134490967
1779909924782395400,17.5883955078125,0.7867944240570068,1.8179349899291992,2.4740042686462402
1779909924798712600,17.604712646484376,1.5557210445404053,2.8217391967773438,2.654362201690674
1779909924815042800,17.621042724609374,2.2731823921203613,3.3101260662078857,2.306474447250366
1779909924831379000,17.63737890625,1.8400788307189941,0.694553792476654,0.9973902106285095
1779909924847713500,17.653713623046876,0.4004221558570862,-2.0923662185668945,0.8161159753799438
1779909924864052500,17.670052490234376,-0.5036584138870239,-0.6351471543312073,1.4410310983657837
1779909924880379000,17.68637890625,-0.8092437386512756,1.288467526435852,1.6181820631027222
1779909924896710400,17.70271044921875,-0.9013316631317139,2.121993064880371,1.574657917022705
1779909924913045000,17.719044921875,-0.8982773423194885,2.023949384689331,1.6126842498779297
1779909924929394000,17.735393798828124,-0.68951416015625,1.398881435394287,1.6975945234298706
1779909924945721000,17.75172119140625,-0.22067506611347198,1.136362075805664,1.517236590385437
1779909924962061000,17.76806103515625,0.07131851464509964,1.2483031749725342,1.2837333679199219
1779909924978389500,17.784389404296874,0.3211624026298523,1.020297646522522,1.16293466091156
1779909924994720300,17.80072021484375,0.4807509481906891,0.8272642493247986,1.1001683473587036
1779909925011057000,17.817056884765623,0.5552765130996704,0.6565274000167847,1.0998629331588745
1779909925027386600,17.83338671875,0.5850561857223511,0.8582656979560852,1.0925325155258179
1779909925043723800,17.849723876953124,0.6151412725448608,1.2713632583618164,1.130406141281128
1779909925060054500,17.866054443359374,0.6453791260719299,1.5236506462097168,1.0914634466171265
1779909925076389000,17.88238916015625,0.7567093372344971,1.4007140398025513,0.816726803779602
1779909925092721700,17.8987216796875,0.8550586104393005,1.1658363342285156,0.4366159439086914
1779909925109053400,17.915053466796873,0.7426594495773315,1.2614367008209229,0.2606867551803589
1779909925125387300,17.93138720703125,0.4508185386657715,1.4512630701065063,0.2588541507720947
1779909925141711400,17.94771142578125,0.2018909603357315,1.3284791707992554,0.2955060601234436
1779909925158048000,17.964048095703124,-0.014355333521962166,0.7816020846366882,0.5258022546768188
1779909925174388700,17.980388671875,-0.10170906037092209,0.11652254313230515,0.7073819637298584
1779909925190715400,17.99671533203125,-0.1713477075099945,0.1889100819826126,0.6058256030082703
1779909925207054300,18.013054443359376,-0.24602597951889038,0.3101668357849121,0.22876903414726257
1779909925223389400,18.029389404296875,-0.3349068760871887,0.020311269909143448,-0.22250767052173615
1779909925239719000,18.045718994140625,-0.5589417219161987,-0.33567044138908386,-0.6579018831253052
1779909925256054500,18.062054443359376,-1.0334312915802002,-0.6470590233802795,-1.1317806243896484
1779909925272398000,18.078398193359376,-1.3587169647216797,-0.9159924387931824,-1.7067575454711914
1779909925288732200,18.094732177734375,-1.528690218925476,-1.0569496154785156,-2.3011293411254883
1779909925305064200,18.111064208984374,-1.53525710105896,-1.3515393733978271,-2.573728084564209
1779909925321381000,18.127381103515624,-1.417970895767212,-2.0503692626953125,-2.6200010776519775
1779909925337713700,18.143713623046875,-1.1226176023483276,-2.342820882797241,-2.6371052265167236
1779909925362203400,18.168203369140624,-0.20372356474399567,-0.804051399230957,-2.5219571590423584
1779909925378549000,18.184549072265625,0.18860463798046112,0.46639561653137207,-2.5729644298553467
1779909925394877700,18.200877685546875,0.22220222651958466,1.277166485786438,-2.6896395683288574
1779909925411222000,18.217221923828124,0.09712757170200348,0.7579310536384583,-2.5466971397399902
1779909925427548700,18.233548583984376,-0.07254024595022202,-1.3382530212402344,-2.093740701675415
1779909925443885600,18.249885498046876,-0.03940080851316452,-2.649475336074829,-2.1481075286865234
1779909925460213500,18.266213623046873,-0.17898350954055786,-2.2098050117492676,-2.319607973098755
1779909925476548000,18.282548095703124,-0.6805039048194885,-1.7328720092773438,-2.0447187423706055
1779909925492882200,18.298882080078126,-1.03037691116333,-1.7679967880249023,-1.6169602870941162
1779909925509215000,18.315215087890625,-0.9271407127380371,-1.8921550512313843,-1.3274102210998535
1779909925525547000,18.331547119140627,-0.7255551815032959,-1.9449949264526367,-1.1467467546463013
1779909925541879600,18.347879638671873,-0.6687447428703308,-2.1039726734161377,-1.1400272846221924
1779909925558209800,18.364209716796875,-0.6911939978599548,-2.082439661026001,-1.228297233581543
1779909925574550300,18.38055029296875,-0.6325509548187256,-2.1204659938812256,-1.2169963121414185
1779909925590878000,18.3968779296875,-0.4631885588169098,-2.085035800933838,-0.9065240025520325
1779909925607198700,18.41319873046875,-0.3199406862258911,-1.8715384006500244,-0.33276882767677307
1779909925623534800,18.429534912109375,-0.1771509200334549,-1.50211763381958,0.3579670190811157
1779909925639868400,18.445868408203125,-0.08200865983963013,-1.1366674900054932,0.9891435503959656
1779909925656197600,18.46219775390625,-0.03084869496524334,-0.8918632864952087,1.5178474187850952
1779909925672532500,18.478532470703126,-0.10048733651638031,-0.8026769161224365,1.996307611465454
1779909925688865500,18.494865478515624,-0.11759155988693237,-0.8211556077003479,2.2953262329101562
1779909925705200600,18.51120068359375,0.17043140530586243,-0.285121351480484,1.6241379976272583
1779909925721530600,18.527530517578125,0.2513710558414459,0.7400632500648499,0.2217440903186798
1779909925737865500,18.543865478515624,0.00427605677396059,-0.7638869881629944,-0.5424483418464661
1779909925754199800,18.56019970703125,-0.41752639412879944,-1.819920301437378,-0.8119926452636719
1779909925770542000,18.5765419921875,-0.5259549617767334,-2.4191792011260986,-0.451123982667923
1779909925786876200,18.592876220703126,-0.3620903789997101,-1.8442021608352661,-0.02535090781748295
1779909925803209700,18.609209716796876,0.2168571650981903,-0.3101668357849121,0.2785545587539673
1779909925819540200,18.625540283203126,0.44165557622909546,1.7437148094177246,0.24129177629947662
1779909925835881700,18.6418818359375,0.004886921960860491,3.6161694526672363,0.13225232064723969
1779909925852211700,18.658211669921876,-0.2200642079114914,2.7261388301849365,0.613461434841156
1779909925868556500,18.674556640625,-0.717308521270752,1.41690194606781,0.23197607696056366
1779909925884886300,18.69088623046875,-0.4518875777721405,0.7716755270957947,0.27748554944992065
1779909925901220000,18.70722021484375,-0.016035212203860283,0.7910705208778381,0.7538077235221863
1779909925917553200,18.72355322265625,0.32070425152778625,1.0881037712097168,1.412473201751709
1779909925933860400,18.7398603515625,0.6247624158859253,1.5462526082992554,2.180178165435791
1779909925950204700,18.75620458984375,1.1068878173828125,2.283719778060913,2.7156014442443848
1779909925966539800,18.772539794921876,1.7858645915985107,2.9106202125549316,2.651918649673462
1779909925982871000,18.78887109375,2.0308215618133545,2.4420864582061768,1.8709275722503662
1779909925999206100,18.8052060546875,0.6879869699478149,-0.4239404797554016,0.8234463334083557
1779909926015538000,18.821537841796875,-0.4239404797554016,-0.4378376603126526,0.9651671051979065
1779909926031861500,18.837861572265624,-0.7736608386039734,1.5508341789245605,1.3051135540008545
1779909926048204500,18.85420458984375,-0.8608618378639221,2.6959011554718018,1.6615535020828247
1779909926064538000,18.8705380859375,-0.9558513760566711,2.364353895187378,1.9694294929504395
1779909926080871200,18.88687109375,-0.8443684577941895,1.7342463731765747,1.9378172159194946
1779909926097206300,18.903206298828124,-0.2503020465373993,1.5369369983673096,1.6117680072784424
1779909926113534700,18.91953466796875,0.2379320114850998,1.688736915588379,1.3368785381317139
1779909926129871400,18.935871337890624,0.46990808844566345,1.4828753471374512,1.2675453424453735
1779909926146203100,18.952203125,0.5600107312202454,1.147204875946045,1.2264647483825684
1779909926162524000,18.96852392578125,0.6238461136817932,0.8840747475624084,1.144608736038208
1779909926178870300,18.984870361328124,0.6122397184371948,0.9560040831565857,1.0196868181228638
1779909926195195000,19.00119482421875,0.5687155723571777,1.3548991680145264,0.9471465349197388
1779909926211534800,19.017534912109376,0.5955936312675476,1.665065884590149,0.9527970552444458
1779909926227867400,19.033867431640626,0.6398813724517822,1.6161967515945435,0.9358455538749695
1779909926244204500,19.05020458984375,0.735634446144104,1.1354458332061768,0.8701775670051575
1779909926260533800,19.06653369140625,0.8184067010879517,0.7379252314567566,0.7260133624076843
1779909926276868400,19.082868408203126,0.7519751191139221,0.8217664957046509,0.5494732856750488
1779909926293201400,19.099201416015624,0.5632177591323853,1.0590876340866089,0.33276882767677307
1779909926309533400,19.115533447265626,0.30925053358078003,1.0693196058273315,0.19562959671020508
1779909926325868300,19.131868408203125,0.05207626149058342,0.6464481353759766,0.3900374472141266
1779909926342199000,19.148198974609375,0.014966198243200779,-0.19456058740615845,0.6910412907600403
1779909926358533000,19.164533203125,-0.03375030308961868,-0.3666718602180481,0.7049384713172913
1779909926374867200,19.1808671875,-0.09834930300712585,-0.36590829491615295,0.33536502718925476
1779909926391199700,19.19719970703125,-0.25014930963516235,-0.41370847821235657,-0.1963931769132614
1779909926407528700,19.21352880859375,-0.5322163701057434,-0.4804455041885376,-0.6783658266067505
1779909926423867400,19.229867431640624,-1.0586295127868652,-0.775340735912323,-1.0752755403518677
1779909926440196400,19.2461962890625,-1.4155274629592896,-1.083369493484497,-1.496161699295044
1779909926456531500,19.262531494140624,-1.599703311920166,-1.0790934562683105,-2.013259172439575
1779909926472865800,19.27886572265625,-1.6006196737289429,-1.289536476135254,-2.4639248847961426
1779909926489190100,19.295190185546875,-1.5132659673690796,-1.9743164777755737,-2.6397013664245605
1779909926505517600,19.311517578125,-1.1258246898651123,-2.4868323802948,-2.6345090866088867
1779909926521867800,19.32786767578125,-0.48915034532546997,-2.012342929840088,-2.5886940956115723
1779909926538182700,19.3441826171875,0.22708915174007416,-0.7079927921295166,-2.4799602031707764
1779909926554527500,19.360527587890626,0.4856378734111786,0.35262197256088257,-2.5279130935668945
1779909926570860800,19.37686083984375,0.3926336467266083,0.6623306274414062,-2.5978572368621826
1779909926587198700,19.39319873046875,0.28237244486808777,-0.2785545587539673,-2.54837703704834
1779909926603535000,19.40953515625,0.13820825517177582,-1.6765196323394775,-2.5870141983032227
1779909926619864000,19.425864013671877,0.11636982858181,-2.4023802280426025,-2.7091872692108154
1779909926636212700,19.442212646484375,0.0019853119738399982,-1.762804388999939,-2.4436137676239014
1779909926652540700,19.458540771484376,-0.4011857509613037,-1.2596040964126587,-2.032806873321533
1779909926668873000,19.474873046875,-0.7367035150527954,-1.2333369255065918,-1.6569719314575195
1779909926685208300,19.491208251953125,-0.8043568134307861,-1.2933543920516968,-1.378722906112671
1779909926701519400,19.507519287109375,-0.7919867634773254,-1.4947872161865234,-1.1985175609588623
1779909926717867300,19.5238671875,-0.7806857824325562,-1.9255999326705933,-1.1398745775222778
1779909926734183200,19.54018310546875,-0.7916813492774963,-2.0033326148986816,-1.0546588897705078
1779909926750511400,19.556511474609376,-0.6435465216636658,-2.055103302001953,-0.8562803864479065
1779909926766847200,19.57284716796875,-0.4132503271102905,-1.9712620973587036,-0.46105054020881653
1779909926783179800,19.5891796875,-0.25702154636383057,-1.7018705606460571,0.09193521738052368
1779909926799511600,19.605511474609376,-0.1748601794242859,-1.220050573348999,0.7680103182792664
1779909926815847000,19.621846923828127,-0.1238529309630394,-0.7542658448219299,1.3842206001281738
1779909926832177400,19.638177490234376,-0.13973543047904968,-0.346818745136261,1.9004018306732178
1779909926848513300,19.65451318359375,-0.21807889640331268,-0.05864306539297104,2.3820691108703613
1779909926864862200,19.6708623046875,-0.03680463135242462,-0.168751522898674,2.294867992401123
1779909926881179100,19.68717919921875,0.3188716471195221,0.23625212907791138,0.7947356700897217
1779909926897512700,19.7035126953125,0.11484266817569733,-0.22846360504627228,-0.044287730008363724
1779909926913846300,19.71984619140625,-0.2997821271419525,-1.3976596593856812,-1.106735110282898
1779909926930176300,19.73617626953125,-0.5969680547714233,-2.5529584884643555,-1.2098186016082764
1779909926946526000,19.75252587890625,-0.518471896648407,-2.7792842388153076,-0.6517932415008545
1779909926962856700,19.768856689453123,-0.1488984078168869,-1.2261592149734497,-0.09712757170200348
1779909926979189000,19.78518896484375,0.1797471046447754,0.25793784856796265,0.4873177409172058
1779909926995532800,19.80153271484375,-0.17058411240577698,2.073582172393799,1.2652546167373657
1779909927011842800,19.8178427734375,-0.08674286305904388,4.112802982330322,1.5838208198547363
1779909927028187400,19.8341875,0.1742493063211441,3.1474831104278564,1.0563386678695679
1779909927044521000,19.85052099609375,-0.41630467772483826,0.4908302128314972,-0.20876319706439972
1779909927060851700,19.866851806640625,-0.19776763021945953,-0.08017606288194656,-0.18555031716823578
1779909927077187000,19.88318701171875,0.1310305893421173,0.2658790946006775,0.4306600093841553
1779909927093506300,19.89950634765625,0.31551191210746765,1.0065531730651855,1.0180069208145142
1779909927109854700,19.915854736328125,0.46150869131088257,1.976454496383667,1.6672040224075317
1779909927126185000,19.93218505859375,0.8727737069129944,2.677116870880127,2.4659101963043213
1779909927142519800,19.948519775390626,1.7440202236175537,3.1801645755767822,2.7032313346862793
1779909927158833400,19.96483349609375,2.144136905670166,2.440253973007202,1.8332066535949707
1779909927175168500,19.98116845703125,1.0100656747817993,-1.288162112236023,0.8257371187210083
1779909927191508200,19.99750830078125,-0.19853121042251587,-1.733482837677002,1.6004669666290283
1779909927207849200,20.01384912109375,-0.6989825367927551,0.40683624148368835,1.9084957838058472
1779909927224208000,20.030207763671875,-0.7932085394859314,2.3208298683166504,1.538158655166626
1779909927240526600,20.046526611328126,-0.88987797498703,2.4798073768615723,1.5632041692733765
1779909927256861000,20.06286083984375,-0.7318165898323059,1.6044375896453857,1.8522961139678955
1779909927273194800,20.07919482421875,-0.33078351616859436,1.2829697132110596,1.796554684638977
1779909927289530400,20.0955302734375,0.03298672288656235,1.7200437784194946,1.5303701162338257
1779909927305860000,20.111860107421876,0.3628539443016052,1.6910277605056763,1.3515393733978271
1779909927322181000,20.12818115234375,0.5948300361633301,1.144303321838379,1.3070988655090332
1779909927338516000,20.144515869140626,0.7234171628952026,0.417679101228714,1.2728904485702515
1779909927354836700,20.160836669921874,0.7247915863990784,0.4922046661376953,1.1368201971054077
1779909927371180300,20.17718017578125,0.6922630667686462,1.2510520219802856,0.9975429177284241
1779909927387510300,20.19351025390625,0.6559165716171265,1.856572151184082,0.8849910497665405
1779909927403855000,20.209855224609374,0.6794348955154419,1.7446311712265015,0.7104362845420837
1779909927420178700,20.2261787109375,0.6798930168151855,1.191950798034668,0.489608496427536
1779909927436514000,20.24251416015625,0.5994115471839905,0.945772111415863,0.2922990322113037
1779909927452847900,20.258847900390624,0.4017966091632843,1.1704177856445312,0.16722436249256134
1779909927469176000,20.275176025390625,0.1609629988670349,1.2090550661087036,0.13973543047904968
1779909927485515800,20.291515869140625,-0.032528575509786606,0.7962628602981567,0.2600758671760559
1779909927501849900,20.307849853515624,-0.12492194026708603,0.04688390716910362,0.44394633173942566
1779909927518169300,20.32416943359375,-0.11453723162412643,-0.4095851480960846,0.43997567892074585
1779909927534516500,20.3405166015625,-0.23579397797584534,-0.3065016269683838,0.18096883594989777
1779909927550843100,20.356843017578125,-0.2955060601234436,-0.49327367544174194,-0.19425514340400696
1779909927567179500,20.373179443359376,-0.5221370458602905,-0.7660250067710876,-0.6137668490409851
1779909927583512600,20.3895126953125,-0.9961684942245483,-1.112691044807434,-1.0458012819290161
1779909927599844900,20.405844970703125,-1.3565789461135864,-1.401477575302124,-1.492343783378601
1779909927616177200,20.42217724609375,-1.4975361824035645,-1.4271339178085327,-2.1041252613067627
1779909927632510200,20.43851025390625,-1.4075862169265747,-1.6514742374420166,-2.6305384635925293
1779909927648842500,20.454842529296876,-1.2157745361328125,-2.361299514770508,-2.8038713932037354
1779909927665177300,20.47117724609375,-0.7338019013404846,-2.5949554443359375,-2.640923261642456
1779909927681506000,20.487506103515624,-0.02168571576476097,-1.5702290534973145,-2.339919328689575
1779909927697855200,20.503855224609374,0.4792237877845764,-0.29168814420700073,-2.221869707107544
1779909927714176000,20.520176025390626,0.6298020482063293,0.5175555944442749,-2.378709316253662
