time,seconds_elapsed,z,y,x
1778596825949792000,0.0677919921875,-2.2895441848516462,-1.4155790380910038,-0.3013745544189587
1778596825959785000,0.077784912109375,-2.918537084427476,-1.347798464284837,-0.6420755223803222
1778596825969778200,0.087778076171875,-3.2802181869775056,-1.1997682957217097,-0.7378957573652267
1778596825979771000,0.09777099609375,-3.2752871603161093,-1.0767048106327652,-0.5468836849594488
1778596825989764000,0.10776416015625,-2.9491256994366646,-1.0738546818986534,-0.10240516633316873
1778596825999761000,0.117760986328125,-2.5497978800594807,-1.1081696239545942,0.2274326815040782
1778596826009753900,0.12775390625,-2.292739766022563,-1.0054714660242199,0.32404245943147686
1778596826019748000,0.137748046875,-2.3029829276174305,-0.7465981192588805,0.3685154055494815
1778596826029740800,0.14774072265625,-2.740226928412914,-0.36596447895765305,0.4637874685997143
1778596826039733800,0.157733642578125,-3.6008144149452446,0.11636281840652227,0.475191636797972
1778596826049727000,0.16772705078125,-4.293175332581996,0.8385030804961919,0.3074141268441453
1778596826059719700,0.1777197265625,-4.377084034368395,1.75207016980499,0.11408022389467805
1778596826069713000,0.187712890625,-3.974387030819058,2.5351228734970093,0.10842044456731527
1778596826079705900,0.197705810546875,-3.287431187096238,2.8837890116512774,0.35680275592394173
1778596826089700000,0.2077001953125,-2.342561489289999,2.647384101803601,0.6294083485089242
1778596826099692800,0.21769287109375,-1.2426549590289593,2.430494332025945,0.8877165356721729
1778596826109686000,0.22768603515625,-0.23760931720137596,2.2216031597867607,0.9544644054297358
1778596826119679000,0.237678955078125,0.7358756497144698,1.8953984442874787,0.6996056280680001
1778596826129672000,0.247671875,1.3507611134827135,1.4871514053955672,0.5421476694134995
1778596826139665000,0.257664794921875,1.7836422428935765,1.1344658024668692,0.46836730720326303
1778596826149657900,0.267657958984375,2.0962784517675637,0.9167346134290099,0.4260304597984999
1778596826159650800,0.27765087890625,2.095045110580325,0.7637620200276375,0.35561840497758235
1778596826169644800,0.287644775390625,1.8805507115066051,0.7651344774246215,0.2495203754758462
1778596826179638000,0.297637939453125,1.627118971273303,0.8871624819859861,0.05391235358193516
1778596826189631000,0.307630859375,1.3913397921085358,1.0004852020442485,-0.13907602386549114
1778596826199624000,0.3176240234375,1.1524117935240268,1.065045352499187,-0.22542925099348649
1778596826209617000,0.327616943359375,1.0211123950093983,1.1007383049100636,-0.3655147624287754
1778596826219609900,0.33760986328125,1.0100485646814108,1.1756442005515098,-0.47293786652181297
1778596826229602800,0.347602783203125,1.0537450830668211,1.1967863573014736,-0.4055631335701793
1778596826239596800,0.3575966796875,1.1022481249511242,1.2513631661415099,-0.22858864660616962
1778596826249590000,0.367590087890625,1.1355080049961805,1.3382453307807445,-0.024258105946565047
1778596826259583000,0.3775830078125,1.2432201916962862,1.4482915133863687,0.15016352733001112
1778596826269576000,0.387575927734375,1.4193898285508155,1.505100903584063,0.2166097472598776
1778596826279569000,0.39756884765625,1.5305179611742497,1.4551751354202627,0.22212087536416947
1778596826289562000,0.40756201171875,1.5722195063501596,1.3032128881052136,0.1781664184286259
1778596826299554800,0.417554931640625,1.6633394546896219,1.110334985294938,0.1186678074132651
1778596826309548800,0.427548828125,1.7479262018680572,0.854941005077958,0.06038445850575808
1778596826319542000,0.4375419921875,1.760315727841854,0.6326280412077904,-0.003087134094070643
1778596826329535000,0.447534912109375,1.6748393383473157,0.5174117624878883,-0.15446573630226776
1778596826339528000,0.45752783203125,1.6023708989858627,0.49339609612822527,-0.4238917307367548
1778596826349521000,0.46752099609375,1.64215638140738,0.3749327983111143,-0.48279418422356246
1778596826359514000,0.47751416015625,1.6939578803151845,0.09124678958952426,-0.4667281616941094
1778596826369507800,0.4875078125,1.688703028526902,-0.13444704889059067,-0.47085506889838724
1778596826379500800,0.497500732421875,1.6062357577204702,-0.2870423334121704,-0.4032921929635107
1778596826389494000,0.507493896484375,1.481465468713641,-0.3762175774246454,-0.42519006345160304
1778596826399486700,0.51748681640625,1.146778756073117,-0.351119084264338,-0.509552463822253
1778596826409480000,0.52747998046875,0.7633423333108424,-0.25679391014277936,-0.5171984119981528
1778596826419473000,0.537472900390625,0.3823153097778558,-0.15610709203481674,-0.45168318930808454
1778596826429465900,0.5474658203125,0.014696049350500106,0.024724106889963147,-0.37247371472120283
1778596826439459800,0.5574599609375,-0.3351858943343162,0.308533449730277,-0.19220385773992166
1778596826449452800,0.567452880859375,-0.6645540423005819,0.510558243331313,0.010981895657087442
1778596826459446000,0.577446044921875,-0.8386077099144458,0.7023419211640953,0.24405065709417684
1778596826469438700,0.587438720703125,-1.0667074404925108,0.7779647329032421,0.6295518486328423
1778596826479432000,0.597431884765625,-1.4471779991865157,-0.1925508628129959,0.5414881460588425
1778596826489425000,0.6074248046875,-1.2003893502295016,-0.8846353015959262,0.31688403904419393
1778596826499419000,0.6174189453125,-0.8315542842715978,-1.0701248477205634,0.149319240259286
1778596826509411800,0.627411865234375,-0.8623042273223399,-1.22762164054811,-0.17117615768248215
1778596826519404800,0.63740478515625,-0.9157727826595305,-1.1693839711129665,-0.39131088246442375
1778596826529398000,0.64739794921875,-1.0155196895688772,-0.9703273796677588,-0.4919043232005089
1778596826539390700,0.657390625,-1.2742080351561307,-0.8323971648365258,-0.5058600025124848
1778596826549384000,0.667384033203125,-1.631415791684389,-0.8034317671149969,-0.46388884661495683
1778596826559377000,0.677376953125,-2.135036344707012,-0.9081535398274659,-0.309645941016823
1778596826569371000,0.687370849609375,-2.567859021928906,-1.0823965925335883,-0.21203876781621947
1778596826579363800,0.69736376953125,-2.715101254984736,-1.1840578086316584,-0.1917664344370365
1778596826589356800,0.707356689453125,-2.5397283214658497,-1.2097370242893695,-0.26829631455112246
1778596826599350000,0.71735009765625,-2.154316799238324,-1.1135340735971928,-0.4425961754783988
1778596826609342700,0.7273427734375,-1.9419933144629,-1.065375315105915,-0.6013163726210594
1778596826619336000,0.7373359375,-1.997818662059307,-0.9951239672720432,-0.6630741790063679
1778596826629330000,0.747329833984375,-2.26131937636435,-0.6654758333206177,-0.6466385194469243
1778596826639323000,0.757322998046875,-2.618379248854518,-0.12477350387722252,-0.6750478176556527
1778596826649315800,0.76731591796875,-2.820209981188178,0.5107508432939648,-0.6356432973757385
1778596826659308800,0.777308837890625,-2.6644565248966217,1.2006997313529253,-0.5532687098214403
1778596826669302000,0.787302001953125,-2.1448118887901306,1.7255960043773053,-0.4140788503179326
1778596826679294700,0.797294677734375,-1.3397633341282604,1.937785925900936,-0.27304263229537756
1778596826689289000,0.8072890625,-0.5091635741025209,1.8784505243569611,-0.25707404225841163
1778596826699282000,0.817281982421875,0.2160135714650154,1.5857757380157709,-0.22332698148461058
1778596826709275000,0.82727490234375,0.7409516378045081,1.240687750609219,-0.16689864476006477
1778596826719267800,0.837267822265625,0.9208172065675259,0.8895502539053559,-0.22674729305580257
1778596826729260800,0.8472607421875,0.8953016570389271,0.6457672165051103,-0.5470599548418075
1778596826739254000,0.85725390625,0.6037018064528703,0.6640656742617488,-1.123008735037595
1778596826749247700,0.867247802734375,0.2513397363901138,0.7167094692125916,-1.6431858705855904
1778596826759241000,0.877240966796875,0.17709025883078575,0.7356660986170173,-1.9210814593374728
1778596826769234000,0.88723388671875,0.35790567566454407,0.7413841840028762,-1.9339536542616784
1778596826779227000,0.897226806640625,0.8096826442033052,0.7256859718725085,-1.6479804113857448
1778596826789219800,0.9072197265625,1.3062895190715789,0.6832493904203176,-1.1753456559963524
1778596826799213000,0.917213134765625,1.7070850729137659,0.6685705844655633,-0.679705141942203
1778596826809205800,0.927205810546875,1.9691618918955325,0.67177522572577,-0.2535195646472275
1778596826819199700,0.93719970703125,2.100391732305288,0.7284063367471099,0.05022535389857367
1778596826829193000,0.94719287109375,2.151995078292489,0.7443108851045369,0.23924077259441837
1778596826839186000,0.95718603515625,2.0908330458432434,0.6702259504571557,0.31840945851318536
1778596826849179000,0.967178955078125,1.8385317709445952,0.4920987497940659,0.291288391750399
1778596826859171800,0.977171875,1.4147148224771022,0.3099070761710405,0.16374047299008815
1778596826869165000,0.9871650390625,0.9822866975307464,0.20394728609621524,-0.01408350694272667
1778596826879159000,0.997158935546875,0.6959522201269864,0.1485527311325073,-0.1557727089812979
1778596826889151700,1.00715185546875,0.5775666637212038,0.10632599303871393,-0.18024700582865624
1778596826899145000,1.01714501953125,0.6373895565211772,0.010299275696277617,-0.07969882900640368
1778596826909138000,1.027137939453125,0.7416659235537052,-0.12298808176517485,0.06591072481367737
1778596826919131000,1.037130859375,0.8988818536132573,-0.22985855694413185,0.18634795305225996
1778596826929124900,1.047124755859375,1.0371569363594055,-0.37567192624062296,0.24755945066642016
1778596826939117800,1.057117919921875,1.1070061331331729,-0.49599692627638575,0.22835834498163313
1778596826949111000,1.067111083984375,1.0867062724262475,-0.5556321875497698,0.18795063900854436
1778596826959103700,1.077103759765625,0.9278548501193523,-0.5083107566654682,0.16273180740419774
1778596826969097000,1.087096923828125,0.7201426585316658,-0.3542500757664442,0.08043244051057845
1778596826979090000,1.09708984375,0.4587269338071346,-0.2194336090415716,0.062426170633547
1778596826989084000,1.107083984375,0.13644611375331878,-0.2005290020853281,0.10484412045050412
1778596826999073800,1.11707373046875,-0.1867828008055687,-0.24058365683704613,0.07711988189648837
1778596827009066800,1.127066650390625,-0.4870855978071689,-0.34898207223564387,0.03138104402851313
1778596827019060000,1.13706005859375,-0.5586404294550419,-0.4982449974641204,-0.05060242531634867
1778596827029052700,1.147052734375,-0.4385007228583097,-0.6681792470604181,-0.1752685232963413
1778596827039046000,1.1570458984375,-0.21933248675465583,-0.7365463885828852,-0.2731536549217999
1778596827049040000,1.167039794921875,0.06275543912053108,-0.7502531346350908,-0.3041349955756217
1778596827059032800,1.17703271484375,0.271212896117568,-0.7503224004790187,-0.19203067486379294
1778596827069025800,1.18702587890625,0.40288112794458864,-0.7546554612472653,-0.03900247881766408
1778596827079018800,1.197018798828125,0.47695875606834887,-0.7163795066058636,0.10268157212175429
1778596827089012000,1.207011962890625,0.48310617278218265,-0.5763040964394808,0.2525770231001079
1778596827099004700,1.217004638671875,0.41754619763493533,-0.4056318879574537,0.3734349609687924
1778596827108998700,1.22699853515625,0.15005378334522246,-0.23830080659687516,0.4231596901351586
1778596827118992000,1.236991943359375,-0.3031973493993282,-0.13220014674663544,0.5004905479012057
1778596827128984600,1.246984619140625,-0.8166103976398706,-0.07348083127439022,0.5784393914351239
1778596827138977800,1.256977783203125,-1.4261942478686571,-0.03095627927780151,0.6283858735933899
1778596827148970800,1.266970703125,-2.149650560992956,-0.11205693790614604,0.7489496508210897
1778596827158964000,1.2769638671875,-2.594848151141405,-0.34591654718518255,0.8903842205114663
1778596827168957700,1.286957763671875,-2.568649880045652,-0.4912000473886728,0.9637657561298459
1778596827178951000,1.296950927734375,-2.1945681456059214,-0.5540852503687143,0.8416272038660944
1778596827188944000,1.30694384765625,-1.7587468710899352,-0.573692452636361,0.5355715789588168
1778596827198936600,1.3169365234375,-1.607491310739517,-0.547832619714737,0.23675649976432322
1778596827208929800,1.3269296875,-1.847681876605749,-0.40080139906108375,0.1657687639473006
1778596827218923800,1.336923828125,-2.4144915839910506,-0.10783142916560172,0.2240025609249249
1778596827228917000,1.3469169921875,-2.9842852756232023,0.3796329388260841,0.28926165342945603
1778596827238909700,1.35690966796875,-3.302058262863755,0.9843886382460594,0.28779684157390145
1778596827248903000,1.36690283203125,-3.182466253277659,1.5762831025272608,0.15383070806805044
1778596827258896000,1.376895751953125,-2.6499989604771135,2.0747902580589055,0.13163495061192662
1778596827268888800,1.386888916015625,-1.958377463030815,2.2854700672805306,0.30611689010784027
1778596827278882800,1.3968828125,-1.3599673332452773,2.191216497090459,0.5227094305045903
1778596827288875800,1.406875732421875,-0.9217278916716575,1.9665654456615447,0.773531718891859
1778596827298869000,1.416868896484375,-0.5309592263251542,1.666026501816511,0.9677608901806175
1778596827308861700,1.42686181640625,-0.14034838188886642,1.469285201576352,0.9481880285739898
1778596827318855000,1.43685498046875,0.18321487919092178,1.3390478793352842,0.6527883473135531
1778596827328849000,1.446848876953125,0.3160556619286537,1.1766525008112192,0.1971157230431214
1778596827338841900,1.456841796875,0.3607826924055815,0.9827578221738338,-0.30690723676793275
1778596827348834800,1.466834716796875,0.3287999926894903,0.8305255257457494,-0.6984987628046423
1778596827358827800,1.476827880859375,0.35885260112583633,0.8023843038886785,-0.9536263471703976
1778596827368821000,1.486821044921875,0.5129021761089563,0.8701642931729555,-1.0779311375573277
1778596827378813700,1.496813720703125,0.741231623789668,1.014546460622549,-1.0293393944762645
1778596827388807700,1.5068076171875,1.0885849257797002,1.1562076786756514,-0.8441670245420188
1778596827398801000,1.51680078125,1.4870786324203014,1.2166191850185393,-0.4592942488336935
1778596827408793600,1.526793701171875,1.713593724155426,1.3043261100441217,-0.07437799930982292
1778596827418786800,1.536786865234375,1.7759937739670275,1.3004898928821087,0.21162925543356687
1778596827428779800,1.54677978515625,1.8141390879660844,1.2362059290200471,0.4477848301626742
1778596827438773000,1.55677294921875,1.7980641514778135,1.1466998456180095,0.523293660133332
1778596827448766700,1.5667666015625,1.721834898278117,1.0468424640715122,0.4598017234317958
1778596827458759700,1.576759765625,1.636332205298543,0.9139958361148833,0.3041130212058313
1778596827468753000,1.5867529296875,1.545726051700115,0.7679612252831458,0.11043220451483503
1778596827478745600,1.59674560546875,1.3892501263529062,0.6100257487773895,-0.04668194567067548
1778596827488738800,1.60673876953125,1.185973871386051,0.48438393763303755,-0.2517477509354241
1778596827498732800,1.61673291015625,1.006396471914649,0.4223158962547779,-0.39819691565111276
1778596827508725800,1.626725830078125,0.931016529020667,0.40571722815334793,-0.38676556718498467
1778596827518718700,1.63671875,1.0005278721421957,0.43182782096564765,-0.2887809024414979
1778596827528711700,1.646711669921875,1.0835878481447696,0.4440215321063995,-0.10176023775944486
1778596827538705000,1.656704833984375,1.1088795257896185,0.4215215310066938,0.1419553604277782
1778596827548699000,1.666698974609375,1.1805378178119659,0.35912440380454064,0.3262272195920348
1778596827558691800,1.67669189453125,1.2692752549290656,0.3266822698831558,0.42000681559480724
1778596827568684800,1.686684814453125,1.3127403026461602,0.30580139441788196,0.4389179253570735
1778596827578678000,1.696677978515625,1.238763212287426,0.2345043369233608,0.422024804353714
1778596827588670700,1.706670654296875,1.0552256770133972,0.16202829877734184,0.4051599230641499
1778596827598663700,1.71666357421875,0.7427174784332513,0.06233458335995674,0.3686288027960807
1778596827608658000,1.726657958984375,0.38747839162945746,-0.009352934756875037,0.26727992231650277
1778596827618651000,1.73665087890625,0.02821837874650955,-0.1194441255480051,0.11083000819338484
1778596827628643800,1.746643798828125,-0.33446342527866363,-0.2604161922931671,-0.09754229127084836
1778596827638636800,1.75663671875,-0.646420419716835,-0.3345686392188072,-0.27224402926359326
1778596827648630000,1.766630126953125,-0.8800690165936946,-0.4123246635943651,-0.3697423900611698
1778596827658623700,1.776623779296875,-1.0326701463341712,-0.4786906944274902,-0.3229239767955616
1778596827668616700,1.78661669921875,-1.1388152298480272,-0.48481414574384685,-0.15353172512147575
1778596827678610000,1.79660986328125,-1.217453297755122,-0.4561024305224418,0.041793570840917525
1778596827688603000,1.806602783203125,-1.2394623004674912,-0.44041327848136425,0.26907789338286964
1778596827698595800,1.816595947265625,-1.2242927883863448,-0.46760815939903255,0.48728364112991834
1778596827708589800,1.82658984375,-1.1715572234988212,-0.5658902544528246,0.6989264866974204
1778596827718582800,1.836582763671875,-1.137702300170064,-0.685423227328062,0.870866961549595
1778596827728575700,1.84657568359375,-1.1501537854641675,-0.7643529716581106,0.8967308130592108
1778596827738568700,1.856568603515625,-1.3261129944384098,-0.7873504008859395,0.7577753468334675
1778596827748562000,1.86656201171875,-1.7185767732650041,-0.8499585404902696,0.5090351254172623
1778596827758556000,1.876555908203125,-2.172562650024891,-1.0042547837108373,0.2533865128520876
1778596827768548600,1.886548583984375,-2.495668814986944,-1.1727724445074796,0.020725666637253014
1778596827778541800,1.896541748046875,-2.5895564744740724,-1.2227601719915866,-0.25016115759741514
1778596827788534800,1.90653466796875,-2.5419892521351573,-1.188999356687069,-0.533367456510663
1778596827798527700,1.91652783203125,-2.529168349006772,-1.0067278958261012,-0.7655489034444093
1778596827808520700,1.926520751953125,-2.5118121405363083,-0.6343672860905528,-0.92731131782718
1778596827818515000,1.936514892578125,-2.5682190874129533,-0.13240969784408807,-0.9742531017441302
1778596827828508000,1.9465078125,-2.6096307097315785,0.42117812439650293,-0.9039557228114455
1778596827838500900,1.9565009765625,-2.5831857703983783,0.9305442353338003,-0.7085181986462324
1778596827848493800,1.966493896484375,-2.2901439043104648,1.3592793509811163,-0.509936129377596
1778596827858486800,1.97648681640625,-1.657730967158079,1.6411095027029514,-0.3477596543012187
1778596827868481000,1.98648095703125,-0.8487333826094865,1.7691279798507689,-0.24276522039351983
1778596827878473700,1.9964736328125,-0.11382862375378608,1.7507973733901976,-0.22046936356378719
1778596827888467000,2.006467041015625,0.4262970748454332,1.628873705986142,-0.32776012824773787
1778596827898460000,2.0164599609375,0.8197539563626051,1.482767198961973,-0.5176941961584612
1778596827908452900,2.026452880859375,1.1388590689897538,1.2862801657438276,-0.7575049323942512
1778596827918446800,2.03644677734375,1.3236305299729108,1.0177958178073168,-0.9970188411079347
1778596827928439800,2.046439697265625,1.3388584942430257,0.7378343825668097,-1.2438669651672243
1778596827938432800,2.056432861328125,1.217944296142459,0.5714812063276767,-1.4919827710747717
1778596827948425700,2.06642578125,0.9991811337083577,0.47284664457440373,-1.7503141199178993
1778596827958419000,2.0764189453125,0.9073656043201684,0.4558090005338192,-1.8899349181845784
1778596827968413000,2.086412841796875,1.2517150483191013,0.485531938624382,-1.7431332685030996
1778596827978405600,2.096405517578125,1.8641385058879851,0.5711456907629966,-1.253114393723011
1778596827988398800,2.10639892578125,2.17306826145947,0.5784960535258055,-0.8143160030923783
1778596827998391000,2.11639111328125,2.0557564717650414,0.5246779540985822,-0.48582595313489435
1778596828008383700,2.1263837890625,1.4895383005321026,0.36261750661730763,-0.30295192327089604
1778596828018377700,2.136377685546875,1.0728238775461911,0.29232991842627526,-0.2263472608875483
1778596828028371000,2.146370849609375,1.178594282528758,0.40908115162849423,-0.07309110130444169
1778596828038363600,2.15636376953125,1.373084588971734,0.4713724803686142,0.15817527661100028
1778596828048356900,2.16635693359375,1.3780775749534369,0.4227385055810213,0.3372885657019913
1778596828058349800,2.176349853515625,1.1983645664036273,0.3478969073474407,0.4752875349204987
1778596828068343800,2.18634375,1.049528342154622,0.2892801754668355,0.5132932212531567
1778596828078336800,2.196336669921875,0.8599743230700493,0.23958237084001302,0.4220874212611466
1778596828088329700,2.206329833984375,0.5796563294768333,0.1765250261634588,0.19696491639558225
1778596828098323000,2.216322998046875,0.3273199832648039,0.08822422689795494,-0.03143105718269944
1778596828108315600,2.226315673828125,0.1282972940891981,-0.06720481974482535,-0.2539838576907292
1778596828118308900,2.236308837890625,0.05280804560184479,-0.18590923284143207,-0.46266507697366177
1778596828128302800,2.246302734375,0.10676584576070308,-0.256936241222918,-0.5510508876414969
1778596828138295800,2.2562958984375,0.3051163347631693,-0.3473156003281474,-0.44898510933052743
1778596828148288800,2.266288818359375,0.6049860010445117,-0.41743659978061914,-0.32331969811487943
1778596828158281700,2.27628173828125,0.8445359309196472,-0.43917379981428384,-0.22753106384463606
1778596828168275000,2.28627490234375,1.0049965419888496,-0.41930590078383684,-0.18224804345276205
1778596828178269000,2.29626904296875,0.9723363814026117,-0.390698230458796,-0.1349804981801659
1778596828188261600,2.30626171875,0.7825158203363418,-0.4016062857031822,-0.029020525442250072
1778596828198254800,2.3162548828125,0.7082523142516612,-0.3502759114384651,0.0009692468909546732
1778596828208247800,2.326247802734375,0.7023860525667667,-0.22575696684420107,0.0019118249706923962
1778596828218240800,2.33624072265625,0.6816086374759673,-0.18663491676747798,-0.04027162197064608
1778596828228234800,2.34623486328125,0.5994032324761152,-0.23370266515165566,-0.05297752041723579
1778596828238228000,2.35622802734375,0.4210159195721149,-0.4053860965028405,-0.04361242029853165
1778596828248221000,2.366220947265625,0.3070458415210247,-0.6371651001155376,-0.004217763825505972
1778596828258213600,2.376213623046875,0.25342940214574333,-0.8021648159191012,0.022288002316839993
1778596828268206800,2.386206787109375,0.22576690371632574,-0.8930576775044202,0.03273278743103147
1778596828278200800,2.396200927734375,0.14343758007586002,-0.9441104038715362,0.09520002072732896
1778596828288193800,2.40619384765625,0.03567512449324131,-0.8597942903280258,0.18545867606233804
1778596828298186800,2.416186767578125,-0.14534721308946608,-0.7565034272015094,0.26710465708114206
1778596828308180000,2.426179931640625,-0.396895623794198,-0.6400500079020858,0.2880589996414259
1778596828318172700,2.436172607421875,-0.6708791536688804,-0.489537959395349,0.2834048171600327
1778596828328166700,2.446166748046875,-0.9982587581664323,-0.4201780074432492,0.26257424710988997
1778596828338159900,2.456159912109375,-1.4631892227888106,-0.4254074325293302,0.2960007524261251
1778596828348152800,2.46615283203125,-1.9753198300033807,-0.42481560411602254,0.35493860601987687
1778596828358145800,2.476145751953125,-2.414742343881726,-0.4486322407722473,0.3128329004898667
1778596828368138800,2.486138671875,-2.69146494333148,-0.5375576016768813,0.35742052249610423
1778596828378132700,2.4961328125,-2.805146267569065,-0.7032666347935795,0.3929908349080011
1778596828388126000,2.5061259765625,-2.672152924618125,-0.9348544997483491,0.43425011620912696
1778596828398118700,2.51611865234375,-2.3897248070031405,-1.1810510280311106,0.5539305347310379
1778596828408111900,2.52611181640625,-2.1173165636211633,-1.2927294880136846,0.5577007374521344
1778596828418105900,2.53610595703125,-1.904533060118556,-1.2578934446930885,0.3782973428407684
1778596828428098800,2.546098876953125,-1.9667583378851412,-1.0634253500819206,0.12705734049808234
1778596828438091800,2.556091796875,-2.2818618136554956,-0.6459767676025628,-0.06080985801070928
1778596828448084700,2.566084716796875,-2.778165321663022,-0.20642098273336887,-0.18546733429282902
1778596828458078000,2.576077880859375,-3.2214930262863635,0.3462847959756851,-0.2398234495868906
1778596828468071700,2.58607177734375,-3.342775473177433,1.0700292783915997,-0.3323774858500808
1778596828478065000,2.59606494140625,-2.8788673373401164,1.810829232765734,-0.3231964735940099
1778596828488057900,2.606057861328125,-1.8768664700359106,2.29356569545269,-0.1755170912299305
1778596828498050800,2.61605078125,-0.746354958152771,2.3487819712400433,0.017904526535607874
1778596828508043800,2.626043701171875,0.30761048966646193,2.0813179062619804,0.18812747514648362
1778596828518037800,2.636037841796875,1.3181032909840344,1.7706243558883665,0.4058330730853602
1778596828528031000,2.646031005859375,2.183203871026635,1.3739157790988683,0.7145598899632692
1778596828538023700,2.656023681640625,2.6979016983807087,0.8931222671732306,0.9859085412897169
1778596828548017000,2.666016845703125,2.885544330886006,0.5440113078609109,1.2393196771264074
1778596828558009900,2.676009765625,2.8169804977476596,0.3999544268429279,1.27053548412323
1778596828568003800,2.68600390625,2.559040340179205,0.4243313277304172,0.8619900468066334
1778596828577996800,2.695996826171875,2.282776590412855,0.5194400534451008,0.30106220053415744
1778596828587989800,2.70598974609375,1.949223850238323,0.5226335887894034,-0.15184448442058637
1778596828597983000,2.71598291015625,1.4753291579157113,0.29275369679629804,-0.3427473425645381
1778596828607975700,2.7259755859375,0.976520973610878,0.053177755697071546,-0.41396607412584124
1778596828617969700,2.7359697265625,0.585645340758562,0.1022030678898096,-0.44336237407792356
1778596828627963000,2.745962890625,0.3438479242175817,0.27662878368645905,-0.423354956978932
1778596828637955800,2.755955810546875,0.3698942196220159,0.45340632330626246,-0.30506875102808695
1778596828647948800,2.76594873046875,0.6287386325538158,0.716207072648406,0.026776459142775273
1778596828657941800,2.775941650390625,1.0375146637558936,1.0325772073537112,0.2885633507006802
1778596828667935700,2.785935791015625,1.435394622412324,1.18648912743181,0.46976497210673984
1778596828677929000,2.795928955078125,1.7639368409484624,1.1247232838705181,0.6232888427153229
1778596828687921700,2.805921630859375,1.8763427384227513,0.8685188640534878,0.8499987263701856
1778596828697915000,2.815914794921875,1.7201555668890476,0.51377194468081,1.040914973718673
1778596828707907800,2.825907958984375,1.521174963289499,0.24426029952317474,1.1611400205112994
1778596828717901800,2.83590185546875,1.3622609971404074,0.09499971238225698,1.0658886714555322
1778596828727894800,2.845894775390625,1.0880676239073277,-0.051016778270900245,0.8517326374907046
1778596828737887700,2.8558876953125,0.7852356006890535,-0.18477964428961277,0.5668121185380965
1778596828747880700,2.865880615234375,0.6218436123430728,-0.2527218383982777,0.23641232596915213
1778596828757873700,2.875873779296875,0.5076613528460264,-0.2879460042536259,0.00388851360483095
1778596828767868000,2.885867919921875,0.6464139899760485,-0.25255554192066193,-0.1647597513015382
1778596828777860900,2.89586083984375,0.845774532803893,-0.19896043759435414,-0.20017635272275655
1778596828787853800,2.905853759765625,1.0363637401551007,-0.19686288079321385,-0.1547202407862991
1778596828797846800,2.9158466796875,1.2339426602631807,-0.28458588017076253,-0.0869897623327095
1778596828807840800,2.9258408203125,1.3413766145437955,-0.3927542862057686,0.11918868034905754
1778596828817834000,2.935833984375,1.1744301485866309,-0.6129606331855059,0.32336105303857476
1778596828827826700,2.94582666015625,0.9837386499047279,-0.766179894824326,0.34716815468147394
1778596828837820000,2.95581982421875,0.9245867882341146,-0.7652022819638252,0.1627176144820638
1778596828847812900,2.965812744140625,0.8170160558313131,-0.7946443572863936,-0.10447587166000157
1778596828857806800,2.975806884765625,0.45332536702454085,-0.9149766638457775,-0.38923425885345786
1778596828867799800,2.9857998046875,-0.12141630240380763,-1.0895452952444553,-0.5953136981401592
1778596828877792800,2.995792724609375,-0.619774989375472,-1.0705851587086916,-0.7488556889273226
1778596828887786000,3.005785888671875,-0.9497732519388198,-0.9098772948801517,-0.7426885445997119
1778596828897778700,3.01577880859375,-1.2108967157185078,-0.7272466453179717,-0.5689160685474053
1778596828907772700,3.025772705078125,-1.4380056816935538,-0.5897238422438502,-0.27150292857270686
1778596828917766000,3.035765869140625,-1.7150304789602755,-0.5250380195826292,0.002544862177222967
1778596828927758600,3.045758544921875,-1.8687556442946194,-0.5836453991129994,0.18753979318533093
1778596828937751800,3.055751708984375,-1.9084347437322138,-0.7610059993177651,0.29610852364953605
1778596828947744800,3.065744873046875,-1.892466190227866,-0.9538502921193838,0.30913616486378015
1778596828957738800,3.07573876953125,-1.882378511455655,-1.0970365277826786,0.163610453402251
1778596828967731700,3.085731689453125,-1.969787330317497,-1.2892904534757137,-0.024433672576025127
1778596828977724700,3.095724609375,-2.087940831533074,-1.514269129423797,-0.21586068245824425
1778596828987718000,3.1057177734375,-2.0581208628088237,-1.6232129037454723,-0.4571274992538616
1778596828997711000,3.115711181640625,-1.9692086536467075,-1.5875012466341256,-0.6879360869318246
1778596829007705000,3.125705078125,-1.8480659074872732,-1.345635441032052,-0.8920100681476294
1778596829018323200,3.1363232421875,-1.7879577680051326,-1.001047804363072,-1.0675528783407062
1778596829028316200,3.146316162109375,-1.8185943138092755,-0.5945999238476157,-1.1458947397802024
1778596829038309400,3.156309326171875,-1.9168039281487463,-0.11439677903056145,-1.1614290665857494
1778596829048303400,3.166303466796875,-2.189205741789937,0.308121361798048,-1.1987548808954656
1778596829058296300,3.17629638671875,-2.5931121211290358,0.7364648477792739,-1.1986104309234769
1778596829068289300,3.186289306640625,-2.785975703153014,1.188258767452836,-1.1497035574786365
1778596829078282200,3.1962822265625,-2.531263859981298,1.5920108330130576,-1.1375818155955522
1778596829088275200,3.206275146484375,-1.9429507613182067,1.7155641474455594,-1.1225082381695508
1778596829098269200,3.216269287109375,-1.186001928436756,1.523573841124773,-1.0999223123520612
1778596829108262400,3.226262451171875,-0.29037644627094267,1.3694360033363102,-1.1766875721246004
1778596829118255400,3.23625537109375,0.6130336984217166,1.2933505425214766,-1.3020713168546556
1778596829128248300,3.246248291015625,1.3193991760134696,1.2835337896451353,-1.32072735587731
1778596829138242300,3.2562421875,1.6903046185046433,1.1310285214945672,-1.2750485776335
1778596829148235300,3.2662353515625,1.8463532583504914,0.8805676137655973,-1.3732809883266686
1778596829158228200,3.276228271484375,1.7316975361227989,0.624288375146687,-1.571929583492875
1778596829168221200,3.28622119140625,1.3849749332517385,0.385263638189435,-1.8701662417449056
1778596829178214400,3.29621435546875,1.2824474557131529,0.40132717650085686,-2.0876279661916195
1778596829188208400,3.30620849609375,1.3156997369736432,0.589578588554263,-2.1228059548176823
1778596829198201000,3.316201171875,1.27029290753901,0.6981786640048027,-2.089705795378983
1778596829208194300,3.3261943359375,1.458777836087346,0.8138993851155042,-1.9641181986398994
1778596829218187300,3.336187255859375,1.779491552954912,0.8212883263230323,-1.7159315194532274
1778596829228180200,3.34618017578125,1.9957459474384784,0.7219260348170995,-1.385686296391487
1778596829238174200,3.35617431640625,2.175631974467635,0.6791819948509336,-1.0568326007533817
1778596829248167200,3.366167236328125,2.3188322386562823,0.7020154656887054,-0.7652291699707507
1778596829258160400,3.376160400390625,2.3029694836139676,0.744847768460214,-0.5214921271366998
1778596829268153000,3.386153076171875,2.1346943994015453,0.7774728577330708,-0.32185842992328106
1778596829278146300,3.396146240234375,1.8281150063484906,0.7058958142533898,-0.17308237489629535
1778596829288140300,3.406140380859375,1.4422639236599206,0.675447484497726,-0.1438444438437
1778596829298133200,3.41613330078125,1.1115133814245461,0.6707540659844875,-0.1650109130510129
1778596829308126200,3.426126220703125,0.8159849592179059,0.58467006598562,-0.23998450363380833
1778596829318119200,3.436119140625,0.5573609110385179,0.4059308709040284,-0.3689977091737091
1778596829328113400,3.446113525390625,0.383503058257699,0.16338322051763535,-0.4882829908981919
1778596829338106000,3.456106201171875,0.29633856954574583,-0.13395751180797816,-0.6789893948882818
1778596829348099300,3.466099365234375,0.2859621369600296,-0.4402469820037484,-0.8101760537434369
1778596829358092300,3.47609228515625,0.36445991961359975,-0.6791741038054228,-0.8624915665879845
1778596829368085200,3.486085205078125,0.5903577562332153,-0.8968588233530521,-0.8568363173052668
1778596829378079200,3.496079345703125,0.8026338947355747,-1.104426638033986,-0.8131329307876527
1778596829388072200,3.506072265625,0.8942945258229971,-1.2600924160420894,-0.6617379619665443
1778596829398065400,3.5160654296875,0.8676508490473032,-1.3731228751555085,-0.5036127350423485
1778596829408058000,3.52605810546875,0.5999287176549434,-1.4281199552342294,-0.40539128413461145
1778596829418051300,3.53605126953125,0.35549744547903533,-1.292189974309504,-0.39548583006151017
1778596829428045300,3.54604541015625,0.2382517067581415,-1.0784107377678156,-0.35431134096700695
1778596829438038300,3.556038330078125,0.10909399644732475,-0.9658262688562274,-0.2005984505923465
1778596829448031200,3.56603125,0.10007365464568138,-0.9653265026405453,0.12322748001161962
1778596829458024200,3.576024169921875,0.1295043317914009,-0.8300166994407773,0.3707714408479631
1778596829468017400,3.586017333984375,0.2976572509288788,-0.012995675173401831,0.23084501069821417
1778596829478011400,3.596011474609375,0.8118903833806514,1.561599328136444,0.48182680049613114
1778596829488004000,3.606004150390625,-0.21934943788945674,0.27013123836070296,1.244109834012389
1778596829497997300,3.615997314453125,-1.182467909091711,-1.054403546975553,1.8884511093676088
1778596829507990300,3.625990234375,-1.3438771991878746,-1.4000325093910098,2.777959862218797
1778596829517984300,3.635984375,-1.329866794013977,-1.3741662467285989,2.7981647381186483
1778596829527977200,3.645977294921875,-1.0704010343134402,-0.8791662225350737,1.9899325849846003
1778596829537970400,3.655970458984375,-1.182037116459012,-0.38993718295842406,1.3232710490107535
1778596829547963400,3.66596337890625,-1.770743013831973,-0.16577654539495706,1.1319619298871606
1778596829557956000,3.6759560546875,-2.421919103643298,-0.15026274992078542,1.344260937808454
1778596829567950300,3.685950439453125,-2.7671301329076288,-0.486080220156908,1.6016855470702052
1778596829577943300,3.695943359375,-2.8299925395339725,-0.9288380159378051,1.477112534201145
1778596829587936300,3.705936279296875,-2.8569810842245817,-0.9419462115749716,1.2393100325152278
1778596829597929200,3.71592919921875,-2.815687535327673,-0.7137681550636887,0.5614108440164476
1778596829607922400,3.72592236328125,-3.4369308436900377,-0.00945522608757019,0.49141628395523873
1778596829617916400,3.73591650390625,-4.636932655906677,0.7636033223345875,0.15332977280858903
1778596829627909000,3.7459091796875,-5.714187209376693,0.8034460879012942,-0.5828400010142475
1778596829637902300,3.75590234375,-5.610033007419109,1.9616440636113286,-0.6346418652482331
1778596829647895300,3.765895263671875,-4.915586515679955,2.7579683368086814,-0.6364146470744162
1778596829657888300,3.77588818359375,-4.307206780543923,1.9827707305312154,-0.7989886701010167
1778596829667882200,3.78588232421875,-0.4792535890072584,0.7295031920731068,0.591502396223694
1778596829677875200,3.795875244140625,6.137824125102162,-1.1712588250741363,1.255728960135579
1778596829687868400,3.805868408203125,3.267197377362847,0.3406587727874517,0.5543493811976165
1778596829697861000,3.815861083984375,1.4272943180650473,1.3375740073904394,-0.11076200272478162
1778596829707854300,3.825854248046875,2.480189506304264,0.8508616268098353,0.2726137758914381
1778596829717848300,3.835848388671875,2.7707021461755037,0.6974614556461572,0.9168358087811619
1778596829727841300,3.84584130859375,1.9440514160364866,0.6775994018346071,1.0760675356425344
1778596829737834200,3.855834228515625,0.7603618561953306,0.9525894784033297,1.2497025394529104
1778596829747827200,3.8658271484375,-1.1175164212316273,0.8928793983280658,1.4443205639287828
1778596829757821400,3.875821533203125,-3.844510358583927,1.1917086156457661,1.6040705425105988
1778596829767814100,3.885814208984375,-3.2004262728601693,2.163060077664256,1.0944118783675134
1778596829777807400,3.895807373046875,0.13593290353417395,2.4170284089922904,1.4205699782460928
1778596829787800300,3.90580029296875,-0.006638999623060226,1.4284446571439504,1.4723283686645328
1778596829797793000,3.91579296875,3.033808892726898,1.0390092862278222,1.4276494151130317
1778596829807787300,3.925787353515625,3.486704636162519,0.8296797225713729,1.393506322492659
1778596829817780200,3.9357802734375,3.80957348523736,0.6172369953304528,1.039620842254907
1778596829827773400,3.9457734375,5.0614820103019476,0.6061205580323934,0.8848496019337325
1778596829837766100,3.95576611328125,5.467870854106545,1.0016431399077177,1.0089096968445925
1778596829847759400,3.96575927734375,4.962895379343629,1.4876926726654172,0.6689473818887025
1778596829857753300,3.97575341796875,2.454261868843436,1.3696943620115518,0.22291217187233267
1778596829867746300,3.985746337890625,0.22072949407100675,1.0837234572231769,-0.6492695255376398
1778596829877739300,3.9957392578125,-1.3868646925210952,0.6155757841199636,-1.5677819622941314
1778596829887732200,4.005732177734375,-1.6494278337150812,0.33581104049533606,-1.9273194769442081
1778596829897725400,4.015725341796875,-0.5476449881881476,-0.018798516233265398,-1.3770738047383724
1778596829907719400,4.025719482421875,0.6440548596292733,-0.622356238040328,-0.42191871363073585
1778596829917712100,4.035712158203125,1.750554212284088,-1.0035966120630502,0.47010041460618374
1778596829927705300,4.045705322265625,2.450988546261191,-0.938138928246498,0.9774677529416977
1778596829937698300,4.0556982421875,2.5915572929024693,-0.7232783262088894,1.4022037159502505
1778596829947691300,4.065691162109375,2.187693583661318,-0.539199231404066,1.6753241992548107
1778596829957685200,4.075685302734375,1.1407657793939112,-0.5712330767855048,1.703979800374806
1778596829967678200,4.08567822265625,0.43511458755135535,-0.8912731321752071,1.499346431710571
1778596829977671200,4.095671142578125,-0.24314240140914917,-1.2457824433997273,0.9385425406113267
1778596829987664100,4.1056640625,-0.7404699917674065,-1.58668203920573,0.5222673858255148
1778596829997657600,4.11565771484375,-0.10711831246018409,-1.0417924872055648,-0.19085268059298394
1778596830007651600,4.125651611328125,0.34294483789801594,-0.28181758450120686,0.02774067823216319
1778596830017644500,4.13564453125,-0.2559983758509159,-0.0693579061254859,1.3409819161377847
1778596830027637500,4.145637451171875,-0.6938017640948295,0.09398089072853326,2.0861180000200865
1778596830037630500,4.15563037109375,-0.2182698259592056,0.4258016925439238,1.2187207604076713
1778596830047623700,4.165623779296875,-0.8727660001039504,-0.28838147306144235,0.2812982368022203
1778596830057617700,4.17561767578125,-0.5020183785229921,-0.39429216329753397,-0.377935048867017
1778596830067610600,4.185610595703125,-1.7603870395123957,-0.603609159733355,0.06372808354496956
1778596830077603600,4.195603515625,-2.6400170801669356,-1.290244393199682,0.6067166242294013
1778596830087596500,4.205596435546875,-2.5993144829005,-1.0541229764685034,-0.4919507196255028
1778596830097590500,4.215590576171875,-2.394001753669977,-0.8583470141291618,-0.8398198621831834
1778596830107583500,4.22558349609375,-2.1250275763899085,-1.2754969059228896,-0.8923518673226237
1778596830117576700,4.23557666015625,-1.9728139846622943,-1.3599667487233877,-1.2356911113657056
1778596830127569400,4.2455693359375,-2.60653157467246,-0.8963272006943821,-1.843743806504458
1778596830137562600,4.255562744140625,-3.620280747437477,-0.389372242552042,-2.420478403315693
1778596830147556600,4.265556640625,-4.271812226557731,-0.3903966171637177,-3.4437662426680324
1778596830157549600,4.275549560546875,-4.348978468346595,-0.5736614729762077,-4.056871837282181
1778596830167542500,4.28554248046875,-4.4271202771693465,-0.4282344726487994,-4.534534357705712
1778596830177535500,4.295535400390625,-4.069428536516428,-0.18357289884835482,-4.533413244721293
1778596830187528700,4.30552880859375,-2.9575416456043717,0.23219722902476786,-3.993128556168079
1778596830197522700,4.315522705078125,-1.3944213915109633,0.9610495559737086,-2.715179873178899
1778596830207515400,4.325515380859375,1.1535486885994672,1.9442121595561503,-1.7673288214743137
1778596830217508600,4.335508544921875,3.238310305574536,2.401168868820369,-1.7099144511207938
1778596830227501600,4.34550146484375,2.8788468790739774,0.9465443530201911,-0.9399987307690083
1778596830237494500,4.35549462890625,3.901280878075957,1.1777174996942281,-2.4979911204546688
1778596830247488500,4.365488525390625,4.612309671303629,3.048775575712323,-3.481227081534266
1778596830257481500,4.3754814453125,4.828486908897757,2.1657371879190204,1.0550193407863377
1778596830267474700,4.385474609375,4.0694980946213,2.3066055020287632,3.1089702244341373
1778596830277467400,4.39546728515625,3.2279175063759085,3.2781109855651853,1.3202047933079302
1778596830287460600,4.405460693359375,2.6864818942219015,2.959351033113897,-0.23493220694661138
1778596830297454600,4.41545458984375,1.537505335843563,1.4824319756582378,-0.6816556914880871
1778596830307447600,4.425447509765625,0.026946459114551544,-0.32502281223833557,-0.9018583852060139
1778596830317440500,4.4354404296875,-0.05809738418161869,-1.2731041655674575,-1.1000099906355143
1778596830327433500,4.44543359375,0.45008945384323595,-0.5913344923108815,-1.0860010467663406
1778596830337426700,4.4554267578125,1.1138602368116377,0.5240957702964544,-1.1680164821520447
1778596830347420400,4.46542041015625,1.4169927042812107,0.9263894537419081,-1.121826247254759
1778596830357413600,4.47541357421875,1.2010820086687803,0.5004106510654092,-1.016650447164476
1778596830367406600,4.485406494140625,1.4216794007927178,0.13582973542064428,-0.6513838873431086
1778596830377399600,4.495399658203125,2.446293081921339,0.21295126128494737,0.08988850684836507
1778596830387392500,4.505392578125,3.3087679896354674,0.5480559070765971,0.7781243073791265
1778596830397386500,4.515386474609375,3.5207343315362927,1.1122291284784673,1.2267812442012132
1778596830407379700,4.525379638671875,3.0281355232656,1.282208386260271,1.9192919455721973
1778596830417372400,4.535372314453125,2.0413135203927752,0.7182017535969615,2.612774268454313
1778596830427365600,4.54536572265625,0.7410445767849684,-0.038001813875138755,2.6014474032759667
1778596830437358600,4.555358642578125,-0.1648228979319334,-0.4051435199186206,2.1786634511180223
1778596830447352600,4.5653525390625,-0.548695958545804,-0.7142536004930734,1.80988099213019
1778596830457345500,4.575345458984375,-0.6507581566601991,-1.010558852291107,1.795329465816915
1778596830467338500,4.58533837890625,-0.38029461760520933,-1.1086927710458636,1.5932203549332915
1778596830477331700,4.595331787109375,-0.2800479444801807,-0.7385168118730187,0.7688567128181457
1778596830487324400,4.605324462890625,-0.5562111564815044,-0.885963627590239,0.16962489138618111
1778596830497318400,4.615318359375,-0.095797877022624,-0.9203291307896375,-0.7745961332529783
1778596830507311600,4.6253115234375,0.574725887337327,-0.2374117488026619,-1.8763504833377898
1778596830517304600,4.6353046875,0.8779051165580749,0.6290536898523569,-1.8163747380636632
1778596830527297500,4.645297607421875,0.20976737055182457,-1.1675883198678494,-1.3913893303386866
1778596830537290500,4.65529052734375,-0.14976210692226885,-2.6925191285595296,-0.18030425244122741
1778596830547284500,4.665284423828125,-0.13960603908896446,-2.7728932264789936,0.9112465374067426
1778596830557277400,4.67527734375,0.5701391440689564,-2.1873323491334915,1.6974860544413328
1778596830567270400,4.6852705078125,1.1443833853691816,-1.8358070221558211,2.5749530718430873
1778596830577263600,4.695263671875,0.45566813075840473,-2.097586904017627,3.435314348404109
1778596830587256600,4.705256591796875,-0.7772124532312155,-2.324810144022107,3.9797295608907937
1778596830597249500,4.71524951171875,-1.125973283931613,-1.709831741273403,3.9190103037729855
1778596830607243500,4.725243408203125,-1.1887930204600095,-0.6420216002359986,1.8841472746938466
1778596830617236700,4.73523681640625,-2.6153099244117737,-1.2201605108872056,0.4656172778427601
1778596830627229400,4.7452294921875,-3.306871800625324,-1.795562397789955,-0.6339104822337627
1778596830637222700,4.75522265625,-4.079592787656188,-2.346895134580135,-1.4146782898589967
1778596830647215600,4.765215576171875,-4.507379808798432,-2.1858125922203064,-1.191856499683857
1778596830657209600,4.775209716796875,-5.004721427682042,-2.1126915341690182,-0.33848259779214857
1778596830667202600,4.78520263671875,-4.546662602394819,-1.94868901270926,0.5985434007763862
1778596830677195500,4.795195556640625,-3.761825061112642,-1.8853975670158862,0.8368675882488489
1778596830687188700,4.805188720703125,-4.3150270989060395,-1.3802712856054304,0.14506459675580263
1778596830697181400,4.815181396484375,-5.620836725506186,-0.6596443506881594,-0.9069006171569227
1778596830707175400,4.825175537109375,-6.8744994007617235,0.026555998492240905,-1.7919170270249247
1778596830717168600,4.835168701171875,-7.598524453684687,0.8935045444890857,-2.31657043120414
1778596830727161600,4.84516162109375,-7.425759072315692,1.8336632881253956,-2.3955185879737138
1778596830737154600,4.855154541015625,-6.36366234048903,2.1017562986567615,-1.608981549297273
1778596830747147500,4.8651474609375,-4.297274584594368,1.8107003456890582,-0.6055798752844334
1778596830757141500,4.8751416015625,-2.056975199905038,1.7631833922326563,0.12655191172659397
1778596830767134700,4.885134765625,0.1476654269039631,1.417951320180297,1.0297960522025822
1778596830777127400,4.89512744140625,1.4159522553175687,1.2028045946776866,1.429197229076922
1778596830787120600,4.90512060546875,1.8109031747847795,1.1546370683580636,1.6510390683040022
1778596830797113600,4.915113525390625,1.6404583453178405,1.2782406516730784,1.5046613431230187
1778596830807107300,4.925107421875,1.0722229890435933,1.6946131293535232,1.3859589758530257
1778596830817100500,4.9351005859375,0.6792214500784873,1.8772727127492426,1.0402952343851328
1778596830827093500,4.945093505859375,0.5716068785339593,2.0424925010442734,0.5667579771980643
1778596830837086500,4.95508642578125,0.6955518226325511,2.5635668776929377,-0.46084377983063457
1778596830847079400,4.965079345703125,1.430920107346773,3.97468279889524,-1.3173343524381518
1778596830857073700,4.97507373046875,0.37033845625817774,2.0685428881019354,-0.34627281327694653
1778596830867066600,4.985066650390625,0.186019415217638,0.4734054475009441,0.21679303140491246
1778596830877059600,4.9950595703125,1.152659630805254,1.4376105448961256,0.6825909265115857
1778596830887052500,5.005052490234375,1.921801005783677,2.499482820317149,1.6614181312382221
1778596830897045500,5.01504541015625,2.389542436173558,2.366667172020674,2.499579850950837
1778596830907039700,5.025039794921875,3.192071116968989,2.632559749898314,2.4259555195525286
1778596830917032400,5.035032470703125,3.8916304216772315,3.12539528953433,2.265601583728194
1778596830927025700,5.045025634765625,3.6395547722280024,2.739617272081971,2.404335808418691
1778596830937018600,5.0550185546875,3.6664948016017673,2.7457512447923422,2.535059745132923
1778596830947011600,5.065011474609375,4.157485590153932,3.1372230899721383,2.1533684124723074
1778596830957004500,5.075004638671875,3.4600194583326576,2.33288063775301,2.3896184240192175
1778596830966998500,5.08499853515625,2.8968133283972737,1.6032652174770832,2.3060417306661605
1778596830976991700,5.09499169921875,2.3522259742140768,1.1563421187102794,2.0654224179938434
1778596830986984400,5.104984375,2.8439298794716596,1.067369119271636,1.8787404472142457
1778596830996977200,5.11497705078125,3.532591942590475,1.296070907396078,2.1574100890785455
1778596831006970000,5.12497021484375,3.897012114715576,0.7156500232875347,2.1873472544416783
1778596831016964000,5.134964111328125,3.765303550878167,0.5538631320506334,1.896862087099254
1778596831026957300,5.144957275390625,3.40852249532938,0.6380442210376263,1.399728265747428
1778596831036950000,5.154949951171875,2.855571801948547,0.5206564434975386,0.9959881828859448
1778596831046943200,5.164943115234375,1.910478232258558,0.5439098933130503,0.6163146197885274
1778596831056936200,5.174936279296875,1.0140028552651406,0.735282359996438,0.09907324543148278
1778596831066930200,5.18493017578125,0.2397206102669239,1.040587495329976,-0.1202671323686838
1778596831076923100,5.194923095703125,-0.442412927865982,1.4142261621773242,0.10534545756876468
1778596831086916000,5.204916015625,-0.39785307064950465,1.6651456273287533,0.06780483146458864
1778596831096909300,5.214909423828125,0.2011865892112255,1.920015875932574,-0.5669593449890613
1778596831106902000,5.224902099609375,0.3814607387751341,1.8528484655886888,-1.2321803267657756
1778596831116895200,5.234895263671875,0.847661953985691,1.726447360509634,-1.5485972232222556
1778596831126889200,5.24488916015625,1.1698819837629795,1.824824148109555,-1.968043701520562
1778596831136882200,5.254882080078125,2.066993905094266,2.4539982494711876,-2.3226532582491637
1778596831146875100,5.264875244140625,3.9158769741833206,3.357776642954349,-2.609724817755818
1778596831156868000,5.2748681640625,1.7276938534393906,2.0056693755596875,-2.339405655607581
1778596831166861300,5.284861328125,0.1713327182173729,1.1093524039983749,-1.2678677262187004
1778596831176855000,5.29485498046875,-0.6257686768323183,1.6504215209275483,-1.8396856171548366
1778596831186848300,5.30484814453125,-0.8432865153804421,2.326220010820031,-2.6394565236747263
1778596831196841200,5.31484130859375,-1.651949753408134,1.861409957706928,-3.420225208082795
1778596831206834200,5.324834228515625,-1.8504226997464894,1.499765095514059,-3.870267315652966
1778596831216827100,5.3348271484375,-1.677216588872671,2.151924351143837,-3.150867584443092
1778596831226821000,5.344821044921875,-1.565540174716711,2.660268425557017,-2.0032968012094496
1778596831236814300,5.354814453125,-1.2098571435377001,3.376883786745369,-0.39604046826958655
1778596831246807000,5.36480712890625,-1.0138818592339753,3.9361186749622226,0.5097720613896847
1778596831256800300,5.37480029296875,0.703743312394619,4.287283059673011,-0.41165070985555646
1778596831266793200,5.384793212890625,1.302466161391139,3.8300504560768602,-3.1022593286186453
1778596831276787200,5.394787109375,-0.39768765095472336,3.130032593946159,-5.161256974261999
1778596831286780200,5.4047802734375,-1.1396523382592945,3.118231389254331,-5.449533817905187
1778596831296773000,5.414773193359375,-1.9350398420631885,3.2735712963089343,-4.770532148057222
1778596831306766300,5.424766357421875,-2.4895506243675944,3.987615345704555,-3.6768431771367784
1778596831316759000,5.434759033203125,-2.6878940991073845,4.709617368367314,-2.977433510032296
1778596831326752300,5.444752197265625,-2.729630715596676,4.1786037815064185,-2.3647446795254945
1778596831336746200,5.454746337890625,-2.2429764949440956,3.8726121252134442,-1.1802420497357844
1778596831346739200,5.4647392578125,-1.2196890939831733,3.901178294484317,-0.2432920390129089
1778596831356732200,5.474732177734375,0.0374444722533226,3.257586960713565,0.5337567480891943
1778596831366725000,5.48472509765625,0.9851602802056819,2.849498034992814,1.2226742472738026
1778596831376718300,5.49471826171875,1.2519757450819016,2.657098271088302,1.1683990517288445
1778596831386712000,5.504712158203125,1.0224982233446092,1.981285460409522,0.8951099338591099
1778596831396705000,5.514705078125,0.6239503022987395,1.7021137142419813,0.7210995208650827
1778596831406698200,5.5246982421875,0.1151999121069908,1.3547314784184097,-0.07007657578885555
1778596831416691000,5.53469091796875,-1.1285388235706835,0.9358717139668762,-0.541043982487917
1778596831426684200,5.54468408203125,-2.3122820863604545,0.11681406930536031,-1.0515572176337242
1778596831436678100,5.55467822265625,-2.729447175723314,-0.8566285197734832,-1.8663573509812355
1778596831446671400,5.56467138671875,-2.1283178501069546,-2.1480323121413587,-2.777625807958841
1778596831456664000,5.5746640625,-1.3658628210246562,-2.861517850871384,-3.3877100089251995
1778596831466657300,5.5846572265625,-1.0811116672895849,-4.068301578313112,-3.748268244925141
1778596831476650200,5.594650146484375,0.058924482655525204,-4.760685000042617,-4.24781292681098
1778596831486643200,5.604643310546875,0.6659316873293369,-4.934225749698281,-4.457821704903245
1778596831496637200,5.61463720703125,0.8104290055911988,-5.711815804070234,-4.705567800715565
1778596831506630100,5.624630126953125,1.6144915448904036,-5.8323792890369885,-4.8744987184882165
1778596831516623400,5.634623291015625,1.0827157414853572,-5.418052053448558,-5.121962490227818
1778596831526616000,5.644615966796875,1.333898826009035,-5.8687190149188035,-5.736904652619361
1778596831536609300,5.654609375,3.975722663336992,-6.57457362037897,-6.455026034456491
1778596831546603300,5.664603271484375,4.3424949515461915,-7.447556478103995,-6.774245128852129
1778596831556596200,5.67459619140625,2.9486288558304308,-7.478360781690478,-7.453080794483423
1778596831566589200,5.684589111328125,6.375695892632007,-6.939546165689825,-7.70223208091855
1778596831576582100,5.69458203125,10.699331829929351,-8.022617881006003,-6.528729568570852
1778596831586575400,5.704575439453125,11.17638352497816,-7.954472565540671,-5.704558964809775
1778596831596568000,5.714568115234375,10.605886653512716,-7.080023142394423,-5.138280003300309
1778596831606562000,5.72456201171875,10.002259081339835,-5.793150271454453,-4.00066128976047
1778596831616555300,5.73455517578125,10.314057085824013,-3.3470249473154543,-1.4431711016327142
1778596831626548200,5.74454833984375,12.62965224225521,0.37226796301603315,2.6998200992226598
1778596831636541200,5.754541259765625,14.158020331919193,1.6970798117280006,5.0942117289930575
1778596831646534100,5.7645341796875,10.394439367049932,-1.0371697958409785,2.8381694162487983
1778596831656528100,5.774528076171875,2.7184523189783096,-2.038537918199599,-3.197345842501521
1778596831666521000,5.78452099609375,4.228259500557184,0.868031665058434,-4.366030140912533
1778596831676514000,5.79451416015625,3.042828065484762,-0.5398623714879155,-2.129991920799017
1778596831686507300,5.80450732421875,2.1274995194613933,-1.6886843238264322,-2.0560990015923974
1778596831696500000,5.8145,2.1617314594089985,0.8620669114351273,-2.0064438670635223
1778596831706493200,5.8244931640625,0.6211001004993916,2.0825655682355166,-1.437968272292614
1778596831716487200,5.834487060546875,-0.8574468504190444,1.940299954548478,-0.7968786922097205
1778596831726480100,5.844480224609375,-2.951662524437904,0.9659022567018866,-1.3069821775108574
1778596831736473000,5.85447314453125,-7.685705309009552,6.594369038695096,0.6676368107467889
1778596831746466000,5.864466064453125,-7.128660624313354,6.88569474851489,1.5662410164624452
1778596831756459300,5.874459228515625,-5.229006568408012,3.7081583528548476,0.0609551117002964
1778596831766453200,5.884453369140625,-3.5484430071949955,1.6399068489149211,-2.4725901372164487
1778596831776446200,5.8944462890625,-2.4920681601464745,2.5946757171839474,-3.6929607837229965
1778596831786439200,5.904439208984375,-0.5130863005042076,3.4332620920494197,-5.333446601569652
1778596831796432400,5.914432373046875,0.06381108565330505,3.4281685683026906,-5.116691271826625
1778596831806425000,5.924425048828125,-3.4131425563454627,3.242317787650227,-3.6910476435780524
1778596831816419000,5.934419189453125,-5.702978417620063,4.905454997766018,-2.622166950699687
1778596831826412300,5.944412353515625,-4.944526778960228,5.591832164818048,-2.2589666757583617
1778596831836405200,5.9544052734375,-4.4307355450570585,4.233670711950958,-1.7740139983266592
1778596831846398200,5.964398193359375,-4.21869906052947,2.2570123268201945,-1.1581325092583894
1778596831856391200,5.97439111328125,-3.331611105084419,1.0893608785882591,-0.886606893929839
1778596831866384400,5.98438427734375,-1.5247557443857191,0.5536681940004229,-0.6857382846266031
1778596831876378400,5.99437841796875,-0.5225041171908378,-0.4279831282362342,0.04820142858922481
1778596831886371000,6.00437109375,-0.4306945060867816,-0.8354758416295051,0.3615402327746153
1778596831896364300,6.0143642578125,-0.1090180816669017,0.1513569748982787,-0.11211422105133532
1778596831906357200,6.024357177734375,0.10978950443081557,0.5034381821930408,0.08874854303300381
1778596831916350200,6.03435009765625,0.04543364437632262,-0.029934827275574206,0.13426760067045687
1778596831926343200,6.04434326171875,-0.23808745610713958,-0.5255170352712273,0.019501988327503203
1778596831936337200,6.054337158203125,-0.5888835189621895,-1.1001768716350198,0.15165829593241215
1778596831946330000,6.064330078125,-0.5169605846542865,-1.6986965992748737,0.8561264154702425
1778596831956323000,6.074322998046875,-0.7703262008488178,-2.571203363920748,1.6581559145718812
1778596831966316300,6.08431640625,-0.5026829799115657,-2.865501952071488,2.5362451555252075
1778596831976309200,6.094309326171875,-0.017534414581581947,-2.8187764412537217,3.0933570602387186
1778596831986303000,6.104302978515625,0.37546303273029624,-2.7891163392663,3.1331156546533108
1778596831996296200,6.114296142578125,0.8847638964116573,-3.0194989200845357,3.1266350604623554
1778596832006288600,6.12428857421875,1.3691396507382392,-2.790845647276938,3.4001305145591494
1778596832016281900,6.13428173828125,1.7005659002780913,-2.4680586312666533,3.604211656168103
1778596832026274600,6.144274658203125,1.8935270974576472,-2.8117548720538617,4.398137928313017
1778596832036267800,6.154267822265625,1.8820704684197902,-3.4123107816964384,4.29824255284369
1778596832046261800,6.16426171875,1.0051134463667868,-2.8325620977610346,4.236054684478044
1778596832056255000,6.1742548828125,-0.06638415101170539,-1.3170913374625146,4.175638501960039
1778596832066247700,6.18424755859375,-1.535252588480711,-0.45196562297865744,4.388799022081494
1778596832076241000,6.194240966796875,-1.1305763938128948,0.5027276958361268,3.7474674499362703
1778596832086233900,6.20423388671875,-1.7312416090488434,1.3640152934618293,3.363429554149508
1778596832096227600,6.2142275390625,-2.0545289757966994,0.30074586459398267,3.1747260144144294
1778596832106220800,6.224220703125,-1.4079215090751647,-1.548666342935711,2.6714959220141172
1778596832116213800,6.2342138671875,-0.3216987093169242,-1.962474669216573,1.796873480388522
1778596832126207000,6.24420703125,0.34015666848421094,-1.908304833742231,-0.019301497319340704
1778596832136199700,6.25419970703125,1.1156195746343582,-1.841321986185014,-1.236245091986656
1778596832146193000,6.26419287109375,0.8151262965619563,-1.3638155331060289,-1.9348247380077839
1778596832156187000,6.274186767578125,-0.23619243614077567,-0.49657647973001,-1.4607482593774794
1778596832166179600,6.2841796875,-1.0133505288362503,0.7650726642347871,-1.7227853308707475
1778596832176172800,6.2941728515625,-1.749134993135929,2.222507122889161,-1.8665631026864051
1778596832186165800,6.304165771484375,-1.1320901593767105,2.5365391700357196,-1.7861866666793822
1778596832196158700,6.31415869140625,-0.4903225339017808,0.03453004611134529,-2.4223230082690717
1778596832206151700,6.324151611328125,-0.957975263094902,-3.8408185183286663,-4.016933210125566
1778596832216145700,6.334145751953125,-1.951935008893162,-4.810778233727812,-5.212957935404777
1778596832226139000,6.344138916015625,3.2008477131426334,-0.6642800476647913,-2.496446813622117
1778596832236131600,6.354131591796875,3.994072266758978,-1.6801545420207082,-6.1855509219169615
1778596832246124800,6.364124755859375,0.29059023515209553,-1.403673350111395,-3.9490632044702765
1778596832256117800,6.37411767578125,1.513121274562925,-0.01050141067225486,-3.438690839099884
1778596832266111700,6.38411181640625,3.085285105203092,0.5810013143450021,-6.026488487207889
1778596832276104700,6.394104736328125,5.587877289712429,1.7289666498541831,-8.302066690549253
1778596832286097700,6.40409765625,5.133067821609973,1.455079566091299,-7.691654572802782
1778596832296091000,6.4140908203125,2.8390996828362343,0.9834416397195309,-5.301878327873349
1778596832306083600,6.42408349609375,2.178931600534916,1.283724928303063,-4.320075614467263
1778596832316076800,6.434076904296875,2.302098545998335,3.173181415320933,-3.803163033673167
1778596832326070800,6.44407080078125,0.29689474212378264,3.4099159955143925,-2.8056220683872697
1778596832336063700,6.454063720703125,-3.1764591218173504,1.385257257324457,-1.8246949687719345
1778596832346056700,6.464056640625,-1.1266086592257023,2.7283555810943243,-1.4409779755026102
1778596832356049700,6.474049560546875,-1.0287594026312232,5.816705334565043,-2.6374258946299554
1778596832366043000,6.48404296875,-1.260833882059157,7.838495239320397,-1.3942612325131893
1778596832376036900,6.494036865234375,-0.4677960831865668,6.185598852711916,0.1553817003697157
1778596832386029800,6.50402978515625,-0.916635536968708,4.136652060961723,-0.44530864930748937
1778596832396022800,6.514022705078125,-3.2337270694375038,3.895620660357177,-0.3244786223590374
1778596832406016000,6.52401611328125,-2.8325311181008814,4.934807348978519,1.8122212716460226
1778596832416008700,6.5340087890625,-1.1824319609954952,3.0486943271696565,1.4282897588431835
1778596832426001700,6.544001708984375,-1.4196306515693664,2.72389714038074,4.160761250823736
1778596832435996000,6.553995849609375,0.3285331584468484,2.421768004734814,5.411222499689459
1778596832445988600,6.563988525390625,0.7583397027179598,1.4312658520445227,5.18214252590239
1778596832455981800,6.57398193359375,0.1604173564493656,0.7505749139353632,3.9174405702382322
1778596832465974800,6.583974853515625,-0.656489686049521,0.37485418011695143,2.5166274318635464
1778596832475967700,6.5939677734375,-1.2380685080215335,0.868664848395437,2.2800170625716447
1778596832485960700,6.603960693359375,-0.993281554275751,1.282740008918941,2.3905109889447687
1778596832495954700,6.61395458984375,-0.9036892538949847,1.108021593786031,2.9185487748652696
1778596832505948000,6.623947998046875,-1.4470415133252739,1.2230790286824107,3.8270068505972623
1778596832515940600,6.633940673828125,-1.8901792483344673,0.9941868325524031,4.597174646013975
1778596832525933800,6.643933837890625,-2.0472943483680486,0.572265926964581,5.148345470240712
1778596832535926800,6.6539267578125,-2.3118811043441294,0.6167042036280036,5.6899938483625645
1778596832545920800,6.663920654296875,-2.4502888735592365,0.4394363962732255,5.950396596652269
1778596832555913700,6.673913818359375,-2.3359204438403247,-0.16496771323010326,5.751264601883292
1778596832565906700,6.68390673828125,-1.90309893566221,0.2678121477633715,5.85608048262
1778596832575900000,6.69389990234375,-1.9688193620681762,0.3168909437090158,5.7972378330290315
1778596832585892600,6.703892578125,-2.4382164507105943,0.06287248962894082,5.512979577377438
1778596832595885800,6.7138857421875,-2.4738337075367567,-0.28508739995211363,4.580481285366416
1778596832605879800,6.7238798828125,-2.1470795414611694,-0.6363503496665507,3.233017459863424
1778596832615872800,6.733872802734375,-1.9559759548470377,-0.7558605261880904,1.447287304779887
1778596832625865700,6.74386572265625,-1.8025594170704482,-1.0789821079149842,-0.3150140439212322
1778596832635858700,6.753858642578125,-1.1731927157461643,-1.5049451285004616,-1.5516051728665827
1778596832645852000,6.763851806640625,-0.42161768485754725,-1.4633184021264314,-2.046663649249077
1778596832655844600,6.7738447265625,0.7768649549677967,-1.2086256289813666,-2.0177379990160462
1778596832665838600,6.783838623046875,1.6835384853705764,-0.9207409264609218,-2.0156804819643495
1778596832675831800,6.793831787109375,2.2869947926297782,-0.8316657087568193,-2.025671130102873
1778596832685824800,6.80382470703125,2.934218053162098,-0.9073911771528422,-2.15007200127542
1778596832695817700,6.813817626953125,2.9480399500265717,-0.8010800163570791,-2.036405290085077
1778596832705810700,6.823810791015625,2.845087232813239,-0.7371681737430393,-2.2020874351948496
1778596832715805000,6.833804931640625,2.5675343200191856,-0.731665923064947,-2.3049112653315067
1778596832725797600,6.843797607421875,2.5557380837634205,-0.7451878140695393,-2.6374457683742043
1778596832735790800,6.853790771484375,3.051758098654449,-0.6888704451724886,-3.2005373320192096
1778596832745783800,6.86378369140625,3.9987972494542596,-0.7967047238823026,-3.7995612097889184
1778596832755776800,6.87377685546875,4.832673546932638,-0.9550178745940328,-4.195667729032039
1778596832765769700,6.883769775390625,5.587974320346117,-1.2261318403817711,-4.072682569876313
1778596832775763700,6.893763671875,5.916472115218639,-0.9158708362065255,-3.67257032212317
1778596832785757000,6.9037568359375,4.880144907681644,0.3710132137145847,-2.9885441021114585
1778596832795749600,6.91374951171875,2.534163088554144,0.706808399053663,-2.259932305920124
1778596832805742800,6.923742919921875,0.3276920314475894,0.366405646853894,-1.8276099794358014
1778596832815735800,6.93373583984375,-0.6605518209218979,0.33978410884477195,-2.1112141550928354
1778596832825729800,6.943729736328125,-0.800764593732357,0.7362917562346905,-2.994395750749111
1778596832835722800,6.95372265625,-1.0886837099790572,1.3616867043837904,-3.6039959675908086
1778596832845715700,6.9637158203125,-1.3983102156430482,1.4194900740548968,-3.720882809871435
1778596832855709000,6.973708984375,-2.1491049098089334,1.0866026659213006,-3.57247504016757
1778596832865701600,6.98370166015625,-3.126246645666659,0.9111044985875487,-3.4579245318800207
1778596832875694800,6.99369482421875,-3.690384795755148,0.6365577818721533,-3.4024148261040446
1778596832885688800,7.003688720703125,-4.177318710131943,0.49402825655192134,-3.0280116046249863
1778596832895681800,7.013681884765625,-4.725464633579552,0.47620209248214956,-2.349375845479965
1778596832905674800,7.0236748046875,-5.162694898110628,0.6581131955981254,-1.4517062902659177
1778596832915667700,7.033667724609375,-5.273675731217861,1.0473875307336449,-0.7891150724709034
1778596832925661000,7.043660888671875,-5.529008921158313,1.277675565136224,-0.03464461240172386
1778596832935653600,7.053653564453125,-5.725622211104631,1.4561499718017876,0.5937532438904046
1778596832945647600,7.063647705078125,-5.873894371730088,1.5121832630604504,0.8336626547276973
1778596832955640800,7.073640869140625,-6.024456689119338,1.719458086144179,0.817657860866189
1778596832965633800,7.0836337890625,-5.7871957469642155,1.887802728461474,0.9034031304299831
1778596832975626800,7.093626708984375,-5.1929620260804885,1.6698440142780542,0.8583926068365574
1778596832985619700,7.10361962890625,-4.23078405059874,1.1759725557230412,0.7726391539663076
1778596832995613700,7.11361376953125,-2.547342595861852,0.888526171554625,0.619765637025237
1778596833005607000,7.12360693359375,-0.8347498654425144,0.6475342261776328,0.6781307322323322
1778596833015599900,7.133599853515625,0.6068614395275712,0.37164983111768957,1.117778287038207
1778596833025592800,7.1435927734375,1.5798171218723058,0.11007131704688071,1.9398960499227045
1778596833035585800,7.153585693359375,2.1782497557505964,-0.06510813972651958,2.893728221863508
1778596833045579000,7.1635791015625,1.9890218998804687,-0.16686463289260864,3.6244887205213305
1778596833055573000,7.173572998046875,2.0557003576636315,-0.33520372225195166,4.107072330734134
1778596833065566000,7.18356591796875,2.4134452898085117,-0.3808481598347425,4.5131554695904255
1778596833075559000,7.193558837890625,2.6709157840386033,-0.29519845959991214,4.9756163292288775
1778596833085551900,7.2035517578125,2.478029697921872,-0.1609323202341795,5.016197345942259
1778596833095544800,7.213544921875,2.8961799989297985,-0.255332313157618,4.66143347543478
1778596833105537800,7.223537841796875,3.06084770630002,-0.46718642685562367,4.512459888541698
1778596833115532000,7.233531982421875,2.379808247014135,-0.6355506506562233,4.086524048224091
1778596833125525000,7.24352490234375,1.4474490712128578,-0.5995429332077503,3.491311253175139
1778596833135518000,7.25351806640625,0.4800342179909348,-0.3167579649791121,3.006998042690754
1778596833145511000,7.263510986328125,0.26754765160828825,-0.27750089034587144,2.425594577285647
1778596833155503900,7.27350390625,0.6317255394101142,-0.28296587775349613,1.820926556149125
1778596833165497900,7.283497802734375,1.051688150537014,-0.19401801275610922,1.2934732921183107
1778596833175490800,7.29349072265625,1.1802724448740483,-0.08962386456280946,0.6272632993042468
1778596833185484000,7.303484130859375,1.221573592555523,-0.5607584445223212,-0.20915011543631554
1778596833195476700,7.313476806640625,1.454466841020435,-0.7600695952504872,-1.0138444498330355
1778596833205470000,7.323469970703125,1.4669544205412268,-1.0833797583520413,-1.6724129879832266
1778596833215463000,7.333462890625,1.4323659222409129,-1.119486844521761,-1.9884920307874678
1778596833225457000,7.343456787109375,1.3509776788428425,-0.8846940460458398,-2.162553881707787
1778596833235449900,7.353449951171875,1.299043055074662,-0.14573095171004533,-2.1830442965507504
1778596833245442800,7.36344287109375,1.3894333739653228,-0.329240722194314,-2.6118133144676685
1778596833255436000,7.37343603515625,1.472896085549891,-0.1901785807237029,-2.8498440719515084
1778596833265428700,7.3834287109375,1.9400857272759078,0.3149699125185609,-3.2122686863452192
1778596833275422700,7.393422607421875,2.506504681777954,0.035654666227102276,-4.039048595821857
1778596833285416000,7.403416015625,2.456748132701218,0.4762313185766339,-4.466037744584679
1778596833295409000,7.413408935546875,2.8551091528728603,0.31051760928481814,-4.873218031027913
1778596833305401900,7.42340185546875,3.1853660663723944,0.6144631467029452,-5.052795430499315
1778596833315394800,7.433394775390625,3.353543535429239,0.6625371495202184,-5.418597412371635
1778596833325388000,7.443387939453125,3.294930018419027,0.7852578125208616,-5.608028097337484
1778596833335382000,7.453382080078125,2.771372592782974,0.9996005281642079,-5.63379148414731
1778596833345374700,7.463374755859375,2.2617793950915335,1.2116025259003043,-5.665744373247027
1778596833355368000,7.473367919921875,1.4726349503956735,1.3453855579242109,-5.358470568189024
1778596833365361000,7.48336083984375,1.165259292398393,0.7352490422487259,-5.35321980805397
1778596833375353900,7.493353759765625,0.41541371565088625,0.7611819404065608,-4.669052718266845
1778596833385346800,7.503346923828125,-0.28016046494394536,0.32992373602241276,-3.913181159228086
1778596833395340800,7.5133408203125,-1.073477080757916,0.061356093716621395,-3.5185359447091815
1778596833405334000,7.523333984375,-1.7342758621782064,0.3945347398817539,-2.5412521700322626
1778596833415326700,7.53332666015625,-1.815404285596311,1.375292620410025,-0.9335200362741947
1778596833425320000,7.54331982421875,-2.6275048045963048,2.2164693040296433,0.3273199832648039
1778596833435313000,7.55331298828125,-3.2425174018755554,2.8331273304283617,1.409137314605713
1778596833445307000,7.563306884765625,-3.7851167971119284,3.196569305171072,2.2124048310697075
1778596833455299800,7.5732998046875,-4.208197832520306,3.6653731040954587,2.9136288541197777
1778596833465293000,7.58329296875,-4.105830221718549,3.9362241811633107,3.336678909868002
1778596833475286000,7.5932861328125,-3.913543562799692,4.066769546440243,3.9462972468882795
1778596833485278700,7.60327880859375,-3.85687913403064,3.6119057178020477,4.626494848522544
1778596833495272000,7.61327197265625,-3.123431588245928,3.501276766872406,5.086099149686098
1778596833505266000,7.623265869140625,-2.215121688812971,3.8254210427105426,5.307133764183521
1778596833515259000,7.6332587890625,-1.6457295637190341,3.8660023516848683,4.909905547434091
1778596833525251800,7.643251953125,-1.4268778462186456,3.466870639401674,4.144569994479418
1778596833535245000,7.6532451171875,-1.5975556076586246,2.3408823040314015,3.7590918367564674
1778596833545237800,7.66323779296875,-1.4241948907449842,1.2996008350878954,3.8789205777078863
1778596833555231000,7.67323095703125,-1.0144323327235878,0.35380978465303775,3.839965700891614
1778596833565225000,7.683224853515625,-0.8862684557557106,-0.3527456625528633,3.7172728026807307
1778596833575218000,7.693218017578125,-0.8476130002774298,-0.7246672963492572,3.6588930944263933
1778596833585211000,7.7032109375,-0.7590487277701496,-0.9299228885650634,3.473081769001484
1778596833595203800,7.713203857421875,-0.8050187440454959,-1.1995775954551995,3.0302158366709944
1778596833605197000,7.723197021484375,-0.8957192979291081,-1.4424074237838387,2.5214012221366167
1778596833615189800,7.733189697265625,-0.9192170778945088,-1.6224747987292707,2.1066180594742296
1778596833625183700,7.743183837890625,-0.9629878305599093,-1.691279747147113,1.7874428042203188
1778596833635177000,7.753177001953125,-0.98911055220142,-1.8225215702556072,1.5290537338405847
1778596833645170000,7.763169921875,-0.9810787830457091,-1.879984017534554,1.354253631773591
1778596833655163000,7.773162841796875,-0.7684595301941036,-1.9001169972419738,1.1165180578440428
1778596833665155800,7.78315576171875,-0.09858663095831871,-2.0007951936520634,0.7841203329235314
1778596833675149000,7.793149169921875,0.8514613462686538,-2.1546416472785173,0.3060124068200588
1778596833685143000,7.80314306640625,1.8364111255288122,-2.180884634298831,-0.16439795051813125
1778596833695135700,7.8131357421875,2.40837149367556,-2.1339041258066893,-0.632550299796462
1778596833705129000,7.82312890625,3.305952932214737,-2.0575559224024413,-1.2927239350557327
1778596833715122000,7.833121826171875,4.2772178849935525,-2.041084680072963,-1.8633856416940688
1778596833725115000,7.843114990234375,5.053907191133499,-2.1395123210772873,-2.030140968993306
1778596833735108900,7.85310888671875,5.554755941355228,-2.0022054988414046,-1.667026034247875
1778596833745101800,7.863101806640625,5.086777195078135,-1.533758550530672,-0.7850356942027806
1778596833755095000,7.873094970703125,3.7814179425939916,-1.152007012115419,-0.012943068203330039
1778596833765087700,7.883087646484375,2.0952827187284826,-1.1018776842035352,0.2509843470811844
1778596833775081000,7.8930810546875,0.5792598775051534,-1.2406487337730825,0.20174597665965555
1778596833785074000,7.903073974609375,-0.2715739845149219,-1.0873521691143513,-0.3172363961458206
1778596833795068000,7.91306787109375,-0.6799649619221687,-0.7874680359162389,-1.0612976904034614
1778596833805060900,7.923060791015625,-0.3432967200756073,-0.10068550293371081,-1.5300404067903757
1778596833815053800,7.9330537109375,1.3701833145722746,0.6058508011803031,-1.9113041616886852
1778596833825046800,7.943046875,3.6092630943387745,0.6400903399124741,-2.4730828891694543
1778596833835039700,7.953039794921875,5.314160886341333,0.49050709668844933,-3.0475217762589453
1778596833845033000,7.963032958984375,6.579141074424982,0.21075039023980496,-3.4007775802910327
1778596833855027000,7.97302685546875,6.675794691494107,0.24179668588861822,-3.7133588441073893
1778596833865020000,7.98302001953125,4.962671507459879,0.8455212886951863,-3.624124563384056
1778596833875012900,7.993012939453125,1.9180740942150354,1.4276748418152332,-3.1645541644901036
1778596833885005800,8.003005859375,-1.2632424045056103,1.7234386802129447,-2.8081664921730756
1778596833894998800,8.012998779296876,-2.9059716173648833,2.0919658492654563,-2.9926567981272933
1778596833904991700,8.02299169921875,-3.6494539426907893,1.7948438742570578,-3.7198254097729917
1778596833914986000,8.032986083984374,-3.7302965349048374,1.2006830724790691,-4.4229917990624905
1778596833924979000,8.04297900390625,-4.28592404627949,0.8417273032397031,-5.174759429913759
1778596833934972000,8.052971923828125,-5.006710555672646,0.8269540969997644,-5.746975964778661
1778596833944964900,8.06296484375,-5.153351900225878,1.0495537688568233,-5.341535215479135
1778596833954958000,8.0729580078125,-4.940499423140287,0.5272083493590355,-4.004679293230176
1778596833964950800,8.08295068359375,-4.772475975601375,0.06371960797756909,-2.3128701153814792
1778596833974944800,8.09294482421875,-4.549432943890989,-0.052201019619405264,-1.1276853485465048
1778596833984938000,8.10293798828125,-4.224643648147583,0.025590368330478667,-0.4546253437072038
1778596833994931000,8.112930908203126,-3.8140038689002393,0.20890257041603325,-0.28672902967929836
1778596834004927700,8.122927734375,-3.5534438842222094,0.31635026096105573,-0.3056552639454603
1778596834014920400,8.13292041015625,-3.3761332606390115,0.21008330463320016,-0.49652270371615886
1778596834024913700,8.14291357421875,-3.56058498814851,0.0041501054167747495,-0.7734066312074661
1778596834034907600,8.15290771484375,-3.2339141164422034,-0.32100363972485063,-0.9350403777092695
1778596834044900600,8.162900634765625,-2.620189805407822,-0.39839989087730643,-0.9255214387357235
1778596834054893600,8.1728935546875,-1.9093807924106716,-0.30550299599319697,-0.29502164172828194
1778596834064886500,8.182886474609376,-1.1110302740827203,-0.584375466953218,0.8045920430660247
1778596834074879700,8.192879638671876,-0.4644137472718954,-0.9041142013087868,1.6725819148093461
1778596834084872400,8.20287255859375,0.2688695478618145,-1.0518298970952629,2.2750866204321385
1778596834094866400,8.212866455078125,0.6916844796799123,-1.3948776108458638,2.6999825963079926
1778596834104859600,8.222859619140625,0.6899846900247038,-1.6253651133432983,2.9916181027293205
1778596834114852600,8.2328525390625,0.35734935695603487,-1.591051340331137,3.2613352073311805
1778596834124845600,8.242845458984375,-0.04787234276533127,-1.3044450602486728,3.812602477669716
1778596834134838500,8.252838623046875,0.09868468450531363,-0.9158417562425136,4.5629514738947154
1778596834144831700,8.262831787109375,0.2751541810892522,-0.6504743712827563,4.881770170795917
1778596834154825500,8.272825439453126,0.1614765101134777,-0.4997296830639243,4.942036715710163
1778596834164818400,8.282818359375,-0.1336243343308568,-0.7250009122177958,4.588789094984531
1778596834174811600,8.292811767578126,0.010443068081140518,-0.2976397152721882,4.512738120961189
1778596834184804400,8.302804443359374,0.48753319544419643,-0.14747545728981495,4.670695809298754
1778596834194797600,8.312797607421874,0.881429783552885,-0.470897264072299,4.649184234714507
1778596834204790500,8.32279052734375,1.0412835147701203,-0.578041880017519,4.568040321466326
1778596834214784500,8.332784423828125,0.9285653364762664,-0.63426996319592,3.88376334156394
1778596834224777500,8.342777587890625,0.7936696670353413,-0.5481108521342277,2.9802041437894102
1778596834234770400,8.3527705078125,0.535245525342226,-0.6298407485768198,2.609687992876768
1778596834244763600,8.362763671875,0.4263504124678671,-0.8867199989154935,2.0915730505555867
1778596834254756400,8.37275634765625,0.5861129582703113,-0.8027610282465815,1.1761989118248224
1778596834264749600,8.38274951171875,0.7426666250288486,-0.5582546450078487,0.3244254308670759
1778596834274743600,8.39274365234375,0.7285305476486682,-0.43865386759340763,-0.682860683363676
1778596834284736500,8.402736572265624,0.6574795738697051,-0.13239128540456294,-1.6705004323601722
1778596834294729500,8.4127294921875,0.7494589155174791,0.33826574017107486,-2.326671261718869
1778596834304722400,8.422722412109374,0.9978373178839683,0.5063105227589607,-2.9090777666866776
1778596834314715600,8.432715576171875,1.58577266927585,0.397565193618834,-3.3725673848509787
1778596834324708400,8.442708251953125,2.3579938900910316,0.0031628479450941083,-3.7330601543992756
1778596834334702600,8.45270263671875,3.089828301590681,-0.30396979507654903,-4.093115117052197
1778596834344695600,8.462695556640625,3.631752574044466,-0.39041035342812536,-4.449223387905955
1778596834354688800,8.472688720703125,3.7622412406980987,-0.35466070239394903,-4.627781381201744
1778596834364681500,8.482681396484375,3.5076609149515625,-0.35505846953988074,-4.789878653562068
1778596834374674400,8.49267431640625,3.0598937665760517,-0.2596039991274476,-5.001947286793589
1778596834384667600,8.502667724609376,2.6389246087551115,0.11065496215373277,-5.240556720948219
1778596834394661600,8.51266162109375,2.325446834490448,0.6186027307257056,-5.176458050525188
1778596834404654600,8.522654541015624,1.7796924823544917,1.0681313358157873,-4.643710187217593
1778596834414647600,8.5326474609375,0.9986555023990571,1.409125624167919,-4.048717756921053
1778596834424640800,8.542640869140625,0.47825230301022525,1.606644923043251,-3.410327498924732
1778596834434633500,8.552633544921875,0.45008872319087384,2.002734783412516,-2.78383869112432
1778596834444626700,8.562626708984375,0.3026081513345241,2.4728289144083857,-2.1878543271809816
1778596834454620700,8.57262060546875,-0.25122721592634917,2.547002988643944,-1.702808126246929
1778596834464613400,8.58261328125,-1.0282910544671118,2.435004210665822,-1.0624439378291368
1778596834474606600,8.592606689453126,-1.6547056279875336,2.4770626064553856,-0.41505028916597364
1778596834484599600,8.602599609375,-2.1215026171341536,2.5941625069648024,0.13383680803775785
1778596834494592800,8.6125927734375,-2.6554502116203307,2.9257331334114074,0.6594359686344862
1778596834504585500,8.62258544921875,-3.0931261740922924,3.388899803231656,1.1944663899213075
1778596834514578700,8.63257861328125,-3.5089258203208447,4.053993651497364,1.5853525441676377
1778596834524572700,8.64257275390625,-3.913664266569912,4.535914121626317,1.981128808543086
1778596834534565400,8.6525654296875,-3.981751714368164,4.4668397086173295,2.538892455163598
1778596834544558600,8.66255859375,-3.7089734686300155,4.273802231331169,2.188289211466908
1778596834554551600,8.672551513671875,-3.465689028401673,3.3599227150723334,1.638771415144205
1778596834564544500,8.68254443359375,-2.748248906826973,2.9891002746894952,1.4242033663123845
1778596834574537500,8.692537353515625,-2.614354523383081,2.05977769010514,1.3259218557804822
1778596834584531500,8.702531494140626,-2.5711598170399665,1.167169217672944,1.715854070302844
1778596834594524700,8.712524658203124,-2.2863196698471904,0.47778147062808274,2.0395739832490682
1778596834604517400,8.722517333984374,-1.8844065101519225,-0.27704934718608853,2.1603046414762734
1778596834614510600,8.732510498046874,-1.4863297137491405,-0.9314794703572988,2.2268296622633934
1778596834624503600,8.742503662109375,-1.508573548130691,-1.5110560125961898,2.371733807760477
1778596834634496500,8.75249658203125,-1.68638510697335,-1.8761387402832508,2.5069360589325425
1778596834644490500,8.762490478515625,-1.5052420656204222,-2.0696599094331263,2.917180409121513
1778596834654483500,8.7724833984375,-1.3285598030686379,-2.2821134503290055,3.3205694865882394
1778596834664476700,8.7824765625,-1.345074007757008,-2.6093141911283135,3.3670214411616324
1778596834674469400,8.792469482421875,-1.1306785390131175,-2.76958074093014,3.2347757017076013
1778596834684462600,8.802462646484376,-0.45954073440805077,-2.8465713338911534,2.9883693300664422
1778596834694455600,8.81245556640625,0.1748258210301399,-3.0372233773455024,2.6710253818929193
1778596834704449500,8.822449462890624,0.6113365391150116,-3.127978291764855,2.30848561668694
1778596834714442500,8.8324423828125,0.9489053830631077,-3.0345068118631837,2.1353128235608336
1778596834724435500,8.842435546875,1.1085659297958015,-2.8245100164696573,1.749862138366699
1778596834734428700,8.8524287109375,1.375204942126572,-2.3500866240978238,1.3646534452348946
1778596834744421400,8.86242138671875,0.9003624475598335,-2.0842712031096218,0.9801870949029922
1778596834754414600,8.87241455078125,0.4135702797412872,-1.764140839087963,0.7342284670293331
1778596834764407600,8.882407470703125,0.4323766870200634,-1.1400088235467671,0.6211684895604849
1778596834774401800,8.89240185546875,0.6533363365851342,-0.8511796067178249,0.25915011788010595
1778596834784394500,8.90239453125,1.1341476764284073,-0.8945192744895816,-0.22683891686201094
1778596834794387500,8.912387451171876,1.7428186495959759,-0.8357020516008138,-0.5561889446496964
1778596834804380700,8.922380615234376,2.0670038419663905,-0.6131295600116252,-0.6587234364509582
1778596834814373400,8.932373291015624,2.142166342717409,-0.30610856067091224,-0.8914268614321946
1778596834824366600,8.94236669921875,1.7799957030847668,-0.09841974995881318,-0.9529898758977651
1778596834834360600,8.952360595703125,1.2053636315107346,-0.066494917909801,-0.8037538386762142
1778596834844353500,8.962353515625,0.7711530070617795,0.1315019353494048,-0.8647130420297384
1778596834854346500,8.972346435546875,0.5637503198146819,0.2629877963468432,-1.4123288041234014
1778596834864339700,8.982339599609375,1.6097046028748154,0.41885669571161266,-2.4822400090932843
1778596834874332700,8.992332763671875,3.672021163807809,0.32281302723437544,-3.642888300564885
1778596834884325600,9.00232568359375,6.05681231380105,-0.13659721266180275,-3.9903585069328544
1778596834894318600,9.012318603515626,7.631861490619182,-0.9386158981084823,-3.5111119321882724
1778596834904312600,9.0223125,8.684579568725823,-1.1814818206638098,-3.283284588810801
1778596834914305500,9.032305419921874,8.583770585542917,-0.8230594276487827,-3.444132153370976
1778596834924298500,9.042298583984374,6.6743082523286335,-0.042080899882316586,-3.581293137395382
1778596834934291700,9.052291748046875,3.7095948153987526,0.7319979314982891,-3.5604578546375034
1778596834944284400,9.062284423828125,-0.5616287976160645,1.1090046134740112,-3.426862454140186
1778596834954277600,9.072277587890625,-4.840608723846078,1.3567524628520011,-3.3985020365744827
1778596834964271600,9.082271728515625,-6.171898244139552,1.4560764681741594,-3.8434225633472203
1778596834974264600,9.0922646484375,-5.739732569521665,1.310245270960033,-4.635290149396658
1778596834984257500,9.102257568359375,-4.9942567322909825,0.9133031776756048,-5.142559288054704
1778596834994250500,9.11225048828125,-4.555229355210066,0.6046984162747859,-4.637386829414964
1778596835004240100,9.122240234375,-4.682209429220855,1.0034539887219667,-3.0222388664424416
1778596835014233000,9.132233154296875,-4.790165946070849,1.579423154118657,-1.4191320543974637
1778596835024226300,9.142226318359375,-4.47109093632102,1.7742784944817422,-0.6129454356163739
1778596835034220300,9.15222021484375,-4.200044628942012,1.6547405531704424,-0.2069160727739334
1778596835044213000,9.162212890625,-4.1088869789406655,1.5768386905834078,0.13988251794278622
1778596835054206200,9.172206298828126,-4.140759788541495,1.4410466568246483,0.20205109708607197
1778596835064199200,9.18219921875,-4.219816666382551,1.390664377065003,0.2658580910861492
1778596835074192100,9.192192138671874,-4.271206954140961,1.4443530048936604,0.36236031698584553
1778596835084185000,9.20218505859375,-4.3415570861741895,1.4140449603915213,0.4901876554757356
1778596835094178300,9.21217822265625,-4.124837996788322,1.3269979605793951,0.27731764273345466
1778596835104172300,9.22217236328125,-3.6967534540042277,1.364602299569547,0.6991904713958501
1778596835114165000,9.2321650390625,-3.146263305518031,1.2721443806245922,1.1062041691005229
1778596835124158200,9.242158203125,-2.4684274645790456,1.1463029552549122,1.6490987478911876
1778596835134151200,9.252151123046875,-1.6338814511455595,0.6606555735573172,2.132716377326846
1778596835144144100,9.26214404296875,-0.8224119235254823,0.05197890130132436,2.425382395839691
1778596835154137000,9.27213720703125,-0.14071429259181023,-0.28704934767484663,2.7620523912519217
1778596835164130300,9.28213037109375,0.5689826675102114,-0.6472361200138926,3.1916362326830625
1778596835174124300,9.292124267578124,1.148369094004482,-0.925259280668199,3.6697751384466883
1778596835184117000,9.302116943359374,1.3332676884986459,-1.1193450979635118,4.017269310212135
1778596835194110200,9.312110107421875,1.2903234497852623,-1.2068781277269125,4.143930527532101
1778596835204103200,9.322103271484375,1.150169567555189,-1.1430644117251039,4.148651710835099
1778596835214096100,9.33209619140625,1.0700690258800982,-1.219954174660146,3.9570588793992996
1778596835224089000,9.342089111328125,1.5063294224657118,-1.2905398690149188,3.745109488633275
1778596835234083000,9.3520830078125,1.7029763224206864,-1.2954670962840318,3.5039947936594484
1778596835244076300,9.362076171875,1.5520270515404642,-1.1842051081478595,3.285784588932991
1778596835254069000,9.372069091796876,1.7127109499715267,-1.3692536325067282,2.8799054482161996
1778596835264062200,9.382062255859376,1.7591992910325527,-1.4181576564073561,2.447852001801133
1778596835274055200,9.39205517578125,1.5434183592796324,-1.3920228059366344,1.9297978497564792
1778596835284048100,9.402048095703124,1.2730958361305296,-1.393387080027163,1.4377607670217751
1778596835294041000,9.412041015625,1.1720751098930835,-1.4697794148340821,0.9902782808065413
1778596835304035000,9.42203515625,1.2427438063561915,-1.520212840259075,0.585253711092472
1778596835314028000,9.432028076171875,1.3007692943453788,-1.6860159814000129,-0.02230067913532257
1778596835324021000,9.44202099609375,1.126846998026222,-1.6970312964111565,-0.4599240346372127
1778596835334014200,9.45201416015625,0.8737235930897295,-1.6881033090680837,-0.7606213839143514
1778596835344007200,9.462007080078125,0.7418470522742718,-1.5984268375352024,-0.8027408622413873
1778596835354000100,9.472000244140625,0.6032019671719521,-1.6514026409193872,-1.4101193113803863
1778596835363993000,9.4819931640625,0.5170094652973115,-1.3568544619217515,-1.595426778936386
1778596835373987000,9.491987060546874,0.4453600141685456,-0.861272838447988,-1.7640081526190041
1778596835383980000,9.50197998046875,0.6403904919028282,-0.6146253515273332,-2.283032026478648
1778596835393973000,9.511972900390624,1.1435890201210974,-0.5071203778371215,-2.792978275391459
1778596835403966200,9.52196630859375,1.6401776286803185,-0.672582742716372,-3.350306453204155
1778596835413959000,9.531958984375,1.8711247115135192,-0.6027224400267005,-3.680191903042793
1778596835423952100,9.5419521484375,2.2044319524943825,-0.6869254485845565,-4.273709584611654
1778596835433945000,9.551945068359375,2.1581635377943513,-0.7361138423845172,-4.723447156277299
1778596835443939300,9.561939208984375,2.0228373679816722,-0.6095706984862684,-5.239226933649182
1778596835453932000,9.57193212890625,2.151385421961546,-0.3829387023732066,-5.517379273641109
1778596835463925200,9.58192529296875,2.4002644673265516,-0.0801040488064289,-5.481161128312349
1778596835473918200,9.591918212890626,2.6312089198112485,0.44434711079895495,-5.009409877759218
1778596835483911000,9.601910888671876,2.3202668015040455,1.1125932856157421,-4.373663412269949
1778596835493904100,9.611904052734374,1.3727822450242937,1.3621011304035782,-3.586621054419875
1778596835503897000,9.62189697265625,0.43990766704678536,1.4140391151726246,-3.1710113778054714
1778596835513891300,9.631891357421875,0.10619725209251045,1.603459278744459,-2.679887902784347
1778596835523884000,9.641884033203125,-0.04683525480255484,1.8264593480959534,-1.8611931000858544
1778596835533877200,9.651877197265625,-0.3442247947059571,2.191327556249499,-1.1538304281502962
1778596835543870200,9.6618701171875,-0.7864508216977119,2.5685338524505497,-0.4635194287806749
1778596835553863200,9.67186328125,-1.1895851937510074,2.8931153506621716,0.3025514527112245
1778596835563856100,9.681856201171875,-1.748383297985792,3.1958196558475493,0.9960229619383811
1778596835573849000,9.69184912109375,-2.2958590670868753,3.4446266588896512,1.5545809738069771
1778596835583843300,9.70184326171875,-2.8898119252026078,3.6700752904370426,1.9460949045628309
1778596835593836000,9.7118359375,-3.3719968914866447,4.004266036254167,2.401291910678148
1778596835603829200,9.721829345703124,-3.7165810210242864,4.220240444752574,2.9574902076780796
1778596835613822200,9.731822265625,-3.7138732233703133,4.633043539513647,3.235805629277229
1778596835623815200,9.741815185546875,-3.6005855746254323,4.650219422981142,3.3086148449003696
1778596835633808100,9.75180810546875,-3.335127004250884,3.613387773053348,2.899941105028987
1778596835643801000,9.761801025390625,-2.7720789874866605,2.9006010302424428,2.3944705402255058
1778596835653794000,9.7717939453125,-2.43646741508618,2.4359809467434883,2.1295091057181357
1778596835663788000,9.7817880859375,-2.244007737687975,1.4516437464237213,1.7987094636440275
1778596835673781200,9.79178125,-1.7352680880859492,0.48692982272356744,1.5668179395675659
1778596835683774200,9.801774169921876,-1.2420870960131287,-0.4096937305688858,1.5038877284020185
1778596835693767200,9.81176708984375,-1.1439210285544394,-1.0736962764665483,1.7169868737250567
1778596835703760100,9.821760009765624,-0.9673054014980792,-1.43391899690181,1.932981740489602
1778596835713753300,9.83175341796875,-0.5720914471805095,-1.7402268795371054,2.066862972190976
1778596835723746000,9.84174609375,0.08227116371244192,-2.1404577852338553,2.1411603805452586
1778596835733740000,9.851739990234375,1.1774058033965527,-2.8386875949040054,1.8480834431439637
1778596835743733200,9.861733154296875,2.793170875354111,-3.7061002512812613,1.1880284658282994
1778596835753726200,9.871726318359375,3.296868293005228,-3.949650064447522,1.1342793399840592
1778596835763719200,9.88171923828125,3.0391847405463457,-3.8195723166823385,1.642301927357912
1778596835773712100,9.891712158203125,2.7879429115727543,-3.4770945117741823,2.246869410729408
1778596835783705300,9.901705322265625,1.9610731318555772,-2.9880829143404957,3.064244363000989
1778596835793698000,9.911697998046876,0.8436915890499949,-2.4074498487859963,3.383146646532416
1778596835803692000,9.921692138671874,-0.17472776748314497,-2.0026599646106362,3.364616133585572
1778596835813685200,9.931685302734374,-1.0302762369349598,-1.888743370312452,2.81559868800044
1778596835823678200,9.94167822265625,-1.5180489402234554,-1.8254934256732462,1.9134744914650916
1778596835833671200,9.951671142578125,-1.3993348825156688,-1.7226628735348581,1.3251076167881488
1778596835843664100,9.9616640625,-0.9269614084109663,-1.6580711588978767,0.7063461883693933
1778596835853657300,9.9716572265625,-0.2410357845187187,-1.5606085635334253,0.1969599114269018
1778596835863650000,9.981650146484375,0.43587680409550666,-1.5570891572356222,-0.24078736271560192
1778596835873643300,9.991643310546875,1.0379773128315806,-1.4618126737385988,-0.7276584409892559
1778596835883637200,10.00163720703125,1.4346017184689641,-1.2024819385945795,-1.0793296061784028
1778596835893630000,10.0116298828125,1.4114426689386368,-0.9110697195351123,-1.1357763005435466
1778596835903623200,10.021623046875,1.1489970166444778,-0.7168886251717805,-0.9666770404666661
1778596835913616100,10.0316162109375,0.7327005268096923,-0.4929445529684424,-1.0144166967630386
1778596835923609300,10.041609375,0.22401889100521802,-0.012580664631724357,-1.5367080479860304
1778596835933602000,10.05160205078125,0.533162289327383,0.27392040151059627,-2.197949020215869
1778596835943595300,10.06159521484375,1.982643304759264,-0.0036702129453420637,-3.044077773284912
1778596835953589200,10.07158935546875,4.406647397983074,-0.3818389244377613,-3.751268011263013
1778596835963582000,10.08158203125,6.684629739856719,-0.7162225624784827,-3.957070569837093
1778596835973575200,10.0915751953125,7.870263419502973,-1.1250190519466996,-3.799914261010289
1778596835983568100,10.101568115234375,8.145533482056855,-1.240739773057401,-3.61477338219285
1778596835993561000,10.11156103515625,6.752560535788536,-0.6416524746626615,-3.812346457082033
1778596836003557400,10.121557373046874,3.575405248400569,0.5442874944537878,-3.4299615891993045
1778596836013550600,10.131550537109375,-1.2234779648721217,1.1029019126847386,-2.8973697932362557
1778596836023543300,10.141543212890625,-5.07559646037221,1.3165391104072333,-3.214327956962585
1778596836033537300,10.151537353515625,-5.558489867186546,1.4067219240270554,-4.512454043322801
1778596836043530500,10.161530517578125,-5.261456301113963,1.283343089378625,-5.520414695814251
1778596836053523500,10.1715234375,-5.1314288222312925,1.0463004661493003,-5.28775803258419
1778596836063516400,10.181516357421875,-5.454672934359312,1.0521474386118352,-3.4404093334555625
1778596836073509400,10.19150927734375,-5.266556254601478,1.33429557024166,-1.8860317732661962
1778596836083502600,10.201502685546876,-4.748029224348068,1.575509633936733,-1.1078425839573145
1778596836093495300,10.211495361328126,-4.509470351336896,1.6049188299030064,-0.6010550913363695
1778596836103488500,10.221488525390624,-4.511629575197398,1.4122238824442028,-0.19355214881002902
1778596836113482500,10.231482421875,-4.650914711768925,1.379178375802189,0.10132219340205192
1778596836123475200,10.24147509765625,-4.67981288947314,1.3795413638956844,-0.06224164437949657
1778596836133468400,10.251468505859375,-4.542821416796744,1.2806139566756785,-0.44567046835720536
1778596836143461400,10.26146142578125,-4.5903947766155,1.1519992672003805,-0.7104261511594057
1778596836153454600,10.27145458984375,-4.603959483848512,1.1074638137727975,-0.8508762398570775
1778596836163447300,10.281447265625,-4.423014887677133,1.1399933337166905,-0.7048270159780978
1778596836173440500,10.2914404296875,-3.785326348209381,1.2933514193043112,-0.21516659924685955
1778596836183433500,10.30143359375,-2.692467982894182,1.1157125866800546,0.1579945132166147
1778596836193427200,10.31142724609375,-1.4689467634022235,0.6762786746248602,0.7018079604178666
1778596836203420400,10.32142041015625,-0.370080682104826,0.2750806774616241,1.2656161478996275
1778596836213413400,10.331413330078124,0.6392658717870712,-0.16278379331976175,1.8847569310247898
1778596836223406300,10.34140625,1.488409296502173,-0.5977452361360192,2.3696324515670537
1778596836233399300,10.3513994140625,2.040155436398834,-0.7329270290419458,3.10724880746901
1778596836243392500,10.361392578125,2.305367192405462,-0.7656687304317951,3.908873817422986
1778596836253385500,10.371385498046875,2.285114531841129,-0.7964569596663117,4.389941177853942
1778596836263378400,10.38137841796875,1.981983817937225,-0.6869061593621969,4.628889634704589
1778596836273372400,10.391372314453125,1.3778152707554399,-0.5600014886751771,4.719606262940168
1778596836283365400,10.401365478515626,1.052114851516485,-0.4259384706661105,4.697803596454858
1778596836293358300,10.4113583984375,0.8074306274928152,-0.40603170092999935,4.354850575250387
1778596836303351300,10.421351318359376,0.6599382190681994,-0.4185685264199972,3.948865051549673
1778596836313344500,10.431344482421874,0.4792307926535606,-0.4693266537547111,3.7342040637373923
1778596836323337200,10.441337158203124,0.3631375849686563,-0.5474450817018747,3.3068846601068973
1778596836333330400,10.451330322265624,0.5263242600008845,-0.7650634580150246,2.6974691521823404
1778596836343323400,10.461323486328125,0.7876875238858163,-0.9838535084560512,2.1469845566540955
1778596836353317400,10.4713173828125,0.9208791658878326,-1.2803645119592546,1.4853478631049393
1778596836363310300,10.481310302734375,0.8114939314089715,-1.7078475817188619,0.8829746749073266
1778596836373303300,10.49130322265625,0.5438425271652638,-2.0132137995898725,0.21800737563073633
1778596836383296500,10.501296630859375,0.22676059092879294,-2.1129232970982788,0.008039514070749283
1778596836393289200,10.511289306640625,-0.032214316514879465,-2.2575231989517808,-0.21721944012343883
1778596836403282400,10.521282470703126,-0.04673018699288368,-2.0631974354207516,-0.09916764571666717
1778596836413275400,10.531275390625,0.19199673606157303,-2.1632184830963612,-0.5468763419032097
1778596836423268400,10.541268310546876,0.32715003352537747,-2.006478061594069,-1.2948124317675829
1778596836433262300,10.551262451171874,0.2216249816060066,-1.7237275801569223,-1.8898872796505688
1778596836443255600,10.561255615234375,0.8465713822700083,-1.2757093796297907,-2.082814574560523
1778596836453248500,10.57124853515625,2.019115132588148,-1.2826070301890373,-2.631421101257205
1778596836463241200,10.5812412109375,3.2000317205846307,-1.5358707203790545,-3.1841362323164937
1778596836473234400,10.591234375,4.115571863532066,-1.8857699074596166,-3.8154830015420913
1778596836483227400,10.601227294921875,4.368542415994406,-1.7054940043300388,-4.175749561119079
1778596836493220400,10.611220458984375,4.016425260603428,-1.1929483865737915,-4.5267111167341465
1778596836503213300,10.62121337890625,2.6837469163000582,-1.1754174060583114,-5.937994795718788
1778596836513206500,10.63120654296875,1.5935072090506552,-1.0711340247631072,-6.734839001137018
1778596836523200500,10.641200439453126,1.3597183269202708,-0.3380588194221258,-6.520484887316822
1778596836533193500,10.651193359375,1.2991862629376352,0.46529403723776336,-6.014153321769833
1778596836543186400,10.6611865234375,1.2652759561598301,0.9416104037493467,-5.087539996144176
1778596836553179400,10.671179443359375,1.0723895047169179,0.9433473105445503,-4.616050026875734
1778596836563172400,10.68117236328125,0.4059480412345379,0.9781465289860963,-4.558889631283283
1778596836573165300,10.691165283203125,-0.14025851164832712,1.3031497597411275,-4.176224777415395
1778596836583158500,10.701158447265625,-0.6589515461184084,1.6318433694466947,-3.3568677114158865
1778596836593151200,10.711151123046875,-1.2712370565213262,1.9253265495613217,-2.2120354132354256
1778596836603145500,10.7211455078125,-1.7031703836880623,2.2381322697833177,-1.241148646119237
1778596836613138400,10.731138427734376,-2.254265950721502,2.6578379835397,-0.3221557323694229
1778596836623131400,10.74113134765625,-2.943556082610786,3.075158263464272,0.5480833796054124
1778596836633124400,10.751124267578126,-3.4930645265832543,3.439218954627216,1.0838304247289896
1778596836643117300,10.761117431640624,-3.733654320900142,3.850561913707852,1.4941320580631494
1778596836653110500,10.771110595703124,-3.652187167046964,4.165490909694135,1.795355477041006
1778596836663103200,10.781103271484374,-3.415709776484966,4.398841692668199,2.2107962268292902
1778596836673096400,10.791096435546875,-2.9450983436167237,4.4760313153326505,2.6383780807882546
1778596836683089400,10.80108935546875,-2.227648139039427,4.0392599004849785,2.8257109166920182
1778596836693083600,10.811083740234375,-1.6011156382277607,3.4817286013156172,2.520820207378268
1778596836703076400,10.821076416015625,-1.1801628470197318,2.9149498735904693,2.3293910420715807
1778596836713069300,10.8310693359375,-0.9233157453849911,2.178604852798581,2.3776912548601628
1778596836723062500,10.8410625,-0.7741872601911425,1.4425252049446105,2.3736428562521934
1778596836733055200,10.85105517578125,-0.7358359022259712,0.7622697356432676,2.3618799377441406
1778596836743048400,10.86104833984375,-0.7263838910087943,0.1883072338938713,2.3401444912761447
1778596836753041400,10.87104150390625,-0.7561164737105369,-0.29029461320638655,2.402498363858461
1778596836763034400,10.881034423828124,-0.970417542169243,-0.46832449097484347,2.551740246298909
1778596836773027300,10.89102734375,-1.064047573633492,-0.45841275329142805,2.762534621810913
1778596836783021600,10.901021484375,-1.0130268498398363,-0.5020519885316491,2.8342466898471117
1778596836793014500,10.9110146484375,-0.734542793675512,-0.6911369287997484,2.8788141458481546
1778596836803007500,10.921007568359375,0.028448534240573642,-1.0903928519845008,2.689253112500906
1778596836813000400,10.93100048828125,0.681077891600132,-1.4015961054459214,2.535054484435916
1778596836822993400,10.940993408203125,1.2866812938906251,-1.410595404459536,2.359860999137163
1778596836832986400,10.950986328125,2.1843618088901042,-1.6208708706639705,2.2416297565102576
1778596836842979300,10.960979248046876,2.716294264161587,-1.7584104787424206,2.2271984955757853
1778596836852972500,10.97097265625,2.8238860393524168,-1.5943427830919623,2.4239807123482224
1778596836862965200,10.98096533203125,2.856777086085081,-1.2994786700129508,2.606857153365016
1778596836872959500,10.99095947265625,2.7080945910930634,-1.1223463256061077,2.700045724672079
1778596836882952400,11.000952392578125,2.5364836404561997,-0.9532323063515126,2.699031579193473
1778596836892945400,11.0109453125,2.507190910476446,-0.6566217879965901,2.4944769748538733
1778596836902938400,11.0209384765625,2.6001439194619653,-0.8584922678187489,2.3288071047037837
1778596836912931300,11.030931396484375,2.550178988331556,-0.8920740732945501,1.9184435120493173
1778596836922924500,11.040924560546875,2.3534661835335196,-0.9449195282973348,1.516227570015192
1778596836932917200,11.050917236328125,1.8250842603504656,-0.6937184697255492,0.9287848244458436
1778596836942910500,11.060910400390625,0.7602817766964435,-0.5640196382753551,0.38017946679294107
1778596836952903400,11.0709033203125,-0.13320567052736879,-0.7619635923035443,-0.06907412074804306
1778596836962897700,11.080897705078126,-0.748192841104418,-0.8430382397077977,-0.9009370325773954
1778596836972890400,11.090890380859374,-0.9656443364180624,-0.8647079274632036,-1.8906413128882646
1778596836982883300,11.10088330078125,-0.24505042698755858,-1.314965285219252,-2.998744593608379
1778596836992876500,11.11087646484375,1.439290460807085,-1.489302153688669,-4.248866235256195
1778596837002869200,11.120869140625,3.749007665115595,-1.285750004389882,-4.3493852955818175
1778596837012859000,11.13085888671875,5.599003079360723,-1.6547266707755623,-4.083509668838977
1778596837022851600,11.1408515625,7.203501638025045,-1.671774397818744,-2.963183450883627
1778596837032844800,11.1508447265625,8.110110871019959,-1.3101556929804383,-2.0129723920494316
1778596837042837800,11.160837646484374,6.817768628758191,-0.6679251261688769,-2.491713355359435
1778596837052831700,11.170831787109375,3.8589749372661113,0.5739395592652261,-3.6555431994765994
1778596837062824700,11.18082470703125,0.8298901504516601,1.5507542551256714,-4.143745234093069
1778596837072818000,11.19081787109375,-2.956483660984039,1.2597813042663037,-4.333286978217959
1778596837082811000,11.200810791015625,-5.305472552973032,1.3530422101572155,-3.990605759692192
1778596837092803800,11.210803955078125,-4.931290280768275,1.3682934091724455,-4.125503474959731
1778596837102796800,11.220796875,-4.540361456423998,1.1426850570186973,-4.702094571647048
1778596837112789800,11.230789794921876,-5.45256865555644,1.2039637015849352,-4.5037996122241015
1778596837122782700,11.24078271484375,-6.648041007649899,1.4302261337332427,-3.4165240154772993
1778596837132775700,11.250775634765626,-7.053954050636291,1.55611446698457,-2.7219810776263476
1778596837142769000,11.260768798828124,-7.075660855531692,1.5932893285162746,-2.117216025856137
1778596837152762600,11.2707626953125,-7.216026773077249,1.6799154725678265,-1.568016793963313
1778596837162755800,11.280755859375,-7.208425650423765,1.7859386832676827,-1.1208470269590616
1778596837172748800,11.290748779296875,-6.81006813738346,1.892888361162692,-0.7953782245188951
1778596837182741800,11.30074169921875,-6.223184779262542,1.7443877986088394,-0.6667530136495828
1778596837192734700,11.310734619140625,-5.826842697697877,1.5761863641545175,-0.7946616006821393
1778596837202727700,11.320727783203125,-5.609118815183639,1.3632548304833472,-0.9271627762019634
1778596837212721000,11.330720947265625,-4.8052714530050755,1.3680195606671273,-0.7467424961656332
1778596837222713600,11.340713623046875,-3.8244565815925595,1.3540291753679514,-0.41131051811575886
1778596837232706800,11.350706787109376,-2.623115629726648,1.3504139074802397,0.10079437013566493
1778596837242699800,11.36069970703125,-1.2164508427143097,1.0950495917491614,0.6036778410553932
1778596837252693800,11.37069384765625,0.32949484308585525,0.8798466060146689,1.3067998066812754
1778596837262686700,11.380686767578124,1.686158458610624,0.7355896723799407,1.983264067006111
1778596837272679700,11.3906796875,3.831365630328655,0.5186356051944196,2.864320925593376
1778596837282673000,11.4006728515625,4.9555929473757745,-0.29084537895694373,3.5718677219241854
1778596837292665600,11.41066552734375,5.828358947479725,-0.819553611484915,4.218071284019947
1778596837302658800,11.420658935546875,6.568191810387373,-0.6569339226856827,4.607508993023633
1778596837312651800,11.43065185546875,4.70209047999382,-0.916563786906749,4.816293197757005
1778596837322644700,11.440644775390625,2.783822909033298,-0.7077928800463676,5.047072376677393
1778596837332637700,11.4506376953125,1.542166313391924,-0.8784560284391045,4.8497471390694376
1778596837342631000,11.460630859375,0.5477039883663878,-1.183209959630668,4.472171132773161
1778596837352624600,11.470624755859374,-0.0031155199383385477,-1.3417030700191854,4.359752960339188
1778596837362617900,11.480617919921874,-0.47676878645420073,-1.5128990101143718,4.230885757407545
1778596837372610800,11.49061083984375,-0.8298913194954395,-1.6977648713827131,3.699983814227581
1778596837382603500,11.500603515625,-0.9921499198973178,-1.7974933658525347,3.393764486658573
1778596837392596700,11.5105966796875,-1.1362041705667971,-1.7913918341070412,3.025274873137474
1778596837402589700,11.520589599609375,-1.118650978219509,-1.8832880275160073,2.5927619925171137
1778596837412583000,11.5305830078125,-1.051816745352745,-1.8876777869075536,2.079326732444763
1778596837422575600,11.54057568359375,-0.6003074878394603,-1.65346775675565,1.9683207648962735
1778596837432568800,11.55056884765625,0.09110126190530135,-2.0257275364652276,1.0544698902100325
1778596837442561800,11.560561767578125,0.43747021076679227,-2.0364896073676646,0.29384558368623254
1778596837452555800,11.5705556640625,0.6976555169135332,-1.7593185334980488,0.11300678597688674
1778596837462548700,11.580548828125,1.0188982260912656,-1.3493962548702954,-0.2203179906606674
1778596837472541700,11.590541748046874,1.4349790273487566,-0.8165417163178325,-0.9507616784542798
1778596837482534700,11.60053466796875,1.6484774011224508,-0.5491806733228266,-1.797004413291812
1778596837492527600,11.610527587890624,1.9813667089521885,-0.386680080858618,-2.6958389206320046
1778596837502520800,11.620520751953125,2.3412159198999403,-0.3716301035039127,-3.5536651257574556
1778596837512513800,11.630513671875,2.84547652439177,-0.5901216093897819,-4.242829877701402
1778596837522506800,11.6405068359375,3.5786043367028233,-1.5773476630188523,-4.597100411733985
1778596837532499700,11.650499755859375,4.020610437333584,-1.8262264161229131,-4.69065723183155
1778596837542493000,11.660492919921875,3.9600580612152814,-1.5107147979430853,-5.005500595360994
1778596837552485600,11.670485595703125,3.6594279319554563,-1.4376349486850202,-5.259488800433278
1778596837562479600,11.680479736328126,3.204859286871552,-1.1745184113919733,-5.357559298563003
1778596837572472800,11.690472900390626,2.6530104172527786,-0.6870138575203716,-5.501942635056376
1778596837582465500,11.700465576171876,1.9256693716496227,-0.16780454409122467,-5.53056433390677
1778596837592458800,11.710458740234374,1.1298948412895202,0.3456143493682146,-5.455475482913851
1778596837602451700,11.72045166015625,0.4313596189320087,0.7181622983694076,-4.994941207423806
1778596837612445000,11.73044482421875,-0.1397965932250023,0.7374050512388348,-4.62204371433258
1778596837622437600,11.740437744140625,-0.44569677184224127,1.0122671175137161,-4.375889856147766
1778596837632430800,11.750430908203125,-1.051597038187459,1.410155259476602,-3.657795362317562
1778596837642423800,11.760423828125,-1.5906757850170135,1.7379717940866946,-2.4070775083422657
1778596837652416800,11.770416748046875,-2.001557264065742,2.0657769305199385,-1.4052362155139446
1778596837662410800,11.78041064453125,-2.3417454967319964,2.384521247010678,-0.610560001784563
1778596837672403700,11.79040380859375,-2.6970973962605,2.8390158039450646,0.2966454435378313
1778596837682396700,11.800396728515626,-3.0141093360006805,3.116892541866004,0.8963070346891879
1778596837692389600,11.8103896484375,-3.1407401581823824,3.2282828325569626,1.033145947152376
1778596837702382800,11.8203828125,-3.3145956728756425,3.4712203590437767,1.1053881765425204
1778596837712375800,11.830375732421874,-3.493264140808582,3.7099326690509913,1.3474123875766992
1778596837722368800,11.84036865234375,-3.6545115183413026,3.61019452996999,1.6092454609304665
1778596837732361700,11.85036181640625,-3.3843022463083265,3.748651106762886,1.8287345995515585
1778596837742355000,11.86035498046875,-3.1146248891949653,4.10908396281749,2.0068612156927585
1778596837752347600,11.87034765625,-2.6925346183896064,3.729463591212034,2.4634049602419137
1778596837762340900,11.8803408203125,-1.7330584492124617,2.48171656974107,3.1055490178138014
1778596837772333800,11.890333740234375,-0.8426385728657245,1.768863191434741,3.412524716708064
1778596837782327600,11.90032763671875,-0.34190563104338945,1.2546148614138364,3.658938102611899
1778596837792320800,11.91032080078125,-0.030706103909015653,0.6056694532640278,3.9527170508027076
1778596837802313700,11.920313720703126,0.03179930597320199,0.07432604992687701,4.0779420978397125
1778596837812307000,11.930306884765624,0.0173018479347229,-0.41706016768366094,4.064654161721467
1778596837822299600,11.940299560546874,0.03408244847431779,-0.8602721369728445,3.96746395355761
1778596837832292900,11.95029296875,-0.13789930823631583,-1.2799163298003375,3.8813586185097693
1778596837842285800,11.960285888671875,-0.2801495051585138,-1.5140399968430398,3.8402386726140976
1778596837852278800,11.97027880859375,-0.1954240801617503,-1.8041499011322855,3.76333897280693
1778596837862271700,11.980271728515625,-0.07895151777043938,-2.1173232856228945,3.4510488008916376
1778596837872265000,11.990264892578125,0.03662840663008392,-2.3588898160174487,3.1022295180022716
1778596837882257700,12.000257568359375,0.09152078422531484,-2.6336779402732846,2.621111304166913
1778596837892251600,12.010251708984375,0.637705198341608,-3.0088246735960245,1.8405542166829107
1778596837902244900,12.020244873046876,0.9683715694248676,-3.2600837459653613,1.1518453918129206
1778596837912237800,12.03023779296875,0.9015851212225854,-3.132609458696842,0.8077911313682794
1778596837922230800,12.040230712890626,0.8174677451215684,-2.8506618180751797,0.5851198555797338
1778596837932223700,12.0502236328125,0.5703928265690803,-2.5445854061082005,0.5130447994500398
1778596837942217000,12.060217041015624,0.4838239656627178,-2.2849591951489447,0.4143722437739372
1778596837952209700,12.070209716796874,0.9999098863743245,-1.9604405330404637,0.5050801041811704
1778596837962203000,12.080202880859375,1.5826668122150003,-1.4071860344074665,0.5630944862544536
1778596837972195800,12.09019580078125,1.9144563421092926,-1.3271845691926776,0.3384118706434965
1778596837982188800,12.100188720703125,2.1862461613319812,-1.1328136513456701,-0.10391747059226035
1778596837992181800,12.110181640625,2.2817443247556684,-0.8745672043070196,-0.6372872651904821
1778596838002175000,12.120175048828125,2.15087338078618,-0.6075649116218089,-0.8855752127945422
1778596838012168200,12.130168212890625,1.9386954419612883,-0.36670243784338236,-1.0978986975699663
1778596838022162200,12.140162109375,1.674959019204229,-0.163646839889884,-1.2176760005950926
1778596838032155400,12.1501552734375,1.4425694824777542,0.40614188330620526,-1.7239467758655547
1778596838042148000,12.160148193359374,0.9159095607817173,0.9325194809295236,-2.4796564223408697
1778596838052141300,12.170141357421874,2.079291661131382,1.1695797859460115,-3.155490568068623
1778596838062134300,12.18013427734375,3.994797950685024,1.2694304454907774,-3.7621225827544924
1778596838072127000,12.190126953125,5.933448968982696,0.8185954339772462,-4.041194960200786
1778596838082120200,12.2001201171875,7.41748341140151,0.3515948850825429,-3.983301574158668
1778596838092113200,12.210113037109375,8.268308797854184,0.29063407429382204,-4.169291763281822
1778596838102106000,12.220106201171875,8.174562008142471,0.7433147136740386,-4.237279842358827
1778596838112099000,12.23009912109375,5.662131443446874,1.5535264963179827,-3.4597301199972628
1778596838122092300,12.24009228515625,1.5748998314753173,2.4885791489869353,-2.5573785444468258
1778596838132085000,12.2500849609375,-1.1491536685109138,2.7144576963841915,-2.7916040644288063
1778596838142079200,12.260079345703126,-1.4904387565031647,2.6800410475194454,-4.186896393555402
1778596838152072200,12.270072265625,-2.4583865475580096,1.8027653149060905,-5.769428619605303
1778596838162065200,12.280065185546874,-4.268116586910188,0.5027382172301411,-5.922105152669548
1778596838172058000,12.29005810546875,-5.541923347789049,0.4180399725012481,-4.417636994031072
1778596838182051000,12.300051025390625,-5.885133558624982,1.030232251662761,-2.8337434165000914
1778596838192044300,12.310044189453125,-6.181280404990911,1.2191747147202492,-1.9851877285450696
1778596838202037000,12.320037109375,-6.587759265166521,0.8390347031548618,-1.4313614213734864
1778596838212030200,12.3300302734375,-6.800948426860571,0.7201783143669367,-0.9217676391601562
1778596838222023200,12.340023193359375,-7.070334692072868,0.8283639637976884,-0.7984136466920375
1778596838232016100,12.35001611328125,-6.977628351324796,0.7095448382802307,-0.6361977163881063
1778596838242009000,12.360009033203125,-6.646877809089422,0.4955225867629051,-0.5479764120995998
1778596838252002300,12.370002197265626,-6.295623408007621,0.47972617495507,-0.49419104589819907
1778596838261995000,12.3799951171875,-5.722607831719517,0.4077694845080375,-0.15785539700686932
1778596838271989000,12.389989013671874,-4.750401506437361,0.050341070966422555,0.07379939570426941
1778596838281982200,12.399982177734374,-3.6373479098334904,-0.4852598436847329,0.4783411503374576
1778596838291975200,12.40997509765625,-1.7268471734821795,-0.8458475980401039,1.078221352675557
1778596838301968100,12.419968017578125,-0.37833500797003505,-1.312557347294688,1.4789999553829432
1778596838311961000,12.429961181640625,-0.09359335271567105,-1.631555784676969,1.334592653492093
1778596838321954300,12.439954345703125,0.10156798485666513,-1.5549549216859042,1.9407628958851098
1778596838331947000,12.449947021484375,0.2811673038989305,-1.6245993896678088,2.300798569315672
1778596838341940200,12.459940185546875,0.2630059165254235,-1.8731461343385278,2.618963186222315
1778596838351933200,12.46993310546875,-0.4070414624944329,-1.916937199139595,2.969166032424569
1778596838361926100,12.479926025390625,-1.2111898534461856,-1.7802927863352,3.1974493028759956
1778596838371919000,12.489919189453126,-1.3110533724725246,-1.3796153059147298,3.394506244936585
1778596838381912300,12.499912353515626,-1.0362284233376384,-1.2658493721336126,3.864989667510986
1778596838391905000,12.509905029296876,-0.5070271465957165,-1.4897123419247567,4.131041235342622
1778596838401899000,12.51989892578125,-0.04430822054296732,-1.4668594357341527,4.193533639612793
1778596838411892200,12.529892333984375,0.5521148270785808,-1.4185454866811633,4.234921296533942
1778596838421885200,12.53988525390625,1.1423416504085064,-1.2697533938348293,4.324052116882801
1778596838431878100,12.549878173828125,1.5210624428257344,-1.1771958139076828,3.978399189069867
1778596838441871000,12.55987109375,1.7478467068910597,-1.1687751915648579,3.247058844697475
1778596838451864300,12.5698642578125,1.644763933557272,-1.200060556666553,2.368274022695422
1778596838461857000,12.57985693359375,1.358640176294744,-1.406167943406105,1.5604910746335983
1778596838471850200,12.589850341796875,1.2246969852730631,-1.3802134179383516,1.2457377274751662
1778596838481843200,12.59984326171875,1.3095461827799677,-1.0476493965402245,1.1341782176971436
1778596838491836200,12.609836181640626,1.103751807512343,-1.008856432287395,0.6341705944746733
1778596838501829000,12.6198291015625,0.939228184787929,-0.9410983625739813,0.0696124654084444
1778596838511822300,12.629822265625,0.8443713880077004,-0.7182169511660933,-0.6724521020740271
1778596838521815300,12.639815185546874,0.6265536897301673,-0.5904445577338338,-1.3164479249924421
1778596838531808300,12.649808349609375,0.7359539756476878,-0.12169102769196033,-1.5537597205519675
