time,seconds_elapsed,z,y,x
1778596825949792000,0.0677919921875,0.4852465093135834,-0.4373307228088379,0.12586873769760132
1778596825959785000,0.077784912109375,0.41343197226524353,-0.20497100055217743,0.08884492516517639
1778596825969778200,0.087778076171875,0.3425137996673584,0.09697117656469345,0.041985489428043365
1778596825979771000,0.09777099609375,0.2920578122138977,0.3382817804813385,-0.02863461524248123
1778596825989764000,0.10776416015625,0.27176761627197266,0.41333872079849243,-0.13855905830860138
1778596825999761000,0.117760986328125,0.2636015713214874,0.3027631938457489,-0.2754300832748413
1778596826009753900,0.12775390625,0.23991864919662476,0.05180426314473152,-0.42908304929733276
1778596826019748000,0.137748046875,0.20283520221710205,-0.2624644339084625,-0.5818907022476196
1778596826029740800,0.14774072265625,0.1625678688287735,-0.5210857391357422,-0.6921009421348572
1778596826039733800,0.157733642578125,0.14472602307796478,-0.5866977572441101,-0.7193049192428589
1778596826049727000,0.16772705078125,0.16554799675941467,-0.45619359612464905,-0.6487578749656677
1778596826059719700,0.1777197265625,0.23665092885494232,-0.16808219254016876,-0.5070452094078064
1778596826069713000,0.187712890625,0.36104774475097656,0.21331483125686646,-0.321420282125473
1778596826079705900,0.197705810546875,0.5189186334609985,0.5733867287635803,-0.10975171625614166
1778596826089700000,0.2077001953125,0.677953839302063,0.7792323231697083,0.12303956598043442
1778596826099692800,0.21769287109375,0.8407707214355469,0.8715318441390991,0.34758397936820984
1778596826109686000,0.22768603515625,0.9656111598014832,0.8411619067192078,0.531792402267456
1778596826119679000,0.237678955078125,1.0252779722213745,0.6590551733970642,0.6686415672302246
1778596826129672000,0.247671875,1.015694499015808,0.43153223395347595,0.7601751089096069
1778596826139665000,0.257664794921875,0.9390684366226196,0.1585470587015152,0.7999254465103149
1778596826149657900,0.267657958984375,0.8261197209358215,-0.12899281084537506,0.7726638913154602
1778596826159650800,0.27765087890625,0.7135449647903442,-0.3436262607574463,0.694749653339386
1778596826169644800,0.287644775390625,0.6334788203239441,-0.43854984641075134,0.5782788395881653
1778596826179638000,0.297637939453125,0.5828635692596436,-0.4393138885498047,0.43495410680770874
1778596826189631000,0.307630859375,0.5400829911231995,-0.37927570939064026,0.28818657994270325
1778596826199624000,0.3176240234375,0.48899075388908386,-0.26901310682296753,0.1485232263803482
1778596826209617000,0.327616943359375,0.4220377802848816,-0.13338910043239594,0.017217986285686493
1778596826219609900,0.33760986328125,0.3502296507358551,-0.012667212635278702,-0.10149987041950226
1778596826229602800,0.347602783203125,0.2846199572086334,0.05023564025759697,-0.19202105700969696
1778596826239596800,0.3575966796875,0.2429385930299759,0.07714182883501053,-0.237374946475029
1778596826249590000,0.367590087890625,0.23070654273033142,0.08645720779895782,-0.23614610731601715
1778596826259583000,0.3775830078125,0.24036450684070587,0.07764134556055069,-0.19706715643405914
1778596826269576000,0.387575927734375,0.2626146376132965,0.0536566786468029,-0.12615740299224854
1778596826279569000,0.39756884765625,0.28986090421676636,0.05515151098370552,-0.03525545820593834
1778596826289562000,0.40756201171875,0.3193107545375824,0.08300092071294785,0.06100871413946152
1778596826299554800,0.417554931640625,0.33763331174850464,0.09064978361129761,0.15887881815433502
1778596826309548800,0.427548828125,0.34230613708496094,0.05805133283138275,0.2540443241596222
1778596826319542000,0.4375419921875,0.33078688383102417,0.017875418066978455,0.35253840684890747
1778596826329535000,0.447534912109375,0.3053550124168396,0.016700994223356247,0.43559643626213074
1778596826339528000,0.45752783203125,0.27631908655166626,0.04302074760198593,0.4940861165523529
1778596826349521000,0.46752099609375,0.22316312789916992,0.02496686391532421,0.5128025412559509
1778596826359514000,0.47751416015625,0.14206881821155548,-0.05746356025338173,0.4815216064453125
1778596826369507800,0.4875078125,0.03931324928998947,-0.1330413669347763,0.4034338593482971
1778596826379500800,0.497500732421875,-0.06337957084178925,-0.18654613196849823,0.2778985798358917
1778596826389494000,0.507493896484375,-0.14276854693889618,-0.20858053863048553,0.11732848733663559
1778596826399486700,0.51748681640625,-0.18906228244304657,-0.18065249919891357,-0.04128964617848396
1778596826409480000,0.52747998046875,-0.21726350486278534,-0.1355614811182022,-0.15400463342666626
1778596826419473000,0.537472900390625,-0.24291960895061493,-0.07370290160179138,-0.2046944499015808
1778596826429465900,0.5474658203125,-0.2587682604789734,-0.011656533926725388,-0.18934093415737152
1778596826439459800,0.5574599609375,-0.24827778339385986,0.028290880843997,-0.11449891328811646
1778596826449452800,0.567452880859375,-0.21450507640838623,0.051750894635915756,0.011979125440120697
1778596826459446000,0.577446044921875,-0.07307204604148865,0.014874903485178947,0.19193370640277863
1778596826469438700,0.587438720703125,0.08597952127456665,0.020392881706357002,0.4046390950679779
1778596826479432000,0.597431884765625,0.11628443002700806,0.003519892692565918,0.5702270269393921
1778596826489425000,0.6074248046875,0.056468166410923004,-0.2090415507555008,0.6645517945289612
1778596826499419000,0.6174189453125,-0.05384182929992676,-0.4848007261753082,0.6832056045532227
1778596826509411800,0.627411865234375,-0.19118615984916687,-0.6575697064399719,0.6174649000167847
1778596826519404800,0.63740478515625,-0.297273725271225,-0.7253961563110352,0.4986344277858734
1778596826529398000,0.64739794921875,-0.35025662183761597,-0.7140777111053467,0.34798339009284973
1778596826539390700,0.657390625,-0.358553946018219,-0.6640834808349609,0.19518613815307617
1778596826549384000,0.667384033203125,-0.33002233505249023,-0.5941048860549927,0.06468901038169861
1778596826559377000,0.677376953125,-0.29243820905685425,-0.4829205572605133,-0.0221920907497406
1778596826569371000,0.687370849609375,-0.2621818780899048,-0.32272595167160034,-0.07397591322660446
1778596826579363800,0.69736376953125,-0.2521481215953827,-0.19679385423660278,-0.10094387829303741
1778596826589356800,0.707356689453125,-0.2713654041290283,-0.19926005601882935,-0.1366214156150818
1778596826599350000,0.71735009765625,-0.3210804760456085,-0.32158997654914856,-0.20060120522975922
1778596826609342700,0.7273427734375,-0.40007713437080383,-0.49390166997909546,-0.29763680696487427
1778596826619336000,0.7373359375,-0.49018439650535583,-0.6373445987701416,-0.420755535364151
1778596826629330000,0.747329833984375,-0.5584999918937683,-0.653520405292511,-0.5393496751785278
1778596826639323000,0.757322998046875,-0.5923985838890076,-0.513360321521759,-0.6310811638832092
1778596826649315800,0.76731591796875,-0.5776415467262268,-0.2568225860595703,-0.6811984777450562
1778596826659308800,0.777308837890625,-0.5074834823608398,0.05824320763349533,-0.6721677184104919
1778596826669302000,0.787302001953125,-0.39063960313796997,0.34417232871055603,-0.5952857136726379
1778596826679294700,0.797294677734375,-0.270643413066864,0.5418116450309753,-0.4604852795600891
1778596826689289000,0.8072890625,-0.1700216382741928,0.5919859409332275,-0.29893624782562256
1778596826699282000,0.817281982421875,-0.0834641084074974,0.487300306558609,-0.13673855364322662
1778596826709275000,0.82727490234375,-0.025973666459321976,0.26243746280670166,0.007721284870058298
1778596826719267800,0.837267822265625,-0.014601701870560646,0.0003549724060576409,0.11992452293634415
1778596826729260800,0.8472607421875,-0.04698536545038223,-0.21551984548568726,0.19788163900375366
1778596826739254000,0.85725390625,-0.11893519014120102,-0.27627184987068176,0.2525305151939392
1778596826749247700,0.867247802734375,-0.22788719832897186,-0.16002331674098969,0.29390043020248413
1778596826759241000,0.877240966796875,-0.372515469789505,0.046375125646591187,0.3082420825958252
1778596826769234000,0.88723388671875,-0.5252904295921326,0.22754919528961182,0.2828841507434845
1778596826779227000,0.897226806640625,-0.6532151103019714,0.30882754921913147,0.22131851315498352
1778596826789219800,0.9072197265625,-0.7333469390869141,0.31144410371780396,0.12694302201271057
1778596826799213000,0.917213134765625,-0.7631860375404358,0.2578807473182678,0.016466302797198296
1778596826809205800,0.927205810546875,-0.7491503357887268,0.18358048796653748,-0.09916187077760696
1778596826819199700,0.93719970703125,-0.7007393836975098,0.12255334854125977,-0.21373717486858368
1778596826829193000,0.94719287109375,-0.630241870880127,0.08001621067523956,-0.31832394003868103
1778596826839186000,0.95718603515625,-0.5429500937461853,0.047886233776807785,-0.394128680229187
1778596826849179000,0.967178955078125,-0.45551005005836487,0.04309982433915138,-0.42716240882873535
1778596826859171800,0.977171875,-0.3828379511833191,0.08113589137792587,-0.404808908700943
1778596826869165000,0.9871650390625,-0.3269217312335968,0.14146451652050018,-0.3309776186943054
1778596826879159000,0.997158935546875,-0.294216513633728,0.2145504504442215,-0.2272336483001709
1778596826889151700,1.00715185546875,-0.26995155215263367,0.2571535110473633,-0.11479291319847107
1778596826899145000,1.01714501953125,-0.23531606793403625,0.2397921085357666,-0.006246990989893675
1778596826909138000,1.027137939453125,-0.1928151398897171,0.17241555452346802,0.08566301316022873
1778596826919131000,1.037130859375,-0.14240629971027374,0.06665796786546707,0.15336190164089203
1778596826929124900,1.047124755859375,-0.09243880957365036,-0.05254191532731056,0.1981007158756256
1778596826939117800,1.057117919921875,-0.04992730915546417,-0.17253543436527252,0.21551886200904846
1778596826949111000,1.067111083984375,-0.02316330000758171,-0.2585037350654602,0.2090180218219757
1778596826959103700,1.077103759765625,0.006244654767215252,-0.28451988101005554,0.18677504360675812
1778596826969097000,1.087096923828125,0.043516580015420914,-0.2503810524940491,0.1536855697631836
1778596826979090000,1.09708984375,0.09235149621963501,-0.17578724026679993,0.11660212278366089
1778596826989084000,1.107083984375,0.1573493331670761,-0.07397978752851486,0.09305287152528763
1778596826999073800,1.11707373046875,0.23328271508216858,0.07619079947471619,0.09753470122814178
1778596827009066800,1.127066650390625,0.29747211933135986,0.2488592267036438,0.12623809278011322
1778596827019060000,1.13706005859375,0.3395410180091858,0.39142969250679016,0.17921236157417297
1778596827029052700,1.147052734375,0.34934043884277344,0.4968935549259186,0.26011788845062256
1778596827039046000,1.1570458984375,0.3287017345428467,0.5541957020759583,0.3531634211540222
1778596827049040000,1.167039794921875,0.2825104892253876,0.5489708185195923,0.4454834759235382
1778596827059032800,1.17703271484375,0.2323376089334488,0.48824384808540344,0.5309637188911438
1778596827069025800,1.18702587890625,0.1825801134109497,0.3821193277835846,0.6057915091514587
1778596827079018800,1.197018798828125,0.13341976702213287,0.2517881989479065,0.6443482637405396
1778596827089012000,1.207011962890625,0.09938693046569824,0.11392246186733246,0.6397249102592468
1778596827099004700,1.217004638671875,0.08480718731880188,-0.012857592664659023,0.5888654589653015
1778596827108998700,1.22699853515625,0.09042344987392426,-0.07937105000019073,0.5002790093421936
1778596827118992000,1.236991943359375,0.11796559393405914,-0.0890689492225647,0.3834564685821533
1778596827128984600,1.246984619140625,0.1731753647327423,-0.05529450252652168,0.2547507882118225
1778596827138977800,1.256977783203125,0.24586129188537598,0.06376264244318008,0.14889280498027802
1778596827148970800,1.266970703125,0.3209174871444702,0.2779656946659088,0.09844343364238739
1778596827158964000,1.2769638671875,0.3823592960834503,0.4942370355129242,0.09776246547698975
1778596827168957700,1.286957763671875,0.4315502941608429,0.593821108341217,0.11052677035331726
1778596827178951000,1.296950927734375,0.4597545266151428,0.5029255747795105,0.11046578735113144
1778596827188944000,1.30694384765625,0.4520251750946045,0.24204599857330322,0.08574952930212021
1778596827198936600,1.3169365234375,0.4066470265388489,-0.08482745289802551,0.023784702643752098
1778596827208929800,1.3269296875,0.3447377383708954,-0.3613262474536896,-0.06336449831724167
1778596827218923800,1.336923828125,0.3085147738456726,-0.4642374515533447,-0.15004639327526093
1778596827228917000,1.3469169921875,0.3307188153266907,-0.3635566830635071,-0.19660542905330658
1778596827238909700,1.35690966796875,0.39045193791389465,-0.09963474422693253,-0.19164901971817017
1778596827248903000,1.36690283203125,0.4613034725189209,0.24586749076843262,-0.1371191293001175
1778596827258896000,1.376895751953125,0.5307062268257141,0.5588930249214172,-0.05435260757803917
1778596827268888800,1.386888916015625,0.5923891067504883,0.7198148369789124,0.04704756289720535
1778596827278882800,1.3968828125,0.6585974097251892,0.7415017485618591,0.1692539006471634
1778596827288875800,1.406875732421875,0.734144926071167,0.6775368452072144,0.3041307032108307
1778596827298869000,1.416868896484375,0.8063744306564331,0.5236708521842957,0.43104472756385803
1778596827308861700,1.42686181640625,0.8576987385749817,0.2980083227157593,0.5322044491767883
1778596827318855000,1.43685498046875,0.8686193227767944,0.0673799142241478,0.5885516405105591
1778596827328849000,1.446848876953125,0.8222323060035706,-0.12845651805400848,0.591704785823822
1778596827338841900,1.456841796875,0.7146803140640259,-0.22686085104942322,0.5396407842636108
1778596827348834800,1.466834716796875,0.5790196061134338,-0.2178584486246109,0.4325026273727417
1778596827358827800,1.476827880859375,0.4476320147514343,-0.12055692076683044,0.2850082516670227
1778596827368821000,1.486821044921875,0.3418854773044586,0.04024774581193924,0.11336502432823181
1778596827378813700,1.496813720703125,0.2604827582836151,0.22116054594516754,-0.06357087194919586
1778596827388807700,1.5068076171875,0.2027171552181244,0.362798273563385,-0.23257268965244293
1778596827398801000,1.51680078125,0.17278270423412323,0.4139043390750885,-0.382141649723053
1778596827408793600,1.526793701171875,0.1718139797449112,0.4138812720775604,-0.4949817359447479
1778596827418786800,1.536786865234375,0.1917314976453781,0.38497400283813477,-0.5694516897201538
1778596827428779800,1.54677978515625,0.23043929040431976,0.3104828894138336,-0.5923138856887817
1778596827438773000,1.55677294921875,0.2685997188091278,0.21450254321098328,-0.5656018257141113
1778596827448766700,1.5667666015625,0.28325170278549194,0.13092920184135437,-0.5042146444320679
1778596827458759700,1.576759765625,0.27631044387817383,0.04265261068940163,-0.422370970249176
1778596827468753000,1.5867529296875,0.25217464566230774,-0.029759638011455536,-0.3308142125606537
1778596827478745600,1.59674560546875,0.21782706677913666,-0.06878826767206192,-0.23688289523124695
1778596827488738800,1.60673876953125,0.16834121942520142,-0.057960014790296555,-0.14307640492916107
1778596827498732800,1.61673291015625,0.1078680157661438,0.006291941739618778,-0.051609866321086884
1778596827508725800,1.626725830078125,0.03806634992361069,0.07927561551332474,0.028102055191993713
1778596827518718700,1.63671875,-0.024576794356107712,0.12452086061239243,0.08821146190166473
1778596827528711700,1.646711669921875,-0.06601272523403168,0.14011463522911072,0.12658488750457764
1778596827538705000,1.656704833984375,-0.08063507825136185,0.1262158751487732,0.1514042168855667
1778596827548699000,1.666698974609375,-0.08849155902862549,0.08127721399068832,0.15421801805496216
1778596827558691800,1.67669189453125,-0.09335023164749146,0.01113035622984171,0.13054810464382172
1778596827568684800,1.686684814453125,-0.10288472473621368,-0.07461151480674744,0.07622718811035156
1778596827578678000,1.696677978515625,-0.11155837029218674,-0.15930615365505219,0.0009675874025560915
1778596827588670700,1.706670654296875,-0.10210651159286499,-0.23187600076198578,-0.07761233299970627
1778596827598663700,1.71666357421875,-0.08454376459121704,-0.2604687511920929,-0.1466398686170578
1778596827608658000,1.726657958984375,-0.06628061085939407,-0.24946552515029907,-0.20235170423984528
1778596827618651000,1.73665087890625,-0.05990820378065109,-0.21750199794769287,-0.23878028988838196
1778596827628643800,1.746643798828125,-0.07445940375328064,-0.16852635145187378,-0.24992381036281586
1778596827638636800,1.75663671875,-0.11179878562688828,-0.10884863883256912,-0.24030819535255432
1778596827648630000,1.766630126953125,-0.16787530481815338,-0.06485901027917862,-0.21563176810741425
1778596827658623700,1.776623779296875,-0.2255532592535019,-0.04536068066954613,-0.17548488080501556
1778596827668616700,1.78661669921875,-0.2683143615722656,-0.03332001715898514,-0.12586423754692078
1778596827678610000,1.79660986328125,-0.28452181816101074,-0.02876042015850544,-0.07724050432443619
1778596827688603000,1.806602783203125,-0.2847726047039032,-0.033447861671447754,-0.03826738893985748
1778596827698595800,1.816595947265625,-0.2697518467903137,-0.04897356033325195,-0.02747359685599804
1778596827708589800,1.82658984375,-0.23942804336547852,-0.08341614902019501,-0.04134577885270119
1778596827718582800,1.836582763671875,-0.18881946802139282,-0.1633264273405075,-0.07358600199222565
1778596827728575700,1.84657568359375,-0.1252182275056839,-0.2639199495315552,-0.11863193660974503
1778596827738568700,1.856568603515625,-0.061939917504787445,-0.3381984233856201,-0.16099298000335693
1778596827748562000,1.86656201171875,-0.016228288412094116,-0.3338567316532135,-0.19861070811748505
1778596827758556000,1.876555908203125,0.009911702945828438,-0.2695153057575226,-0.2200627326965332
1778596827768548600,1.886548583984375,0.00952596589922905,-0.1924445629119873,-0.2254323661327362
1778596827778541800,1.896541748046875,-0.023228785023093224,-0.15580426156520844,-0.22351355850696564
1778596827788534800,1.90653466796875,-0.09001708775758743,-0.17768611013889313,-0.21907082200050354
1778596827798527700,1.91652783203125,-0.18473267555236816,-0.2288084179162979,-0.22557798027992249
1778596827808520700,1.926520751953125,-0.28383949398994446,-0.26983675360679626,-0.24232010543346405
1778596827818515000,1.936514892578125,-0.35086140036582947,-0.2520985007286072,-0.2556614875793457
1778596827828508000,1.9465078125,-0.3633294403553009,-0.1403360217809677,-0.24000288546085358
1778596827838500900,1.9565009765625,-0.31690549850463867,0.0676342323422432,-0.18066152930259705
1778596827848493800,1.966493896484375,-0.227357879281044,0.3236734867095947,-0.07889746874570847
1778596827858486800,1.97648681640625,-0.12498196959495544,0.5396015048027039,0.054151397198438644
1778596827868481000,1.98648095703125,-0.028880344703793526,0.6308923959732056,0.20445312559604645
1778596827878473700,1.9964736328125,0.0509662851691246,0.5986782908439636,0.3529592454433441
1778596827888467000,2.006467041015625,0.09883058071136475,0.49322324991226196,0.48348763585090637
1778596827898460000,2.0164599609375,0.11684474349021912,0.3494759202003479,0.5925350189208984
1778596827908452900,2.026452880859375,0.09244648367166519,0.1759083867073059,0.6658511757850647
1778596827918446800,2.03644677734375,0.02065431699156761,-0.013273530639708042,0.6941741108894348
1778596827928439800,2.046439697265625,-0.09161856770515442,-0.1755003035068512,0.6818727850914001
1778596827938432800,2.056432861328125,-0.2260887771844864,-0.2592817544937134,0.6365982294082642
1778596827948425700,2.06642578125,-0.36826059222221375,-0.22579635679721832,0.5661627054214478
1778596827958419000,2.0764189453125,-0.505383312702179,-0.051526546478271484,0.4722071886062622
1778596827968413000,2.086412841796875,-0.6265140175819397,0.033022716641426086,0.3275105953216553
1778596827978405600,2.096405517578125,-0.7088506817817688,-0.02121548354625702,0.13750551640987396
1778596827988398800,2.10639892578125,-0.7454734444618225,-0.10952431708574295,-0.07984896004199982
1778596827998391000,2.11639111328125,-0.7436020970344543,-0.18239612877368927,-0.3055363893508911
1778596828008383700,2.1263837890625,-0.7230802774429321,-0.11498258262872696,-0.4904603660106659
1778596828018377700,2.136377685546875,-0.6901899576187134,0.04749767482280731,-0.6266877055168152
1778596828028371000,2.146370849609375,-0.6521138548851013,0.10023932158946991,-0.7571237683296204
1778596828038363600,2.15636376953125,-0.6020680069923401,0.025524334982037544,-0.877069354057312
1778596828048356900,2.16635693359375,-0.5407267808914185,-0.07700800895690918,-0.9576271176338196
1778596828058349800,2.176349853515625,-0.4616878628730774,-0.16038039326667786,-0.9804253578186035
1778596828068343800,2.18634375,-0.37764251232147217,-0.23230256140232086,-0.9557316899299622
1778596828078336800,2.196336669921875,-0.291504442691803,-0.28956398367881775,-0.892753541469574
1778596828088329700,2.206329833984375,-0.2088639885187149,-0.3150414526462555,-0.7978231906890869
1778596828098323000,2.216322998046875,-0.1416146457195282,-0.30298691987991333,-0.6799489855766296
1778596828108315600,2.226315673828125,-0.09750132262706757,-0.24030499160289764,-0.5481561422348022
1778596828118308900,2.236308837890625,-0.07552704960107803,-0.15118204057216644,-0.4184575378894806
1778596828128302800,2.246302734375,-0.07496144622564316,-0.08091285079717636,-0.305192232131958
1778596828138295800,2.2562958984375,-0.0799841657280922,-0.0728093832731247,-0.2149890959262848
1778596828148288800,2.266288818359375,-0.08312612771987915,-0.11781203746795654,-0.1425614058971405
1778596828158281700,2.27628173828125,-0.08765936642885208,-0.17356611788272858,-0.10239826887845993
1778596828168275000,2.28627490234375,-0.08433857560157776,-0.23481377959251404,-0.08881496638059616
1778596828178269000,2.29626904296875,-0.07456051558256149,-0.23700183629989624,-0.08999048918485641
1778596828188261600,2.30626171875,-0.05791204795241356,-0.16684089601039886,-0.09816069155931473
1778596828198254800,2.3162548828125,-0.03315157815814018,-0.06612785905599594,-0.11970699578523636
1778596828208247800,2.326247802734375,0.007611118257045746,0.027078287675976753,-0.14913338422775269
1778596828218240800,2.33624072265625,0.05867723375558853,0.11702389270067215,-0.1771266609430313
1778596828228234800,2.34623486328125,0.10603136569261551,0.20982979238033295,-0.18855105340480804
1778596828238228000,2.35622802734375,0.13563214242458344,0.2882039248943329,-0.1794489026069641
1778596828248221000,2.366220947265625,0.1341273933649063,0.3092763423919678,-0.1457558572292328
1778596828258213600,2.376213623046875,0.11567676067352295,0.2813965082168579,-0.08509118109941483
1778596828268206800,2.386206787109375,0.07586303353309631,0.21432287991046906,-0.015469548292458057
1778596828278200800,2.396200927734375,0.02577429637312889,0.11568419635295868,0.04666519537568092
1778596828288193800,2.40619384765625,-0.02286982536315918,-0.01028026919811964,0.07888434082269669
1778596828298186800,2.416186767578125,-0.053056757897138596,-0.13480247557163239,0.0797051265835762
1778596828308180000,2.426179931640625,-0.06117179989814758,-0.22365188598632812,0.05868266150355339
1778596828318172700,2.436172607421875,-0.046084195375442505,-0.2872028946876526,0.015522409230470657
1778596828328166700,2.446166748046875,-0.008022057823836803,-0.323405921459198,-0.048494819551706314
1778596828338159900,2.456159912109375,0.06148751080036163,-0.2986222803592682,-0.10926736146211624
1778596828348152800,2.46615283203125,0.1625901609659195,-0.18642540276050568,-0.1486075073480606
1778596828358145800,2.476145751953125,0.2751292288303375,-0.015766043215990067,-0.16100798547267914
1778596828368138800,2.486138671875,0.3847163915634155,0.18909578025341034,-0.14342138171195984
1778596828378132700,2.4961328125,0.466900497674942,0.3914819359779358,-0.09580060094594955
1778596828388126000,2.5061259765625,0.5050687789916992,0.4798727333545685,-0.03840479254722595
1778596828398118700,2.51611865234375,0.5055134892463684,0.4190264344215393,0.009536899626255035
1778596828408111900,2.52611181640625,0.4807165563106537,0.2131732553243637,0.037493910640478134
1778596828418105900,2.53610595703125,0.42490682005882263,-0.10269229114055634,0.02399807795882225
1778596828428098800,2.546098876953125,0.36150088906288147,-0.43187883496284485,-0.01666109450161457
1778596828438091800,2.556091796875,0.31041935086250305,-0.6707209944725037,-0.04175686091184616
1778596828448084700,2.566084716796875,0.26911187171936035,-0.7272000312805176,-0.030990447849035263
1778596828458078000,2.576077880859375,0.24758154153823853,-0.5713641047477722,0.020975813269615173
1778596828468071700,2.58607177734375,0.27062880992889404,-0.22710159420967102,0.10541725158691406
1778596828478065000,2.59606494140625,0.34133094549179077,0.16529227793216705,0.2013254016637802
1778596828488057900,2.606057861328125,0.42863786220550537,0.5376444458961487,0.30399248003959656
1778596828498050800,2.61605078125,0.5229063630104065,0.8583337664604187,0.4119836688041687
1778596828508043800,2.626043701171875,0.5983936190605164,1.083622932434082,0.5120177865028381
1778596828518037800,2.636037841796875,0.6495409607887268,1.1527022123336792,0.5815556049346924
1778596828528031000,2.646031005859375,0.6833993196487427,0.983436644077301,0.6142297387123108
1778596828538023700,2.656023681640625,0.7004832625389099,0.6212443709373474,0.6144893765449524
1778596828548017000,2.666016845703125,0.7066811323165894,0.19783547520637512,0.5886480808258057
1778596828558009900,2.676009765625,0.6969475150108337,-0.160538911819458,0.5436052083969116
1778596828568003800,2.68600390625,0.6462140083312988,-0.3885320723056793,0.4557313323020935
1778596828577996800,2.695996826171875,0.5520757436752319,-0.5306969881057739,0.3196459114551544
1778596828587989800,2.70598974609375,0.4347945749759674,-0.6138578653335571,0.13409389555454254
1778596828597983000,2.71598291015625,0.31862321496009827,-0.6436977982521057,-0.0728137418627739
1778596828607975700,2.7259755859375,0.22392188012599945,-0.627042829990387,-0.2848255932331085
1778596828617969700,2.7359697265625,0.15068627893924713,-0.5006870031356812,-0.4831104576587677
1778596828627963000,2.745962890625,0.09264945238828659,-0.2747448980808258,-0.6607151627540588
1778596828637955800,2.755955810546875,0.06673076748847961,-0.02559659443795681,-0.8118988275527954
1778596828647948800,2.76594873046875,0.06334177404642105,0.20735153555870056,-0.9203117489814758
1778596828657941800,2.775941650390625,0.06789018213748932,0.3656080365180969,-0.9847184419631958
1778596828667935700,2.785935791015625,0.08172537386417389,0.4280417859554291,-1.002456784248352
1778596828677929000,2.795928955078125,0.10840891301631927,0.3969041109085083,-0.9660094976425171
1778596828687921700,2.805921630859375,0.1701272875070572,0.28947198390960693,-0.8780959248542786
1778596828697915000,2.815914794921875,0.2577657699584961,0.14707514643669128,-0.7333789467811584
1778596828707907800,2.825907958984375,0.34292271733283997,0.017105570062994957,-0.5454111099243164
1778596828717901800,2.83590185546875,0.4065459072589874,-0.09415757656097412,-0.3307262361049652
1778596828727894800,2.845894775390625,0.4329468905925751,-0.17054662108421326,-0.10150476545095444
1778596828737887700,2.8558876953125,0.42134028673171997,-0.2310328632593155,0.12839633226394653
1778596828747880700,2.865880615234375,0.3749471604824066,-0.2397003471851349,0.3487553894519806
1778596828757873700,2.875873779296875,0.3007355034351349,-0.20984363555908203,0.5462018847465515
1778596828767868000,2.885867919921875,0.21408280730247498,-0.1848883479833603,0.7093807458877563
1778596828777860900,2.89586083984375,0.1229129359126091,-0.1709195375442505,0.8301026225090027
1778596828787853800,2.905853759765625,0.029162365943193436,-0.15921367704868317,0.8600837588310242
1778596828797846800,2.9158466796875,-0.04489535093307495,-0.2312748283147812,0.8258373737335205
1778596828807840800,2.9258408203125,-0.06137390434741974,-0.3322422504425049,0.7503830790519714
1778596828817834000,2.935833984375,-0.04541784152388573,-0.37380513548851013,0.6438294649124146
1778596828827826700,2.94582666015625,-0.01697399467229843,-0.3996850550174713,0.5065565705299377
1778596828837820000,2.95581982421875,-0.00035294145345687866,-0.43009623885154724,0.3360207974910736
1778596828847812900,2.965812744140625,-0.013406408950686455,-0.48138248920440674,0.14451900124549866
1778596828857806800,2.975806884765625,-0.05166538059711456,-0.5204069018363953,-0.048217687755823135
1778596828867799800,2.9857998046875,-0.10501036047935486,-0.47751665115356445,-0.21164442598819733
1778596828877792800,2.995792724609375,-0.15812525153160095,-0.3626835346221924,-0.345360666513443
1778596828887786000,3.005785888671875,-0.2096274495124817,-0.24739280343055725,-0.4583105742931366
1778596828897778700,3.01577880859375,-0.24091292917728424,-0.15808849036693573,-0.5436587333679199
1778596828907772700,3.025772705078125,-0.2275710552930832,-0.07784268260002136,-0.5836681723594666
1778596828917766000,3.035765869140625,-0.16913090646266937,0.015936272218823433,-0.5683345198631287
1778596828927758600,3.045758544921875,-0.09436032176017761,0.10609640926122665,-0.5106167793273926
1778596828937751800,3.055751708984375,-0.029729396104812622,0.1309996247291565,-0.42203792929649353
1778596828947744800,3.065744873046875,0.011745095252990723,0.07836452126502991,-0.31856364011764526
1778596828957738800,3.07573876953125,0.032160885632038116,-0.002124993596225977,-0.20753511786460876
1778596828967731700,3.085731689453125,0.02254227176308632,-0.067649245262146,-0.1005093902349472
1778596828977724700,3.095724609375,-0.012248466722667217,-0.10168790072202682,-0.011197352781891823
1778596828987718000,3.1057177734375,-0.07464782148599625,-0.13489371538162231,0.041057489812374115
1778596828997711000,3.115711181640625,-0.15579406917095184,-0.1915876269340515,0.051940228790044785
1778596829007705000,3.125705078125,-0.2421298623085022,-0.258296936750412,0.024406181648373604
1778596829018323200,3.1363232421875,-0.3328208923339844,-0.3419191241264343,-0.04059572145342827
1778596829028316200,3.146316162109375,-0.41621848940849304,-0.4108414947986603,-0.13124647736549377
1778596829038309400,3.156309326171875,-0.4874836206436157,-0.47308167815208435,-0.24664923548698425
1778596829048303400,3.166303466796875,-0.5338398218154907,-0.4579715132713318,-0.3501087427139282
1778596829058296300,3.17629638671875,-0.5266135931015015,-0.2946757972240448,-0.40514054894447327
1778596829068289300,3.186289306640625,-0.45188480615615845,-0.01897445134818554,-0.3989447057247162
1778596829078282200,3.1962822265625,-0.32990697026252747,0.29946956038475037,-0.33017897605895996
1778596829088275200,3.206275146484375,-0.21331582963466644,0.5837016105651855,-0.1989901065826416
1778596829098269200,3.216269287109375,-0.13636618852615356,0.758513331413269,-0.017953740432858467
1778596829108262400,3.226262451171875,-0.10339058935642242,0.802860677242279,0.1886921525001526
1778596829118255400,3.23625537109375,-0.1008528620004654,0.7004155516624451,0.39425063133239746
1778596829128248300,3.246248291015625,-0.10662923753261566,0.5006439685821533,0.5784573554992676
1778596829138242300,3.2562421875,-0.14730529487133026,0.23874099552631378,0.7364131808280945
1778596829148235300,3.2662353515625,-0.23023925721645355,-0.07932102680206299,0.8584741353988647
1778596829158228200,3.276228271484375,-0.3628428280353546,-0.3258999288082123,0.9283506870269775
1778596829168221200,3.28622119140625,-0.5269092321395874,-0.4399159550666809,0.9185316562652588
1778596829178214400,3.29621435546875,-0.6688916683197021,-0.46943604946136475,0.8521880507469177
1778596829188208400,3.30620849609375,-0.7635863423347473,-0.3882443606853485,0.7536702752113342
1778596829198201000,3.316201171875,-0.8290873169898987,-0.208393394947052,0.6249293088912964
1778596829208194300,3.3261943359375,-0.8882181644439697,-0.041578710079193115,0.4760575294494629
1778596829218187300,3.336187255859375,-0.9518890380859375,0.04076303541660309,0.3013691008090973
1778596829228180200,3.34618017578125,-1.0117416381835938,0.06103084981441498,0.1149774119257927
1778596829238174200,3.35617431640625,-1.046926736831665,0.03295447677373886,-0.07580479234457016
1778596829248167200,3.366167236328125,-1.0389729738235474,-0.034840039908885956,-0.2661892771720886
1778596829258160400,3.376160400390625,-0.9889654517173767,-0.10924423485994339,-0.4361865520477295
1778596829268153000,3.386153076171875,-0.9145737290382385,-0.1766197234392166,-0.5747087001800537
1778596829278146300,3.396146240234375,-0.8278164267539978,-0.22536222636699677,-0.6626420021057129
1778596829288140300,3.406140380859375,-0.7347592711448669,-0.23237642645835876,-0.6986815929412842
1778596829298133200,3.41613330078125,-0.6388471126556396,-0.1963942050933838,-0.6794964671134949
1778596829308126200,3.426126220703125,-0.5432510375976562,-0.1371941864490509,-0.6170327067375183
1778596829318119200,3.436119140625,-0.444235235452652,-0.06124535948038101,-0.5197772979736328
1778596829328113400,3.446113525390625,-0.3546085059642792,0.005307230167090893,-0.38932278752326965
1778596829338106000,3.456106201171875,-0.285884827375412,0.06097981333732605,-0.24268750846385956
1778596829348099300,3.466099365234375,-0.24541769921779633,0.11224576830863953,-0.09243106096982956
1778596829358092300,3.47609228515625,-0.22927254438400269,0.14393365383148193,0.040081173181533813
1778596829368085200,3.486085205078125,-0.24847035109996796,0.132435142993927,0.1344691962003708
1778596829378079200,3.496079345703125,-0.29341599345207214,0.0891108363866806,0.18627220392227173
1778596829388072200,3.506072265625,-0.341551810503006,0.04407022148370743,0.19909612834453583
1778596829398065400,3.5160654296875,-0.38191840052604675,0.020387260243296623,0.18841712176799774
1778596829408058000,3.52605810546875,-0.39122527837753296,0.09557629376649857,0.15961401164531708
1778596829418051300,3.53605126953125,-0.3649260401725769,0.19278433918952942,0.11671395599842072
1778596829428045300,3.54604541015625,-0.3215285539627075,0.31612613797187805,0.0651586726307869
1778596829438038300,3.556038330078125,-0.2713756263256073,0.44750386476516724,0.01709607057273388
1778596829448031200,3.56603125,-0.206462100148201,0.5744935870170593,-0.024865547195076942
1778596829458024200,3.576024169921875,-0.13555783033370972,0.6382893919944763,-0.061381746083498
1778596829468017400,3.586017333984375,-0.12612667679786682,0.5259490609169006,-0.12919126451015472
1778596829478011400,3.596011474609375,-0.14457999169826508,0.42793431878089905,-0.220513716340065
1778596829488004000,3.606004150390625,-0.07242399454116821,0.6010460257530212,-0.2045053392648697
1778596829497997300,3.615997314453125,0.16008329391479492,0.7488192319869995,-0.07981614768505096
1778596829507990300,3.625990234375,0.4516959488391876,0.7855516672134399,0.1041526198387146
1778596829517984300,3.635984375,0.6763471364974976,0.6729474067687988,0.24472226202487946
1778596829527977200,3.645977294921875,0.7836899161338806,0.4115799069404602,0.27616122364997864
1778596829537970400,3.655970458984375,0.8302773833274841,0.1713057905435562,0.1934240162372589
1778596829547963400,3.66596337890625,0.916679859161377,0.07173962146043777,0.01503819227218628
1778596829557956000,3.6759560546875,1.0959060192108154,0.07126717269420624,-0.21603924036026
1778596829567950300,3.685950439453125,1.3071421384811401,0.07583519071340561,-0.4840013384819031
1778596829577943300,3.695943359375,1.4782086610794067,0.1007450670003891,-0.7498052716255188
1778596829587936300,3.705936279296875,1.5691964626312256,-0.02631230279803276,-0.9845626354217529
1778596829597929200,3.71592919921875,1.5532419681549072,-0.25690290331840515,-1.0847432613372803
1778596829607922400,3.72592236328125,1.5984089374542236,-0.22193293273448944,-0.9102274775505066
1778596829617916400,3.73591650390625,1.598534345626831,0.2771429121494293,-0.4330524206161499
1778596829627909000,3.7459091796875,1.4960085153579712,0.9893007874488831,0.2318315953016281
1778596829637902300,3.75590234375,1.3492110967636108,1.6229989528656006,0.9612229466438293
1778596829647895300,3.765895263671875,1.1592694520950317,2.009122371673584,1.7015380859375
1778596829657888300,3.77588818359375,0.8969268202781677,1.9389814138412476,2.2936315536499023
1778596829667882200,3.78588232421875,0.2342408448457718,0.09673818200826645,1.910035490989685
1778596829677875200,3.795875244140625,-0.5303173065185547,-2.204235553741455,1.0411062240600586
1778596829687868400,3.805868408203125,-0.7774420380592346,-2.789813995361328,0.9465506076812744
1778596829697861000,3.815861083984375,-0.9290456771850586,-3.179884433746338,0.9670001864433289
1778596829707854300,3.825854248046875,-0.9625981450080872,-3.8066399097442627,0.8716926574707031
1778596829717848300,3.835848388671875,-0.9261189699172974,-4.469722270965576,0.750365674495697
1778596829727841300,3.84584130859375,-0.8589242696762085,-4.913236618041992,0.7315415143966675
1778596829737834200,3.855834228515625,-0.7507528066635132,-5.130376815795898,0.8144787549972534
1778596829747827200,3.8658271484375,-0.7350918650627136,-4.083715438842773,0.6699032783508301
1778596829757821400,3.875821533203125,-0.660204291343689,-2.1243534088134766,0.48287877440452576
1778596829767814100,3.885814208984375,-0.48572543263435364,-0.7694600820541382,0.2585018277168274
1778596829777807400,3.895807373046875,-0.2792779803276062,0.5116024017333984,0.01921360194683075
1778596829787800300,3.90580029296875,-0.011885415762662888,1.4920039176940918,-0.4096943438053131
1778596829797793000,3.91579296875,0.27832135558128357,1.9462038278579712,-0.888893723487854
1778596829807787300,3.925787353515625,0.4925853908061981,2.3680434226989746,-1.3409308195114136
1778596829817780200,3.9357802734375,0.596799373626709,2.4905002117156982,-1.7116085290908813
1778596829827773400,3.9457734375,0.5805622339248657,1.930729866027832,-1.9662898778915405
1778596829837766100,3.95576611328125,0.5467480421066284,0.8564618825912476,-2.022155284881592
1778596829847759400,3.96575927734375,0.5877314805984497,-0.3042619526386261,-1.8513414859771729
1778596829857753300,3.97575341796875,0.6521000862121582,-0.9845520853996277,-1.4782363176345825
1778596829867746300,3.985746337890625,0.6997217535972595,-1.170353651046753,-0.9361911416053772
1778596829877739300,3.9957392578125,0.6645709276199341,-0.8828079104423523,-0.3301140367984772
1778596829887732200,4.005732177734375,0.5266769528388977,-0.5712917447090149,0.21786145865917206
1778596829897725400,4.015725341796875,0.23790986835956573,-0.5077596306800842,0.6379055976867676
1778596829907719400,4.025719482421875,-0.1929468810558319,-0.6715841293334961,0.9320130348205566
1778596829917712100,4.035712158203125,-0.6026757955551147,-0.9711802005767822,1.1115541458129883
1778596829927705300,4.045705322265625,-0.8487023711204529,-1.241166353225708,1.1882944107055664
1778596829937698300,4.0556982421875,-0.8863123059272766,-1.4235312938690186,1.1642721891403198
1778596829947691300,4.065691162109375,-0.753463625907898,-1.3955645561218262,1.0339924097061157
1778596829957685200,4.075685302734375,-0.5452691316604614,-0.9640680551528931,0.7520126104354858
1778596829967678200,4.08567822265625,-0.36771151423454285,-0.34237217903137207,0.4406125545501709
1778596829977671200,4.095671142578125,-0.24096263945102692,0.419067919254303,0.17605865001678467
1778596829987664100,4.1056640625,-0.19356241822242737,0.9393725991249084,-0.03710000589489937
1778596829997657600,4.11565771484375,-0.2145390808582306,1.055595874786377,-0.23447193205356598
1778596830007651600,4.125651611328125,-0.18795935809612274,1.0374072790145874,-0.31721410155296326
1778596830017644500,4.13564453125,-0.04474547505378723,0.9658779501914978,-0.2692503035068512
1778596830027637500,4.145637451171875,0.1947219967842102,0.6398778557777405,-0.2112559825181961
1778596830037630500,4.15563037109375,0.28398236632347107,0.34630829095840454,-0.11106014251708984
1778596830047623700,4.165623779296875,0.25184378027915955,0.07789676636457443,-0.03663885220885277
1778596830057617700,4.17561767578125,0.19648730754852295,-0.2542968988418579,-0.010698864236474037
1778596830067610600,4.185610595703125,0.27176955342292786,-0.44496577978134155,0.11780600994825363
1778596830077603600,4.195603515625,0.2744779884815216,-0.40715768933296204,0.31612709164619446
1778596830087596500,4.205596435546875,0.22842881083488464,-0.5104563236236572,0.42151257395744324
1778596830097590500,4.215590576171875,0.2324533760547638,-0.5815912485122681,0.3736337125301361
1778596830107583500,4.22558349609375,0.1779411882162094,-0.6865970492362976,0.15507987141609192
1778596830117576700,4.23557666015625,0.1094241812825203,-0.7586539387702942,-0.15183798968791962
1778596830127569400,4.2455693359375,0.07388649880886078,-0.6867411732673645,-0.4332830309867859
1778596830137562600,4.255562744140625,0.021868834272027016,-0.5774876475334167,-0.5917611122131348
1778596830147556600,4.265556640625,-0.13457779586315155,-0.5971859097480774,-0.5910381078720093
1778596830157549600,4.275549560546875,-0.3584398925304413,-0.6488139629364014,-0.4543415307998657
1778596830167542500,4.28554248046875,-0.6188529133796692,-0.6195449233055115,-0.23802649974822998
1778596830177535500,4.295535400390625,-0.847578763961792,-0.5260232090950012,0.0010057843755930662
1778596830187528700,4.30552880859375,-0.9963074326515198,-0.43232354521751404,0.2210240662097931
1778596830197522700,4.315522705078125,-0.9667615294456482,-0.4153245687484741,0.3761012554168701
1778596830207515400,4.325515380859375,-0.8696346879005432,-0.7366852760314941,0.3357568681240082
1778596830217508600,4.335508544921875,-0.8569220900535583,-0.9119476675987244,0.33532994985580444
1778596830227501600,4.34550146484375,-0.9439060688018799,-1.1138969659805298,0.2032916098833084
1778596830237494500,4.35549462890625,-1.264588713645935,-0.9175227880477905,-0.07233837246894836
1778596830247488500,4.365488525390625,-1.5234589576721191,-0.262472540140152,-0.5360684394836426
1778596830257481500,4.3754814453125,-1.1102114915847778,-0.42372238636016846,-1.0372323989868164
1778596830267474700,4.385474609375,-0.38165387511253357,-0.9240993857383728,-1.4513990879058838
1778596830277467400,4.39546728515625,0.1747339814901352,-1.0041049718856812,-1.634142518043518
1778596830287460600,4.405460693359375,0.49771782755851746,-0.7851169109344482,-1.6424541473388672
1778596830297454600,4.41545458984375,0.6230951547622681,-0.45736780762672424,-1.518006682395935
1778596830307447600,4.425447509765625,0.5634293556213379,-0.25634703040122986,-1.2410231828689575
1778596830317440500,4.4354404296875,0.32689622044563293,-0.21896076202392578,-0.8483190536499023
1778596830327433500,4.44543359375,-0.05001872032880783,-0.28134632110595703,-0.42338764667510986
1778596830337426700,4.4554267578125,-0.5057340264320374,-0.4799845814704895,-0.02677823044359684
1778596830347420400,4.46542041015625,-0.963438093662262,-0.6542092561721802,0.27341651916503906
1778596830357413600,4.47541357421875,-1.3243454694747925,-0.5745120048522949,0.404431015253067
1778596830367406600,4.485406494140625,-1.505899429321289,-0.3941522240638733,0.2977724075317383
1778596830377399600,4.495399658203125,-1.5603296756744385,-0.2557235062122345,-0.030002519488334656
1778596830387392500,4.505392578125,-1.4726279973983765,-0.18988056480884552,-0.39269790053367615
1778596830397386500,4.515386474609375,-1.2572696208953857,-0.1537822186946869,-0.6790010333061218
1778596830407379700,4.525379638671875,-0.9760993123054504,-0.1818169206380844,-0.8677375912666321
1778596830417372400,4.535372314453125,-0.7527173161506653,-0.22233878076076508,-0.9301455616950989
1778596830427365600,4.54536572265625,-0.5659136176109314,-0.24190230667591095,-0.8264619708061218
1778596830437358600,4.555358642578125,-0.4428800940513611,-0.16893887519836426,-0.624862551689148
1778596830447352600,4.5653525390625,-0.3579813241958618,-0.056410517543554306,-0.3791675865650177
1778596830457345500,4.575345458984375,-0.28039786219596863,0.04483674094080925,-0.13659889996051788
1778596830467338500,4.58533837890625,-0.1851791888475418,-0.05341484397649765,0.016508998349308968
1778596830477331700,4.595331787109375,-0.14142771065235138,-0.023874793201684952,0.1350945085287094
1778596830487324400,4.605324462890625,-0.15475933253765106,0.024812718853354454,0.23969867825508118
1778596830497318400,4.615318359375,-0.27214744687080383,-0.31850868463516235,0.315434992313385
1778596830507311600,4.6253115234375,-0.3580661416053772,-0.8996303677558899,0.41653114557266235
1778596830517304600,4.6353046875,-0.4603821039199829,-1.4649848937988281,0.595720112323761
1778596830527297500,4.645297607421875,-0.7014139890670776,-1.8593120574951172,0.8721204400062561
1778596830537290500,4.65529052734375,-0.910162627696991,-2.0240046977996826,1.0868146419525146
1778596830547284500,4.665284423828125,-1.0014139413833618,-1.8771177530288696,1.1228233575820923
1778596830557277400,4.67527734375,-0.9422582387924194,-1.6698260307312012,0.9886541366577148
1778596830567270400,4.6852705078125,-0.7970705032348633,-1.3298577070236206,0.7331980466842651
1778596830577263600,4.695263671875,-0.578019380569458,-0.7281835675239563,0.4263840317726135
1778596830587256600,4.705256591796875,-0.26945653557777405,0.06988314539194107,0.1444154530763626
1778596830597249500,4.71524951171875,0.1973005086183548,0.3534160554409027,-0.03562168776988983
1778596830607243500,4.725243408203125,0.4623872637748718,0.5037782788276672,-0.1420605182647705
1778596830617236700,4.73523681640625,0.5242953896522522,0.6836974620819092,-0.18076635897159576
1778596830627229400,4.7452294921875,0.4697679579257965,0.8498768210411072,-0.1898311823606491
1778596830637222700,4.75522265625,0.374099463224411,0.9137415885925293,-0.15240390598773956
1778596830647215600,4.765215576171875,0.35091108083724976,0.9032931923866272,-0.0872257649898529
1778596830657209600,4.775209716796875,0.4253421723842621,0.8133449554443359,-0.013980313204228878
1778596830667202600,4.78520263671875,0.520051896572113,0.34013330936431885,0.060547612607479095
1778596830677195500,4.795195556640625,0.560779869556427,-0.2545287311077118,0.14577782154083252
1778596830687188700,4.805188720703125,0.5525535941123962,-0.7492793202400208,0.29745641350746155
1778596830697181400,4.815181396484375,0.5165822505950928,-0.997404158115387,0.5319791436195374
1778596830707175400,4.825175537109375,0.4787803888320923,-0.9294511675834656,0.8135167360305786
1778596830717168600,4.835168701171875,0.47786426544189453,-0.6075990796089172,1.1165801286697388
1778596830727161600,4.84516162109375,0.516607940196991,-0.18757595121860504,1.4242439270019531
1778596830737154600,4.855154541015625,0.5649576187133789,0.11836401373147964,1.6653236150741577
1778596830747147500,4.8651474609375,0.6043419241905212,0.2220253348350525,1.8152352571487427
1778596830757141500,4.8751416015625,0.6155408024787903,0.0919453501701355,1.8640738725662231
1778596830767134700,4.885134765625,0.5933147072792053,-0.17324228584766388,1.7984609603881836
1778596830777127400,4.89512744140625,0.5497403144836426,-0.43801987171173096,1.6633169651031494
1778596830787120600,4.90512060546875,0.5089012384414673,-0.6042674779891968,1.5099191665649414
1778596830797113600,4.915113525390625,0.485427588224411,-0.6393468976020813,1.390194058418274
1778596830807107300,4.925107421875,0.503364086151123,-0.5900726914405823,1.283085823059082
1778596830817100500,4.9351005859375,0.5471291542053223,-0.507981538772583,1.2066179513931274
1778596830827093500,4.945093505859375,0.5798196792602539,-0.3774529695510864,1.125960350036621
1778596830837086500,4.95508642578125,0.6481854319572449,-0.7846492528915405,0.9778042435646057
1778596830847079400,4.965079345703125,0.7576649188995361,-0.8526793718338013,0.9165023565292358
1778596830857073700,4.97507373046875,0.530758261680603,-0.5808907747268677,0.9623686671257019
1778596830867066600,4.985066650390625,0.248244509100914,-0.35274747014045715,0.9905062317848206
1778596830877059600,4.9950595703125,0.14404860138893127,-0.19574318826198578,0.9924638867378235
1778596830887052500,5.005052490234375,0.1614820957183838,-0.03137117251753807,0.9536267518997192
1778596830897045500,5.01504541015625,0.18015457689762115,0.13682475686073303,0.9256576895713806
1778596830907039700,5.025039794921875,0.2208317071199417,-0.00972515158355236,0.8278766870498657
1778596830917032400,5.035032470703125,0.2639690637588501,-0.15114140510559082,0.7515180110931396
1778596830927025700,5.045025634765625,0.2944384813308716,-0.2309672087430954,0.7094454765319824
1778596830937018600,5.0550185546875,0.41117894649505615,-0.4813762605190277,0.5490054488182068
1778596830947011600,5.065011474609375,0.5326225161552429,-0.6486677527427673,0.3592573404312134
1778596830957004500,5.075004638671875,0.5589763522148132,-0.3707304298877716,0.2382395714521408
1778596830966998500,5.08499853515625,0.5209315419197083,-0.0017657449934631586,0.19166973233222961
1778596830976991700,5.09499169921875,0.4701506197452545,0.13376225531101227,0.2283145636320114
1778596830986984400,5.104984375,0.5025463104248047,0.038177769631147385,0.22259142994880676
1778596830996977200,5.11497705078125,0.5033271312713623,-0.14318004250526428,0.14490221440792084
1778596831006970000,5.12497021484375,0.4761812686920166,-0.3979929983615875,0.011660603806376457
1778596831016964000,5.134964111328125,0.4280901849269867,-0.5708838701248169,-0.14469864964485168
1778596831026957300,5.144957275390625,0.3833869695663452,-0.730749785900116,-0.2850320041179657
1778596831036950000,5.154949951171875,0.35289400815963745,-0.8452276587486267,-0.3709772825241089
1778596831046943200,5.164943115234375,0.31766635179519653,-0.8762246370315552,-0.4013305902481079
1778596831056936200,5.174936279296875,0.3099895119667053,-0.8964971303939819,-0.36902645230293274
1778596831066930200,5.18493017578125,0.36229366064071655,-0.9208037853240967,-0.2376934140920639
1778596831076923100,5.194923095703125,0.5648105144500732,-0.9949570894241333,-0.007817599922418594
1778596831086916000,5.204916015625,0.788609504699707,-1.1858245134353638,0.24073351919651031
1778596831096909300,5.214909423828125,0.9684972763061523,-1.4462374448776245,0.4542495310306549
1778596831106902000,5.224902099609375,1.082491159439087,-1.7883321046829224,0.6326228976249695
1778596831116895200,5.234895263671875,1.1754392385482788,-2.226628065109253,0.7943332195281982
1778596831126889200,5.24488916015625,1.2719415426254272,-2.7224295139312744,0.9451679587364197
1778596831136882200,5.254882080078125,1.4669592380523682,-3.5624098777770996,1.0060358047485352
1778596831146875100,5.264875244140625,1.66317617893219,-4.084240436553955,0.8949540257453918
1778596831156868000,5.2748681640625,1.8782325983047485,-4.147731304168701,0.7351566553115845
1778596831166861300,5.284861328125,2.2361361980438232,-3.8943216800689697,0.6990543603897095
1778596831176855000,5.29485498046875,2.5295979976654053,-3.5978305339813232,0.7811609506607056
1778596831186848300,5.30484814453125,2.756946325302124,-3.235678195953369,0.9939128756523132
1778596831196841200,5.31484130859375,2.8435184955596924,-2.990030288696289,1.3264580965042114
1778596831206834200,5.324834228515625,2.8461923599243164,-2.958989381790161,1.738222599029541
1778596831216827100,5.3348271484375,2.8719584941864014,-2.9941625595092773,2.158160448074341
1778596831226821000,5.344821044921875,3.0530691146850586,-2.8700459003448486,2.4970760345458984
1778596831236814300,5.354814453125,3.4333553314208984,-2.490582227706909,2.705038070678711
1778596831246807000,5.36480712890625,3.904331922531128,-2.139871120452881,2.6051137447357178
1778596831256800300,5.37480029296875,4.367458343505859,-2.1232731342315674,2.2967944145202637
1778596831266793200,5.384793212890625,4.393692970275879,-2.0423429012298584,2.0719261169433594
1778596831276787200,5.394787109375,4.145849704742432,-1.9625028371810913,1.993909478187561
1778596831286780200,5.4047802734375,3.872836112976074,-1.93734610080719,2.0617876052856445
1778596831296773000,5.414773193359375,3.672461748123169,-1.882966160774231,2.3167061805725098
1778596831306766300,5.424766357421875,3.643200159072876,-1.8937968015670776,2.6255791187286377
1778596831316759000,5.434759033203125,3.5398502349853516,-1.7251225709915161,3.0127546787261963
1778596831326752300,5.444752197265625,3.4389350414276123,-1.5352263450622559,3.403395891189575
1778596831336746200,5.454746337890625,3.4777069091796875,-1.4515860080718994,3.647371292114258
1778596831346739200,5.4647392578125,3.561985731124878,-1.2305634021759033,3.6052730083465576
1778596831356732200,5.474732177734375,3.765033006668091,-1.112025260925293,3.346625804901123
1778596831366725000,5.48472509765625,3.969637393951416,-0.9126133322715759,2.9908840656280518
1778596831376718300,5.49471826171875,4.14744234085083,-0.6651380658149719,2.5737264156341553
1778596831386712000,5.504712158203125,4.332059383392334,-0.5810861587524414,2.1765918731689453
1778596831396705000,5.514705078125,4.472443580627441,-0.5833296179771423,1.9304109811782837
1778596831406698200,5.5246982421875,4.5409440994262695,-0.6717855930328369,1.8117125034332275
1778596831416691000,5.53469091796875,4.568026065826416,-0.7398597002029419,1.8339216709136963
1778596831426684200,5.54468408203125,4.494320869445801,-0.7527931928634644,2.0115749835968018
1778596831436678100,5.55467822265625,4.3030290603637695,-0.795554518699646,2.2729780673980713
1778596831446671400,5.56467138671875,3.982110023498535,-0.9153261780738831,2.493791341781616
1778596831456664000,5.5746640625,3.6237435340881348,-0.991382360458374,2.677304267883301
1778596831466657300,5.5846572265625,3.231011390686035,-0.8663586378097534,2.7412424087524414
1778596831476650200,5.594650146484375,2.8744568824768066,-0.779638946056366,2.6722218990325928
1778596831486643200,5.604643310546875,2.513814687728882,-0.6403648257255554,2.5633647441864014
1778596831496637200,5.61463720703125,2.193373441696167,-0.4316534101963043,2.4264636039733887
1778596831506630100,5.624630126953125,1.9235934019088745,-0.3054051399230957,2.293642044067383
1778596831516623400,5.634623291015625,1.6891041994094849,-0.08223757147789001,2.282712697982788
1778596831526616000,5.644615966796875,1.3840676546096802,0.09317199140787125,2.210972785949707
1778596831536609300,5.654609375,1.0369536876678467,0.28658992052078247,1.8404730558395386
1778596831546603300,5.664603271484375,0.6951441764831543,0.44639238715171814,2.0607638359069824
1778596831556596200,5.67459619140625,0.18505188822746277,0.28595104813575745,2.140488386154175
1778596831566589200,5.684589111328125,-0.2907997965812683,0.12152823060750961,1.7318775653839111
1778596831576582100,5.69458203125,-0.6059292554855347,0.3550102412700653,1.0147193670272827
1778596831586575400,5.704575439453125,-0.9287351965904236,0.46083173155784607,0.4237012267112732
1778596831596568000,5.714568115234375,-1.3258188962936401,0.29948437213897705,-0.024180656298995018
1778596831606562000,5.72456201171875,-1.638603687286377,0.12483582645654678,-0.37159472703933716
1778596831616555300,5.73455517578125,-1.6511449813842773,0.0425121895968914,-0.8724618554115295
1778596831626548200,5.74454833984375,-1.2887946367263794,-0.05553070083260536,-1.583763837814331
1778596831636541200,5.754541259765625,-0.9311350584030151,-0.14782387018203735,-2.2767515182495117
1778596831646534100,5.7645341796875,-1.0581756830215454,-0.6016542315483093,-1.8850960731506348
1778596831656528100,5.774528076171875,-1.6679469347000122,-1.3643548488616943,-1.2648873329162598
1778596831666521000,5.78452099609375,-2.086671829223633,-1.7748973369598389,-1.3113863468170166
1778596831676514000,5.79451416015625,-2.2322146892547607,-1.6884037256240845,-1.2947381734848022
1778596831686507300,5.80450732421875,-2.3248109817504883,-1.443843126296997,-1.4048380851745605
1778596831696500000,5.8145,-2.2955636978149414,-1.196690559387207,-1.6155705451965332
1778596831706493200,5.8244931640625,-2.145860195159912,-0.6751909255981445,-1.8228870630264282
1778596831716487200,5.834487060546875,-2.022585391998291,-0.16330261528491974,-1.9665592908859253
1778596831726480100,5.844480224609375,-1.901685118675232,0.4006790220737457,-1.5625128746032715
1778596831736473000,5.85447314453125,-1.2573777437210083,0.8356121182441711,-0.9672603011131287
1778596831746466000,5.864466064453125,-0.6588701605796814,0.7490315437316895,-0.45405858755111694
1778596831756459300,5.874459228515625,-0.40480726957321167,0.35841134190559387,0.10541989654302597
1778596831766453200,5.884453369140625,-0.422290563583374,-0.5056856870651245,0.5482638478279114
1778596831776446200,5.8944462890625,-0.32414108514785767,-1.5390816926956177,0.9147020578384399
1778596831786439200,5.904439208984375,-0.36357370018959045,-1.847825050354004,0.8765762448310852
1778596831796432400,5.914432373046875,-0.3072558343410492,-1.322479248046875,0.5133748650550842
1778596831806425000,5.924425048828125,-0.06786072254180908,-0.4873361587524414,0.49000129103660583
1778596831816419000,5.934419189453125,0.15530391037464142,0.0630851611495018,0.6344636678695679
1778596831826412300,5.944412353515625,0.12542538344860077,0.33797839283943176,0.6088220477104187
1778596831836405200,5.9544052734375,-0.011889870278537273,0.5303465127944946,0.5564645528793335
1778596831846398200,5.964398193359375,-0.19102904200553894,0.6438470482826233,0.49394142627716064
1778596831856391200,5.97439111328125,-0.31757843494415283,0.7744215726852417,0.36440715193748474
1778596831866384400,5.98438427734375,-0.3432621359825134,0.9110960364341736,0.10050221532583237
1778596831876378400,5.99437841796875,-0.12331831455230713,1.0496400594711304,-0.19182153046131134
1778596831886371000,6.00437109375,0.14031487703323364,1.2314702272415161,-0.37836453318595886
1778596831896364300,6.0143642578125,0.41196584701538086,1.3190994262695312,-0.5867640376091003
1778596831906357200,6.024357177734375,0.5835492014884949,1.2294338941574097,-0.7566007375717163
1778596831916350200,6.03435009765625,0.6046366095542908,1.0047781467437744,-0.8439364433288574
1778596831926343200,6.04434326171875,0.48410430550575256,0.7814125418663025,-0.8581742644309998
1778596831936337200,6.054337158203125,0.29888227581977844,0.5753381848335266,-0.810798704624176
1778596831946330000,6.064330078125,0.11493868380784988,0.41231369972229004,-0.6921206712722778
1778596831956323000,6.074322998046875,-0.023096412420272827,0.43287384510040283,-0.5567340850830078
1778596831966316300,6.08431640625,-0.0955970510840416,0.48749932646751404,-0.48160067200660706
1778596831976309200,6.094309326171875,-0.14440028369426727,0.5606589913368225,-0.43665823340415955
1778596831986303000,6.104302978515625,-0.2622504234313965,0.5880794525146484,-0.42852485179901123
1778596831996296200,6.114296142578125,-0.46169909834861755,0.5894339084625244,-0.4706243574619293
1778596832006288600,6.12428857421875,-0.7538540363311768,0.5314156413078308,-0.5826790928840637
1778596832016281900,6.13428173828125,-1.0128579139709473,0.45411819219589233,-0.8012591004371643
1778596832026274600,6.144274658203125,-1.2150158882141113,0.11862877756357193,-1.1006793975830078
1778596832036267800,6.154267822265625,-1.463259220123291,-0.15360353887081146,-1.429363489151001
1778596832046261800,6.16426171875,-1.6106548309326172,-0.29291611909866333,-1.6704328060150146
1778596832056255000,6.1742548828125,-1.5624347925186157,-0.27163827419281006,-1.7018109560012817
1778596832066247700,6.18424755859375,-1.3132768869400024,-0.2335451990365982,-1.5528924465179443
1778596832076241000,6.194240966796875,-0.9393238425254822,-0.29672521352767944,-1.373503565788269
1778596832086233900,6.20423388671875,-0.5079449415206909,-0.13021187484264374,-1.2377551794052124
1778596832096227600,6.2142275390625,-0.24210554361343384,0.09257886558771133,-1.1657952070236206
1778596832106220800,6.224220703125,-0.14652402698993683,0.15183095633983612,-1.1583290100097656
1778596832116213800,6.2342138671875,-0.24833056330680847,0.011255466379225254,-1.2306325435638428
1778596832126207000,6.24420703125,-0.5529376268386841,-0.40575382113456726,-1.4080405235290527
1778596832136199700,6.25419970703125,-0.9359108209609985,-0.9709727168083191,-1.663910150527954
1778596832146193000,6.26419287109375,-1.1555061340332031,-1.2596321105957031,-1.9133007526397705
1778596832156187000,6.274186767578125,-1.1646835803985596,-1.1715365648269653,-2.103759765625
1778596832166179600,6.2841796875,-0.9725369215011597,-0.937086284160614,-2.2757608890533447
1778596832176172800,6.2941728515625,-0.5447187423706055,-0.5595546960830688,-2.3772873878479004
1778596832186165800,6.304165771484375,-0.17991246283054352,-0.34855028986930847,-2.4781830310821533
1778596832196158700,6.31415869140625,-0.18341079354286194,0.03379681333899498,-2.5042519569396973
1778596832206151700,6.324151611328125,-0.6547654271125793,0.542998194694519,-2.4535977840423584
1778596832216145700,6.334145751953125,-1.0601112842559814,0.38606637716293335,-1.9430179595947266
1778596832226139000,6.344138916015625,-0.9682962894439697,-2.8100361824035645,-1.288046956062317
1778596832236131600,6.354131591796875,-0.7513535618782043,-3.2397618293762207,-0.8694404363632202
1778596832246124800,6.364124755859375,-0.5390262007713318,-2.542494297027588,-0.514506459236145
1778596832256117800,6.37411767578125,-0.46348005533218384,-1.4548470973968506,-0.29060837626457214
1778596832266111700,6.38411181640625,-0.7089169025421143,-0.9752858877182007,-0.5899655222892761
1778596832276104700,6.394104736328125,-1.2145180702209473,-1.2763742208480835,-1.407366394996643
1778596832286097700,6.40409765625,-1.399754285812378,-1.3412047624588013,-1.943588376045227
1778596832296091000,6.4140908203125,-1.2553040981292725,-0.8400271534919739,-2.1421194076538086
1778596832306083600,6.42408349609375,-1.0707851648330688,-0.543174684047699,-2.348296880722046
1778596832316076800,6.434076904296875,-0.8510849475860596,-0.29315441846847534,-2.5349185466766357
1778596832326070800,6.44407080078125,-0.8244761228561401,0.11739960312843323,-2.593916177749634
1778596832336063700,6.454063720703125,-1.0593544244766235,0.3620189428329468,-2.072613477706909
1778596832346056700,6.464056640625,-1.1416268348693848,-0.7451379895210266,-1.0411049127578735
1778596832356049700,6.474049560546875,-0.6637951135635376,-1.588807225227356,-0.4055699408054352
1778596832366043000,6.48404296875,-0.5459067821502686,-1.9417084455490112,-0.04719600826501846
1778596832376036900,6.494036865234375,-0.8110244274139404,-1.5247339010238647,-0.08171351253986359
1778596832386029800,6.50402978515625,-1.2738912105560303,-0.7936157584190369,-0.32067325711250305
1778596832396022800,6.514022705078125,-1.465986967086792,0.43039166927337646,-0.5320358276367188
1778596832406016000,6.52401611328125,-1.3935121297836304,-0.358746737241745,0.11605539172887802
1778596832416008700,6.5340087890625,-1.2900820970535278,-0.4794086813926697,0.5281076431274414
1778596832426001700,6.544001708984375,-1.0243375301361084,-0.20283599197864532,0.4226144552230835
1778596832435996000,6.553995849609375,-0.5569546222686768,-0.07630201429128647,0.09235824644565582
1778596832445988600,6.563988525390625,-0.06222563982009888,-0.03156117722392082,-0.22201965749263763
1778596832455981800,6.57398193359375,0.2305106222629547,-0.009575984440743923,-0.32481446862220764
1778596832465974800,6.583974853515625,0.27588993310928345,0.15436238050460815,-0.341778039932251
1778596832475967700,6.5939677734375,0.25495803356170654,0.4345812499523163,-0.36423036456108093
1778596832485960700,6.603960693359375,0.20395949482917786,0.5547235012054443,-0.37629079818725586
1778596832495954700,6.61395458984375,0.1528204083442688,0.5666201114654541,-0.36976978182792664
1778596832505948000,6.623947998046875,0.15106065571308136,0.5177279114723206,-0.28680145740509033
1778596832515940600,6.633940673828125,0.13963863253593445,0.36719033122062683,-0.1378101110458374
1778596832525933800,6.643933837890625,0.16144688427448273,0.22652049362659454,0.04295151308178902
1778596832535926800,6.6539267578125,0.2350529283285141,0.1312166154384613,0.2255341112613678
1778596832545920800,6.663920654296875,0.24905169010162354,0.023434892296791077,0.37971556186676025
1778596832555913700,6.673913818359375,0.28053638339042664,-0.0768837183713913,0.47663065791130066
1778596832565906700,6.68390673828125,0.3960278332233429,-0.16680006682872772,0.5185896158218384
1778596832575900000,6.69389990234375,0.5849442481994629,-0.14728017151355743,0.5662458539009094
1778596832585892600,6.703892578125,0.8029811978340149,0.019870050251483917,0.6343326568603516
1778596832595885800,6.7138857421875,1.0165963172912598,0.20742051303386688,0.711487352848053
1778596832605879800,6.7238798828125,1.1974879503250122,0.3950096666812897,0.7922332882881165
1778596832615872800,6.733872802734375,1.2721151113510132,0.6288530826568604,0.9264051914215088
1778596832625865700,6.74386572265625,1.2295430898666382,0.7557407021522522,1.139696478843689
1778596832635858700,6.753858642578125,1.1008261442184448,0.7005776166915894,1.3875923156738281
1778596832645852000,6.763851806640625,0.9576674699783325,0.4728148281574249,1.6417601108551025
1778596832655844600,6.7738447265625,0.8429845571517944,0.20810113847255707,1.8674063682556152
1778596832665838600,6.783838623046875,0.7395350337028503,0.0905122309923172,2.0120608806610107
1778596832675831800,6.793831787109375,0.6602910757064819,0.04172872006893158,1.9964582920074463
1778596832685824800,6.80382470703125,0.6112511157989502,0.05374125763773918,1.8702929019927979
1778596832695817700,6.813817626953125,0.5737295746803284,0.05937783792614937,1.7603222131729126
1778596832705810700,6.823810791015625,0.5331652164459229,-0.014582044444978237,1.7592077255249023
1778596832715805000,6.833804931640625,0.46452808380126953,-0.18127168715000153,1.8451753854751587
1778596832725797600,6.843797607421875,0.32790279388427734,-0.4194098114967346,1.9639638662338257
1778596832735790800,6.853790771484375,0.1274717152118683,-0.6507663726806641,2.065122127532959
1778596832745783800,6.86378369140625,-0.08647698909044266,-0.7405621409416199,2.051727771759033
1778596832755776800,6.87377685546875,-0.250482976436615,-0.6661565899848938,1.8978229761123657
1778596832765769700,6.883769775390625,-0.3378017544746399,-0.5486612915992737,1.6032711267471313
1778596832775763700,6.893763671875,-0.2721361815929413,-0.4515259563922882,1.2744154930114746
1778596832785757000,6.9037568359375,-0.11910508573055267,-0.3678518831729889,1.0348807573318481
1778596832795749600,6.91374951171875,0.09624983370304108,-0.2997945249080658,0.9893018007278442
1778596832805742800,6.923742919921875,0.4203466475009918,-0.27647215127944946,1.0634334087371826
1778596832815735800,6.93373583984375,0.6941856145858765,-0.32713985443115234,1.10941481590271
1778596832825729800,6.943729736328125,0.8637060523033142,-0.3870902955532074,1.1076189279556274
1778596832835722800,6.95372265625,0.9544055461883545,-0.4082387089729309,1.022199034690857
1778596832845715700,6.9637158203125,0.9777923822402954,-0.5690345764160156,0.918864905834198
1778596832855709000,6.973708984375,0.9444408416748047,-0.6342908143997192,0.8634474277496338
1778596832865701600,6.98370166015625,0.8421077728271484,-0.6072620749473572,0.8665264248847961
1778596832875694800,6.99369482421875,0.6885411143302917,-0.5521621108055115,0.8666343092918396
1778596832885688800,7.003688720703125,0.4961625933647156,-0.4147450029850006,0.8511534333229065
1778596832895681800,7.013681884765625,0.33807605504989624,-0.15146462619304657,0.830721378326416
1778596832905674800,7.0236748046875,0.2333402782678604,0.10066500306129456,0.8672048449516296
1778596832915667700,7.033667724609375,0.20248329639434814,0.3249777555465698,0.9547008275985718
1778596832925661000,7.043660888671875,0.2518236041069031,0.5462648272514343,1.0749229192733765
1778596832935653600,7.053653564453125,0.3440278172492981,0.6689284443855286,1.2516207695007324
1778596832945647600,7.063647705078125,0.40498119592666626,0.742470383644104,1.4998151063919067
1778596832955640800,7.073640869140625,0.431304931640625,0.7228031754493713,1.8297823667526245
1778596832965633800,7.0836337890625,0.4158288538455963,0.6036939024925232,2.217747211456299
1778596832975626800,7.093626708984375,0.33877187967300415,0.48212137818336487,2.5805165767669678
1778596832985619700,7.10361962890625,0.1940336972475052,0.4148116409778595,2.8233985900878906
1778596832995613700,7.11361376953125,0.03360247611999512,0.2984919548034668,2.9092326164245605
1778596833005607000,7.12360693359375,-0.1285233497619629,0.2537594735622406,2.8343262672424316
1778596833015599900,7.133599853515625,-0.26627111434936523,0.25699174404144287,2.625230312347412
1778596833025592800,7.1435927734375,-0.3483898937702179,0.35080578923225403,2.312882900238037
1778596833035585800,7.153585693359375,-0.3597258925437927,0.42511677742004395,1.985507607460022
1778596833045579000,7.1635791015625,-0.33690306544303894,0.4186350703239441,1.7269567251205444
1778596833055573000,7.173572998046875,-0.31175696849823,0.45113763213157654,1.458053708076477
1778596833065566000,7.18356591796875,-0.2407408207654953,0.4669080078601837,1.1754047870635986
1778596833075559000,7.193558837890625,-0.11717520654201508,0.4777875542640686,0.9201595187187195
1778596833085551900,7.2035517578125,0.013315265998244286,0.46737948060035706,0.6940691471099854
1778596833095544800,7.213544921875,0.14881716668605804,0.3947873115539551,0.4382723271846771
1778596833105537800,7.223537841796875,0.287019282579422,0.3312514126300812,0.2228805273771286
1778596833115532000,7.233531982421875,0.36846646666526794,0.321370005607605,0.06527572125196457
1778596833125525000,7.24352490234375,0.44309014081954956,0.30501648783683777,0.013364736922085285
1778596833135518000,7.25351806640625,0.5042182207107544,0.28661006689071655,0.06061640754342079
1778596833145511000,7.263510986328125,0.5161526799201965,0.2437458485364914,0.10284411907196045
1778596833155503900,7.27350390625,0.5677186250686646,0.13955020904541016,0.11402486264705658
1778596833165497900,7.283497802734375,0.6995566487312317,0.0428648367524147,0.07978888601064682
1778596833175490800,7.29349072265625,0.8005844950675964,0.016330430284142494,0.00974535197019577
1778596833185484000,7.303484130859375,0.8215559720993042,0.005232296418398619,-0.0748797357082367
1778596833195476700,7.313476806640625,0.8192059993743896,-0.07530062645673752,-0.1767863929271698
1778596833205470000,7.323469970703125,0.743006706237793,-0.16622425615787506,-0.2715814411640167
1778596833215463000,7.333462890625,0.6751232743263245,-0.2600729763507843,-0.3509809374809265
1778596833225457000,7.343456787109375,0.5959937572479248,-0.26843154430389404,-0.4352615773677826
1778596833235449900,7.353449951171875,0.5978132486343384,-0.20333990454673767,-0.49701762199401855
1778596833245442800,7.36344287109375,0.4333534836769104,-0.0825028121471405,-0.5732513070106506
1778596833255436000,7.37343603515625,0.4280969500541687,0.04742482677102089,-0.6028283834457397
1778596833265428700,7.3834287109375,0.3212968111038208,0.06453143060207367,-0.6517329216003418
1778596833275422700,7.393422607421875,0.2806290090084076,0.058664221316576004,-0.6282851099967957
1778596833285416000,7.403416015625,0.21324478089809418,0.1228608712553978,-0.6047700047492981
1778596833295409000,7.413408935546875,0.15811628103256226,0.12669022381305695,-0.5761809349060059
1778596833305401900,7.42340185546875,0.115980364382267,0.12661613523960114,-0.5718629956245422
1778596833315394800,7.433394775390625,0.045742686837911606,0.0894746258854866,-0.5599682331085205
1778596833325388000,7.443387939453125,0.012755094096064568,0.016899703070521355,-0.576562225818634
1778596833335382000,7.453382080078125,-0.0024928348138928413,-0.09405291080474854,-0.608919084072113
1778596833345374700,7.463374755859375,0.01670018956065178,-0.2181766778230667,-0.6658077239990234
1778596833355368000,7.473367919921875,-0.04826975613832474,-0.3843933641910553,-0.7489316463470459
1778596833365361000,7.48336083984375,-0.10089161247015,-0.5674462914466858,-0.8443942666053772
1778596833375353900,7.493353759765625,-0.17279669642448425,-0.7043817639350891,-0.9700121283531189
1778596833385346800,7.503346923828125,-0.3833405375480652,-0.7951821684837341,-1.092002272605896
1778596833395340800,7.5133408203125,-0.749025285243988,-0.6858245134353638,-1.1856850385665894
1778596833405334000,7.523333984375,-1.2377489805221558,-0.6887550950050354,-1.2335294485092163
1778596833415326700,7.53332666015625,-1.4472465515136719,-0.72464919090271,-1.2745312452316284
1778596833425320000,7.54331982421875,-1.4517629146575928,-0.5720334649085999,-1.258935570716858
1778596833435313000,7.55331298828125,-1.4085201025009155,-0.37666237354278564,-1.2131446599960327
1778596833445307000,7.563306884765625,-1.3290990591049194,-0.11096319556236267,-1.1350131034851074
1778596833455299800,7.5732998046875,-1.2132848501205444,0.26940569281578064,-1.027523159980774
1778596833465293000,7.58329296875,-1.0986623764038086,0.6790385842323303,-0.9594528079032898
1778596833475286000,7.5932861328125,-0.9734914302825928,1.1414450407028198,-0.8885000944137573
1778596833485278700,7.60327880859375,-0.8428739905357361,1.612138271331787,-0.7664245963096619
1778596833495272000,7.61327197265625,-0.6524121761322021,1.8285090923309326,-0.7340874671936035
1778596833505266000,7.623265869140625,-0.40902647376060486,1.7383662462234497,-0.7258914709091187
1778596833515259000,7.6332587890625,-0.18680723011493683,1.2567005157470703,-0.6619601249694824
1778596833525251800,7.643251953125,0.0012433482334017754,0.8558722734451294,-0.5381219983100891
1778596833535245000,7.6532451171875,0.16965286433696747,0.6536118388175964,-0.36835768818855286
1778596833545237800,7.66323779296875,0.30053839087486267,0.4870810806751251,-0.25770682096481323
1778596833555231000,7.67323095703125,0.38448283076286316,0.3090418577194214,-0.2340177297592163
1778596833565225000,7.683224853515625,0.4414879083633423,0.1449773609638214,-0.21871505677700043
1778596833575218000,7.693218017578125,0.5024333000183105,0.02703741006553173,-0.20298722386360168
1778596833585211000,7.7032109375,0.5416677594184875,-0.03978927806019783,-0.2194555550813675
1778596833595203800,7.713203857421875,0.5444773435592651,-0.038496579974889755,-0.2537032663822174
1778596833605197000,7.723197021484375,0.5138376951217651,-0.01418906357139349,-0.27810245752334595
1778596833615189800,7.733189697265625,0.4751741588115692,0.04026166349649429,-0.24793973565101624
1778596833625183700,7.743183837890625,0.41692277789115906,0.09015439450740814,-0.18818335235118866
1778596833635177000,7.753177001953125,0.3549555540084839,0.10133940726518631,-0.10162609070539474
1778596833645170000,7.763169921875,0.3328966498374939,0.11966089904308319,0.04361199215054512
1778596833655163000,7.773162841796875,0.32006341218948364,0.08830910176038742,0.22799913585186005
1778596833665155800,7.78315576171875,0.331829696893692,0.07420933991670609,0.392861008644104
1778596833675149000,7.793149169921875,0.32624557614326477,0.12406451255083084,0.47556787729263306
1778596833685143000,7.80314306640625,0.3243356943130493,0.21993771195411682,0.5211591720581055
1778596833695135700,7.8131357421875,0.2973394989967346,0.23727649450302124,0.5620844960212708
1778596833705129000,7.82312890625,0.2356918603181839,0.21705101430416107,0.5594547390937805
1778596833715122000,7.833121826171875,0.10436128079891205,0.14226998388767242,0.5226202607154846
1778596833725115000,7.843114990234375,-0.05062650889158249,-0.009775188751518726,0.45174625515937805
1778596833735108900,7.85310888671875,-0.16416239738464355,-0.14340995252132416,0.3076804280281067
1778596833745101800,7.863101806640625,-0.190200075507164,-0.20333494246006012,0.1301167607307434
1778596833755095000,7.873094970703125,-0.1885627657175064,-0.26374608278274536,0.027133649215102196
1778596833765087700,7.883087646484375,-0.1758151352405548,-0.3335101306438446,0.007552738767117262
1778596833775081000,7.8930810546875,-0.1991841048002243,-0.3947809338569641,0.08880392462015152
1778596833785074000,7.903073974609375,-0.20443570613861084,-0.44773298501968384,0.2611555755138397
1778596833795068000,7.91306787109375,-0.18742983043193817,-0.4331788122653961,0.5137388110160828
1778596833805060900,7.923060791015625,-0.16652841866016388,-0.3540691137313843,0.7845146656036377
1778596833815053800,7.9330537109375,-0.13742966949939728,-0.5403599143028259,1.0455633401870728
1778596833825046800,7.943046875,-0.1472816914319992,-0.8038432002067566,1.148725986480713
1778596833835039700,7.953039794921875,-0.17897650599479675,-0.957134485244751,1.0636228322982788
1778596833845033000,7.963032958984375,-0.21331480145454407,-1.0526105165481567,0.8172150254249573
1778596833855027000,7.97302685546875,-0.2751272916793823,-1.2869423627853394,0.4966772198677063
1778596833865020000,7.98302001953125,-0.3015201687812805,-1.5720620155334473,0.24041354656219482
1778596833875012900,7.993012939453125,-0.202184796333313,-1.6135889291763306,0.10824379324913025
1778596833885005800,8.003005859375,-0.03160971403121948,-1.2128996849060059,0.0592915378510952
1778596833894998800,8.012998779296876,0.19632253050804138,-0.7161751389503479,0.08984304964542389
1778596833904991700,8.02299169921875,0.40468278527259827,-0.2854473888874054,0.18366669118404388
1778596833914986000,8.032986083984374,0.513449490070343,-0.26235726475715637,0.26822179555892944
1778596833924979000,8.04297900390625,0.4674088954925537,-0.36532577872276306,0.3986866772174835
1778596833934972000,8.052971923828125,0.28900933265686035,-0.24308694899082184,0.5172381401062012
1778596833944964900,8.06296484375,0.07611719518899918,-0.08432763069868088,0.5590577125549316
1778596833954958000,8.0729580078125,-0.08689089864492416,-0.030766136944293976,0.5793014764785767
1778596833964950800,8.08295068359375,-0.14840596914291382,0.004942248575389385,0.6236050128936768
1778596833974944800,8.09294482421875,-0.14704030752182007,0.010768179781734943,0.6713137030601501
1778596833984938000,8.10293798828125,-0.14362603425979614,0.02615475095808506,0.6882871389389038
1778596833994931000,8.112930908203126,-0.13633643090724945,0.046751104295253754,0.7379641532897949
1778596834004927700,8.122927734375,-0.10119599103927612,0.007508380338549614,0.8384475708007812
1778596834014920400,8.13292041015625,-0.057397641241550446,-0.033339716494083405,0.9811980724334717
1778596834024913700,8.14291357421875,-0.01936841756105423,0.06746486574411392,1.1051714420318604
1778596834034907600,8.15290771484375,-0.04171447083353996,0.19396688044071198,1.20100736618042
1778596834044900600,8.162900634765625,-0.09411287307739258,0.3255784511566162,1.2578718662261963
1778596834054893600,8.1728935546875,-0.13621878623962402,0.4848674237728119,1.2278053760528564
1778596834064886500,8.182886474609376,-0.12229279428720474,0.6315829157829285,1.1427041292190552
1778596834074879700,8.192879638671876,-0.08174696564674377,0.7857626676559448,0.9997684955596924
1778596834084872400,8.20287255859375,-0.05828041583299637,0.8519576191902161,0.8266544938087463
1778596834094866400,8.212866455078125,-0.07722960412502289,0.8194699883460999,0.6813058257102966
1778596834104859600,8.222859619140625,-0.13459546864032745,0.601585328578949,0.6106570959091187
1778596834114852600,8.2328525390625,-0.21833617985248566,0.33530572056770325,0.6269282102584839
1778596834124845600,8.242845458984375,-0.28360602259635925,0.14484365284442902,0.6550622582435608
1778596834134838500,8.252838623046875,-0.2969686985015869,0.02434653416275978,0.6442481875419617
1778596834144831700,8.262831787109375,-0.2770374119281769,-0.04339761659502983,0.6030969023704529
1778596834154825500,8.272825439453126,-0.24049592018127441,0.006835726089775562,0.5383490324020386
1778596834164818400,8.282818359375,-0.24908758699893951,0.14158733189105988,0.5064235925674438
1778596834174811600,8.292811767578126,-0.19823692739009857,0.25937363505363464,0.4309099614620209
1778596834184804400,8.302804443359374,-0.1371510624885559,0.34174802899360657,0.31663405895233154
1778596834194797600,8.312797607421874,-0.014803854748606682,0.3525215983390808,0.19198480248451233
1778596834204790500,8.32279052734375,0.13117294013500214,0.34117379784584045,0.07423457503318787
1778596834214784500,8.332784423828125,0.23803281784057617,0.34787964820861816,-0.04654910787940025
1778596834224777500,8.342777587890625,0.3274443447589874,0.3499176800251007,-0.14708226919174194
1778596834234770400,8.3527705078125,0.4274798631668091,0.30937719345092773,-0.20227842032909393
1778596834244763600,8.362763671875,0.5093641877174377,0.23023632168769836,-0.21857257187366486
1778596834254756400,8.37275634765625,0.554267168045044,0.14070963859558105,-0.23536166548728943
1778596834264749600,8.38274951171875,0.5430886745452881,0.07577761262655258,-0.25940969586372375
1778596834274743600,8.39274365234375,0.46402522921562195,0.09222237020730972,-0.2894405722618103
1778596834284736500,8.402736572265624,0.39021387696266174,0.13044381141662598,-0.3018369972705841
1778596834294729500,8.4127294921875,0.3441888689994812,0.19993819296360016,-0.31517064571380615
1778596834304722400,8.422722412109374,0.29058292508125305,0.31889986991882324,-0.35447075963020325
1778596834314715600,8.432715576171875,0.23856233060359955,0.44984084367752075,-0.459096223115921
1778596834324708400,8.442708251953125,0.19408510625362396,0.5597856640815735,-0.6054068207740784
1778596834334702600,8.45270263671875,0.1240042895078659,0.6392373442649841,-0.7793602347373962
1778596834344695600,8.462695556640625,0.01998499035835266,0.6727039217948914,-0.9534477591514587
1778596834354688800,8.472688720703125,-0.07909658551216125,0.6679053902626038,-1.0817172527313232
1778596834364681500,8.482681396484375,-0.17994917929172516,0.6282972693443298,-1.1221941709518433
1778596834374674400,8.49267431640625,-0.25700029730796814,0.5570142865180969,-1.0628424882888794
1778596834384667600,8.502667724609376,-0.33740901947021484,0.4353421628475189,-0.9530150890350342
1778596834394661600,8.51266162109375,-0.40258482098579407,0.17772579193115234,-0.817270815372467
1778596834404654600,8.522654541015624,-0.41182777285575867,-0.1713496446609497,-0.688951313495636
1778596834414647600,8.5326474609375,-0.3262859880924225,-0.5432400703430176,-0.5883344411849976
1778596834424640800,8.542640869140625,-0.1749715954065323,-0.8586235046386719,-0.5905410051345825
1778596834434633500,8.552633544921875,0.017300374805927277,-1.0355693101882935,-0.7060322165489197
1778596834444626700,8.562626708984375,0.19206088781356812,-1.0329697132110596,-0.8924219608306885
1778596834454620700,8.57262060546875,0.3028976321220398,-0.9325097799301147,-1.0896923542022705
1778596834464613400,8.58261328125,0.33259904384613037,-0.8163274526596069,-1.24448561668396
1778596834474606600,8.592606689453126,0.2865354120731354,-0.7201716303825378,-1.3491408824920654
1778596834484599600,8.602599609375,0.19375582039356232,-0.6026413440704346,-1.4381768703460693
1778596834494592800,8.6125927734375,0.09869694709777832,-0.4076401889324188,-1.4861944913864136
1778596834504585500,8.62258544921875,0.0038970541208982468,-0.1811182051897049,-1.5101680755615234
1778596834514578700,8.63257861328125,-0.07431412488222122,0.11240795999765396,-1.4818135499954224
1778596834524572700,8.64257275390625,-0.09347256273031235,0.4830683171749115,-1.379927158355713
1778596834534565400,8.6525654296875,-0.02382744289934635,0.687119722366333,-1.2273945808410645
1778596834544558600,8.66255859375,0.026816900819540024,0.7964187264442444,-0.9916986227035522
1778596834554551600,8.672551513671875,0.07053321599960327,0.7509498000144958,-0.855057418346405
1778596834564544500,8.68254443359375,0.1333540678024292,0.6325120329856873,-0.7516429424285889
1778596834574537500,8.692537353515625,0.1816033571958542,0.5142719745635986,-0.5907965302467346
1778596834584531500,8.702531494140626,0.2509888708591461,0.3965839445590973,-0.43055459856987
1778596834594524700,8.712524658203124,0.30225712060928345,0.31324538588523865,-0.31060901284217834
1778596834604517400,8.722517333984374,0.32505202293395996,0.2710702121257782,-0.25084447860717773
1778596834614510600,8.732510498046874,0.31963488459587097,0.23141199350357056,-0.24386540055274963
1778596834624503600,8.742503662109375,0.3069697916507721,0.21666254103183746,-0.2331153303384781
1778596834634496500,8.75249658203125,0.2643360495567322,0.22833862900733948,-0.22842790186405182
1778596834644490500,8.762490478515625,0.23623372614383698,0.21685917675495148,-0.21587342023849487
1778596834654483500,8.7724833984375,0.20362572371959686,0.18847280740737915,-0.17906586825847626
1778596834664476700,8.7824765625,0.18144838511943817,0.1808694750070572,-0.11847688257694244
1778596834674469400,8.792469482421875,0.15254031121730804,0.12202265858650208,-0.04794839024543762
1778596834684462600,8.802462646484376,0.12394078820943832,-0.006293809972703457,0.018900027498602867
1778596834694455600,8.81245556640625,0.06642955541610718,-0.11981797963380814,0.05750387907028198
1778596834704449500,8.822449462890624,0.03151021897792816,-0.18820355832576752,0.0453755185008049
1778596834714442500,8.8324423828125,0.022000601515173912,-0.1939527839422226,0.020562846213579178
1778596834724435500,8.842435546875,0.019657108932733536,-0.17767055332660675,-0.01250753365457058
1778596834734428700,8.8524287109375,0.02569582685828209,-0.07454390823841095,-0.07020492106676102
1778596834744421400,8.86242138671875,0.027467407286167145,0.20925769209861755,-0.10026524215936661
1778596834754414600,8.87241455078125,0.0572681799530983,0.46412938833236694,-0.07956342399120331
1778596834764407600,8.882407470703125,0.09086841344833374,0.5761343836784363,0.01531510055065155
1778596834774401800,8.89240185546875,0.09191875904798508,0.558591365814209,0.14539320766925812
1778596834784394500,8.90239453125,0.050647296011447906,0.4722967743873596,0.25177109241485596
1778596834794387500,8.912387451171876,-0.0026223184540867805,0.3982502222061157,0.2958562672138214
1778596834804380700,8.922380615234376,-0.06165659427642822,0.3320763409137726,0.30987200140953064
1778596834814373400,8.932373291015624,-0.10879960656166077,0.21366314589977264,0.3045006990432739
1778596834824366600,8.94236669921875,-0.13844034075737,0.05807874724268913,0.30019494891166687
1778596834834360600,8.952360595703125,-0.14536243677139282,-0.08559692651033401,0.29784923791885376
1778596834844353500,8.962353515625,-0.09921484440565109,-0.1786453127861023,0.36478009819984436
1778596834854346500,8.972346435546875,-0.04624723643064499,-0.2798278331756592,0.547297477722168
1778596834864339700,8.982339599609375,-0.04235270246863365,-0.5074078440666199,0.7651911377906799
1778596834874332700,8.992332763671875,-0.08604106307029724,-0.8220456838607788,0.8768966197967529
1778596834884325600,9.00232568359375,-0.12535947561264038,-1.0389492511749268,0.8322702050209045
1778596834894318600,9.012318603515626,-0.17744052410125732,-1.0255316495895386,0.5617228746414185
1778596834904312600,9.0223125,-0.24530072510242462,-0.9557321667671204,0.15505023300647736
1778596834914305500,9.032305419921874,-0.28765085339546204,-1.035171389579773,-0.2304079830646515
1778596834924298500,9.042298583984374,-0.2871624529361725,-1.2561854124069214,-0.4512925148010254
1778596834934291700,9.052291748046875,-0.2961873710155487,-1.3439069986343384,-0.5150774121284485
1778596834944284400,9.062284423828125,-0.31181201338768005,-0.8094621896743774,-0.4873167872428894
1778596834954277600,9.072277587890625,-0.3164472281932831,0.13679786026477814,-0.4151858687400818
1778596834964271600,9.082271728515625,-0.2509337067604065,0.720906674861908,-0.28785914182662964
1778596834974264600,9.0922646484375,-0.18201830983161926,0.7721241116523743,-0.04340757429599762
1778596834984257500,9.102257568359375,-0.16876284778118134,0.3912159204483032,0.21830667555332184
1778596834994250500,9.11225048828125,-0.1968836933374405,-0.014939854852855206,0.40301552414894104
1778596835004240100,9.122240234375,-0.14075662195682526,-0.17273645102977753,0.5108896493911743
1778596835014233000,9.132233154296875,-0.05123286694288254,-0.14797544479370117,0.5463352799415588
1778596835024226300,9.142226318359375,-0.03059922158718109,-0.08012180775403976,0.5127986669540405
1778596835034220300,9.15222021484375,-0.0456886924803257,-0.007433220744132996,0.46811002492904663
1778596835044213000,9.162212890625,-0.07535497844219208,0.06392005831003189,0.4225287139415741
1778596835054206200,9.172206298828126,-0.11800816655158997,0.12012074142694473,0.41987353563308716
1778596835064199200,9.18219921875,-0.1374027132987976,0.16501541435718536,0.46974673867225647
1778596835074192100,9.192192138671874,-0.09078327566385269,0.20662038028240204,0.5777949094772339
1778596835084185000,9.20218505859375,-0.041219376027584076,0.2670601010322571,0.7191976308822632
1778596835094178300,9.21217822265625,0.01928311586380005,0.2706889510154724,0.8850252628326416
1778596835104172300,9.22217236328125,0.10532043129205704,0.2269495129585266,1.082234501838684
1778596835114165000,9.2321650390625,0.197983518242836,0.32156896591186523,1.223986029624939
1778596835124158200,9.242158203125,0.3046687841415405,0.4641300439834595,1.2607614994049072
1778596835134151200,9.252151123046875,0.36885204911231995,0.55368572473526,1.2490020990371704
1778596835144144100,9.26214404296875,0.37972012162208557,0.611439049243927,1.2078248262405396
1778596835154137000,9.27213720703125,0.3657614290714264,0.6797395348548889,1.1178488731384277
1778596835164130300,9.28213037109375,0.34347495436668396,0.692317008972168,0.9729792475700378
1778596835174124300,9.292124267578124,0.3155975341796875,0.6237406134605408,0.8093735575675964
1778596835184117000,9.302116943359374,0.27461329102516174,0.5077704191207886,0.6886537075042725
1778596835194110200,9.312110107421875,0.22816696763038635,0.4152223467826843,0.589158833026886
1778596835204103200,9.322103271484375,0.21133773028850555,0.39294537901878357,0.4974571466445923
1778596835214096100,9.33209619140625,0.21103332936763763,0.48713284730911255,0.3924809396266937
1778596835224089000,9.342089111328125,0.20910486578941345,0.5276581048965454,0.27527523040771484
1778596835234083000,9.3520830078125,0.22506332397460938,0.584476113319397,0.18372851610183716
1778596835244076300,9.362076171875,0.22448952496051788,0.6052623987197876,0.11795312166213989
1778596835254069000,9.372069091796876,0.2263241857290268,0.5495030283927917,0.0672936737537384
1778596835264062200,9.382062255859376,0.23439966142177582,0.4351925551891327,0.043658141046762466
1778596835274055200,9.39205517578125,0.24002426862716675,0.2938612699508667,0.0569760762155056
1778596835284048100,9.402048095703124,0.24603113532066345,0.17036014795303345,0.08634398132562637
1778596835294041000,9.412041015625,0.25976186990737915,0.12272205948829651,0.08020033687353134
1778596835304035000,9.42203515625,0.25825878977775574,0.1258520931005478,0.02848365157842636
1778596835314028000,9.432028076171875,0.24517519772052765,0.11661306023597717,-0.04046345874667168
1778596835324021000,9.44202099609375,0.21741634607315063,0.11981504410505295,-0.093749038875103
1778596835334014200,9.45201416015625,0.2003132551908493,0.11626558750867844,-0.1366879791021347
1778596835344007200,9.462007080078125,0.16486181318759918,0.12157106399536133,-0.1769179403781891
1778596835354000100,9.472000244140625,0.10539822280406952,0.12361743301153183,-0.21658918261528015
1778596835363993000,9.4819931640625,0.06255248934030533,0.1449354737997055,-0.25348493456840515
1778596835373987000,9.491987060546874,0.0389864444732666,0.19384628534317017,-0.28714489936828613
1778596835383980000,9.50197998046875,0.0027982722967863083,0.2730179727077484,-0.3564254641532898
1778596835393973000,9.511972900390624,-0.011973749846220016,0.3863309621810913,-0.484812468290329
1778596835403966200,9.52196630859375,-0.015707023441791534,0.503142237663269,-0.6404464840888977
1778596835413959000,9.531958984375,-0.06224203482270241,0.5719897150993347,-0.7869307398796082
1778596835423952100,9.5419521484375,-0.1329934298992157,0.585003137588501,-0.9114528298377991
1778596835433945000,9.551945068359375,-0.23228353261947632,0.5821255445480347,-0.9513813257217407
1778596835443939300,9.561939208984375,-0.3444541096687317,0.5464435815811157,-0.918354868888855
1778596835453932000,9.57193212890625,-0.4414547085762024,0.4900144040584564,-0.8475731015205383
1778596835463925200,9.58192529296875,-0.5210682153701782,0.3757988214492798,-0.780792236328125
1778596835473918200,9.591918212890626,-0.5517467856407166,0.08744854480028152,-0.6953703165054321
1778596835483911000,9.601910888671876,-0.5180663466453552,-0.3451634347438812,-0.6162338256835938
1778596835493904100,9.611904052734374,-0.3802165687084198,-0.6941805481910706,-0.5295894742012024
1778596835503897000,9.62189697265625,-0.2513819634914398,-0.9018476605415344,-0.5138015747070312
1778596835513891300,9.631891357421875,-0.10239328444004059,-1.0070891380310059,-0.5855039954185486
1778596835523884000,9.641884033203125,0.07006887346506119,-1.0614794492721558,-0.707400918006897
1778596835533877200,9.651877197265625,0.17985741794109344,-1.0047214031219482,-0.8625468611717224
1778596835543870200,9.6618701171875,0.18940724432468414,-0.8667610883712769,-1.0291595458984375
1778596835553863200,9.67186328125,0.1541920006275177,-0.7134879231452942,-1.1696332693099976
1778596835563856100,9.681856201171875,0.11585851013660431,-0.5927527546882629,-1.2561023235321045
1778596835573849000,9.69184912109375,0.061640284955501556,-0.4760344326496124,-1.2756261825561523
1778596835583843300,9.70184326171875,-0.01761391945183277,-0.3297478258609772,-1.244234561920166
1778596835593836000,9.7118359375,-0.0782887190580368,-0.15463858842849731,-1.1516790390014648
1778596835603829200,9.721829345703124,-0.08354771137237549,0.04373897612094879,-1.0348048210144043
1778596835613822200,9.731822265625,-0.038757339119911194,0.25227034091949463,-0.9100643992424011
1778596835623815200,9.741815185546875,0.05377240478992462,0.45994582772254944,-0.7839690446853638
1778596835633808100,9.75180810546875,0.08722250908613205,0.502231776714325,-0.6202616095542908
1778596835643801000,9.761801025390625,0.15124791860580444,0.3911001980304718,-0.49516651034355164
1778596835653794000,9.7717939453125,0.20416411757469177,0.26563575863838196,-0.3586597740650177
1778596835663788000,9.7817880859375,0.22730974853038788,0.21731995046138763,-0.21519076824188232
1778596835673781200,9.79178125,0.23585210740566254,0.182735875248909,-0.15498708188533783
1778596835683774200,9.801774169921876,0.259838342666626,0.18616223335266113,-0.16668036580085754
1778596835693767200,9.81176708984375,0.26499611139297485,0.20378756523132324,-0.17360511422157288
1778596835703760100,9.821760009765624,0.2465171366930008,0.1816370189189911,-0.15140551328659058
1778596835713753300,9.83175341796875,0.23063136637210846,0.05455444008111954,-0.11421873420476913
1778596835723746000,9.84174609375,0.22330357134342194,-0.1766304075717926,-0.051792044192552567
1778596835733740000,9.851739990234375,0.15733814239501953,-0.5752518177032471,0.006310672033578157
1778596835743733200,9.861733154296875,0.031966909766197205,-1.077489972114563,0.04877523332834244
1778596835753726200,9.871726318359375,-0.10252778977155685,-1.2131112813949585,-0.09999240189790726
1778596835763719200,9.88171923828125,-0.1923743188381195,-0.9893369078636169,-0.3595408499240875
1778596835773712100,9.891712158203125,-0.18234218657016754,-0.5474633574485779,-0.6464831233024597
1778596835783705300,9.901705322265625,-0.09214115887880325,-0.02919888123869896,-0.8877184391021729
1778596835793698000,9.911697998046876,-0.00657193036749959,0.372236967086792,-0.9838814735412598
1778596835803692000,9.921692138671874,0.06228256970643997,0.5487924218177795,-0.9318739175796509
1778596835813685200,9.931685302734374,0.07497173547744751,0.5579323768615723,-0.7564155459403992
1778596835823678200,9.94167822265625,0.04551580920815468,0.43454188108444214,-0.5166188478469849
1778596835833671200,9.951671142578125,0.012364516034722328,0.2517680823802948,-0.2652510404586792
1778596835843664100,9.9616640625,-0.05677483230829239,0.12734286487102509,-0.06526907533407211
1778596835853657300,9.9716572265625,-0.11784777045249939,0.04974474012851715,0.0670066699385643
1778596835863650000,9.981650146484375,-0.17709633708000183,0.01110529899597168,0.14112956821918488
1778596835873643300,9.991643310546875,-0.23854611814022064,0.021356604993343353,0.15392020344734192
1778596835883637200,10.00163720703125,-0.2935708165168762,0.048279330134391785,0.14234039187431335
1778596835893630000,10.0116298828125,-0.3171301782131195,0.02322963811457157,0.16318361461162567
1778596835903623200,10.021623046875,-0.3199235498905182,-0.06665830314159393,0.19617842137813568
1778596835913616100,10.0316162109375,-0.3020414710044861,-0.18130525946617126,0.28218600153923035
1778596835923609300,10.041609375,-0.2749614715576172,-0.2992989718914032,0.49430012702941895
1778596835933602000,10.05160205078125,-0.25398242473602295,-0.5655817985534668,0.8031796813011169
1778596835943595300,10.06159521484375,-0.30379733443260193,-1.0094925165176392,1.1191705465316772
1778596835953589200,10.07158935546875,-0.399501770734787,-1.497025728225708,1.275481939315796
1778596835963582000,10.08158203125,-0.49659842252731323,-1.5387846231460571,1.0860718488693237
1778596835973575200,10.0915751953125,-0.5147830247879028,-1.1851091384887695,0.6472822427749634
1778596835983568100,10.101568115234375,-0.49116194248199463,-0.9498765468597412,0.17085757851600647
1778596835993561000,10.11156103515625,-0.49912506341934204,-1.0410405397415161,-0.15768727660179138
1778596836003557400,10.121557373046874,-0.4869178831577301,-1.0570266246795654,-0.24792218208312988
1778596836013550600,10.131550537109375,-0.4646115005016327,-0.44732996821403503,-0.19855383038520813
1778596836023543300,10.141543212890625,-0.3902706503868103,0.27310508489608765,-0.10625818371772766
1778596836033537300,10.151537353515625,-0.28674161434173584,0.5164929628372192,0.04850982502102852
1778596836043530500,10.161530517578125,-0.2480888068675995,0.30067428946495056,0.3130567669868469
1778596836053523500,10.1715234375,-0.26444727182388306,-0.025135762989521027,0.5407412648200989
1778596836063516400,10.181516357421875,-0.23423685133457184,-0.12565414607524872,0.6768028736114502
1778596836073509400,10.19150927734375,-0.1658570021390915,-0.07782430201768875,0.704994797706604
1778596836083502600,10.201502685546876,-0.14627449214458466,0.024430926889181137,0.6336596012115479
1778596836093495300,10.211495361328126,-0.19524896144866943,0.12916426360607147,0.5523548722267151
1778596836103488500,10.221488525390624,-0.2516639232635498,0.20639672875404358,0.5174964070320129
1778596836113482500,10.231482421875,-0.26537251472473145,0.2588519752025604,0.5581842064857483
1778596836123475200,10.24147509765625,-0.29290229082107544,0.28122657537460327,0.6449596881866455
1778596836133468400,10.251468505859375,-0.3076026737689972,0.2878780961036682,0.7780341506004333
1778596836143461400,10.26146142578125,-0.27858611941337585,0.3389151394367218,0.9531838893890381
1778596836153454600,10.27145458984375,-0.21743915975093842,0.4485558867454529,1.1569467782974243
1778596836163447300,10.281447265625,-0.09949727356433868,0.5044040679931641,1.376015067100525
1778596836173440500,10.2914404296875,0.0023755673319101334,0.4832113981246948,1.59589684009552
1778596836183433500,10.30143359375,0.077472023665905,0.47701364755630493,1.7544350624084473
1778596836193427200,10.31142724609375,0.1507672667503357,0.5394216179847717,1.793015480041504
1778596836203420400,10.32142041015625,0.20724351704120636,0.6132539510726929,1.7122223377227783
1778596836213413400,10.331413330078124,0.2175331711769104,0.6240504384040833,1.573662281036377
1778596836223406300,10.34140625,0.1852511614561081,0.6096872091293335,1.3849058151245117
1778596836233399300,10.3513994140625,0.18776623904705048,0.6426366567611694,1.1381765604019165
1778596836243392500,10.361392578125,0.20765283703804016,0.6463751792907715,0.8875662088394165
1778596836253385500,10.371385498046875,0.21323588490486145,0.5703906416893005,0.7007926106452942
1778596836263378400,10.38137841796875,0.21405170857906342,0.45282086730003357,0.5972694158554077
1778596836273372400,10.391372314453125,0.21777240931987762,0.3197333812713623,0.5668590068817139
1778596836283365400,10.401365478515626,0.23659838736057281,0.1713266670703888,0.5667533874511719
1778596836293358300,10.4113583984375,0.25707143545150757,0.11022469401359558,0.5737361907958984
1778596836303351300,10.421351318359376,0.27599602937698364,0.09433567523956299,0.5788635015487671
1778596836313344500,10.431344482421874,0.29714444279670715,0.09938183426856995,0.6020441651344299
1778596836323337200,10.441337158203124,0.3036673367023468,0.07451865822076797,0.6351760625839233
1778596836333330400,10.451330322265624,0.3035150170326233,0.05901560187339783,0.6430361270904541
1778596836343323400,10.461323486328125,0.29711779952049255,0.09490489214658737,0.6070398688316345
1778596836353317400,10.4713173828125,0.2697250545024872,0.1546345353126526,0.5331496596336365
1778596836363310300,10.481310302734375,0.2314649522304535,0.2276410311460495,0.4477473199367523
1778596836373303300,10.49130322265625,0.18872042000293732,0.31307363510131836,0.352284699678421
1778596836383296500,10.501296630859375,0.14042624831199646,0.39703598618507385,0.2685641348361969
1778596836393289200,10.511289306640625,0.12486033886671066,0.3953925371170044,0.2161933332681656
1778596836403282400,10.521282470703126,0.11546307057142258,0.33290722966194153,0.1769315004348755
1778596836413275400,10.531275390625,0.08756592869758606,0.3094564974308014,0.08671293407678604
1778596836423268400,10.541268310546876,0.05312824621796608,0.3544807434082031,0.008753431029617786
1778596836433262300,10.551262451171874,0.03085622936487198,0.4398028254508972,-0.054646581411361694
1778596836443255600,10.561255615234375,0.010497942566871643,0.4925425946712494,-0.1602640300989151
1778596836453248500,10.57124853515625,-0.0011014556512236595,0.5784633755683899,-0.3270402252674103
1778596836463241200,10.5812412109375,-0.03850895166397095,0.5920968651771545,-0.5447909235954285
1778596836473234400,10.591234375,-0.08241569250822067,0.5582286715507507,-0.7504607439041138
1778596836483227400,10.601227294921875,-0.16329050064086914,0.48265793919563293,-0.9109882712364197
1778596836493220400,10.611220458984375,-0.2594654858112335,0.3321954607963562,-0.9577184915542603
1778596836503213300,10.62121337890625,-0.41096460819244385,0.14869219064712524,-0.8440865874290466
1778596836513206500,10.63120654296875,-0.5253926515579224,-0.03979702666401863,-0.6704319715499878
1778596836523200500,10.641200439453126,-0.5718055367469788,-0.22278545796871185,-0.5207020044326782
1778596836533193500,10.651193359375,-0.6210079789161682,-0.45110705494880676,-0.41597744822502136
1778596836543186400,10.6611865234375,-0.5420570373535156,-0.7544493675231934,-0.38171109557151794
1778596836553179400,10.671179443359375,-0.4070627987384796,-0.997528076171875,-0.3691393733024597
1778596836563172400,10.68117236328125,-0.24969038367271423,-1.113431453704834,-0.378874808549881
1778596836573165300,10.691165283203125,-0.1128116250038147,-1.1202694177627563,-0.451877623796463
1778596836583158500,10.701158447265625,-0.0017937570810317993,-1.0499677658081055,-0.5533261895179749
1778596836593151200,10.711151123046875,0.006564040668308735,-0.9592146873474121,-0.6516706347465515
1778596836603145500,10.7211455078125,-0.039824943989515305,-0.8731823563575745,-0.7236047387123108
1778596836613138400,10.731138427734376,-0.06090199947357178,-0.7996764779090881,-0.7467713356018066
1778596836623131400,10.74113134765625,-0.10471530258655548,-0.6843177676200867,-0.6984226107597351
1778596836633124400,10.751124267578126,-0.1875971406698227,-0.49246522784233093,-0.6168054938316345
1778596836643117300,10.761117431640624,-0.28500571846961975,-0.2695213258266449,-0.5042800307273865
1778596836653110500,10.771110595703124,-0.3648267984390259,-0.09656605869531631,-0.34936606884002686
1778596836663103200,10.781103271484374,-0.3683076500892639,0.0025183428078889847,-0.17347751557826996
1778596836673096400,10.791096435546875,-0.2815362811088562,0.06068497523665428,-0.03063700720667839
1778596836683089400,10.80108935546875,-0.16588348150253296,0.11097171157598495,0.031061429530382156
1778596836693083600,10.811083740234375,-0.07804524898529053,0.161503866314888,0.03558187931776047
1778596836703076400,10.821076416015625,-0.013209075666964054,0.1870468407869339,0.022067850455641747
1778596836713069300,10.8310693359375,0.04033803939819336,0.17851939797401428,-0.007638644892722368
1778596836723062500,10.8410625,0.07406065613031387,0.18762853741645813,-0.06521870195865631
1778596836733055200,10.85105517578125,0.07221002131700516,0.23677638173103333,-0.14626775681972504
1778596836743048400,10.86104833984375,0.05109028518199921,0.32059445977211,-0.25582703948020935
1778596836753041400,10.87104150390625,0.025445107370615005,0.42190855741500854,-0.3581925630569458
1778596836763034400,10.881034423828124,-0.008690616115927696,0.46914419531822205,-0.3888377547264099
1778596836773027300,10.89102734375,-0.03633875399827957,0.4896406829357147,-0.37779200077056885
1778596836783021600,10.901021484375,-0.05595596134662628,0.495198130607605,-0.3366408348083496
1778596836793014500,10.9110146484375,-0.0852281004190445,0.4435037672519684,-0.270036518573761
1778596836803007500,10.921007568359375,-0.12834301590919495,0.2963113486766815,-0.2014206051826477
1778596836813000400,10.93100048828125,-0.177686870098114,0.20182451605796814,-0.15845875442028046
1778596836822993400,10.940993408203125,-0.2216023951768875,0.12581022083759308,-0.15101265907287598
1778596836832986400,10.950986328125,-0.2570141851902008,0.018184959888458252,-0.19719372689723969
1778596836842979300,10.960979248046876,-0.2846542298793793,0.012385815382003784,-0.2994457483291626
1778596836852972500,10.97097265625,-0.27809885144233704,0.13922977447509766,-0.422212153673172
1778596836862965200,10.98096533203125,-0.24631614983081818,0.2547236680984497,-0.5443474650382996
1778596836872959500,10.99095947265625,-0.20465339720249176,0.32123610377311707,-0.6005984544754028
1778596836882952400,11.000952392578125,-0.17887239158153534,0.3222237527370453,-0.6233182549476624
1778596836892945400,11.0109453125,-0.141484797000885,0.27652791142463684,-0.6439955830574036
1778596836902938400,11.0209384765625,-0.1133737713098526,0.21000635623931885,-0.6682596206665039
1778596836912931300,11.030931396484375,-0.10213389992713928,0.17279161512851715,-0.7179574370384216
1778596836922924500,11.040924560546875,-0.08260119706392288,0.19434013962745667,-0.7961491346359253
1778596836932917200,11.050917236328125,-0.09440433233976364,0.2754693329334259,-0.8673405051231384
1778596836942910500,11.060910400390625,-0.08337975293397903,0.31929811835289,-0.8153670430183411
1778596836952903400,11.0709033203125,-0.0890355110168457,0.24903488159179688,-0.6734610199928284
1778596836962897700,11.080897705078126,-0.10908880829811096,0.15752795338630676,-0.44666069746017456
1778596836972890400,11.090890380859374,-0.16627272963523865,0.003394050756469369,-0.13301970064640045
1778596836982883300,11.10088330078125,-0.264236181974411,-0.28114181756973267,0.2360915094614029
1778596836992876500,11.11087646484375,-0.37393736839294434,-0.8303325176239014,0.6417231559753418
1778596837002869200,11.120869140625,-0.41811585426330566,-1.4287772178649902,0.9564598202705383
1778596837012859000,11.13085888671875,-0.5594100952148438,-1.475045084953308,0.9048991799354553
1778596837022851600,11.1408515625,-0.606968879699707,-1.2432790994644165,0.5410614013671875
1778596837032844800,11.1508447265625,-0.5304392576217651,-1.0960720777511597,0.06889572739601135
1778596837042837800,11.160837646484374,-0.4400885999202728,-1.120302677154541,-0.2714846134185791
1778596837052831700,11.170831787109375,-0.3971046507358551,-1.2802622318267822,-0.3652563989162445
1778596837062824700,11.18082470703125,-0.416907399892807,-1.3320976495742798,-0.2753147780895233
1778596837072818000,11.19081787109375,-0.46719080209732056,-0.7678185701370239,-0.11615922302007675
1778596837082811000,11.200810791015625,-0.436736524105072,-0.05287354439496994,-0.033006951212882996
1778596837092803800,11.210803955078125,-0.33249717950820923,0.3060329556465149,-0.03558169677853584
1778596837102796800,11.220796875,-0.22707055509090424,0.45003920793533325,-0.05534310266375542
1778596837112789800,11.230789794921876,-0.1566067785024643,0.5793015956878662,-0.04296392947435379
1778596837122782700,11.24078271484375,-0.14656567573547363,0.728468120098114,0.037269506603479385
1778596837132775700,11.250775634765626,-0.17371873557567596,0.8239363431930542,0.11484259366989136
1778596837142769000,11.260768798828124,-0.20868134498596191,0.8006154298782349,0.2560165524482727
1778596837152762600,11.2707626953125,-0.24880611896514893,0.6682363748550415,0.468667596578598
1778596837162755800,11.280755859375,-0.30018681287765503,0.473320335149765,0.7124804258346558
1778596837172748800,11.290748779296875,-0.33206164836883545,0.32312655448913574,0.9444630742073059
1778596837182741800,11.30074169921875,-0.3397271931171417,0.22310589253902435,1.1340405941009521
1778596837192734700,11.310734619140625,-0.3145001232624054,0.19291123747825623,1.3185648918151855
1778596837202727700,11.320727783203125,-0.2590414881706238,0.2595565915107727,1.488939881324768
1778596837212721000,11.330720947265625,-0.17847101390361786,0.3808712959289551,1.622774362564087
1778596837222713600,11.340713623046875,-0.09932961314916611,0.5746479034423828,1.7073920965194702
1778596837232706800,11.350706787109376,-0.01847550831735134,0.734235942363739,1.7465730905532837
1778596837242699800,11.36069970703125,0.02218755893409252,1.0133436918258667,1.6636717319488525
1778596837252693800,11.37069384765625,0.07744202762842178,1.2941774129867554,1.488275408744812
1778596837262686700,11.380686767578124,0.09336405992507935,1.794181227684021,1.1778810024261475
1778596837272679700,11.3906796875,0.13758184015750885,2.146301746368408,0.7468844652175903
1778596837282673000,11.4006728515625,0.08945578336715698,2.4436960220336914,0.280131459236145
1778596837292665600,11.41066552734375,0.08770954608917236,2.1050872802734375,-0.05997844412922859
1778596837302658800,11.420658935546875,0.09620188176631927,1.4575554132461548,-0.24397552013397217
1778596837312651800,11.43065185546875,0.10524384677410126,0.8996073007583618,-0.30825918912887573
1778596837322644700,11.440644775390625,0.11489035189151764,0.5441504120826721,-0.31861966848373413
1778596837332637700,11.4506376953125,0.13900473713874817,0.376765638589859,-0.29063332080841064
1778596837342631000,11.460630859375,0.16312207281589508,0.30036410689353943,-0.2339925318956375
1778596837352624600,11.470624755859374,0.20863977074623108,0.28321680426597595,-0.2019304633140564
1778596837362617900,11.480617919921874,0.221682608127594,0.27949926257133484,-0.13965235650539398
1778596837372610800,11.49061083984375,0.22547520697116852,0.26595842838287354,-0.037905484437942505
1778596837382603500,11.500603515625,0.23760740458965302,0.2967352867126465,0.05153309553861618
1778596837392596700,11.5105966796875,0.25022092461586,0.3767869770526886,0.1122337207198143
1778596837402589700,11.520589599609375,0.2560751438140869,0.4707634449005127,0.1564655900001526
1778596837412583000,11.5305830078125,0.27518653869628906,0.6253525018692017,0.1678958684206009
1778596837422575600,11.54057568359375,0.3237899839878082,0.7074590921401978,0.1653144508600235
1778596837432568800,11.55056884765625,0.28865543007850647,0.6755695939064026,0.1660577356815338
1778596837442561800,11.560561767578125,0.2634321451187134,0.5560410618782043,0.18750499188899994
1778596837452555800,11.5705556640625,0.25708234310150146,0.44537976384162903,0.20170417428016663
1778596837462548700,11.580548828125,0.2729235589504242,0.37942129373550415,0.17490293085575104
1778596837472541700,11.590541748046874,0.2692832946777344,0.3036993741989136,0.1535976380109787
1778596837482534700,11.60053466796875,0.26421621441841125,0.2452438473701477,0.11897937208414078
1778596837492527600,11.610527587890624,0.23598989844322205,0.17554093897342682,0.06772550940513611
1778596837502520800,11.620520751953125,0.19347986578941345,0.142653226852417,-0.016712309792637825
1778596837512513800,11.630513671875,0.16011285781860352,0.14568018913269043,-0.16154512763023376
1778596837522506800,11.6405068359375,0.1152573972940445,0.054457347840070724,-0.34372755885124207
1778596837532499700,11.650499755859375,0.046171534806489944,-0.07516109198331833,-0.523159384727478
1778596837542493000,11.660492919921875,-0.04538669437170029,-0.23219749331474304,-0.6624919176101685
1778596837552485600,11.670485595703125,-0.12179038673639297,-0.39517709612846375,-0.7541416883468628
1778596837562479600,11.680479736328126,-0.17815016210079193,-0.5643887519836426,-0.8111547827720642
1778596837572472800,11.690472900390626,-0.20649097859859467,-0.7296847701072693,-0.8346100449562073
1778596837582465500,11.700465576171876,-0.22844281792640686,-0.9056397080421448,-0.8313708901405334
1778596837592458800,11.710458740234374,-0.3122226595878601,-1.1386395692825317,-0.8165975213050842
1778596837602451700,11.72045166015625,-0.3202396333217621,-1.3633790016174316,-0.7871614694595337
1778596837612445000,11.73044482421875,-0.27890098094940186,-1.5771877765655518,-0.7640377879142761
1778596837622437600,11.740437744140625,-0.1642961949110031,-1.621091365814209,-0.8161250948905945
1778596837632430800,11.750430908203125,-0.03328624367713928,-1.4552831649780273,-0.9169840812683105
1778596837642423800,11.760423828125,0.09869027137756348,-1.2211999893188477,-1.0327844619750977
1778596837652416800,11.770416748046875,0.1571597009897232,-0.9814857244491577,-1.1378107070922852
1778596837662410800,11.78041064453125,0.17143680155277252,-0.7885910272598267,-1.205531120300293
1778596837672403700,11.79040380859375,0.19005362689495087,-0.6177819967269897,-1.2274482250213623
1778596837682396700,11.800396728515626,0.20381055772304535,-0.47015079855918884,-1.2331823110580444
1778596837692389600,11.8103896484375,0.15197771787643433,-0.32792067527770996,-1.2012898921966553
1778596837702382800,11.8203828125,0.07807115465402603,-0.19421358406543732,-1.1146185398101807
1778596837712375800,11.830375732421874,0.016360916197299957,-0.03939177840948105,-0.9591370224952698
1778596837722368800,11.84036865234375,-0.025431979447603226,0.09290431439876556,-0.74800705909729
1778596837732361700,11.85036181640625,-0.00537438178434968,0.17737099528312683,-0.5389654040336609
1778596837742355000,11.86035498046875,0.06393176317214966,0.29309284687042236,-0.3461510241031647
1778596837752347600,11.87034765625,0.133470356464386,0.3845923840999603,-0.17788107693195343
1778596837762340900,11.8803408203125,0.21714405715465546,0.3879415988922119,-0.07588984072208405
1778596837772333800,11.890333740234375,0.3036339282989502,0.35809528827667236,-0.032498691231012344
1778596837782327600,11.90032763671875,0.3678334355354309,0.308476060628891,-0.030215829610824585
1778596837792320800,11.91032080078125,0.40939605236053467,0.22817832231521606,-0.02855215221643448
1778596837802313700,11.920313720703126,0.4279925525188446,0.14397385716438293,-0.02433735691010952
1778596837812307000,11.930306884765624,0.4206851124763489,0.08336323499679565,-0.03011881373822689
1778596837822299600,11.940299560546874,0.39493489265441895,0.07002594321966171,-0.03274025395512581
1778596837832292900,11.95029296875,0.3654569089412689,0.10216789692640305,-0.026211513206362724
1778596837842285800,11.960285888671875,0.3494088053703308,0.12131200730800629,-0.008949311450123787
1778596837852278800,11.97027880859375,0.3170021176338196,0.09242843091487885,0.0024644643999636173
1778596837862271700,11.980271728515625,0.2836027443408966,0.0009644801029935479,0.04252595454454422
1778596837872265000,11.990264892578125,0.25099125504493713,-0.13179568946361542,0.11849422752857208
1778596837882257700,12.000257568359375,0.21596363186836243,-0.310587078332901,0.18616032600402832
1778596837892251600,12.010251708984375,0.18822254240512848,-0.5168595910072327,0.23408497869968414
1778596837902244900,12.020244873046876,0.13860797882080078,-0.57932049036026,0.2387990653514862
1778596837912237800,12.03023779296875,0.08817249536514282,-0.5213115215301514,0.232574462890625
1778596837922230800,12.040230712890626,0.06571274995803833,-0.35656195878982544,0.21654875576496124
1778596837932223700,12.0502236328125,0.08530189841985703,-0.11589528620243073,0.21905772387981415
1778596837942217000,12.060217041015624,0.09214388579130173,0.04815500229597092,0.2683427631855011
1778596837952209700,12.070209716796874,0.05527135729789734,-0.053005438297986984,0.3738958239555359
1778596837962203000,12.080202880859375,0.03442058339715004,-0.24560602009296417,0.4912004768848419
1778596837972195800,12.09019580078125,0.009016421623528004,-0.398433119058609,0.5749659538269043
1778596837982188800,12.100188720703125,-0.03454160690307617,-0.4522753059864044,0.5894918441772461
1778596837992181800,12.110181640625,-0.08995799720287323,-0.40784475207328796,0.5372017621994019
1778596838002175000,12.120175048828125,-0.11813362687826157,-0.3138599991798401,0.466327428817749
1778596838012168200,12.130168212890625,-0.12883047759532928,-0.2510746419429779,0.4070335030555725
1778596838022162200,12.140162109375,-0.11146555840969086,-0.3297628164291382,0.41663435101509094
1778596838032155400,12.1501552734375,-0.0747445598244667,-0.5035015344619751,0.5478152632713318
1778596838042148000,12.160148193359374,-0.07272075116634369,-0.7391005158424377,0.8411696553230286
1778596838052141300,12.170141357421874,-0.11272382736206055,-1.1860226392745972,1.1994664669036865
1778596838062134300,12.18013427734375,-0.1717083901166916,-1.699346661567688,1.4149705171585083
1778596838072127000,12.190126953125,-0.2696775496006012,-1.9467105865478516,1.3569170236587524
1778596838082120200,12.2001201171875,-0.37835484743118286,-2.06766414642334,1.0871931314468384
1778596838092113200,12.210113037109375,-0.5105480551719666,-2.1982929706573486,0.6722537279129028
1778596838102106000,12.220106201171875,-0.590015172958374,-2.2518844604492188,0.19657130539417267
1778596838112099000,12.23009912109375,-0.5607782006263733,-1.912688970565796,-0.21927304565906525
1778596838122092300,12.24009228515625,-0.46412593126296997,-0.9103487730026245,-0.5932953953742981
1778596838132085000,12.2500849609375,-0.34653058648109436,0.04191213101148605,-0.8897358775138855
1778596838142079200,12.260079345703126,-0.12966220080852509,0.43409401178359985,-0.9890872240066528
1778596838152072200,12.270072265625,0.019483080133795738,0.3450717329978943,-0.8218721151351929
1778596838162065200,12.280065185546874,0.060445696115493774,0.10474768280982971,-0.56610506772995
1778596838172058000,12.29005810546875,0.09766630083322525,-0.11286187171936035,-0.3790239095687866
1778596838182051000,12.300051025390625,0.15496136248111725,-0.2843710780143738,-0.23367524147033691
1778596838192044300,12.310044189453125,0.13569632172584534,-0.27881890535354614,-0.12724921107292175
1778596838202037000,12.320037109375,0.052405670285224915,-0.19818852841854095,-0.034405551850795746
1778596838212030200,12.3300302734375,-0.04721493273973465,-0.15901076793670654,0.10525619983673096
1778596838222023200,12.340023193359375,-0.1666911095380783,-0.2818096876144409,0.353172242641449
1778596838232016100,12.35001611328125,-0.2581595182418823,-0.5527461171150208,0.6694839000701904
1778596838242009000,12.360009033203125,-0.31217634677886963,-0.7968844175338745,1.0106232166290283
1778596838252002300,12.370002197265626,-0.331193208694458,-0.8495649695396423,1.3452672958374023
1778596838261995000,12.3799951171875,-0.3183407187461853,-0.8218094110488892,1.6427428722381592
1778596838271989000,12.389989013671874,-0.2902500033378601,-0.7153996229171753,1.8110727071762085
1778596838281982200,12.399982177734374,-0.20167748630046844,-0.41464295983314514,1.8090516328811646
1778596838291975200,12.40997509765625,-0.10684791207313538,-0.21640121936798096,1.6665301322937012
1778596838301968100,12.419968017578125,-0.08862433582544327,-0.3267576992511749,1.55897057056427
1778596838311961000,12.429961181640625,-0.10398012399673462,-0.4047220051288605,1.453092098236084
1778596838321954300,12.439954345703125,-0.11088363081216812,-0.4430491328239441,1.3130974769592285
