time,seconds_elapsed,z,y,x
1780097875367910000,0.057909912109375,-2.597140061470866,0.24842414120435713,-1.9429051686108112
1780097875377903000,0.067903076171875,-2.749565250122547,0.8030677561081946,-3.3281913597688075
1780097875387897000,0.07789697265625,-2.209485728752613,1.3045014666110277,-3.6945030447289344
1780097875397890000,0.08789013671875,-0.4978267720520496,2.124878669438511,-3.111460287684202
1780097875407883000,0.097883056640625,0.5014297649800777,1.9753461334884166,-2.6338497897088526
1780097875417877000,0.107876953125,1.3589058414936064,1.4046972863316536,-1.7326786561146377
1780097875427870000,0.117869873046875,2.4727345141232013,0.6364169120967388,0.27080610541496425
1780097875437863200,0.12786328125,3.8737025507986544,-0.6385805198714136,2.4755980868607756
1780097875447857000,0.13785693359375,4.069161410012841,-1.817390490977466,3.630031449340284
1780097875457849900,0.147849853515625,1.7011702959120272,-2.3094385334976018,4.535065980364382
1780097875467843000,0.157843017578125,0.035789106261730194,-2.279376718841493,3.209488407976925
1780097875477837000,0.167837158203125,-0.6207043791800737,-2.077545694246888,1.7521220461226998
1780097875487830000,0.177830078125,-0.26973464025855065,-1.8027078856304286,1.025161597334966
1780097875497823000,0.187822998046875,0.7213479426681995,-0.8062419291649013,1.197830678722635
1780097875507817000,0.19781689453125,2.0861668075978756,0.824474920469895,0.9852340760942548
1780097875517810200,0.20781005859375,2.198569782462716,2.1708397717550394,1.2037001552779227
1780097875527803000,0.217802978515625,1.761481264489889,2.982944674669206,-0.24476043106503784
1780097875537796900,0.227796875,1.1653408332020043,2.4120208099633453,-1.2815104671239852
1780097875547790000,0.2377900390625,1.3453764978349207,1.2930267173945904,-2.4325943730451165
1780097875557782800,0.24778271484375,1.5137755006879567,-0.11701481604184955,-3.466597959940135
1780097875567777000,0.257777099609375,0.6621838060379028,-1.9663484419099986,-2.2685303306564686
1780097875577770000,0.26777001953125,-0.5744967547565698,-3.9305101874306794,-1.0800839316770434
1780097875587763000,0.277762939453125,-1.3921119455248117,-4.749831013073027,1.0505348888486623
1780097875597756000,0.287755859375,-1.9334288997352123,-3.646495092885196,3.6782758402884004
1780097875607750000,0.29775,-4.964132812184095,-2.371604190031439,5.485079763060808
1780097875617743000,0.3077431640625,-5.121570276039838,-0.8722962637003511,7.201324293985962
1780097875627736000,0.317736083984375,-1.460566473069787,0.44551359729506074,1.834580110709369
1780097875637730000,0.32772998046875,-0.7349252171218394,1.4831860088959334,-0.8741083546236157
1780097875647723000,0.337722900390625,-2.7312738066285847,0.8764782255601138,0.0727516402170062
1780097875657716000,0.347716064453125,-3.2266526010066268,-0.267243955953978,-0.44598640243858095
1780097875667710000,0.3577099609375,-3.577189209207892,-0.6683264004461467,-0.3936091494694352
1780097875677703000,0.367702880859375,-3.2735932158797976,-0.8357447216987609,0.17831892384290693
1780097875687696000,0.37769580078125,-0.5728782136440277,-0.3707284054238349,0.7066834574997425
1780097875697690000,0.387690185546875,2.168466320621967,0.26800931430328634,2.0711250135496257
1780097875707683000,0.39768310546875,2.7463737606048584,0.2810107798966579,3.133287796349823
1780097875717676000,0.407676025390625,2.05137606472373,-0.5093581468265503,2.458318450757861
1780097875727670000,0.417669921875,1.0797849487304687,-1.4822710860081016,1.062999233624339
1780097875737663000,0.4276630859375,0.12093524088859557,-2.030693780570477,0.22276070763766764
1780097875747656200,0.43765625,-0.32360768474340434,-1.9392460615813731,-0.16089140370190141
1780097875757650000,0.44764990234375,-0.5956085163682698,-1.450726631578803,0.039568624800443646
1780097875767643000,0.457642822265625,-0.5552583858013153,-1.219975948100537,0.5433928837016224
1780097875777636000,0.467635986328125,-0.3591863631248474,-1.186152662019059,0.9548390108957886
1780097875787628800,0.47762890625,-0.14635609787106513,-1.3282650579057633,1.1670859233036637
1780097875797622000,0.4876220703125,0.0016319851160049438,-1.1764724680691956,1.2329149246506392
1780097875807615000,0.497614990234375,0.22110417260229587,-0.8128156815320253,1.4564809573218225
1780097875817609000,0.50760888671875,0.3489776883214712,-0.9147827487088739,1.3193934769250453
1780097875827602000,0.517601806640625,0.45894729855954647,-1.3507538069590925,1.098095096924901
1780097875837595000,0.527594970703125,0.8239630984902382,-1.5727905842363834,0.9174716955319047
1780097875847587800,0.537587890625,1.0098930818587541,-1.6909050686158238,0.761023973365873
1780097875857581800,0.547581787109375,0.6784849524974823,-1.6697067977644502,0.741721307002753
1780097875867575000,0.557574951171875,0.19791677376031874,-1.5079288204863666,0.6550757275983691
1780097875877568000,0.567568115234375,-0.1070090068668127,-1.2536243890717624,0.9886664616957306
1780097875887562000,0.57756201171875,-0.23145137909352778,-0.6003826719675213,1.4173153603643178
1780097875897555000,0.587554931640625,-0.152270290350914,-0.4823073140220716,1.1260296902939677
1780097875907548000,0.5975478515625,-0.19044892209768294,-1.379487149490416,1.387109607192874
1780097875917542000,0.6075419921875,0.6252782629668713,-0.7696950633384287,1.9800800301425159
1780097875927534800,0.617534912109375,1.0481307503163815,-0.5045852698689326,1.6195410833649337
1780097875937527800,0.62752783203125,0.7476888371050358,-0.8858565139539539,1.367668701402843
1780097875947522000,0.63752197265625,-0.321170812985301,-1.0209931525439024,1.074363946595043
1780097875957515000,0.647514892578125,-1.3197048809617757,-1.331639502774924,1.309055184392631
1780097875967507700,0.6575078125,-1.3833692516207694,-2.2320837833993137,1.9367286719329655
1780097875977502000,0.667501953125,-0.19794775342047213,-1.9781684974327682,0.48025692083090543
1780097875987495000,0.677494873046875,0.45671968563795085,-1.5185595200940967,0.2037619926571846
1780097875997488000,0.687488037109375,0.06840425866246223,-1.5817539351537824,1.4127429378822445
1780097876007480800,0.697480712890625,0.3471411205440759,-2.115940891353786,1.6807691667877136
1780097876017474800,0.707474853515625,0.9283189604997635,-2.0787316891610623,1.5642640173010527
1780097876027468000,0.717468017578125,0.6729828479498624,-1.955443747666478,1.2228668472364543
1780097876037461000,0.7274609375,0.09163257403671742,-1.8029074998557566,1.0573832934387029
1780097876047454700,0.737454833984375,-0.19350714062452315,-1.6428081233143805,1.1828591003663838
1780097876057448000,0.747447998046875,-0.26995149787962436,-1.7199625285349784,1.3032777700349687
1780097876067441000,0.75744091796875,-0.3348427799850702,-1.8824559606060385,1.1028108734004198
1780097876077435100,0.76743505859375,-0.24655484020113944,-1.7074585824012756,0.8753723832100629
1780097876087427800,0.777427734375,-0.42512803106606006,-1.3948235425710678,0.8348420737706125
1780097876097421000,0.787421142578125,-0.9835340672433376,-1.253738224709779,0.48011079035848375
1780097876107415000,0.7974150390625,-1.3777812223553656,-1.4398798050023613,0.748476334220916
1780097876117408000,0.807407958984375,-1.2170014623343943,-1.4609908359616994,1.1002885153159498
1780097876127401000,0.81740087890625,-0.8563041101247072,-1.289534199103713,1.2806808844320476
1780097876137395000,0.82739501953125,-0.7497562910288572,-1.3166814414873718,1.3368584064669906
1780097876147388000,0.837387939453125,-1.0777502280324698,-1.4322671380415557,0.8282708786867559
1780097876157380900,0.847380859375,-1.5909166080355643,-1.5233993613407015,0.7495543387159704
1780097876167374800,0.857374755859375,-1.6606886479198932,-1.4040572348624467,0.5188070162385702
1780097876177367800,0.867367919921875,-0.6299222893804312,-2.174748469631374,-0.734540017196536
1780097876187361000,0.877361083984375,-1.2568430588573216,-1.8314219389393924,0.013178630524873733
1780097876197353700,0.887353759765625,-1.1001251414477824,-1.8291909650169311,-0.3854484932370484
1780097876207348000,0.897347900390625,-0.049742812812328334,-2.469929393574595,-0.9135542298272251
1780097876217341000,0.9073408203125,-0.37203999947905536,-2.7590812664866444,-0.5600671012572944
1780097876227334100,0.917334228515625,-0.24942601172327994,-2.676903334015608,-0.30043329151347276
1780097876237328000,0.927327880859375,-0.5776262849539519,-2.324890223520994,0.48015068397745486
1780097876247320800,0.93732080078125,-0.5525882898092269,-1.666422953788191,-0.12167831434085964
1780097876257314000,0.94731396484375,-1.7164648956775663,-0.9459026941157876,-0.313818988917768
1780097876267308000,0.95730810546875,-3.2376369363576174,-0.5642271435461939,0.12183116681501269
1780097876277300700,0.96730078125,-4.082327181056142,0.0833808785200119,0.042175738558918235
1780097876287294000,0.9772939453125,-5.066297886151075,0.9727230426326393,-1.2595184155464172
1780097876297288000,0.987287841796875,-6.405382590365409,1.1754632910266518,-1.6485931364566087
1780097876307281000,0.997281005859375,-6.476220213654637,1.131642854000628,-1.1451140377312898
1780097876317273900,1.00727392578125,-4.558619582170247,0.6797825910925864,-0.935833866174519
1780097876327267800,1.017267822265625,-2.0023814399302005,-0.26013912891745566,-0.9035165276765823
1780097876337261000,1.027260986328125,-0.3150228117495775,-0.9953609908983111,-1.1406219870090484
1780097876347254000,1.03725390625,0.9001894290804863,-1.2203028419673443,-1.1556439073130487
1780097876357247000,1.0472470703125,1.5626818626761436,-1.0801879765734075,-0.5173462960362434
1780097876367241000,1.057240966796875,2.3074720557302237,-0.750027947577089,-0.4928256027638912
1780097876377234000,1.06723388671875,2.496032972124219,-0.5485265202630311,-0.26336393618285653
1780097876387227000,1.077226806640625,2.6661516383767125,-0.2981356820955872,0.10482464856505394
1780097876397220900,1.087220947265625,3.1949475491881367,-0.27108210934475063,0.07345949622541666
1780097876407213800,1.0972138671875,3.7215813135296103,-0.2907803508967161,0.0640597997173667
1780097876417207000,1.10720703125,3.965360259276628,-0.522775554543361,-0.2601581258788705
1780097876427201000,1.117200927734375,3.6213001536130904,-0.8971930237434804,-0.6169485337778926
1780097876437194000,1.127194091796875,3.076462039539218,-1.058558913089335,-0.9371855730444192
1780097876447187000,1.13718701171875,2.9359897390097376,-1.064984416092187,-1.167500933845341
1780097876457181000,1.147180908203125,2.9587586201786995,-1.126287610577792,-1.1043339913144707
1780097876467174000,1.157173828125,2.727779534772038,-1.1306383531332016,-0.8198030562013388
1780097876477166800,1.167166748046875,2.2997324013888836,-1.1781428124342113,-0.47277270255535836
1780097876487160000,1.17716015625,2.0603870541751386,-1.02766729654558,-0.12665449531823397
1780097876497154000,1.187154052734375,1.931226421254873,-1.0149306376345455,0.01559825888723135
1780097876507146800,1.197146728515625,1.817884704235196,-1.3861369627684355,0.22296850516945121
1780097876517140000,1.207139892578125,1.638458111411333,-1.8054890407815574,0.22876316292285917
1780097876527134000,1.217134033203125,1.5426374380350112,-2.0499173903480172,0.10166384644657372
1780097876537127000,1.227126953125,1.4600368962377308,-2.1576558805331585,0.24478695374578235
1780097876547119900,1.237119873046875,1.503814078643918,-2.3057751886844633,0.4272361092612147
1780097876557113900,1.24711376953125,1.5973311512529849,-2.4741981569349765,0.4595470180183649
1780097876567107000,1.257107177734375,1.352463241225481,-2.477188570922613,0.3845516905277967
1780097876577100000,1.26710009765625,0.943957843658328,-2.412004735611379,0.3383557565420866
1780097876587093800,1.27709375,0.6581149491637944,-2.4221444368317724,0.4367372203171253
1780097876597087000,1.2870869140625,0.7130997542828321,-2.45083277117759,0.50677814027071
1780097876607080000,1.297079833984375,0.8850432978749274,-2.3808973574250936,0.4831579029694199
1780097876617073000,1.307072998046875,1.038383263283968,-2.3530828833043573,0.4557517173886299
1780097876627067000,1.31706689453125,1.2213836229413748,-2.4034154787033795,0.5148784446179866
1780097876637059800,1.327059814453125,1.437699392223358,-2.517317459954321,0.6387202206030488
1780097876647053000,1.337052978515625,1.66630824136734,-2.7179893776416777,0.7280281510844826
1780097876657047000,1.347047119140625,1.6858347796142101,-2.8779639587596058,0.7666121487617492
1780097876667039700,1.357039794921875,1.3892302526086568,-3.0434032350242135,0.6461746282622218
1780097876677033000,1.367032958984375,0.8356108661860228,-3.114251964229345,0.5471104429200291
1780097876687027000,1.37702685546875,0.16033143173158168,-2.9207869091808796,0.535325604841113
1780097876697020000,1.38702001953125,-0.46322424522638317,-2.540579969859123,0.5852759229242801
1780097876707012900,1.397012939453125,-0.9257610927104949,-2.1919093016602096,0.7403975110530853
1780097876717006800,1.4070068359375,-0.9781915371716022,-1.9598921053774654,1.1258978806078432
1780097876727000000,1.417,-0.9064274466872215,-1.9380941150672732,1.4557444597408176
1780097876736992800,1.42699267578125,-1.0111164861738682,-2.0243257068432867,1.4837787140920757
1780097876746986000,1.436986083984375,-0.8773656028538942,-1.9201032619550824,1.2824103385731578
1780097876756980000,1.44697998046875,-0.3999234471827745,-1.7482368752524255,1.0901607967942952
1780097876766973000,1.456972900390625,0.05488602091968059,-1.7718078665845096,1.0099497804820536
1780097876776966000,1.4669658203125,0.8920797723829745,-1.7039939750306308,0.5408613193973899
1780097876786960000,1.4769599609375,1.8626655107259749,-1.5541298690386116,0.16304098295122385
1780097876796954000,1.4869541015625,2.8574826040059325,-1.3133416295401752,0.17235884639471769
1780097876806947300,1.496947265625,3.455305873814225,-0.4220087300017476,1.1987635025933385
1780097876816941300,1.50694140625,3.8746161585122345,0.9314506826542317,3.1750536389335986
1780097876826934000,1.51693408203125,3.9087323631256816,2.717325068514049,3.8936128276661037
1780097876836927200,1.52692724609375,4.56266272008121,4.387140733480453,3.1040812833487985
1780097876846921200,1.536921142578125,5.625403595030307,5.230796374434233,2.423758594030142
1780097876856914200,1.5469140625,3.415052773880958,4.686911907823384,4.86180816374123
1780097876866907100,1.5569072265625,1.776186666190624,5.297853310140967,4.095179063844681
1780097876876900000,1.566900146484375,4.426902835026383,7.761372836673259,1.774532469242811
1780097876886894300,1.576894287109375,5.742736427512765,9.106662240746617,2.9400504125773903
1780097876896887000,1.586886962890625,5.49932397699058,10.27237599891424,4.012105643838644
1780097876906880300,1.59688037109375,5.118972076240182,12.53244975913167,3.130876935815811
1780097876916874200,1.606874267578125,3.9935844832420346,14.213606025540829,1.2926046925902366
1780097876926867200,1.6168671875,2.172879460889101,15.215195973956584,-1.5424018757134674
1780097876936860200,1.626860107421875,0.8021808902710675,16.182280426180363,-4.222742198440432
1780097876946854100,1.636854248046875,0.4002344128280878,16.98871488224268,-6.382555257007479
1780097876956847000,1.64684716796875,0.3202250565677881,16.506259866845607,-8.717343189686536
1780097876966840300,1.65684033203125,-0.024459902995824814,16.071455075895784,-8.707705008247494
1780097876976834000,1.666833984375,-0.32192835335433484,15.636019001305103,-8.75405934766531
1780097876986827000,1.676826904296875,-0.6015303076326847,15.222088656079768,-8.830379201757907
1780097876996820200,1.6868203125,-0.8836176489859819,14.832158779644965,-8.923883999407291
1780097877006813200,1.696813232421875,-1.16672907269001,14.46112532685995,-9.035439417532086
1780097877016807200,1.70680712890625,-1.4332327682033181,14.104549438494443,-9.171323805749417
1780097877026800000,1.716800048828125,-1.6587985963895917,13.757760784649848,-9.339013199028372
1780097877036793300,1.72679345703125,-1.8198939982309936,13.418449334818124,-9.543479540562629
1780097877046787300,1.736787353515625,-1.899202805006504,13.087358600842952,-9.78635832259953
1780097877056780000,1.746780029296875,-1.8859011326238513,12.769893072116375,-10.065703087246417
1780097877066773200,1.756773193359375,-1.7778769573651254,12.473148844379185,-10.378210701304674
1780097877076767200,1.766767333984375,-1.59195968734771,12.201043383336067,-10.720535945999622
1780097877086760200,1.77676025390625,-1.3646855939388274,11.963745031780004,-11.0746650257349
1780097877096753200,1.786753173828125,-1.1459823449984192,11.770839948701857,-11.407667146289349
1780097877106746000,1.79674609375,-0.9574699439212679,11.622630916440487,-11.698261034703254
1780097877116740400,1.806740234375,-0.8026853326618671,11.520528970837592,-11.928252862638235
1780097877126733000,1.816733154296875,-0.6908622035115957,11.46292433860898,-12.080398065304756
1780097877136726000,1.82672607421875,-0.6097875561073423,11.451012951540946,-12.14913550144434
1780097877146720300,1.83672021484375,-0.5277566308915614,11.492953566169739,-12.137224114376306
1780097877156713200,1.846713134765625,6.084353816199302,-23.52774489555359,-15.105022950100897
1780097877166706200,1.8567060546875,8.236808913218974,-23.634501973485946,-14.144468776428699
1780097877176700200,1.8667001953125,13.962732737618683,-22.487221113109587,-11.629061826270817
1780097877186693000,1.876693115234375,21.88901673502922,-20.194422310376165,-3.8296944822460413
1780097877196686300,1.886686279296875,20.52705968927145,-14.662908128398655,4.1279099515795705
1780097877206679000,1.896678955078125,17.88316898254156,-6.381029070353508,6.612346009412407
1780097877216673000,1.906673095703125,14.325553657853602,-4.811918635934591,9.53129927342534
1780097877226666200,1.916666259765625,13.29098498442173,-4.449207021293044,12.017415831691025
1780097877236659200,1.9266591796875,12.042688220113515,-6.423529656952619,10.32183824121952
1780097877246653200,1.936653076171875,6.366897669148445,-11.168960096979141,4.597068847551942
1780097877256646100,1.946646240234375,2.6770518025755883,-9.255813522294163,0.0976239234060049
1780097877266639400,1.956639404296875,1.4609372060783206,-5.8685208619982,-0.4959463651329279
1780097877276633300,1.96663330078125,1.312104342830181,-5.003081843781471,0.8561445356488228
1780097877286626000,1.9766259765625,3.099964495679736,-3.3710312613248825,0.6105909814447165
1780097877296619300,1.986619384765625,5.3661324811190365,-1.8683032243520021,-0.1401262635707855
1780097877306613200,1.99661328125,3.060153878816962,-0.6089128190994262,-2.0755401996433736
1780097877316606200,2.006606201171875,-3.6256285382062194,1.035889692902565,-6.839359698319435
1780097877326599200,2.01659912109375,-8.684655556571483,2.2170915275812146,-12.056715576422214
1780097877336592100,2.026592041015625,-10.0674893861413,2.1488351529568432,-17.68049887677431
1780097877346586000,2.036586181640625,-10.931562376701832,2.098152428945899,-22.334852623081208
1780097877356579000,2.0465791015625,-9.399712290140986,5.26487575416863,-23.994637600159642
1780097877366572000,2.056572021484375,1.6796470308899878,12.166093650507927,-16.092516568624973
1780097877376566300,2.066566162109375,8.905508969283103,18.92039372344017,-6.860618759447336
1780097877386559200,2.076559326171875,-0.778988815253973,15.454083056008814,-5.761819898167253
1780097877396552200,2.08655224609375,0.3897114113785326,22.76595855951309,-3.9991035389244556
1780097877406546200,2.096546142578125,-1.132137067258358,18.732132082253692,-3.316967662703991
1780097877416539100,2.1065390625,-0.9949752064511179,13.082471997845172,-2.2974048352241514
1780097877426532400,2.116532470703125,0.24048662620335817,7.499000834137201,-3.7789077133387323
1780097877436525000,2.126525146484375,2.6342820436462757,5.258585714113712,-4.5487043373554945
1780097877446519000,2.13651904296875,4.178054623191058,5.655490105736256,-6.533446660220623
1780097877456512300,2.14651220703125,3.16637027400136,2.613546421870589,-7.3003329497486344
1780097877466505200,2.156505126953125,2.3109955536812543,0.4531608241125941,-8.422883858016133
1780097877476499200,2.166499267578125,1.3004030913814901,-0.3948455593965947,-8.621918822151422
1780097877486492200,2.1764921875,0.46701311611533164,-0.013035861053317785,-5.597458188006281
1780097877496485000,2.186485107421875,0.3168590872660279,0.02686097278818488,-1.8342472254931925
1780097877506479400,2.196479248046875,-0.5235010192736983,-0.9622374505840241,0.8189759577274323
1780097877516472000,2.20647216796875,-1.457272984482348,-1.0657130226276814,2.4437983424961565
1780097877526465300,2.21646533203125,-2.125484087985754,-1.086144985281676,3.1406524798989293
1780097877536458200,2.226458251953125,-2.617455119746923,-0.9924383814498782,3.43981662825942
1780097877546452200,2.2364521484375,-2.9037691388845444,-1.7602504075206815,3.947337111330032
1780097877556445200,2.246445068359375,-3.505164714221656,-2.6558137842357157,5.113385800540447
1780097877566438100,2.256438232421875,-3.989916023862362,-3.313174992422759,6.068010584163665
1780097877576432000,2.26643212890625,-3.373586791026592,-3.756078918676078,7.109913253745436
1780097877586425000,2.276425048828125,-1.7448514705978333,-3.0362603775322436,8.289705221626162
1780097877596418000,2.28641796875,-1.2341852368474007,-2.671917070035636,9.237807910004257
1780097877606411300,2.296411376953125,-2.4189959096729754,-4.615915586841106,9.495365790256857
1780097877616405200,2.3064052734375,-0.2170877765677869,-3.476962409827113,11.064998202723263
1780097877626398200,2.316398193359375,1.4305939441323279,-2.7473735852971672,14.337592470693588
1780097877636391200,2.32639111328125,6.099454354697466,-2.4689161248788234,14.918380434548855
1780097877646385200,2.33638525390625,5.00067828977108,-1.5406281440392136,10.71934585943222
1780097877656378400,2.34637841796875,2.0228572417259216,-1.217775515446812,9.186150788003205
1780097877666371000,2.35637109375,-1.082087964975834,-0.8415347032770514,7.528989145165681
1780097877676365000,2.366364990234375,0.8743325187683105,0.0014899462968111037,7.061040209504961
1780097877686358300,2.376358154296875,2.277109066170454,-0.9681932902485132,6.917365313541889
1780097877696351200,2.386351318359375,2.273008060592413,-1.1553390791475773,5.130242827317119
1780097877706344200,2.39634423828125,6.121426532530784,0.1200112579114735,7.346574476441741
1780097877716338200,2.406338134765625,7.901751613700389,-1.3324303608916699,9.676455932378769
1780097877726331100,2.4163310546875,-2.0518787535488605,-3.1132983167663215,3.777813488361239
1780097877736324000,2.426323974609375,-0.0315080862079747,-0.8961044978544116,2.415370704913139
1780097877746318000,2.436318115234375,4.029687477758527,3.0937860993057487,3.541616960567236
1780097877756311300,2.446311279296875,0.8487281219124794,3.3078967597588895,4.370664230453968
1780097877766304300,2.45630419921875,-2.121964097166061,2.6822230677336454,3.099891430443525
1780097877776297200,2.466297119140625,-2.7400831360280513,3.5888092121139166,0.12847031256854533
1780097877786291200,2.476291259765625,-5.164382997328043,3.5035078869253393,-2.3374597822368144
1780097877796284000,2.486283935546875,-9.027880964976548,1.3794035628601908,-7.424809224244952
1780097877806277000,2.496277099609375,-5.615214209449291,2.8075393001854416,-8.382173661965131
1780097877816270800,2.506270751953125,-0.6383060868442059,11.005744049721956,-2.610904382929206
1780097877826263800,2.516263916015625,1.1375742898762224,11.412107174563408,0.7860480861157179
1780097877836257000,2.526257080078125,1.3312322371482848,5.592117411500215,3.153249511143565
1780097877846251000,2.5362509765625,3.1079426349520682,4.41312623860836,0.038978257691860196
1780097877856244000,2.546243896484375,6.005065759950876,3.5217929006785154,-3.1225878308981656
1780097877866237000,2.55623681640625,3.0149674141347407,4.56439582748413,-5.628107008770108
1780097877876230000,2.56622998046875,-0.5820108567137271,5.740436918398737,-9.844786546170711
1780097877886224100,2.57622412109375,-1.937394296234846,4.466421190944314,-13.620655330204963
1780097877896216800,2.586216796875,-3.276220641773939,3.236666045498848,-15.933704309284686
1780097877906210000,2.5962099609375,-0.019514774743840096,3.188309718608856,-16.531100878113506
1780097877916204000,2.6062041015625,3.3891549470365043,-1.8282839331746101,-11.544958478695154
1780097877926196700,2.61619677734375,2.758668594032526,-4.107095127087831,-8.363521568465233
1780097877936190000,2.62618994140625,6.170228265100717,-7.235479077044129,-7.644822679001092
1780097877946183000,2.636182861328125,4.133641773229837,-5.536937376070022,-6.277431333234905
1780097877956177000,2.646177001953125,-7.346020934212207,-3.7125101183235643,-5.834535590288042
1780097877966169900,2.656169921875,-3.241046452540159,-7.566147786214947,-5.413637744137644
1780097877976162800,2.666162841796875,3.3072610922038552,-8.10898917351365,-2.6436001993507143
1780097877986157000,2.676156982421875,1.4820631423458457,-5.3881946753233665,-0.4961667298853397
1780097877996150000,2.68614990234375,2.858226115849614,-11.583635123091936,-2.503809451344609
1780097878006143000,2.69614306640625,-2.1243034998990593,-14.141356781888007,-0.08647650644779205
1780097878016137000,2.706136962890625,-6.561279254519939,-8.395185119229554,3.145899148380756
1780097878026130000,2.7161298828125,-13.951134654283523,-2.3501176037579774,6.737475779381394
1780097878036123100,2.726123046875,-13.666865292716025,-4.482414878889918,5.961224864658713
1780097878046115800,2.73611572265625,-10.170390957689285,-11.149967811739444,0.9489321249395608
1780097878056109800,2.74610986328125,-5.678842924273014,-13.276887485486268,-2.8871880064398048
1780097878066103000,2.75610302734375,-1.7663469708301125,-8.934321806791424,-3.869032805421948
1780097878076095700,2.766095703125,-0.6401952615916728,-3.6814679143279787,-2.788107454484701
1780097878086089700,2.77608984375,-1.0813561435699461,-0.8836375227302312,-0.829360573619604
1780097878096083000,2.7860830078125,-5.8413072763800615,3.0284722078740596,3.8973014530509706
1780097878106076000,2.796075927734375,-10.106986699271202,7.431441794127226,9.687148591306805
1780097878116068900,2.80606884765625,-12.562097878420353,10.433983441931009,9.610036125531792
1780097878126062800,2.816062744140625,-10.84681839313507,9.833901579540967,3.8373733463108537
1780097878136056000,2.82605615234375,-4.3349090264618395,11.29897062472701,-1.134938096153736
1780097878146049000,2.836049072265625,3.0673090112686157,15.521484275108575,-4.209166677552461
1780097878156042800,2.846042724609375,6.738030490654706,18.12774463162422,-5.666829245874285
1780097878166036000,2.856035888671875,8.35035930455327,22.30088254894018,-7.402454184573888
1780097878176029000,2.86602880859375,23.91361117581129,21.577473582088945,-8.774130075791478
1780097878186022000,2.87602197265625,34.464336498594285,8.528661861783265,-6.19926088283956
1780097878196015900,2.886015869140625,31.386711845016478,1.6121657322913407,-6.212624806803465
1780097878206008800,2.8960087890625,20.826931109118462,2.7555399406179784,-5.956691312882304
1780097878216002000,2.906001953125,13.909991327512264,6.36623482132554,-6.683940588548779
1780097878225996000,2.91599609375,1.8594675914674996,8.012248462682962,-7.619937244069575
1780097878235988700,2.92598876953125,-6.944269687080383,6.935058791142701,-4.059781587249041
1780097878245982000,2.93598193359375,-9.993799880552292,1.7520973500728607,-1.3769985475450754
1780097878255975000,2.945974853515625,-5.2209886816471816,0.3242635183036327,-0.9724082775950431
1780097878265969200,2.95596923828125,-0.8226385718882083,-0.7421320797607303,1.9923194801211357
1780097878275961900,2.9659619140625,-2.0224860703259706,0.501380665141344,3.8702316598176956
1780097878285955000,2.975955078125,-1.2577324089124797,-2.4914845150396228,4.729875143498182
1780097878295949000,2.985948974609375,-2.0801488624826074,-6.051261693936586,6.418447823643684
1780097878305941800,2.995941650390625,-4.708640047767758,-4.530741395163536,8.240127828508616
1780097878315935000,3.00593505859375,-4.60580043554008,-2.94855520607233,7.565655034261941
1780097878325928000,3.015927978515625,-6.371072324484587,-2.636836696565151,7.140647414705157
1780097878335922000,3.025921875,-9.205714151129126,-3.137973616078496,7.2646502264708275
1780097878345915000,3.035914794921875,-10.48269632717371,-3.9036376703351734,8.581586227241157
1780097878355907800,3.045907958984375,-10.92824346141219,-4.234967473763227,9.90924177494645
1780097878365901800,3.05590185546875,-9.233163299068808,-4.895178518423438,9.349455098065734
1780097878375895000,3.06589501953125,-6.873482332673668,-5.4784588836163275,6.562344253402948
1780097878385887700,3.0758876953125,-4.87725240111053,-6.449076770663261,3.611369126707315
1780097878395881000,3.085880859375,-3.197064102950692,-6.77810355784595,3.508310903292894
1780097878405875000,3.095875,1.402892867258191,-7.336552264121174,3.9218981341689823
1780097878415868000,3.105867919921875,6.910521731257438,-8.19970463270545,2.6622505392849445
1780097878425860900,3.11586083984375,1.1531307554483412,-6.810659673535824,-2.704924144363403
1780097878435854800,3.125854736328125,0.5596852623328566,-3.9421126546800136,-4.804775778442621
1780097878445848000,3.13584814453125,5.5015778933972115,-5.294799183267354,-4.56676489470303
1780097878455840800,3.1458408203125,2.5049963230416177,-3.8680624990850685,-1.2433558007746934
1780097878465834000,3.155833984375,-2.817636331307888,-0.11309680234789847,2.625352594998479
1780097878475828000,3.165827880859375,1.691547604303062,1.4578794259428978,6.897427856406569
1780097878485821000,3.175821044921875,9.937967518693208,5.97040653450191,10.53890395208597
1780097878495814000,3.18581396484375,4.81897936810106,15.517499004864693,10.508426980757713
1780097878505808000,3.195807861328125,-4.350229929712414,9.862765270453691,4.670028869822621
1780097878515800800,3.20580078125,-13.058863158720731,4.273863313868642,-0.1636333958864212
1780097878525794000,3.2157939453125,-9.797388835179806,12.504926961433886,-4.828166006380319
1780097878535786800,3.225786865234375,-13.011113565552234,10.649058271241188,-9.686574590811134
1780097878545781000,3.235781005859375,-10.464037219411134,6.625289077615737,-6.7384747272908685
1780097878555774000,3.24577392578125,-2.384706686580181,6.096352297028899,1.7671762612611055
1780097878565767000,3.255766845703125,-2.100552183564007,8.145054174107313,5.805908046218753
1780097878575761000,3.265760986328125,1.239938101285696,10.987128196579217,4.147780773219466
1780097878585753900,3.27575390625,5.502617757838964,10.396944627869129,0.3198445328176021
1780097878595747000,3.2857470703125,6.159232239311933,7.573947646310925,-5.1665205938786265
1780097878605741000,3.295740966796875,3.6658643947437404,5.970651449173689,-12.31202070931196
1780097878615733800,3.305733642578125,2.3996578797355292,4.551794704586267,-17.58107053429484
1780097878625727000,3.31572705078125,1.56137399494797,3.6357273228943345,-17.897150746142863
1780097878635720000,3.325719970703125,2.1119804632902146,1.4511504099488257,-14.371155717599391
1780097878645714000,3.3357138671875,4.746851997262239,-0.2421639117658138,-9.503634436908364
1780097878655707000,3.345706787109375,6.427497391539812,-0.4476479059100151,-5.993986147531866
1780097878665699800,3.355699951171875,6.64413873951435,-0.8887883296221494,-4.184825432500243
1780097878675694000,3.365694091796875,5.7618391873896115,-1.0935346571415663,-3.541768936258554
1780097878685686800,3.375686767578125,5.516493138456345,-2.316874674847722,-4.086278549030423
1780097878695680000,3.385679931640625,7.46351100308299,-3.875749546456337,-4.121585716994106
1780097878705673000,3.3956728515625,9.354342285585403,-5.224969275715947,-3.9565827863201495
1780097878715667000,3.4056669921875,8.904628679317236,-6.669413466024398,-2.280839484870434
1780097878725660000,3.415659912109375,7.080874206265807,-7.426365806037187,0.40586569671332834
1780097878735652900,3.42565283203125,5.05269197012484,-7.451134921112656,2.973938361392915
1780097878745646800,3.435646728515625,3.246180892819166,-6.947997183170914,5.520508803838491
1780097878755640000,3.44564013671875,2.4480992545604705,-7.348669987416267,7.243230421823263
1780097878765632800,3.4556328125,1.9481489144831894,-8.4230557074517,5.585075091773271
1780097878775626000,3.4656259765625,0.6437105762362479,-9.319470878690481,2.6766464366450906
1780097878785620000,3.475619873046875,-0.5973124342093243,-9.684003279018402,0.549440054911375
1780097878795612000,3.48561181640625,-1.012258057424426,-9.770552266180514,-1.4033473330274224
1780097878805604900,3.49560498046875,-0.4952788411349058,-9.903951851844788,-3.1970918677404523
1780097878815597800,3.505597900390625,0.5504629682183265,-9.651849898910521,-4.074320984733104
1780097878825591800,3.515591796875,1.653618855664134,-9.752623226258159,-3.79441946298629
1780097878835584800,3.525584716796875,5.381059416615963,-9.177746532273291,-3.5536893834158776
1780097878845578000,3.535577880859375,8.039090876901149,-7.402026899072528,-2.9753137413993476
1780097878855572000,3.545572021484375,4.746901097100973,-4.217199177360534,-1.4948577419891953
1780097878865565000,3.55556494140625,-0.5381554214395582,-0.30800854907333847,-0.23662790494859218
1780097878875558000,3.565557861328125,-1.674567389538139,4.08676896289587,-0.023302549654245375
1780097878885550800,3.57555078125,-1.4484849901318548,8.160065865278243,-2.5638021477535364
1780097878895544800,3.585544921875,-0.2810334483861923,12.438429413175582,-8.68662071916461
1780097878905537800,3.595537841796875,-0.18441826363131403,15.04267200012803,-15.103297441482542
1780097878915531000,3.605531005859375,1.027286407469213,12.768236537081002,-16.62098514717817
1780097878925525000,3.61552490234375,4.385989225357771,13.328310214209555,-12.771643130654097
1780097878935517700,3.625517578125,6.714965256887674,16.43706182745695,-7.0133116591244935
1780097878945511000,3.635510986328125,7.2912711068928235,17.47202680673003,-3.0706402015179393
1780097878955503900,3.64550390625,5.779511622202396,16.250480102181434,-0.5788116953462362
1780097878965497900,3.655497802734375,4.149365412062406,13.916900376248359,1.572097341275215
1780097878975490800,3.66549072265625,1.8852040902704,11.226600969564913,2.0300047753930093
1780097878985483800,3.67548388671875,-0.035469665049016476,8.340631106743215,1.6582114441514013
1780097878995478000,3.68547802734375,-0.922241686412692,6.303108210805058,1.1351818417817354
1780097879005471000,3.695470947265625,-2.0763269661068917,3.251244605949521,0.459345357966423
1780097879015464000,3.7054638671875,-2.2543214803010225,0.5969692833274602,-0.09607084874510764
1780097879025457000,3.715456787109375,-1.8676345313102005,-0.7426368144124746,0.17165128264725207
1780097879035451000,3.725450927734375,-2.469165423464775,-2.9975059917241333,-0.4084779250383377
1780097879045443800,3.73544384765625,-3.2417157301038504,-4.256636869257688,-1.1466676969140768
1780097879055436800,3.745436767578125,-2.5155478199332952,-4.565930781966448,-1.06575759242177
1780097879065430800,3.7554306640625,-5.436383244431019,-4.725758355829119,1.3296458447396755
1780097879075424000,3.765424072265625,-7.940189773166179,-5.309330397444963,2.5629987224161623
1780097879085416700,3.775416748046875,-8.994050591567158,-5.888910739076137,3.2617326822161674
1780097879095410000,3.785409912109375,-8.607832429131864,-6.831058902963996,4.954945881643891
1780097879105404000,3.79540380859375,-7.475649769166112,-7.842633069777488,7.46422002813518
1780097879115396900,3.80539697265625,-6.298899068677425,-7.9197332605928175,8.844162227916717
1780097879125389800,3.815389892578125,-6.595094430360198,-6.803842394736408,9.996025739908218
1780097879135383800,3.8253837890625,-7.425031342563033,-5.590667212691903,12.059474519741535
1780097879145377000,3.835376953125,-8.288691076147556,-4.872597853302955,13.042214806258677
1780097879155370000,3.845369873046875,-7.120063476359844,-4.277454616358876,12.377992187869548
1780097879165363000,3.855363037109375,-4.604446098321676,-4.239542526593804,10.866259591186045
1780097879175357000,3.86535693359375,0.27765900351703166,-5.165788772472739,9.657568861079216
1780097879185350000,3.875349853515625,7.933837189269066,-6.626057723900676,4.875684128880501
1780097879195342800,3.8853427734375,6.772786162215471,-6.868100639635324,-3.1387282338380813
1780097879205336800,3.8953369140625,1.3893781366467475,-5.663702053764462,-6.55532882168293
1780097879215329800,3.905329833984375,-2.271828495419025,-4.786770166152715,-6.097424310174584
1780097879225323000,3.915322998046875,-3.780926359684765,-3.280021787622571,-3.615821429941058
1780097879235315700,3.925315673828125,-4.993270059341192,-0.15333061305880546,3.8813855065166947
1780097879245310000,3.93531005859375,1.8219962312072515,0.8792688061267137,7.476530643653869
1780097879255303000,3.945302978515625,9.517681666961312,1.8882745837569235,8.708490605667233
1780097879265296000,3.9552958984375,-1.7018173616439103,7.473357274314761,7.858901483011246
1780097879275288800,3.965288818359375,-8.470975981011986,2.80604993841052,3.0931326038330793
1780097879285282800,3.97528271484375,-2.3977251581072805,6.458928302592039,2.662122528991103
1780097879295276000,3.985276123046875,-8.192965679839253,12.771964617693424,-0.36976270219683643
1780097879305268700,3.995268798828125,-11.493591864073275,11.633821003496646,-8.416856268289685
1780097879315262700,4.0052626953125,-14.289681549483538,10.60989062845707,-8.7706942561239
1780097879325256000,4.015255859375,-8.430879532945156,10.3283287722826,-3.563134964892268
1780097879335249000,4.025248779296875,-2.013779324518144,9.238242794290185,0.7657207528799772
1780097879345241900,4.035241943359375,2.252891447497904,8.263707441538571,1.471469559878111
1780097879355235800,4.04523583984375,8.607640121430158,5.9314861444771285,0.25426176131665706
1780097879365228800,4.055228759765625,9.182050951468945,3.896535144853592,-2.024560538512468
1780097879375222000,4.065221923828125,2.551602006871998,3.7803263479650018,-5.194718514358997
1780097879385216000,4.075216064453125,-1.9790461570501325,5.825250460070372,-6.038727206534147
1780097879395209000,4.085208984375,-4.688966794526577,7.823557782429456,-5.464776979744434
1780097879405202000,4.095201904296875,-4.570070365989208,7.856409666195511,-6.192959152346849
1780097879415195000,4.10519482421875,-1.839533641463518,6.438981493106484,-7.85600283896029
1780097879425188900,4.11518896484375,2.627707633692026,4.63366284045577,-8.484701139503716
1780097879435181800,4.125181884765625,8.650645150420068,3.4713550913393494,-7.703387096172571
1780097879445175000,4.135175048828125,14.323500816977024,1.978646344077587,-8.601409702607988
1780097879455169000,4.1451689453125,14.668542919415234,-1.721100154262781,-11.330910069823265
1780097879465161700,4.15516162109375,9.76709072754979,-4.678198147752881,-13.792442806452511
1780097879475155000,4.165155029296875,6.164471893531084,-6.160761348575353,-14.53324480665326
1780097879485148000,4.17514794921875,4.963744105127454,-7.36850866035223,-11.99750818517208
1780097879495142000,4.185141845703125,4.146458000183105,-8.363444996097684,-6.531397326475381
1780097879505134800,4.195134765625,3.746602357539534,-9.344325918483733,-1.8832880275160073
1780097879515127800,4.2051279296875,2.4178829799950123,-10.069184499621391,0.4267223145201802
1780097879525121000,4.21512109375,1.1348096474684775,-10.50306106981039,1.4451380177915096
1780097879535114800,4.22511474609375,0.9311649975806474,-10.625700776529312,1.732288487753272
1780097879545108000,4.23510791015625,1.2776532071739435,-10.310682056432961,1.8842793766409158
1780097879555101000,4.245100830078125,1.9228332714408636,-10.219316608899831,1.5710238668248055
1780097879565095000,4.255094970703125,3.4616648874521254,-10.71498064996004,0.548962792788446
1780097879575087900,4.265087890625,5.997885493057966,-10.744171673130989,-1.1407751317441464
1780097879585080800,4.275080810546875,7.850572046083212,-10.499093335223197,-1.9989920897528528
1780097879595074000,4.285073974609375,8.451029171526432,-9.805860895448923,-1.695157903754711
1780097879605068000,4.295068115234375,6.583240910959243,-7.199894553443789,-0.6108160223722457
1780097879615060700,4.305060791015625,1.38306997641325,-2.6819226234823463,-0.9208119458705186
1780097879625054000,4.315053955078125,-5.402196897190809,2.578596104520559,-1.295871585431695
1780097879635048000,4.3250478515625,-7.996952693873643,6.5372659262478345,-0.8935293866693973
1780097879645041000,4.335041015625,-5.259026443618536,10.160258855253458,-0.7998106540083885
1780097879655033900,4.345033935546875,1.750479393482208,12.35240181953907,-3.6698125478476284
1780097879665026800,4.35502685546875,0.9005950872719287,17.275226469779014,-8.986355360889434
1780097879675021000,4.36502099609375,0.8373337444558739,15.946252825212477,-13.401929577171801
1780097879685013800,4.375013671875,3.4828958915293216,15.070613315498829,-16.167072335654495
1780097879695006700,4.3850068359375,6.228080734610558,17.0146033567369,-15.26074659577608
1780097879705000000,4.395,6.2222600656330584,15.96124581168294,-12.05759820447564
1780097879714994000,4.404993896484375,6.288472367209196,15.053685561573504,-6.835082167130708
1780097879724987000,4.41498681640625,5.675273249092697,15.425595797193049,-0.4820025954544544
1780097879734979800,4.424979736328125,2.6751018375515936,14.208057743763923,2.8573797281533477
1780097879744973800,4.434973876953125,0.475540998224914,10.895455290532112,3.7307512929350137
1780097879754967000,4.444967041015625,-0.18779402367472647,7.782977934759855,3.8428047237098215
1780097879764959700,4.454959716796875,-1.0192138679116964,5.147370487728715,2.3004618847072122
1780097879774953000,4.464952880859375,-2.70168530857265,2.0320687221854925,0.9547136309504508
1780097879784947000,4.474947021484375,-3.147484956267476,-1.1317641422927378,-0.12469663924872874
1780097879794941000,4.48494091796875,-3.335404652148485,-2.9261972437918184,0.21504794130325317
1780097879804934000,4.494933837890625,-4.438793179306388,-4.4528129368305205,0.3876081554889679
1780097879814926800,4.5049267578125,-6.0380526682734486,-5.639027046713233,0.18964637354314326
1780097879824920800,4.5149208984375,-7.1581702119141815,-5.827609590417146,1.0508739115446806
1780097879834914000,4.5249140625,-7.924574270883202,-5.373500379538536,3.7004526007831093
1780097879844906800,4.53490673828125,-8.13858527035415,-5.4861248881995675,6.409800991329551
1780097879854900700,4.544900634765625,-8.325605971568823,-6.3923781473636625,7.357911278492212
1780097879864894000,4.55489404296875,-8.132464157125353,-7.0883788828074925,8.21125069359243
1780097879874887000,4.564886962890625,-6.936882499438524,-7.314357967969775,9.631761050605773
1780097879884880000,4.5748798828125,-6.39935733872652,-7.041353512260318,11.685438962531089
1780097879894873900,4.584873779296875,-6.883142725944519,-5.993796762439608,13.921003719913958
1780097879904866800,4.59486669921875,-8.259462643575668,-5.492295685788989,14.797636916840075
1780097879914859800,4.60485986328125,-8.643418706297874,-4.7693876541972156,15.36875104342103
1780097879924852700,4.614852783203125,-7.628727284246683,-3.571352173617482,15.234845261800288
1780097879934847000,4.624846923828125,-3.2517250829428432,-3.825179050648212,14.032159909588097
1780097879944840000,4.63483984375,4.590258875276148,-5.271527028751373,10.227684624272584
1780097879954833000,4.6448330078125,6.973356665354967,-5.973792669808864,1.966195443305373
1780097879964827000,4.654826904296875,2.8905571906119585,-5.286740379974246,-5.721774303504825
1780097879974819800,4.66481982421875,0.7287573421418666,-6.407013406437635,-8.922658257004619
1780097879984813000,4.67481298828125,-0.3075359631255269,-6.515104947844147,-9.386756946977972
1780097879994805800,4.6848056640625,-2.418980127581954,-5.3737768583923575,-5.556739808648825
1780097880004799700,4.6947998046875,1.6644295880138873,-1.3284919985294341,1.7834744851112365
1780097880014793000,4.70479296875,10.629763203662634,4.419312818288803,9.919813437843322
1780097880024786000,4.714785888671875,3.5502024180829523,16.864638420718908,16.575694053077697
1780097880034779000,4.72477880859375,-11.429382134491204,9.098087889146804,10.906832424592972
1780097880044772900,4.73477294921875,-2.9505741446793077,3.614055589312315,1.9573007737100123
1780097880054765800,4.744765869140625,-9.396500342357157,12.284938641119002,-0.6995856081932783
1780097880064758800,4.7547587890625,-10.341479345756769,17.07077240320444,-7.008161436754465
1780097880074751700,4.764751708984375,-13.263648064684867,13.189565760385989,-12.530070755040645
1780097880084746000,4.77474609375,-8.649794086548685,10.831714347505569,-9.402568848615884
1780097880094739000,4.784739013671875,-3.810720317184925,10.646488713014126,-4.154022297957539
1780097880104732000,4.79473193359375,-0.32778146329671143,11.05038632452488,-2.282885311484337
1780097880114726000,4.804725830078125,6.784546742635965,8.332569965362548,-2.0832214017957447
1780097880124718800,4.81471875,12.229381004548072,4.647265249350666,-3.122669079440832
1780097880134712000,4.824712158203125,5.1505976330816745,3.7776340401411055,-4.915805126866698
1780097880144704800,4.834704833984375,-2.5525790352106092,5.0592006213665,-6.7661220281511545
1780097880154698800,4.84469873046875,-6.388443146002293,5.033488087961078,-6.52220630428195
1780097880164692000,4.85469189453125,-3.174869222277403,4.969362529531121,-3.8159260691344734
1780097880174684700,4.8646845703125,3.482781325238943,5.410767741659283,-4.8234115053296085
1780097880184678000,4.874677978515625,5.2179275405108925,4.981498957526684,-8.166905355909467
1780097880194671900,4.884671875,6.455581330251693,2.8755782326668498,-11.747025357872246
1780097880204664800,4.894664794921875,10.356394006294012,-0.3712491413623094,-15.578492695009707
1780097880214657800,4.90465771484375,10.001365931892394,-4.083230851897597,-16.43392762108445
1780097880224651800,4.91465185546875,7.030128353890777,-6.913911373695731,-14.434833532261848
1780097880234645000,4.92464501953125,6.487952152502537,-7.940904058915376,-11.450927611345053
1780097880244638000,4.934637939453125,7.854160425963998,-8.21622672843933,-5.8910956818997855
1780097880254631000,4.944630859375,7.144460250991583,-8.662224529054761,-0.9966887323707342
1780097880264625000,4.954625,4.596443409129977,-8.913097816976904,1.447356570623815
1780097880274617900,4.964617919921875,2.1938988680422304,-9.196707253330946,2.670024972678721
1780097880284611000,4.974611083984375,1.0221955871362238,-9.586630700024962,3.2600419526502487
1780097880294603800,4.984603759765625,0.5765607746142893,-10.32413073607087,2.919000902546942
1780097880304597800,4.99459765625,0.6265063434571028,-10.810261225110292,1.5579469431087374
1780097880314591000,5.004591064453125,1.4284703761070965,-10.260433047664165,0.1674620142638683
1780097880324583700,5.014583740234375,3.283319075602293,-9.614772506403922,-1.0056021066665648
1780097880334577000,5.024576904296875,6.391697763884067,-9.638937225845456,-2.087122793148458
1780097880344571000,5.03457080078125,9.14660495955646,-9.978561394888162,-2.1635721188396215
1780097880354563800,5.044563720703125,9.844686008405684,-9.436719540020823,-1.615357806330919
1780097880364556800,5.054556884765625,8.597596281799673,-7.216250644960999,-1.3375950501784681
1780097880374549800,5.0645498046875,4.18800113992691,-4.7878141222476955,-1.1056681625276803
1780097880384544000,5.0745439453125,-0.6081482644677162,-1.4135691595733164,-0.9964899949282408
1780097880394537000,5.084536865234375,-5.0256747838616365,3.1195313659369943,-1.756102494060993
1780097880404530000,5.094530029296875,-8.169701124107837,4.981842656397819,-2.1852321619838473
1780097880414523000,5.10452294921875,-7.205254034650325,9.664471480074525,-3.739441379868984
1780097880424516900,5.114516845703125,-6.288257263153791,16.50195077147484,-5.086906374415755
1780097880434510000,5.124510009765625,-3.046617228634655,21.256804873406885,-7.971490335837006
1780097880444502800,5.134502685546875,1.3869310357555746,21.193281372523305,-15.481394256782531
1780097880454496000,5.14449609375,8.324962997490168,17.96304272972345,-20.390064124941826
1780097880464490000,5.154489990234375,13.916459646743535,15.93168186354637,-19.43528268945217
1780097880474482700,5.164482666015625,10.54177979978323,14.74395325744748,-14.737807594299316
1780097880484476000,5.174475830078125,5.38089691953063,14.634323838949202,-8.473318160223961
1780097880494468900,5.18446875,2.1100816439315677,13.388480897533892,-1.8930156408041714
1780097880504462800,5.194462890625,-0.48372635050714013,11.757234617197513,1.7398720747500658
1780097880514455800,5.204455810546875,-3.6161259658455847,8.937652412518858,3.6176293561458586
1780097880524448800,5.21444873046875,-4.135840160056948,6.048989072829484,6.1902563231289385
1780097880534443000,5.224443115234375,-3.8665158541649576,3.889546308879554,6.888166107064485
1780097880544436000,5.23443603515625,-3.50341319437921,1.742303393550217,6.637118047097325
1780097880554429000,5.244428955078125,-3.6073382637560365,-2.6310250876769423,5.008204009100795
1780097880564422000,5.254421875,-2.9306828647732734,-6.175554428559542,3.02427534070611
1780097880574416000,5.264415771484375,-2.958533286990225,-7.941055450084805,1.7871949669390916
1780097880584409000,5.2744091796875,-4.437925748822093,-8.487709089148044,1.3922007928520441
1780097880594401800,5.28440185546875,-6.22484832856059,-7.545873644471168,2.733194545558095
1780097880604395000,5.29439501953125,-7.887505061683059,-7.170598900854587,4.850228785106539
1780097880614389000,5.304388916015625,-8.944615237268804,-7.631482720434665,6.853435569944978
1780097880624381700,5.314381591796875,-7.880117289519309,-6.3785588808476925,10.125241317886113
1780097880634375000,5.324375,-5.976586099919676,-5.079802679890394,13.382466167289017
1780097880644368000,5.334367919921875,-5.932139055427909,-6.6759928444147105,14.898615411370992
1780097880654361900,5.34436181640625,-5.6480701848685735,-7.372948104104399,15.520676465857028
1780097880664354800,5.354354736328125,-4.242853258576989,-4.855298927977681,15.161311239033937
1780097880674347800,5.36434765625,-3.955237509191036,-2.32454301751852,14.754740024399757
1780097880684341000,5.374341064453125,-4.195334843815863,-1.7768185343533753,15.256187325036525
1780097880694335000,5.3843349609375,-1.9623305845707655,-2.930171992641687,15.820445009851454
1780097880704328000,5.394327880859375,5.713998408806324,-4.802081132531166,13.147199613821506
1780097880714321000,5.40432080078125,12.244355286318063,-6.097407359039783,4.842769701272249
1780097880724313900,5.41431396484375,8.178663013720511,-6.402170642581582,-2.1067600982934236
1780097880734307800,5.424307861328125,4.630768288058042,-7.650841500899195,-7.012279977989197
1780097880744300800,5.43430078125,4.165520720310509,-9.089202571901678,-8.04835905598402
1780097880754294000,5.4442939453125,-5.658342572557926,-8.675925722149014,-1.354973762741685
1780097880764287000,5.454286865234375,1.6103206889465451,3.1714345716536045,10.54110409247875
1780097880774280700,5.46428076171875,11.143505337727069,13.171115911459921,14.557337629902362
1780097880784274000,5.47427392578125,1.1700547099813818,4.548949836549163,11.901859361231326
1780097880794266600,5.4842666015625,-10.362800366204976,-0.32844460338056086,8.037193518847227
1780097880804259800,5.494259765625,-13.267812198626995,9.987227516424655,8.536291626009344
1780097880814253800,5.50425390625,-13.400043909555674,21.454770747005938,1.977469701513648
1780097880824246500,5.51424658203125,-12.98480423529744,20.941616641962526,-7.613821976059675
1780097880834239700,5.52423974609375,-16.351445737230776,14.98009893183708,-13.182238193976879
1780097880844232700,5.534232666015625,-14.500663556522131,14.182212523889541,-18.74011782031059
1780097880854227000,5.54422705078125,-8.243616255146264,11.766979766142368,-15.747728148686885
1780097880864219600,5.5542197265625,-3.068731737548113,11.39391802240014,-12.163879481589793
1780097880874212900,5.564212890625,8.248347375321387,11.035747558319567,-6.516675558161735
1780097880884205800,5.574205810546875,12.264116802364587,9.279085676810144,-3.377832173511386
1780097880894199800,5.58419970703125,-0.5785748178504407,6.259110663646459,-4.04656087114811
1780097880904192800,5.59419287109375,-6.0080164264500135,6.921732276579737,-2.859447182077169
1780097880914185700,5.604185791015625,-5.3848506255924695,5.251819873240589,0.37490240317285056
1780097880924179000,5.614178955078125,-0.5592804809242486,6.009630875909328,-0.5690531023979186
1780097880934173000,5.6241728515625,4.122069993379712,7.972886174109577,-3.4334359873116016
1780097880944165600,5.63416552734375,5.322169420751929,8.082417977452277,-4.112871956923604
1780097880954158800,5.644158935546875,4.57101787597239,5.022343593612313,-6.195540985533595
1780097880964151800,5.65415185546875,5.761651555863023,0.3848796073079109,-11.625428438204526
1780097880974145500,5.6641455078125,8.493869365343452,-2.671570740815997,-14.65592659894824
1780097880984138800,5.674138671875,9.253495893001556,-5.547185798361897,-16.39994585650563
1780097880994131700,5.684131591796875,7.626657492235302,-6.341018547004461,-16.107681404531
1780097881004124700,5.694124755859375,6.843861685913801,-8.854500666579604,-9.722004800632595
1780097881014118700,5.70411865234375,8.039911545634268,-9.774314833584427,-3.381690310244262
1780097881024111900,5.71411181640625,9.102751789304614,-8.934267446255683,0.48220893168151374
1780097881034104800,5.724104736328125,8.624338158252835,-9.009703503251075,1.3308335932195186
1780097881044097500,5.73409765625,8.632606804904341,-10.732040505832433,0.13541881653219462
1780097881054091800,5.744091796875,9.599815760290623,-11.733320657646656,-2.167266004921496
1780097881064084700,5.754084716796875,8.630489082098007,-10.86793132379055,-3.926932036682963
1780097881074078000,5.764077880859375,6.883802066636085,-10.056343722748755,-5.319288896879553
1780097881084070700,5.774070556640625,8.555124336773156,-10.59560140634179,-7.451857974690198
1780097881094063900,5.78406396484375,10.157764115828275,-10.533194342267512,-8.350515956419706
1780097881104057900,5.794057861328125,6.908302301642299,-8.20418090133667,-5.854581183972955
1780097881114050800,5.80405078125,2.6306810965448615,-5.6364908062338825,-3.1933541425168515
1780097881124043800,5.814043701171875,1.9935931533187627,-4.181452156674862,-1.3510264864206314
1780097881134036700,5.82403662109375,1.02526140444763,-2.2962264390945433,-0.2639662859901786
1780097881144030700,5.83403076171875,-2.857307831960916,1.1426818421483038,0.4053448877096176
1780097881154023700,5.844023681640625,-7.95613377675116,4.893561730876565,0.6023895548105239
1780097881164016600,5.8540166015625,-6.145070442968606,8.142277110609411,0.04106266275048256
1780097881174009900,5.864009765625,-0.5428887335717678,12.073914548504352,-4.285612788373232
1780097881184003800,5.87400390625,3.077589582264423,18.80099577512145,-6.43072629045844
1780097881193996500,5.88399658203125,3.6725861042141914,14.920580574941635,-9.702643097558617
1780097881203989800,5.89398974609375,2.514815414005518,15.604354281497,-13.899893127346038
1780097881213982700,5.903982666015625,1.6954643393553792,20.301469311165807,-16.35606696729064
1780097881223977000,5.91397705078125,2.328359068675339,21.301972048866748,-17.791065868383644
1780097881233969700,5.9239697265625,4.147864067588746,19.56437902496457,-14.962172814524173
1780097881243963000,5.933962890625,2.8113629501268265,16.45108567663431,-9.400762675976752
1780097881253955800,5.943955810546875,-0.3276633898749947,12.460040356481075,-1.7738608535915612
1780097881263949800,5.95394970703125,-3.1643285390406843,10.915735862016676,4.197592559614777
1780097881273942800,5.96394287109375,-3.742894735193252,8.076030906763672,7.42247990451455
1780097881283935700,5.973935791015625,-3.72968600179106,6.712225602790713,9.969346991819142
1780097881293929000,5.983928955078125,-4.429802648121118,3.5286516805320978,10.2212794334054
1780097881303921700,5.993921630859375,-4.480568081979453,-0.5520055214852094,8.087088307350873
1780097881313915600,6.00391552734375,-3.672378014421463,-3.8293560440719125,4.333998341357708
1780097881323908900,6.013908935546875,-4.171892885690927,-5.843123970413208,0.24545593904852867
1780097881333901600,6.023901611328125,-6.001126082414388,-7.159986905947327,-1.3123334754109381
1780097881343894800,6.033894775390625,-8.236109825038909,-7.466005157986283,0.007924363258481025
1780097881353888800,6.043888671875,-10.391873315954207,-6.400858975461125,4.910583592826128
1780097881363881700,6.0538818359375,-10.531714332842826,-6.071701255375147,9.260040784600376
1780097881373874700,6.063874755859375,-9.84586791166663,-6.2837868397414685,11.120710153073071
1780097881383867600,6.07386767578125,-9.40110169867277,-6.279090206357837,12.026201195693016
1780097881393862000,6.08386181640625,-9.661891984975338,-6.005485446667671,12.931500515133141
1780097881403854800,6.093854736328125,-9.602610943967104,-5.21604888715744,14.176760103702545
1780097881413847800,6.103847900390625,-7.857503306651115,-4.8002223529219625,15.536963583791255
1780097881423840800,6.1138408203125,-5.281711153635382,-5.353139728555083,16.459413944518566
1780097881433833700,6.123833740234375,0.11538564393743872,-6.618223377013206,16.447354088890553
1780097881443828000,6.133827880859375,6.9041130332589145,-8.298795706054568,15.413389811092614
1780097881453820700,6.143820556640625,12.448483189678191,-10.103937833094596,11.69828558462262
1780097881463814000,6.15381396484375,13.556998558330536,-8.633550223234295,3.9949429121136664
1780097881473806800,6.163806884765625,6.295255159217119,-4.001000312456489,-2.714693258705735
1780097881483800600,6.173800537109375,4.8669709533318875,-3.033288668245077,-11.54352640006542
1780097881493793800,6.183793701171875,5.806358712595701,-7.27770143122375,-16.207978346538543
1780097881503786800,6.193786865234375,-0.6719146341964602,-6.818042769524455,-11.58985794312954
1780097881513779700,6.20377978515625,-9.696206927031279,-2.8442934520870446,-3.850562498229742
1780097881523773700,6.213773681640625,-12.6922966222167,-0.5147603711962699,4.683064877006411
1780097881533766700,6.2237666015625,6.149344467025995,7.333554835870862,14.505166713160275
1780097881543760000,6.233759765625,18.584659547573327,16.15014925790429,22.9865010065794
1780097881553752600,6.243752685546875,-1.3893632313385604,0.9966197587877511,14.261277292776107
1780097881563745800,6.253745849609375,-26.499690329563617,6.267555835908651,3.8919337885379788
1780097881573739800,6.26373974609375,-7.7456164646148675,21.381424940288067,1.5872534093528985
1780097881583732700,6.273732666015625,-10.221216305041313,20.312388180065152,-1.8659651367932557
1780097881593725700,6.2837255859375,-12.753069363087414,18.126966048467157,-7.026585566717386
1780097881603718700,6.29371875,-3.6664065387964246,12.615332625001669,-7.781267623710632
1780097881613713000,6.303712890625,2.51792623950243,11.933715804219245,-5.563464732989669
1780097881623705900,6.313705810546875,-3.5137387735605237,11.013273860704897,-4.9661394758313895
1780097881633698800,6.32369873046875,3.15669059150815,7.159960017940402,-3.1146634676396845
1780097881643691800,6.33369189453125,-0.9218635007500648,8.347139173462987,-5.551425335627794
1780097881653685800,6.343685791015625,-8.133459597903489,5.849654833486676,-7.135780100929737
1780097881663678700,6.3536787109375,-4.339139795899391,3.8642017320036888,-4.295699882623553
1780097881673671700,6.363671630859375,1.4083879575431346,4.295475426217913,-4.101423803453147
1780097881683665000,6.373664794921875,2.790318700793385,4.924018828460574,-5.013801975238323
1780097881693657900,6.383657958984375,1.7743039211839435,4.294355482277274,-6.051468614685535
1780097881703651600,6.393651611328125,4.205915566802025,3.5389077016085384,-7.263720252144337
1780097881713644800,6.403644775390625,7.375162857544422,3.0878192998558283,-8.223065634548664
1780097881723637800,6.4136376953125,8.430528819811343,1.4701806891113518,-8.850053039520978
1780097881733630700,6.423630615234375,6.127319682222605,0.767712803480029,-9.747510413289069
1780097881743624700,6.433624755859375,4.6290994780629875,-0.8805646911561489,-10.7436268987298
1780097881753617700,6.44361767578125,3.3896263639405366,-3.5603736834853885,-10.79892500758171
1780097881763611000,6.45361083984375,2.7624475280493495,-5.0185728429019445,-10.324143595552444
1780097881773603600,6.463603515625,4.774044540092349,-6.252239608833193,-8.987083090642095
1780097881783596800,6.4735966796875,10.074931518840788,-7.764010199439525,-5.690541545373201
1780097881793593000,6.483593017578125,12.837882320237158,-9.76390274516344,-3.8164597376197573
1780097881803586300,6.49358642578125,11.069419526296853,-10.890353583478927,-4.042547543853521
1780097881813579000,6.5035791015625,8.813394749209284,-11.65093229729533,-4.3159477208822965
1780097881823572200,6.513572265625,7.434250421807169,-12.543503068065643,-4.09577644521594
1780097881833565200,6.523565185546875,8.775530005717277,-13.023035474014282,-4.415755710329115
1780097881843559000,6.533558837890625,9.98730934948921,-12.241237446558475,-4.694262562847137
1780097881853552000,6.54355224609375,6.122555828821659,-8.95279445207119,-2.3160861548185347
1780097881863545000,6.553545166015625,2.2807915540754795,-6.252987212330103,1.724516976968944
1780097881873538000,6.5635380859375,1.523263021609932,-5.820761916479468,3.658147244495153
1780097881883532000,6.573531982421875,2.887622306203842,-5.626660317093133,4.473485430242121
1780097881893525200,6.583525146484375,5.785152842959762,-5.525462626853585,4.755865324801206
1780097881903518200,6.593518310546875,6.995716965723037,-4.157015050032735,3.4100112725824117
1780097881913511000,6.603510986328125,1.428139536717534,-1.3232231182157992,0.6419435665637254
1780097881923504000,6.613504150390625,-6.965192063599824,1.5590730245292186,-1.6227578534543514
1780097881933498000,6.623498046875,-10.23423828369975,5.836839191055297,-2.2550988944143056
1780097881943491300,6.6334912109375,-7.396398537796736,13.13603992190361,-2.5724744067698717
1780097881953484000,6.643484130859375,-4.956820443344116,21.94800200796127,-4.338839936169982
1780097881963477200,6.653477294921875,5.762263550281524,23.03191368123293,-6.0964481586188075
1780097881973470200,6.66347021484375,7.18439478649497,23.43823822762966,-8.095894129619001
1780097881983464200,6.673464111328125,3.5103766036510464,23.194487923455238,-13.666966999524831
1780097881993457200,6.68345703125,2.618733176858723,20.197291143810748,-18.99704207883477
1780097882003450000,6.6934501953125,4.3848076143577694,15.574791502404212,-21.4589442332983
1780097882013443300,6.703443359375,5.176664971274137,11.41202534149885,-18.643817838984727
1780097882023437000,6.71343701171875,1.9674799301579593,9.794866623225808,-11.965623685133457
1780097882033430000,6.723429931640625,-2.5457369142308828,10.252108286911248,-4.595104854002595
1780097882043423200,6.73342333984375,-4.216318595133721,10.322691643178462,2.491877021488547
1780097882053416000,6.743416015625,-4.379379451829195,8.246035006725787,7.106297401335835
1780097882063409200,6.7534091796875,-4.1377682055100795,5.342924039489031,10.34026470927
1780097882073403100,6.763403076171875,-4.151671643178164,1.8591992959201336,11.500229694652557
1780097882083396000,6.77339599609375,-4.237494654153287,-1.6073825896680354,9.974938528215885
1780097882093389000,6.78338916015625,-4.411185625934601,-4.460791660624742,6.790470287466049
1780097882103382000,6.793382080078125,-5.117759777840972,-6.590737404194474,4.32651529212594
1780097882113375200,6.803375244140625,-6.6521823452383275,-8.074795812010764,3.489468840178847
1780097882123369200,6.813369140625,-7.888319885197282,-8.380668518099188,4.901996966266632
1780097882133362200,6.823362060546875,-8.516452368551493,-8.464423490628599,6.744736710295081
1780097882143355100,6.833355224609375,-9.120258804422617,-8.564855457192659,8.4291937718153
1780097882153348000,6.84334814453125,-9.57874725329876,-8.31037566921115,10.377812057375907
1780097882163341000,6.853341064453125,-9.303961174869537,-7.996918207082152,12.607241673004626
1780097882173335000,6.8633349609375,-8.177340825206041,-7.160344048821925,14.947365706014633
1780097882183328300,6.873328369140625,-5.836369819977879,-6.690080990999936,16.232324852287768
1780097882193321200,6.8833212890625,-4.446265414883196,-6.471811749562621,16.670879935681818
1780097882203314200,6.893314208984375,-2.6986908029317855,-6.176832777932286,16.216590692061185
1780097882213308200,6.90330810546875,1.044739062051475,-6.102567518281936,15.615183134025335
1780097882223301000,6.913301025390625,6.738362499088049,-6.047310325962305,12.681002490264177
1780097882233294300,6.92329443359375,12.387100207954644,-5.6510307882398365,5.13199288585484
1780097882243287000,6.933287109375,13.204411447340249,-4.648826507318019,-2.8490228186964988
1780097882253280300,6.9432802734375,7.310984692144394,-3.798060157576203,-10.136626635253428
1780097882263274200,6.953274169921875,-0.6564376636013388,-4.556548036593198,-13.883919313144682
1780097882273267000,6.963266845703125,-5.5104994509994984,-4.982296245384216,-13.08437987729311
1780097882283260200,6.97326025390625,-12.82969433760643,-3.3322388815939425,-7.034016008979082
1780097882293253000,6.983253173828125,-15.207770207870006,-0.6169587629109621,1.5933879665851591
1780097882303246000,6.99324609375,8.637531401824951,-0.8257441366881132,10.66496428090334
1780097882313240000,7.003239990234375,26.505357853806018,14.03599788031578,23.521668205988405
1780097882323233000,7.01323291015625,28.762917000854014,10.773961246716976,19.722448941504954
1780097882333226200,7.023226318359375,-19.983508107876776,-4.861816931569576,5.192765626725554
1780097882343219000,7.033218994140625,-30.531086364805695,11.576945854586363,2.379527822637558
1780097882353212200,7.043212158203125,-29.408860450708865,21.109269210362434,-3.1098323942214248
1780097882363206100,7.0532060546875,-25.016155068838597,18.779271434569356,-7.766464022332429
1780097882373199000,7.06319921875,-15.314651204442978,14.709942266774176,-9.729460961857438
1780097882383192000,7.073192138671875,6.380458576989174,7.874132954412699,-9.055942691856622
1780097882393185000,7.08318505859375,26.256798103523252,7.588647787314653,-4.748633619982004
1780097882403178200,7.09317822265625,4.077996458375454,12.742809834879637,-3.1568606873780487
1780097882413172200,7.103172119140625,-5.593454797583818,11.939532966065405,-4.8899289273321624
1780097882423165200,7.113165283203125,-11.122538537544012,9.012951106870174,-6.20888503575325
1780097882433158100,7.123158203125,-11.437373717766999,6.197481013685464,-5.326498389866948
1780097882443151400,7.1331513671875,-5.638296978873014,5.969872866016626,-5.304295325887203
1780097882453144000,7.14314404296875,2.1975147204518315,4.857416066262125,-6.631522419047355
1780097882463138000,7.153137939453125,4.9355508608222,3.7282284964591264,-7.65271664712131
1780097882473131300,7.16313134765625,4.825528059092163,3.3550101008504627,-7.311464584615826
1780097882483124000,7.1731240234375,6.014115327847003,3.3061808957517145,-6.206674373966455
1780097882493117200,7.1831171875,8.89173295738697,2.691164499080181,-5.492697836849093
1780097882503110100,7.193110107421875,10.849811145210266,1.802330576750636,-5.793740638563037
1780097882513104100,7.203104248046875,8.672367152884602,0.7319587685316801,-6.293363646382093
1780097882523097000,7.21309716796875,6.017562837952375,-1.4566735572844742,-6.222466986382007
1780097882533090000,7.223090087890625,4.132791293880343,-3.82781349080503,-6.207380476409196
1780097882543083300,7.233083251953125,3.6325925319999453,-6.254247441524267,-6.302572788754105
1780097882553076000,7.243075927734375,5.820176225546002,-8.546710144171119,-5.559051592722535
1780097882563070000,7.253070068359375,8.783983361285925,-10.024175145071744,-4.494470935125649
1780097882573063200,7.263063232421875,8.604962426653504,-11.166579923844337,-4.961078100788593
1780097882583056100,7.27305615234375,8.284652029889822,-12.324543506276607,-6.628593964380025
1780097882593049000,7.283049072265625,7.37587538972795,-12.514882538259029,-7.479431041270494
1780097882603042000,7.2930419921875,5.305781765052676,-12.007744332504272,-7.058980938887596
1780097882613035300,7.30303515625,4.17475996555984,-11.29085629185438,-5.78118277028501
1780097882623029200,7.313029296875,3.1890783648937937,-10.279385585415362,-4.622013026933372
1780097882633022000,7.32302197265625,3.900117094993591,-9.530094573810697,-3.479127771167457
1780097882643015200,7.33301513671875,4.968493930003047,-8.168563644510508,-1.6225976944565772
1780097882653008100,7.343008056640625,5.324353194531798,-6.420867744266986,0.37973113850355145
1780097882663001000,7.3530009765625,6.9339137127608055,-4.931865450307726,1.0402329828038812
1780097882672995000,7.3629951171875,7.5115546107619995,-2.764779770389199,1.0201111090123653
1780097882682988300,7.37298828125,2.530632576340437,-0.29017127908766266,1.34047294370234
1780097882692981200,7.382981201171875,-5.621862561422586,1.3609551752388476,1.1179840387433766
1780097882702974200,7.39297412109375,-10.119266335129737,4.084690403056144,-0.1696753063991666
1780097882712967200,7.40296728515625,-8.064364434367418,9.597304069730638,-1.353147424097359
1780097882722961200,7.412961181640625,-4.296403062456846,18.2678825856328,-2.8635680613994596
1780097882732954000,7.4229541015625,1.7774787518277764,23.42572712110281,-4.34542632882297
1780097882742947000,7.432947021484375,6.384061569917201,22.187667673170566,-6.3560536190509795
1780097882752940300,7.442940185546875,5.457786097943782,22.574747420871258,-9.67805459974706
1780097882762933000,7.45293310546875,4.420366126734018,21.498401798939703,-14.537604170906542
1780097882772926200,7.46292626953125,4.763975858281553,16.580155124139786,-17.53344135263562
1780097882782920200,7.472920166015625,5.51993363429904,11.145074194478989,-16.499906113904714
1780097882792913200,7.4829130859375,1.7792612513303756,8.78994080838561,-11.336832445609568
1780097882802903300,7.4929033203125,-2.6719369437798854,9.73562883683741,-3.6664778504669666
1780097882812896000,7.50289599609375,-4.260068012750149,10.12420437605381,3.263165345367789
1780097882822889200,7.51288916015625,-4.764103868575394,8.366179389497637,7.526773807203769
1780097882832883200,7.52288330078125,-4.608231754340231,6.111932727998495,10.181092384445666
1780097882842876200,7.532876220703125,-4.646023432596028,3.2631162455290554,11.013622235751152
1780097882852869000,7.542869140625,-4.2234339800968765,-0.7393348502576351,9.368101930868626
1780097882862862000,7.552862060546875,-3.568369358414411,-4.139187132397294,6.368807302162051
1780097882872855300,7.562855224609375,-3.8317344636410473,-6.16682810126841,3.0873709715664384
1780097882882849300,7.572849365234375,-5.204403457549214,-7.067302777031063,1.8154513396084309
1780097882892842000,7.582842041015625,-6.725234137445688,-7.083954052102565,2.6350527357578275
1780097882902835200,7.592835205078125,-7.874719814389944,-6.940625777620077,3.9097266348600384
1780097882912828200,7.602828125,-8.899687131261825,-7.05401074925959,5.015126501840353
1780097882922821000,7.612821044921875,-9.89335096285343,-7.123219894564151,6.384699867820739
1780097882932814000,7.62281396484375,-9.825372236126661,-6.9053837838470935,8.220278634178637
1780097882942808000,7.63280810546875,-8.618752467074989,-6.715360978206991,10.326402188134193
1780097882952801300,7.64280126953125,-6.453885047727823,-6.373548359209298,12.900512671673297
1780097882962794000,7.6527939453125,-2.4299361136212942,-6.461629378244281,15.964164914000033
1780097882972787200,7.662787109375,-0.3250491157233715,-6.8190329496055835,16.241579002845285
1780097882982780200,7.6727802734375,0.07919950118213892,-6.975156992775202,14.561452664005756
1780097882992773000,7.682773193359375,3.189100868986547,-7.237245502194762,12.092545599216223
1780097883002767000,7.69276708984375,9.371175346964597,-7.371707748654484,5.941359303715824
1780097883012760000,7.702760009765625,10.82460773037076,-5.563976189643144,-2.282126017549634
1780097883022753300,7.712753173828125,9.550482112801074,-3.3147616770923136,-11.37043777809143
1780097883032746000,7.72274609375,9.408646707224845,-5.789228714096546,-18.03568360304236
1780097883042739200,7.7327392578125,-1.6914248547062276,-6.410570806658267,-14.051754252374172
1780097883052733200,7.742733154296875,-15.079676911920307,-1.3612199636548756,-4.841110243627429
1780097883062726100,7.75272607421875,-17.24058185737729,1.1093342838197946,2.7719220433592793
1780097883072719000,7.762718994140625,1.3650951976530252,3.8946372022777793,11.900851645493507
1780097883082712000,7.772712158203125,22.64428682104349,13.833874887037277,21.05987009642124
1780097883092705300,7.782705322265625,19.613646036958695,5.837352401274442,14.508281045788525
1780097883102698000,7.792697998046875,-19.984728589582442,-1.6599024659782646,2.544485745126009
1780097883112692200,7.802692138671875,-12.645460052239894,11.777037049776315,1.1563847888082266
1780097883122685200,7.812685302734375,-13.831940119582415,14.241900392132997,-0.5352373420357703
1780097883132678100,7.82267822265625,-13.96434484899044,11.92965688421726,1.076311719661951
1780097883142671000,7.832671142578125,-14.744549469774961,12.600087125074863,0.7388187174290418
1780097883152664000,7.8426640625,-10.625559322232007,13.947946671897173,-0.9365811774104833
1780097883162657000,7.852656982421875,-1.1427145753741264,14.385143326419591,-1.0524591349095105
1780097883172651000,7.862651123046875,10.206944618582725,12.519209169286489,-0.9012813159704208
1780097883182644200,7.872644287109375,10.593312418621778,10.862519820135832,-4.230010728138685
1780097883192637200,7.88263720703125,-3.3329286174237724,8.028547271054983,-8.288436224603652
1780097883202630100,7.892630126953125,-9.502089545553922,6.16397446540296,-10.129963085711001
1780097883212623000,7.902623046875,-10.494297917640209,6.043229778650403,-11.400299832391738
1780097883222616300,7.9126162109375,-8.93716433674097,6.138185944151878,-10.26961939368248
1780097883232610300,7.9226103515625,-4.429185977527499,5.7017883310526605,-8.998557839858531
1780097883242603000,7.93260302734375,5.295101965606213,3.9077363378256558,-7.746046672725677
1780097883252596200,7.94259619140625,18.27570115042925,1.4656681801229714,-6.365836761918664
1780097883262589200,7.952589111328125,18.2343871432662,0.2994984948813915,-4.441810773561895
1780097883272582100,7.96258203125,9.366758699566125,0.9971890831083059,-4.444715262831747
1780097883282575000,7.9725751953125,4.38517089471221,0.5108341376632451,-5.953067861688137
1780097883292569000,7.982569091796875,3.542455749478936,-1.3274468733906746,-6.851209126067161
1780097883302562300,7.992562255859375,3.69049234778285,-3.442192709740996,-7.088273668867349
1780097883312555000,8.002554931640624,3.2204630987167358,-5.5459618095248935,-7.274076226463913
1780097883322548200,8.01254833984375,4.47851261075437,-7.59450937282443,-7.411641699635982
1780097883332541200,8.022541259765624,7.675594249361753,-10.02703813328743,-7.528788069635629
1780097883342534100,8.0325341796875,8.612688052469492,-12.230405086898802,-7.369267954286933
1780097883352528100,8.042528076171875,8.215728715789318,-13.5512819342494,-7.558734879609942
1780097883362521000,8.05252099609375,8.457552435815334,-14.396494741517305,-8.049767753738164
1780097883372514300,8.062514404296875,7.698060348191857,-14.588371066069602,-8.022612035787105
1780097883382507000,8.072507080078125,7.6227271670490495,-13.947730398797988,-7.554639134728908
1780097883392500200,8.082500244140626,6.702892541778088,-12.337998031133413,-6.235764859372377
1780097883402493200,8.0924931640625,4.731782438424229,-10.128118334627151,-3.7333860253527758
1780097883412487000,8.10248681640625,4.300103670540452,-8.028249164891243,-1.0157043984860181
1780097883422480100,8.112480224609374,4.7771238014072175,-6.077848087567091,1.4567258719936012
1780097883432473000,8.12247314453125,5.033299287390709,-4.37647963873446,2.595114985384047
1780097883442466000,8.132466064453125,4.702254730644822,-2.353765604871511,2.757101783107221
1780097883452459000,8.142458984375,1.231565994259715,-0.08740648077428341,1.8373177189797163
1780097883462452200,8.1524521484375,-3.892469210588932,2.4049574474483726,-0.09229396055489777
1780097883472446200,8.1624462890625,-5.563676914435625,5.588142078128457,-2.702199980096519
1780097883482439200,8.172439208984375,-5.525878221917152,11.080313845276832,-5.084314019834995
1780097883492432100,8.18243212890625,-4.443480460339784,17.482116823589802,-6.326135450649261
1780097883502425000,8.192425048828126,4.788579845923185,18.549581219929454,-6.403118152564764
1780097883512418000,8.20241796875,5.844795703017711,20.125556279420852,-7.362265966570377
1780097883522411000,8.212410888671876,2.676893104882538,22.781591012930868,-9.715295658382773
1780097883532405200,8.2224052734375,1.3394073602974415,22.424534647572038,-10.22274775239229
1780097883542398200,8.232398193359375,2.913359974050522,19.349205995976924,-9.455251806533337
1780097883552391200,8.24239111328125,5.501631084889173,14.385565351223946,-8.353663606795669
1780097883562384100,8.252384033203125,3.2138381276190278,10.338712219130992,-7.344009594389796
1780097883572377000,8.262377197265625,-0.836453454490006,9.860581496673822,-5.452188716328144
1780097883582370000,8.2723701171875,-2.1763082662940025,9.52072351887524,-1.619078872680664
1780097883592364000,8.282364013671875,-3.7192782972842453,7.8650383783310645,2.30386029497385
1780097883602357200,8.292357177734376,-4.87265309062153,6.01264876242578,5.491177495414019
1780097883612350200,8.30235009765625,-5.062869080746173,3.522248827752471,7.779288432592153
1780097883622343200,8.31234326171875,-4.261616118974984,0.22161913638710976,7.790635171514749
1780097883632336100,8.322336181640624,-3.2930279841899868,-3.138566321274638,6.33951048052907
1780097883642329300,8.332329345703124,-3.6066470666214823,-5.877381044802069,4.168316780769825
1780097883652322000,8.342322021484375,-5.025887549829482,-7.880560357111692,2.4618647450625897
1780097883662316000,8.35231591796875,-6.176368083029985,-8.934064032638073,2.5918799489855764
1780097883672309200,8.362309326171875,-7.1220444210439915,-9.368139340269565,4.176961859518289
1780097883682302200,8.37230224609375,-8.41942173486352,-9.60369640111625,6.006136604052782
1780097883692295200,8.382295166015625,-9.08252324026823,-9.443691717121004,7.967254890224337
1780097883702288100,8.3922880859375,-8.936140254390239,-9.099975310328603,9.911054961848258
1780097883712281300,8.40228125,-7.925803520417213,-8.335741581135988,11.67997251381874
1780097883722275000,8.412275146484374,-3.645976329708099,-7.159859480175376,14.921646742868422
1780097883732268000,8.42226806640625,0.2706070391789079,-6.01977291521728,17.764743678647278
1780097883742261200,8.43226123046875,2.799569928741455,-5.781417748084664,18.09970160944462
1780097883752254200,8.442254150390625,6.5074903811872,-5.819865259900689,16.877452309584616
1780097883762247200,8.4522470703125,8.887360733652114,-5.189898546856641,11.025199276298284
1780097883772240100,8.462240234375,8.925399664667248,-4.180807429030537,2.984006458681822
1780097883782233300,8.4722333984375,6.037798985773325,-3.912193901756406,-5.5967561772167675
1780097883792227000,8.48222705078125,2.911784979818761,-5.789058033704757,-12.990631918537616
1780097883802221000,8.492220947265626,-1.1045526025012136,-8.21053991497457,-14.63541104966402
1780097883812214000,8.502214111328126,-9.060728757089375,-6.661620035669207,-9.376461762934923
1780097883822207000,8.51220703125,-15.799538999944925,-3.6443034280598163,-1.7667197496652602
1780097883832200000,8.522199951171874,-11.961510989117622,0.525698529317975,5.757879636108875
1780097883842193000,8.53219287109375,2.9011145327225325,5.175844302541017,13.931698132407664
1780097883852185900,8.542185791015624,11.182012470775842,7.675017326256632,22.74792722826004
1780097883862180000,8.55218017578125,6.463508616119623,7.860506580120324,25.056629702568053
1780097883872173000,8.562173095703125,-3.972669120985269,6.00931114243567,10.809693069833516
1780097883882166000,8.572166015625,-6.528261951059102,11.6115670861125,3.0245956587016583
1780097883892159000,8.582158935546875,13.095313943761587,18.010412383663652,-6.4197974846869705
1780097883902152000,8.59215185546875,-1.396746765718609,14.771259782046078,-4.418620744371414
1780097883912145000,8.602144775390625,-19.687889669299125,15.136902773964405,-2.30630359647274
1780097883922137900,8.612137939453126,-26.86972074278593,19.323857619708775,-11.909102756488323
1780097883932132000,8.622132080078124,-23.60047812333107,15.53734819919467,-12.63532444267273
1780097883942125000,8.632125,5.009146842908859,9.39666459300816,-8.955784281536936
1780097883952118000,8.642117919921875,36.157570156288145,3.5266695668041703,-3.8744928243935104
1780097883962111000,8.652111083984375,0.20352599194422363,4.135075605425238,-4.225986294928193
1780097883972104200,8.662104248046875,-18.7512599765718,5.6233554303288456,-6.025605274632572
1780097883982097000,8.672096923828125,-14.102209012848139,5.832213869342207,-5.007676770356297
1780097883992091000,8.6820908203125,-2.6999977938771247,4.445905057138204,-4.689458085174858
1780097884002084000,8.692083984375,6.760230632025003,2.4396277788132426,-6.247298060777783
1780097884012077000,8.7020771484375,8.44911369329393,1.870565324065089,-9.027233899244665
1780097884022070000,8.712070068359376,5.3624955859214065,2.429352468514442,-9.352140976148844
1780097884032063000,8.72206298828125,5.421619975063204,2.635454302296042,-7.205459786355495
1780097884042056200,8.73205615234375,8.498858259671927,1.9355922152489422,-6.449989793854951
1780097884052049000,8.742048828125,9.347672890824079,0.9122674048870801,-6.591880144488811
1780097884062043000,8.75204296875,8.262999585530162,-0.49950201178789133,-6.519340977978706
1780097884072036000,8.7620361328125,6.698796796897053,-2.1920687300056216,-6.676632311362027
1780097884082029000,8.772029052734375,5.802534770393371,-4.468457665207982,-6.1861494723320005
1780097884092022000,8.78202197265625,6.365068115633726,-6.528063213616609,-4.774304360072314
1780097884102015000,8.792014892578125,7.333886259782314,-7.651397381216287,-3.031267099289596
1780097884112008200,8.80200830078125,6.713900842526555,-8.128916109254956,-1.2716025288328527
1780097884122001000,8.8120009765625,7.631853307312727,-9.32920901337266,-1.1956626139685511
1780097884131994000,8.821994140625,8.608131119817495,-10.835734689062834,-2.6430302905082703
1780097884141988000,8.831988037109374,7.606123822772503,-10.550316157460212,-3.5382413466542957
1780097884151981000,8.84198095703125,6.957593279033899,-10.063220038259029,-3.4352655408263204
1780097884161974000,8.85197412109375,6.835131851491331,-10.226561173200606,-3.1105507716238496
1780097884171967000,8.861967041015625,5.640927327376604,-9.778635034871101,-2.677257262019813
1780097884181960200,8.871960205078125,4.136625757476687,-8.904138265451788,-1.3575333840966224
1780097884191953000,8.881952880859375,4.337137223905325,-7.906706605759263,0.22943331726938485
1780097884201946000,8.891946044921875,5.110283158349991,-6.230139420706033,0.9169631614878773
1780097884211940000,8.901940185546875,4.821382629850507,-3.9327807627111673,1.0934282741576433
1780097884221932800,8.911932861328125,1.8435709341555833,-1.0097446132987737,0.9762006556153296
1780097884231926000,8.921926025390626,-4.298703740614652,3.14902575596869,0.8216381626740098
1780097884241919000,8.9319189453125,-6.576163519918918,7.653419826954603,0.2902227170139551
1780097884251912200,8.941912109375,-5.014415723222494,13.395638952594995,-2.0884294918328523
1780097884261905000,8.95190478515625,-4.27162868668437,18.86322982071638,-4.0474887996479865
1780097884271898000,8.961898193359374,3.5544296803891657,19.051064760923385,-5.393512070953846
1780097884281891000,8.97189111328125,4.494095379811525,19.71096893159151,-7.968248577436804
1780097884291884800,8.981884765625,1.7662639687217772,20.963765345406532,-11.580991915106774
1780097884301878000,8.9918779296875,0.7118947624072433,18.70037968416214,-14.577917476594447
1780097884311871000,9.00187109375,2.6648610140442845,15.334368296825884,-16.42374875689745
1780097884321864000,9.011864013671875,4.125996519173682,12.599811230742931,-14.050463628041744
1780097884331857000,9.02185693359375,2.30391640907526,10.627819083857535,-8.432634852179884
1780097884341850000,9.03185009765625,-1.4467565589040516,9.936984352874756,-3.131501205193996
1780097884351843000,9.041843017578126,-3.6030081255972384,9.580851532101631,0.8365262274652719
1780097884361836800,9.0518369140625,-4.425322580097616,8.194474915358423,3.7099797230631113
1780097884371830000,9.061830078125,-4.92344775057435,5.722869697526097,5.482758042114972
1780097884381823000,9.071822998046875,-4.329157331067323,3.3655794256597757,7.034657229492068
1780097884391816000,9.08181591796875,-3.5254032001301643,0.7219061610728502,7.167810731440782
1780097884401809000,9.091808837890625,-3.2971444795981046,-2.173649276217818,6.39518034530282
1780097884411802000,9.101802001953125,-3.481231465448439,-4.680964105334878,5.156771353280544
1780097884421794800,9.111794921875,-4.714065579947829,-6.358636621281504,4.000564259126782
1780097884431788000,9.1217880859375,-6.226894155174493,-7.277967973205447,4.0739065587133165
1780097884441782000,9.131781982421876,-7.128991463702917,-7.423343827867508,5.409920769441127
1780097884451775000,9.14177490234375,-7.733268439695238,-7.790975363254547,6.821489695107936
1780097884461768000,9.151767822265626,-8.234217143160103,-8.063630274873972,8.158607483163475
1780097884471761000,9.161760986328124,-9.11894947538972,-8.019013719034195,9.393790498876571
1780097884481754000,9.171754150390624,-9.497826042890548,-8.041209768751264,10.38879405463934
1780097884491746800,9.181746826171874,-7.52065503206253,-8.495406073391438,11.687415815562009
1780097884501740000,9.191739990234375,-2.8069711449086663,-8.679797595146297,13.713919304835796
1780097884511733000,9.20173291015625,-0.08606178816705942,-8.965683744260668,15.509194117856024
1780097884521727000,9.21172705078125,0.7327195237711072,-9.361762206453085,14.973976649564504
1780097884531720000,9.221719970703125,3.83038714068532,-9.860282221466303,13.540176018345354
1780097884541713000,9.231712890625,8.449834408783913,-10.85017588686943,9.396332000052928
1780097884551706000,9.2417060546875,4.682713287089765,-8.537521460065244,2.7880145155042406
1780097884561698800,9.25169873046875,-0.9106123311564326,-5.191754988378286,-2.064819483664632
1780097884571692000,9.261692138671876,2.9212349452093243,-5.711172829991579,-7.808001316857338
1780097884581685000,9.27168505859375,2.8023627743303776,-7.5217533486932515,-9.303488296660781
1780097884591678000,9.281677978515624,-7.892905459421873,-6.14297493199408,-4.532535292842984
1780097884601672000,9.291671875,-13.12809276229143,-2.14805715432167,1.22266021874845
1780097884611665000,9.301664794921875,-1.2735352504611015,0.13641338052749633,5.7137266061276195
1780097884621658000,9.311658203125,15.45640243886709,8.770447003364563,13.407699977266788
1780097884631650800,9.32165087890625,26.49352713075876,14.95253755569458,15.44790232154727
1780097884641644000,9.33164404296875,5.887642326575517,6.2148717089474195,6.05746464022994
1780097884651637000,9.341636962890625,-15.429655886238812,8.304842585003376,2.433614802134037
1780097884661630000,9.3516298828125,-14.806967055243252,24.3667512493968,-1.2921914356142281
1780097884671623000,9.361622802734376,-18.019142802608012,23.531997876822945,-3.244800252115726
1780097884681616100,9.3716162109375,-19.911780257749555,18.33004064338207,-4.125478340518474
1780097884691610000,9.381610107421874,-18.29906098322868,17.870510576498507,-3.9999505111426115
1780097884701602800,9.391602783203124,-12.99678108881712,17.08701275938749,-5.320508794063329
1780097884711596000,9.401595947265625,-2.04247481925711,13.930780433040857,-7.290355161091685
1780097884721589000,9.411589111328125,36.43067047358751,7.285135965138673,-8.001049607798457
1780097884731582000,9.42158203125,14.386220015740394,0.9681868605077266,-8.013076145678758
1780097884741575000,9.431574951171875,-15.335568904787301,4.4112394019484515,-8.057503316426276
1780097884751568100,9.441568115234375,-16.076116053444146,6.167640002173185,-8.71966607967615
1780097884761560800,9.451560791015625,-11.33585980118513,6.300032456621527,-8.259811018621921
1780097884771555000,9.46155517578125,1.7156792982578277,3.7848885413140056,-10.063079753005503
1780097884781548000,9.471548095703126,14.916397736299038,-0.07013444345593452,-10.980741710412502
1780097884791541000,9.481541015625,11.334278084951638,-0.3779366563022136,-8.268774077278374
1780097884801537300,9.491537353515625,3.337911666533351,2.1099287914574143,-6.5066884171545505
1780097884811530200,9.5015302734375,1.9970015004575252,2.251249817770719,-5.869437976843118
1780097884821523500,9.5115234375,4.468917099413275,0.31778409315645695,-5.552870273739099
1780097884831516200,9.52151611328125,6.260534558969736,-1.6420605198174714,-6.070757837045193
1780097884841509400,9.53150927734375,5.934063886010646,-3.207987063503265,-7.053520335394143
1780097884851502300,9.54150244140625,7.406191033014655,-5.254708580419421,-7.21719990850985
1780097884861496600,9.55149658203125,9.249783594480157,-7.307502110725641,-6.649340984332561
1780097884871489300,9.5614892578125,8.293069729623198,-9.265234261590242,-5.257978395870327
1780097884881482200,9.571482177734374,6.585979396012425,-10.836514441263676,-5.277056605827808
1780097884891475500,9.581475341796875,5.696315452599525,-12.705421476727723,-6.433000665131211
1780097884901468200,9.59146826171875,5.633858119642734,-13.700250844967364,-6.634663639682531
1780097884911461400,9.60146142578125,5.48007800925076,-13.215643619972466,-6.204003693452477
1780097884921454300,9.611454345703125,5.7262710304021835,-12.216577637076377,-5.000848970162868
1780097884931447300,9.621447265625,6.234238088196515,-10.353252785658835,-3.116078302873671
1780097884941440300,9.631440185546875,6.842923528280854,-8.153496423760057,-0.3977881887197494
1780097884951434500,9.6414345703125,6.279604585620761,-6.191356393325329,2.0980109746485947
1780097884961427500,9.651427490234376,5.416530542969704,-4.7246255524069065,3.393501451808214
1780097884971420400,9.66142041015625,5.478835900235175,-3.7206221131086346,4.014707643030584
1780097884981413400,9.671413330078124,6.204430978953838,-2.504928226241469,3.8487957808181643
1780097884991406300,9.68140625,4.217210867798328,-0.6715162825286388,3.486981115016341
1780097885001399300,9.6913994140625,-1.831197190272808,1.744759846791625,2.7932258204117417
1780097885011392300,9.701392333984375,-7.930706490027904,3.981211323881149,0.7744833205282687
1780097885021385500,9.711385498046875,-9.569953705990313,7.242360653251409,-1.8482444789245724
1780097885031378200,9.721378173828125,-10.174631079477072,12.75236910586357,-2.8642192187845703
1780097885041372400,9.731372314453125,-12.801219938272236,16.17773050779104,-3.413845151656866
1780097885051365400,9.741365478515625,0.9907843306325376,18.72971099258661,-7.515968335551023
1780097885061358300,9.7513583984375,9.824491946160792,23.582339240050313,-9.397859355750679
1780097885071351300,9.761351318359376,6.599936025172472,25.23528764910698,-10.466682765483856
1780097885081344300,9.77134423828125,2.9620100231900808,22.105607814121246,-13.796991555798053
1780097885091337500,9.78133740234375,3.762955526447296,15.207728122293949,-16.77714601522684
1780097885101330200,9.791330078125,4.250762132005393,9.142123430228233,-17.633603854608534
1780097885111323400,9.801323486328124,0.7155702360495925,6.029096623879671,-14.246636188483237
1780097885121316400,9.81131640625,-1.433961959260702,7.675736288180947,-7.8803855850666755
1780097885131309300,9.821309326171875,-2.7229192352592944,7.839112494435906,-1.885714962401986
1780097885141303300,9.83130322265625,-2.9983915423870084,6.351228390851617,2.5486381886303424
1780097885151296300,9.841296142578125,-3.1710239450260995,4.50383994423449,6.953974504014849
1780097885161289500,9.85128955078125,-3.2418142220422625,1.9151660978138445,9.88964392502904
1780097885171282200,9.8612822265625,-3.3875746921077368,-0.5580126529455185,10.666272440892458
1780097885181275400,9.871275390625,-3.960030296425521,-3.2205805876165625,9.796216284269095
1780097885191268400,9.881268310546876,-4.415537683664262,-5.485816845163702,8.404212475293875
1780097885201261300,9.89126123046875,-4.791351356463134,-7.279285485544801,7.2687950711905955
1780097885211254300,9.901254150390624,-5.810865376365184,-7.9263459567308425,6.5322407915622
1780097885221247500,9.91124755859375,-7.981962045490741,-8.38607417653501,6.477495640417933
1780097885231241500,9.921241455078125,-9.564200841552019,-8.711108679211138,6.948538450440764
1780097885241234200,9.931234130859375,-9.485708904117345,-8.96138867741525,7.838514528542756
1780097885251227400,9.941227294921875,-7.780425912189483,-9.501462938088178,8.986795505872369
1780097885261220400,9.951220458984375,-3.931327933554351,-9.520168223080038,10.755628302168846
1780097885271213300,9.96121337890625,0.23659064167812466,-8.641520763722061,13.49486621954441
1780097885281206300,9.971206298828125,-0.039408465802669525,-8.629812205749749,15.003975481986998
1780097885291199500,9.981199462890626,-0.28700346270650623,-8.039059312719106,15.193285755443572
1780097885301192200,9.991192138671876,1.105961300255358,-6.944494728007912,15.230059196567534
1780097885311185400,10.001185302734376,4.112132244472205,-6.162428989526629,14.563079972946642
1780097885321178400,10.011178466796874,5.181306075078249,-5.703845263582468,8.64540257359147
1780097885331171300,10.02117138671875,2.7730770586133002,-4.638001161921024,1.5053583854764698
1780097885341165300,10.031165283203125,-0.7922150843128561,-4.001616983050107,-3.1132074236124754
1780097885351158300,10.041158203125,-0.6580325315773486,-5.168853420740366,-6.042643503195047
1780097885361151500,10.0511513671875,-0.4728422606602311,-6.58641778742969,-6.891780790430307
1780097885371144200,10.061144287109375,-10.23319432760477,-4.671622861015797,-1.8042828798621893
1780097885381137400,10.071137451171875,-4.2351030828416345,-1.9222563483357429,3.2240298512876033
1780097885391130400,10.08113037109375,20.27474029419422,3.9187925693690775,10.497886882042884
1780097885401123300,10.091123291015625,24.359832848310468,10.06801194871068,14.430060326510667
1780097885411116300,10.1011162109375,4.020055141538381,6.043751172176003,7.158814355036616
1780097885421109500,10.111109619140626,-20.135995840370654,7.153333877798914,4.603695572215319
1780097885431102200,10.121102294921876,-13.958921654897928,17.82869388051033,2.3269383882224557
1780097885441095400,10.131095458984374,-19.089636191380023,21.218710412812232,-1.8062977268159388
1780097885451089400,10.14108935546875,-17.9551961078763,17.934534428119658,-3.105792178919911
1780097885461082400,10.151082275390625,-18.984327558690307,14.081927272319794,-5.508542471712827
1780097885471075300,10.161075439453125,-17.155414679962394,12.754805393099785,-8.27969645330906
1780097885481068300,10.171068359375,-8.853917898255586,11.856804413974285,-9.718809803983568
1780097885491061500,10.1810615234375,42.985393730592726,8.435602469813823,-8.342088319814204
1780097885501054200,10.19105419921875,23.21915007102489,1.4049042070806026,-8.822787431454659
1780097885511047400,10.20104736328125,-18.443446073287724,6.460943734067678,-9.718271459323168
1780097885521040400,10.211040283203126,-16.032120259851215,6.103358960920572,-10.34408865147233
1780097885531033300,10.221033447265626,-11.981783377295733,5.544500504800677,-9.108841922873259
1780097885541026300,10.2310263671875,-1.8344062154471874,6.091158820039033,-8.033341519594192
1780097885551020300,10.241020263671874,7.821398558568954,4.597980117177963,-7.792499211820959
1780097885561013500,10.251013427734375,7.81717188078463,3.8971079763054846,-6.166442901343107
1780097885571006200,10.261006103515625,2.704926482450962,5.115036490356922,-5.7006613728493445
1780097885580999400,10.27099951171875,4.4337101769536735,5.085511120665073,-5.8877159763336175
1780097885590992400,10.280992431640625,7.879937841299176,3.001032996806502,-6.369366689610481
1780097885600985300,10.2909853515625,8.10446029791236,0.4351104958981275,-6.680722211024165
1780097885610978300,10.300978271484375,5.775614030241966,-1.5227894127488135,-7.4067936750829215
1780097885620971500,10.310971435546875,4.824872810053825,-3.2819419420301914,-7.824192573201656
1780097885630964200,10.320964111328125,5.338758151981234,-5.242006919756531,-6.67403469608426
1780097885640957400,10.33095751953125,7.42538965448141,-6.757336664149165,-4.78426198272407
1780097885650950400,10.340950439453126,10.64944639377594,-8.46048790474534,-2.5679016920268536
1780097885660944400,10.3509443359375,9.423552015411854,-9.751095286038517,-2.1170532365098595
1780097885670937300,10.360937255859374,6.412019251900911,-10.608068089205027,-4.396133602753281
1780097885680930300,10.370930419921875,6.348796195268631,-11.509776106154918,-6.299441504991054
1780097885690923500,10.380923583984375,7.05585725390911,-12.115034494400025,-7.424974059417844
1780097885700916200,10.390916259765625,7.2678808789551255,-12.148020233678817,-7.675657377725839
1780097885710909400,10.400909423828125,6.119474813941121,-11.409098055875301,-7.360400172698498
1780097885720902400,10.41090234375,5.430540363621711,-9.88613562464714,-5.5928913184821605
1780097885730895400,10.420895263671875,5.512493255165219,-7.957373547679185,-1.922918027114868
1780097885740888300,10.430888427734375,4.279817838358879,-5.9406993785023685,0.8862851146295666
1780097885750881500,10.440881591796876,2.5527017848074434,-4.267168200144171,2.270124029588699
1780097885760874200,10.450874267578126,2.0485458097338674,-3.0428233893096444,3.0733389390826225
1780097885770867500,10.460867431640626,-0.3122697136491537,-0.917683584716916,2.9810546231389043
1780097885780861400,10.470861328125,-4.157815260499715,2.677617035242915,1.3320292327448724
1780097885790854400,10.4808544921875,-4.534553646928072,6.351166431531309,-0.32579233530610796
1780097885800844000,10.490843994140626,-1.6844459556043148,11.496917793625592,-1.688611550851166
1780097885810836700,10.500836669921876,2.0659446883022783,16.380615717613697,-2.4971654832854866
1780097885820830000,10.510829833984374,4.647981288665533,17.7846583394289,-2.6252806988060473
1780097885830823000,10.520822998046874,0.11398512948974966,19.888492905664442,-4.2813411024034025
1780097885840815900,10.53081591796875,-2.861364413875341,21.19306860655546,-8.7359859308362
1780097885850808800,10.540808837890625,-2.1251272373721,19.37418846154213,-13.672612311935424
1780097885860802000,10.550802001953125,2.2752701603055,16.570632093513012,-16.459201178550718
1780097885870794800,10.560794677734375,4.56020977397114,14.165703287637234,-15.12911226621866
1780097885880788000,10.5707880859375,3.068528031669557,12.589185791832207,-10.148303044521809
1780097885890781000,10.580781005859375,-0.275071617372334,11.644153012418746,-5.557591457042098
1780097885900774000,10.59077392578125,-2.774377035295963,10.358062231767176,-2.009327313545346
1780097885910767900,10.600767822265626,-4.143769491751492,7.988339179307222,0.8646393922716379
1780097885920760800,10.6107607421875,-4.79259901843667,4.810471944257617,2.3649884251534936
1780097885930754000,10.620754150390624,-4.453993086525798,1.5132587833374738,3.0924907987982033
1780097885940746800,10.630746826171874,-3.8650858213618395,-1.2249679111689329,3.0692618989020586
1780097885950740000,10.640739990234374,-3.573525133742392,-3.3846301630884406,3.2001234905213116
1780097885960733000,10.65073291015625,-4.21051283146441,-5.12589398445785,3.3741473475188015
1780097885970726000,10.660725830078125,-5.586221923720836,-6.28400661997199,3.847330092179775
1780097885980718800,10.67071875,-7.156677927529811,-6.94489103384912,4.866798227113485
1780097885990711800,10.6807119140625,-7.607590972715616,-7.350573775210976,6.266414264658093
1780097886000704800,10.690704833984375,-6.706290952044725,-7.803509850656986,7.6770514624327415
1780097886010697700,10.70069775390625,-5.721007410785555,-8.501084703549742,9.11601634454727
1780097886020691000,10.71069091796875,-6.041380935913324,-9.05145122565627,10.386692113924026
1780097886030684000,10.720683837890626,-8.189623968195916,-8.878783459442854,10.806631344175338
1780097886040676900,10.7306767578125,-9.052622607523203,-8.628845406544208,11.071361308014392
1780097886050670800,10.7406708984375,-7.841541182887553,-8.430413084477186,12.228740368556975
1780097886060664000,10.7506640625,-5.029199450856447,-8.29524824270606,13.901112440007925
1780097886070656800,10.76065673828125,-1.3526985112860799,-8.136430138146876,15.098829356157779
1780097886080649700,10.770649658203125,1.9139950082078574,-8.660384454146026,15.015835431128739
1780097886090643000,10.780642822265625,5.52763529471755,-8.756583313184976,12.811627935039997
1780097886100635600,10.7906357421875,4.417232212622463,-7.015401909402012,6.815796451902389
1780097886110628900,10.80062890625,0.6834633254319429,-3.664529639008641,1.3340566469192503
1780097886120621800,10.810621826171875,9.106409142768383,-3.5537270850777625,-6.427022175243496
1780097886130615000,10.820614990234375,14.47421744814515,-6.057794310575724,-11.763608243882656
1780097886140607700,10.830607666015625,-5.419731384837627,-4.494568842542171,-5.508920657375454
1780097886150601000,10.84060107421875,-13.271072661727667,-0.5929138704568148,0.6721253543376923
1780097886160594000,10.850593994140626,-9.65543535618186,0.11724164706766604,5.7722927768647665
1780097886170587000,10.8605869140625,9.156866241329908,1.6534183646559715,14.365601590603589
1780097886180579800,10.870579833984374,21.248200711190698,8.561288704621791,18.95111385587454
1780097886190573000,10.880572998046874,2.219647934065759,6.777634771290421,7.529986339509486
1780097886200566800,10.89056689453125,-20.97762085227966,8.66493086540401,0.15011048196852206
1780097886210559700,10.900559814453125,-13.884631260806321,14.838263526260851,-1.2019710664629935
1780097886220553000,10.910552978515625,-15.10348799561858,16.94560873096585,-3.6073487851500508
1780097886230546000,10.9205458984375,-13.670225124537945,14.14979961606264,-6.304580036923289
1780097886240539000,10.930538818359375,-13.966224671387671,10.360372262275218,-8.807532579177618
1780097886250531800,10.94053173828125,-10.642840127378701,9.449241752463578,-9.334050023663043
1780097886260525000,10.950525146484376,4.30190545926541,9.331405062112212,-7.070770160880684
1780097886270517800,10.960517822265626,18.89145170659423,9.106398621374368,-4.203496815222501
1780097886280511000,10.970510986328126,-1.9802362436175345,9.809842658561468,-8.439016077649592
1780097886290504000,10.98050390625,-8.667962780445814,7.023396999809146,-9.822174901390076
1780097886300497000,10.990496826171874,-8.336102815663814,2.775925433781743,-8.867167840451001
1780097886310489900,11.00048974609375,-3.834498667657375,2.7410721470654007,-7.604311220392584
1780097886320483000,11.010483154296875,2.189827088558674,2.7391519926577805,-5.403600918769836
1780097886330475800,11.020475830078125,4.201454495739936,3.0513503946363922,-3.9567470369711515
1780097886340469000,11.030468994140625,5.5607233253270385,3.6004391518920658,-2.399746142540872
1780097886350463000,11.040462890625,5.7397389992624515,4.39143755389154,-1.4985840690359473
1780097886360456000,11.0504560546875,8.644871827715635,4.431354553738236,-1.8789941297143697
1780097886370449000,11.060448974609375,10.839220777612924,3.0860762555807826,-3.878975522765517
1780097886380441900,11.07044189453125,9.690111532765627,0.9720663322895765,-6.325657311743497
1780097886390435000,11.08043505859375,7.331921681711077,-1.1061340264737605,-7.836490913760661
1780097886400427800,11.090427734375,4.38132824780941,-3.2198072651565073,-8.437806117337942
1780097886410421000,11.1004208984375,3.192390265920758,-5.189607454955578,-8.003070299971103
1780097886420414000,11.1104140625,4.365397103706002,-7.014264429804682,-6.418802043908834
1780097886430407000,11.120406982421875,6.942866834545135,-8.667459507098794,-4.835047874848544
1780097886440400000,11.13039990234375,8.376601999312639,-9.949740958595275,-5.171254636663198
1780097886450393000,11.14039306640625,9.32342809188366,-11.325362957090139,-6.83381200106442
1780097886460385800,11.1503857421875,9.367810254445672,-11.630509102469683,-8.016074742972851
1780097886470378800,11.160378662109375,6.761535284882783,-10.371630153870582,-7.859959467631578
1780097886480372000,11.1703720703125,5.8490697270751,-9.961586879211664,-6.771153008055687
1780097886490364700,11.18036474609375,5.593949303102493,-9.518797519248723,-5.199855292725562
1780097886500358000,11.19035791015625,4.311014356133342,-7.896425450241566,-2.4354016855508087
1780097886510350800,11.200350830078126,4.040207702729106,-6.130584236976504,0.8237000636398791
1780097886520343800,11.21034375,4.995467861646413,-5.17716298392415,2.891671581594646
1780097886530337800,11.220337890625,4.046719861102104,-3.8062428795099255,3.5287060410678386
1780097886540331000,11.2303310546875,0.7446615982383489,-1.3739835836380718,3.0224872882455585
1780097886550324000,11.240323974609375,-3.6498639847964047,1.3363216692417859,1.9776774990454316
1780097886560317000,11.25031689453125,-5.584786337959766,3.6042742000102996,0.6821767927527427
1780097886570310000,11.260309814453125,-3.770374278271198,6.586669131842255,-0.23796762911975383
1780097886580302800,11.270302734375,-1.187557998772338,12.210125684458017,-1.5526549741804598
1780097886590295800,11.2802958984375,2.6655422743067145,16.450496478569505,-2.987640723530948
1780097886600288800,11.290288818359375,4.770803366214037,17.83018558037281,-3.4358547388911247
1780097886610282000,11.300281982421875,1.0070637036517263,20.115497826743123,-4.326707599827647
1780097886620274700,11.310274658203125,-0.6258391117200255,19.8328113504529,-7.521763285565376
1780097886630268000,11.320267822265626,0.5002186356246471,17.551826904153824,-10.474513020718097
1780097886640260900,11.3302607421875,2.2698960660517216,15.380365493369101,-11.797732631802559
1780097886650253800,11.34025390625,3.1257202837049958,12.159475693672896,-10.151461800813674
1780097886660246800,11.350246826171874,2.3867031210944054,9.534520573559403,-6.5076154688715935
1780097886670240000,11.360239990234374,0.22424305514991283,8.556420221802592,-3.097631668817997
1780097886680232700,11.370232666015625,-1.7051801160752773,7.917681588760018,-0.05261690694391727
1780097886690226000,11.380225830078125,-2.896784686824679,6.543453674972057,2.498165892499685
1780097886700219000,11.390218994140625,-3.888922916284203,4.321228291633725,4.508568726322054
1780097886710212000,11.400212158203125,-3.982649832251668,1.8451655098706483,5.434323389291763
1780097886720204800,11.410204833984375,-3.5773280331566926,-0.7513058585584164,5.179056834846735
1780097886730198000,11.420197998046875,-3.502846792668104,-3.1407565247952935,3.8422044197291134
1780097886740192000,11.43019189453125,-3.9052144181326027,-5.333147910884023,2.062897575691342
1780097886750184700,11.440184814453126,-5.275807482549548,-6.958558909195661,0.704351215159893
1780097886760178000,11.450177978515624,-6.880154650044441,-7.68453392714262,0.8792284741163253
1780097886770171000,11.4601708984375,-7.235188569664954,-7.2248887094467875,3.4589269869208334
1780097886780163800,11.470163818359374,-6.7099512281179425,-7.227891982915997,5.86811052763164
1780097886790156800,11.48015673828125,-6.600492490011454,-7.775109685602784,7.598990902152657
1780097886800149800,11.490149658203125,-7.00977354812622,-8.237389927977324,9.294916867670416
1780097886810142700,11.500142822265625,-7.195467969173192,-8.363343873810768,10.638153430867195
1780097886820135700,11.5101357421875,-5.87648497274518,-7.988978646254539,11.877752509456872
1780097886830128600,11.520128662109375,-3.219768686711788,-7.663707412213086,13.366820854389667
1780097886840121900,11.530121826171875,-2.0669871830925346,-7.392102886429429,13.857501261818408
1780097886850114600,11.540114501953125,-1.771872894644737,-7.095428216797113,13.830458941113948
1780097886860107800,11.550107666015625,1.9528595763921737,-6.989621571457386,13.658566250926256
1780097886870100700,11.560100830078126,8.753165029174088,-7.378091312211751,8.879978222185374
1780097886880093700,11.57009375,6.758879217416047,-4.766467382836342,1.9624381365984678
1780097886890086700,11.580086669921876,5.439615650480985,-3.4586727198988196,-4.559423884290457
1780097886900079600,11.59007958984375,8.21352389922142,-5.328934677103161,-11.262358511644601
1780097886910072600,11.600072509765624,-2.7762314309909937,-6.058033964550495,-11.370910071778297
1780097886920065500,11.6100654296875,-15.688714818704128,-1.6074357811599969,-4.490734378945827
1780097886930058800,11.620058837890625,-5.13988100875616,2.693336582422256,1.123800616067648
1780097886940051500,11.630051513671875,13.592716352921723,8.59030963192284,12.476533226120472
1780097886950044700,11.640044677734375,33.094483731150625,11.663479644179343,18.77492259171009
1780097886960037600,11.65003759765625,-13.262779465156793,7.825747401428222,8.321100476843117
1780097886970030800,11.66003076171875,-16.907413732606173,12.478919244474172,4.745493568390607
1780097886980024600,11.670024658203126,-13.066488831293583,16.2011172285974,4.392189249041676
1780097886990017500,11.680017578125,-14.572532860946655,14.9347458784163,1.4572265149921177
1780097887000010800,11.6900107421875,-12.084730541551112,12.589435967200993,-0.7280652682244777
1780097887010003500,11.70000341796875,-15.667508364546299,9.552516833499073,-2.8813515553712845
1780097887019996700,11.70999658203125,-11.175544151544571,8.688326354038715,-7.212723055356741
1780097887029989600,11.71998974609375,5.73229978917241,6.219632055217027,-10.081378795284031
1780097887039982600,11.729982666015625,23.880716621947286,2.004762197586894,-9.881195245635508
1780097887049975600,11.7399755859375,1.597492333164066,2.4492571924239397,-10.584894134366511
1780097887059968800,11.74996875,-12.546367225325106,3.383025650501251,-9.916021059823036
1780097887069961700,11.759961669921875,-11.519109751689433,3.01854936427474,-8.059557326346635
1780097887079954700,11.76995458984375,-6.615789427864551,2.7375346205890176,-5.4061587865591045
1780097887089947600,11.77994775390625,0.3633212709724903,3.1502737102031704,-2.510122872275114
1780097887099940900,11.78994091796875,3.473575105476379,4.006614645206928,-1.2411290646359323
1780097887109933600,11.79993359375,3.6991561312317844,4.933106390279531,-1.1139625281423329
1780097887119926800,11.8099267578125,4.989004803112149,5.573395759895444,-2.200002445614338
1780097887129919700,11.819919677734376,8.57275819314122,4.877525957354903,-4.11250604622066
1780097887139912700,11.82991259765625,11.722810954070091,3.3253105436354873,-6.041559799611568
1780097887149905700,11.83990576171875,10.911556530505418,1.5763152512311935,-7.150780686184763
1780097887159899000,11.84989892578125,6.803593972933292,-0.22272680536806583,-8.276599656337499
1780097887169891600,11.8598916015625,4.7742292490094895,-2.0570190390467644,-8.346687338042258
1780097887179884800,11.869884765625,5.424637277057767,-4.25928183080852,-6.787387519019842
1780097887189877800,11.879877685546875,6.7878785174071785,-6.1269964416176075,-4.5111058435842395
1780097887199870500,11.889870361328125,6.84220398183465,-7.259187869411707,-2.7973382241666314
1780097887209863700,11.89986376953125,5.379921352496743,-8.302650627917052,-3.001906272509694
1780097887219856600,11.909856689453125,6.217007551932334,-9.989371542716025,-4.709377714392542
1780097887229849600,11.919849609375,7.04713034209609,-10.998473766458034,-6.059844813364744
1780097887239842600,11.929842529296875,6.20668372631669,-10.930451785111426,-6.461365758872032
1780097887249835800,11.939835693359376,6.384055140176415,-10.996320387816429,-6.361774919307232
1780097887259828500,11.949828369140626,6.5168351326376195,-10.92921493679285,-5.893150860863924
1780097887269821700,11.95982177734375,4.378450062024593,-9.302955797219276,-4.531944048951566
1780097887279814700,11.969814697265624,3.015289485695958,-7.5796344597756855,-3.0134350900009275
1780097887289807600,11.9798076171875,2.3052356749802825,-6.5795461480945345,-1.360236797836423
1780097887299800600,11.989800537109375,1.1482289548814295,-5.304470682454109,0.13793401422351598
1780097887309794600,11.999794677734375,-1.9318898535996674,-2.787143577888608,1.1584174636796116
1780097887319787800,12.009787841796875,-4.929617963641881,0.05728782136440277,0.9809835059776901
1780097887329780500,12.019780517578125,-5.250949520146847,2.8567215565055606,0.3994385862752795
1780097887339773700,12.029773681640625,-2.6247639814555646,6.1500020541518925,0.1082031850874424
1780097887349766700,12.0397666015625,3.366318845850229,11.207084952712059,-0.43225569098889827
1780097887359759600,12.049759521484376,5.982414367681741,16.074590451312066,-1.6165917320400476
1780097887369752600,12.059752685546876,2.9399159725427624,18.415446305727958,-1.6142980681449175
1780097887379745800,12.069745849609374,-0.7574946301959454,18.738663529849052,-3.045692807266116
1780097887389738500,12.079738525390624,-0.21447949376553296,17.824878121614454,-7.271978961923718
1780097887399731700,12.089731689453124,2.1390251220822334,17.178792048418522,-10.408459709095954
1780097887409724700,12.099724609375,3.6968440548971295,15.405039331376551,-11.701529681110381
1780097887419718000,12.1097177734375,3.1336040226921438,12.552991027379035,-9.808639712512493
1780097887429710600,12.119710693359375,2.152214274001121,10.01907460706234,-5.7124277984887355
1780097887439703800,12.129703857421875,-0.16767770284116268,8.963713905492424,-2.4522394231051203
1780097887449696800,12.13969677734375,-2.2584783077195287,7.894163935050368,0.45477790392041206
1780097887459689700,12.149689697265625,-3.305316095615923,6.005778292134404,2.6825866403490304
1780097887469682700,12.1596826171875,-3.5944954410567878,3.3905145449519156,3.1801661596417423
1780097887479675600,12.169675537109375,-3.0787250160351394,0.6046481473922729,2.457165189069509
1780097887489668600,12.179668701171876,-2.8183064856544133,-2.0845067654311658,1.1250813035279512
1780097887499661600,12.18966162109375,-2.644525497502088,-4.295120036908984,-0.02564472886621952
1780097887509654800,12.19965478515625,-3.638653147213161,-5.767738182300329,-0.9715104519724845
1780097887519647500,12.2096474609375,-5.464195964986086,-6.486520658394694,-0.7110697097599505
1780097887529640700,12.219640625,-6.710098527634144,-6.138164901363849,2.3317454962432382
1780097887539633700,12.229633544921874,-6.809515179675817,-6.2875944153308865,5.398605010178684
1780097887549626600,12.239626708984375,-6.183813722860813,-7.391915254902839,7.507886735904217
1780097887559619600,12.24961962890625,-6.4651861939430235,-8.680880129685997,9.081528384011984
1780097887569612800,12.25961279296875,-7.603655971354246,-9.43549379761815,10.219102673888205
1780097887579605500,12.26960546875,-8.180237715691328,-9.606437808778882,10.982326933777331
1780097887589598700,12.2795986328125,-8.327368889588117,-9.578155132624506,11.860150217270851
1780097887599591700,12.289591796875,-6.764065095621347,-9.279815160128473,13.504485111761092
1780097887609584600,12.299584716796875,-3.756317695868015,-8.67507816540897,15.03207812539935
1780097887619577600,12.30957763671875,-1.2152338681399821,-8.679991656413673,14.84195770460367
1780097887629570800,12.31957080078125,3.867824598675966,-7.595419473406672,14.994047962212562
1780097887639563500,12.3295634765625,9.341361223459243,-5.9552890448689455,11.588411835974455
1780097887649556700,12.339556640625,5.0311096683919425,-2.977717003148794,5.080871185904741
1780097887659549700,12.3495498046875,12.102196055614948,-2.719602658057213,-1.4602069921076297
1780097887669543000,12.35954296875,19.768249738693235,-5.211717579954862,-5.686973039236665
1780097887679535600,12.36953564453125,0.43025721064805983,-4.536426455062627,-1.8394769428402185
1780097887689528600,12.379528564453125,-13.629884930843113,-1.779580984804034,2.675609787073731
1780097887699521800,12.389521728515625,-4.134928013648093,3.517314293959737,5.6652574665129185
1780097887709514500,12.399514404296875,6.763706783702969,7.714607578366994,9.572599836584924
1780097887719507700,12.4095078125,15.419633673918247,10.673257477474213,8.622131588119268
1780097887729500700,12.419500732421875,-19.634829110240936,7.078644839778542,1.454824130025506
1780097887739493600,12.42949365234375,-19.17065910859704,12.839026814097165,1.5998679762542247
1780097887749486600,12.439486572265626,-16.964294726735353,17.376434096890687,1.613806485235691
1780097887759479800,12.449479736328126,-15.65437532672882,15.561623393273353,-0.9999766680002212
1780097887769472500,12.459472412109376,-12.380417953711747,13.38313369128704,-4.667168219694495
1780097887779465700,12.4694658203125,-10.445047272258996,10.324739807879924,-6.854797505947947
1780097887789458700,12.479458740234374,5.00237457229495,7.8089973421573635,-8.113352629420161
1780097887799451400,12.489451416015624,22.353297795832155,6.733367175018787,-6.919806861475109
1780097887809444000,12.499444091796875,4.750948326665163,7.680300235095619,-10.128691166079044
1780097887819437300,12.509437255859375,-10.936202311462162,6.111039578551054,-12.35280864677429
1780097887829430300,12.51943017578125,-10.747487081289291,3.9729911925464867,-10.427183114266395
1780097887839423200,12.52942333984375,-5.550242263323068,3.568738776248693,-6.703657096409797
1780097887849416200,12.539416259765625,2.6354934652626514,2.5580712028861043,-2.85545431304872
1780097887859409400,12.549409423828125,3.7314860369503497,2.718677359905839,-1.0437772312819957
1780097887869402000,12.559402099609375,1.8268752354204654,3.0149563082188364,-1.3856605774283408
1780097887879395300,12.569395263671876,2.9862112752497194,2.544761054936051,-0.7839788786262273
1780097887889388300,12.57938818359375,5.87974894297719,3.2000334741503,-1.02400957775563
1780097887899381200,12.58938134765625,10.645908867299557,2.2169319531053304,-2.984449526274204
1780097887909374200,12.599374267578124,12.39997605614066,0.7532792044579982,-4.911293202400207
1780097887919367400,12.609367431640624,10.6795095236063,-0.6382265918672084,-6.175100839573145
1780097887929360100,12.619360107421874,6.9602148597091436,-2.314604976350069,-6.891058321374654
1780097887939353300,12.629353271484375,3.516989299789071,-3.676426413029432,-6.710294926989078
1780097887949346300,12.63934619140625,3.2621254809260365,-5.258019896924496,-5.804294765803218
1780097887959339300,12.64933935546875,5.406407792884111,-7.468034033465385,-4.249663815374672
1780097887969332200,12.659332275390625,5.924307046627998,-9.840063609302044,-3.540352347458899
1780097887979325200,12.6693251953125,5.906019694787264,-11.48949787275791,-4.0496000927135345
1780097887989318400,12.679318359375,8.057548909133672,-13.030394604605435,-5.82461859190762
1780097887999311000,12.68931103515625,8.385975392335652,-13.583601318573951,-6.73955375469923
1780097888009304300,12.69930419921875,7.011331883484124,-12.332441566050052,-6.564725595581531
1780097888019297300,12.70929736328125,6.648420362356305,-11.041983237838744,-6.428977400964498
1780097888029290200,12.719290283203126,5.152950333687663,-9.326537163814901,-5.739058031260967
1780097888039283200,12.729283203125,3.568944527953863,-7.003019397690892,-4.2314089044988155
1780097888049276400,12.7392763671875,4.518209830370545,-5.518844670018553,-2.456438336099684
1780097888059269000,12.74926904296875,6.225946060669422,-4.452131968829035,-0.10376724846661091
1780097888069262300,12.759262451171875,6.002319676113128,-2.580791568738222,1.39905255844295
1780097888079255300,12.76925537109375,3.409878001591563,0.1919581576168537,1.983309075191617
1780097888089248300,12.779248291015625,-1.9410522342205045,3.8687002124667167,2.1127640148833393
1780097888099241200,12.7892412109375,-7.123018819034099,7.039808620905876,1.5359300493508576
1780097888109234400,12.799234375,-7.904706956374644,9.918293680930137,0.4483095846891403
