time,seconds_elapsed,z,y,x
1780001750749764900,0.131764892578125,-1.4208340644836426,0.612694501876831,1.0934890508651733
1780001750766087200,0.148087158203125,-3.192887306213379,4.488826751708984,-4.225975036621094
1780001750782439000,0.16443896484375,-4.321756839752197,3.379718065261841,-3.609049081802368
1780001750798767900,0.180767822265625,-4.553533554077148,-0.5929923057556152,-1.493644118309021
1780001750815102200,0.197102294921875,-1.6225428581237793,-1.8834242820739746,0.5342331528663635
1780001750831435500,0.213435546875,0.17493247985839844,-1.011492371559143,-0.5835469961166382
1780001750847768800,0.229768798828125,0.17962169647216797,0.6960179805755615,-0.33443689346313477
1780001750864102100,0.24610205078125,-0.1414480209350586,0.3127777576446533,-0.3375154435634613
1780001750880434700,0.2624345703125,0.5616159439086914,0.6896803379058838,-0.6365795135498047
1780001750896768000,0.27876806640625,1.0671405792236328,0.3491079807281494,-0.5696235299110413
1780001750913101300,0.295101318359375,1.6239547729492188,-0.9849880933761597,-0.6203218102455139
1780001750929419500,0.31141943359375,1.8685235977172852,-0.7818531394004822,-1.046271562576294
1780001750945767700,0.327767578125,1.8240127563476562,-0.35865187644958496,-0.5127628445625305
1780001750962101000,0.34410107421875,0.8345508575439453,-0.11428892612457275,0.16287347674369812
1780001750978433800,0.360433837890625,-0.7244186401367188,-0.06615817546844482,0.4929131269454956
1780001750994767600,0.376767578125,-2.2843856811523438,-0.4976293444633484,0.7279611229896545
1780001751011098400,0.393098388671875,-4.551416397094727,-1.3824931383132935,1.105494499206543
1780001751027428000,0.409427978515625,-6.251953125,-2.7457985877990723,1.4844270944595337
1780001751043766500,0.4257666015625,-8.002241134643555,-4.170020580291748,0.9472242593765259
1780001751060099000,0.44209912109375,-9.904035568237305,-5.715860366821289,-0.20200085639953613
1780001751076433000,0.458432861328125,-11.00402545928955,-7.660861492156982,-0.26957225799560547
1780001751092764700,0.4747646484375,-11.351250648498535,-9.54963493347168,0.0023822784423828125
1780001751109102600,0.4911025390625,-9.98392105102539,-10.63701057434082,0.378934383392334
1780001751125426200,0.50742626953125,-7.931886196136475,-10.81677532196045,0.6447110176086426
1780001751141768000,0.523767822265625,-6.825640678405762,-11.426239013671875,0.980217456817627
1780001751158099200,0.54009912109375,-2.968477249145508,-11.692283630371094,2.8913769721984863
1780001751174431700,0.556431640625,2.260676860809326,-9.872597694396973,5.053317070007324
1780001751190766000,0.57276611328125,5.7186079025268555,-7.6345977783203125,7.566095352172852
1780001751207098000,0.58909814453125,8.969508171081543,-4.960895538330078,9.741873741149902
1780001751223432000,0.605431884765625,11.533763885498047,-2.512143611907959,11.276569366455078
1780001751239764700,0.6217646484375,12.7062349319458,0.6213970184326172,13.708649635314941
1780001751256094200,0.63809423828125,12.390093803405762,2.701519727706909,15.717315673828125
1780001751272435000,0.65443505859375,10.900017738342285,4.277851581573486,16.215007781982422
1780001751288762600,0.6707626953125,10.238922119140625,6.447196960449219,14.906366348266602
1780001751305098800,0.6870986328125,6.1445183753967285,7.942980766296387,11.934500694274902
1780001751321431300,0.703431396484375,1.2329297065734863,11.153175354003906,9.493288040161133
1780001751337763600,0.719763671875,-4.345519542694092,12.372074127197266,6.108900547027588
1780001751354114000,0.736114013671875,-2.1116843223571777,11.921554565429688,4.165083885192871
1780001751370429000,0.752428955078125,-2.5618958473205566,5.730464458465576,3.0892534255981445
1780001751386776000,0.768776123046875,-1.4363465309143066,2.412828207015991,1.536271095275879
1780001751403106000,0.78510595703125,-2.210785388946533,3.9897730350494385,-0.844548225402832
1780001751419416800,0.801416748046875,-3.1751134395599365,3.2593421936035156,-1.8019914627075195
1780001751435775200,0.817775146484375,-2.5551862716674805,2.109271764755249,-2.2347500324249268
1780001751452096800,0.8340966796875,-1.7873969078063965,0.5728099346160889,-1.9159634113311768
1780001751468429300,0.85042919921875,-0.637700080871582,0.018125534057617188,-2.0049006938934326
1780001751484762400,0.866762451171875,0.8213529586791992,-0.809234619140625,-0.9753599166870117
1780001751501094100,0.88309423828125,2.294037342071533,-0.15177011489868164,0.1325383186340332
1780001751517429000,0.899428955078125,3.067430019378662,0.2621784210205078,0.7337636947631836
1780001751533761800,0.91576171875,2.482463836669922,0.01876211166381836,1.1484599113464355
1780001751550095000,0.93209521484375,1.4819526672363281,0.017101287841796875,1.2312636375427246
1780001751566425300,0.94842529296875,-0.7524209022521973,-0.008862495422363281,1.4996514320373535
1780001751582764800,0.964764892578125,-2.072016716003418,0.8367836475372314,0.6139740943908691
1780001751599091700,0.981091796875,-3.05841064453125,1.799161672592163,-0.3910865783691406
1780001751615429400,0.997429443359375,-3.804346799850464,2.223043918609619,-0.40860414505004883
1780001751631776000,1.01377587890625,-2.7488083839416504,1.5189740657806396,-0.2450542449951172
1780001751648091400,1.03009130859375,-1.4233450889587402,2.6039414405822754,-1.2741374969482422
1780001751664443100,1.046443115234375,-0.9132905006408691,2.407351493835449,-0.8881916999816895
1780001751680737800,1.06273779296875,1.1972594261169434,1.7805659770965576,-1.3354756832122803
1780001751697093000,1.079093017578125,0.07793951034545898,0.816868782043457,-0.929074764251709
1780001751713427000,1.095427001953125,0.5046191215515137,-1.22711181640625,-0.853797435760498
1780001751729759500,1.111759521484375,-0.42330360412597656,-1.0949816703796387,0.5337586402893066
1780001751746088700,1.128088623046875,0.9921140670776367,-0.729377269744873,1.8127636909484863
1780001751762424600,1.144424560546875,0.6367979049682617,1.2824373245239258,2.4990038871765137
1780001751778759700,1.160759765625,1.44148588180542,0.8608746528625488,2.066410541534424
1780001751795092200,1.17709228515625,0.5166239738464355,-0.44358348846435547,1.3821535110473633
1780001751811425500,1.193425537109375,-0.9399795532226562,-1.2845392227172852,1.4388270378112793
1780001751827758600,1.209758544921875,2.3156843185424805,-3.689767837524414,1.4525046348571777
1780001751844109600,1.226109619140625,2.907029151916504,-3.6534509658813477,1.0305991172790527
1780001751860412400,1.242412353515625,0.5656285285949707,-1.0206975936889648,-0.17738676071166992
1780001751876774700,1.258774658203125,-0.760493278503418,-1.1838040351867676,-0.596250057220459
1780001751893100800,1.275100830078125,-0.10155439376831055,-2.1279449462890625,-0.7053799629211426
1780001751909435400,1.291435302734375,5.868126392364502,-1.6744508743286133,0.9685478210449219
1780001751925779500,1.307779541015625,4.3048415184021,-1.0609331130981445,0.7329959869384766
1780001751942091800,1.324091796875,1.2342681884765625,-0.13021135330200195,-0.48442602157592773
1780001751958446000,1.340446044921875,-3.0967206954956055,1.0712342262268066,0.41918277740478516
1780001751974771500,1.356771484375,-2.9805307388305664,-0.19554471969604492,1.2418546676635742
1780001751991097900,1.373097900390625,-0.9574170112609863,-1.4848566055297852,1.802384376525879
1780001752007433500,1.38943359375,-1.527176856994629,-1.19276762008667,0.25191307067871094
1780001752023743000,1.405742919921875,-0.8215007781982422,0.895963191986084,-2.7709848880767822
1780001752040089900,1.42208984375,-1.9919459819793701,1.6414790153503418,-2.6591901779174805
1780001752056421600,1.438421630859375,-3.4542675018310547,0.5724530220031738,-2.2499377727508545
1780001752072756200,1.454756103515625,-2.7170281410217285,0.27758359909057617,-1.924530029296875
1780001752089089300,1.47108935546875,-1.6075820922851562,-1.5961933135986328,-1.1504993438720703
1780001752105422000,1.487422119140625,-1.671532154083252,-2.332414150238037,-1.196850299835205
1780001752121755600,1.503755615234375,-1.8917992115020752,1.3262181282043457,-1.2603497505187988
1780001752138082300,1.520082275390625,-1.5156625509262085,3.0720419883728027,-0.8035106658935547
1780001752154426600,1.536426513671875,-1.436812400817871,3.2050814628601074,0.7933793067932129
1780001752170755300,1.55275537109375,-2.7651147842407227,3.6883342266082764,1.8291730880737305
1780001752187088000,1.569087890625,-1.2851802110671997,3.1184802055358887,4.222559452056885
1780001752203421000,1.5854208984375,1.2576698064804077,3.2926383018493652,6.329622745513916
1780001752219751400,1.60175146484375,0.660198450088501,3.6825578212738037,8.087522506713867
1780001752236090600,1.618090576171875,-1.1067190170288086,4.501909255981445,6.180660247802734
1780001752252417000,1.6344169921875,-0.11096471548080444,4.510297775268555,4.570149898529053
1780001752268755700,1.650755615234375,0.6662984490394592,3.37628173828125,3.6863813400268555
1780001752285083100,1.667083251953125,2.172574996948242,1.8420586585998535,5.562831878662109
1780001752301423900,1.683423828125,3.2754220962524414,-1.9533133506774902,4.279872894287109
1780001752317752800,1.6997529296875,4.927617073059082,-2.5209946632385254,4.569532871246338
1780001752334076200,1.716076171875,5.925663471221924,-0.5861310958862305,4.057622909545898
1780001752350419700,1.732419677734375,4.063093185424805,1.5178589820861816,2.4930295944213867
1780001752366749400,1.74874951171875,1.2426226139068604,3.4199728965759277,1.5680937767028809
1780001752383085600,1.76508544921875,-1.0059393644332886,3.5329489707946777,-0.6403827667236328
1780001752399443700,1.781443603515625,-0.650087833404541,3.5453853607177734,-4.217374801635742
1780001752415765800,1.797765869140625,-2.081843614578247,7.8895673751831055,-6.083265781402588
1780001752432099300,1.814099365234375,-2.845205307006836,6.701245307922363,-9.830942153930664
1780001752448432000,1.83043212890625,-2.6373510360717773,5.221613883972168,-11.391998291015625
1780001752464763400,1.846763427734375,-1.13142991065979,4.402817726135254,-6.70707368850708
1780001752481098200,1.86309814453125,-0.683519184589386,5.670083045959473,-5.300927639007568
1780001752497433000,1.87943310546875,-0.8241254687309265,4.716475486755371,-5.703170299530029
1780001752513745200,1.8957451171875,13.369284629821777,-7.767818450927734,1.9251432418823242
1780001752530082800,1.912082763671875,6.903777122497559,-8.649737358093262,2.9577980041503906
1780001752546417000,1.9284169921875,-9.336048126220703,-5.707192420959473,1.600372314453125
1780001752562747400,1.944747314453125,-5.854974746704102,-2.358531951904297,-1.1181440353393555
1780001752579086300,1.96108642578125,0.3008706569671631,-3.6005349159240723,2.37422513961792
1780001752595414000,1.9774140625,9.137528419494629,-9.6094331741333,5.655771732330322
1780001752611769000,1.99376904296875,8.654084205627441,-10.181205749511719,6.2671074867248535
1780001752628097000,2.010096923828125,-4.870121479034424,-6.103278160095215,5.596212387084961
1780001752644394000,2.02639404296875,-7.795727729797363,-1.363142967224121,4.777690410614014
1780001752660760300,2.04276025390625,-0.4276852607727051,2.097968816757202,2.363274097442627
1780001752677078800,2.059078857421875,2.8711118698120117,3.0922040939331055,1.2682056427001953
1780001752693415400,2.07541552734375,2.1662354469299316,2.039100408554077,1.2637748718261719
1780001752709734100,2.091734130859375,1.5650393962860107,1.7818632125854492,0.4706730842590332
1780001752726081800,2.108081787109375,0.9784619808197021,1.4849395751953125,-0.23135757446289062
1780001752742411000,2.124410888671875,-0.009844422340393066,0.4645223617553711,-0.15293312072753906
1780001752758751000,2.1407509765625,-1.4559409618377686,-0.9186820983886719,0.3115830421447754
1780001752775080400,2.15708056640625,-0.4857896566390991,-0.8252735137939453,0.2803001403808594
1780001752791414500,2.17341455078125,0.4843943119049072,-0.21384763717651367,-0.01538991928100586
1780001752807747000,2.1897470703125,-0.2760608196258545,0.05305194854736328,0.06462812423706055
1780001752824080400,2.206080322265625,-0.02263462543487549,0.12090444564819336,0.16930389404296875
1780001752840413000,2.222412841796875,0.3669610023498535,0.17404603958129883,0.23412370681762695
1780001752856763400,2.238763427734375,0.39375782012939453,0.31911468505859375,0.1328563690185547
1780001752873088800,2.2550888671875,0.21500015258789062,0.3102879524230957,0.09811019897460938
1780001752889399800,2.27139990234375,0.08783566951751709,0.21922779083251953,0.14781904220581055
1780001752905744400,2.287744384765625,0.017472147941589355,0.1456012725830078,0.21726465225219727
1780001752922080500,2.30408056640625,0.132804274559021,0.22393035888671875,0.1495814323425293
1780001752938413000,2.3204130859375,0.23736333847045898,0.3062605857849121,0.10412979125976562
1780001752954744800,2.336744873046875,0.18471908569335938,0.26315832138061523,0.1230154037475586
1780001752971078100,2.353078125,0.1385653018951416,0.21123838424682617,0.10008621215820312
1780001752987398400,2.3693984375,0.18417656421661377,0.2363734245300293,0.0937047004699707
1780001753003758300,2.38575830078125,0.22637879848480225,0.27518415451049805,0.09063959121704102
1780001753020063500,2.4020634765625,0.2959930896759033,0.25574541091918945,0.15435171127319336
1780001753036410600,2.41841064453125,0.2976342439651489,0.2040696144104004,0.22292613983154297
1780001753052733700,2.434733642578125,0.24016118049621582,0.26769208908081055,0.20133161544799805
1780001753069077200,2.4510771484375,0.246140718460083,0.37387609481811523,0.16955947875976562
1780001753085412900,2.467412841796875,0.24181056022644043,0.45554447174072266,0.17070436477661133
1780001753101739500,2.483739501953125,0.25407469272613525,0.4607682228088379,0.2186717987060547
1780001753118093800,2.50009375,0.2649712562561035,0.4288191795349121,0.2056136131286621
1780001753134410200,2.51641015625,0.21942102909088135,0.4411039352416992,0.18361902236938477
1780001753150739700,2.53273974609375,0.18024563789367676,0.5003471374511719,0.2154550552368164
1780001753167075300,2.549075439453125,0.13085663318634033,0.5307683944702148,0.2851848602294922
1780001753183409700,2.56540966796875,0.10647892951965332,0.42223644256591797,0.3015732765197754
1780001753199742200,2.5817421875,0.007037520408630371,0.28097963333129883,0.2311844825744629
1780001753216071000,2.59807080078125,-0.018837451934814453,0.19716978073120117,0.18010950088500977
1780001753232411100,2.6144111328125,0.05549812316894531,0.12270307540893555,0.1256566047668457
1780001753248737300,2.6307373046875,0.06833159923553467,0.05363893508911133,0.09436225891113281
1780001753265079000,2.6470791015625,0.07730519771575928,0.0758829116821289,0.059474945068359375
1780001753281408000,2.663407958984375,0.12549662590026855,0.060173988342285156,0.07670402526855469
1780001753297727000,2.67972705078125,0.11246907711029053,0.12064456939697266,0.07432889938354492
1780001753314074000,2.69607421875,0.1144939661026001,0.1850719451904297,0.08080863952636719
1780001753330407200,2.7124072265625,0.0974351167678833,0.20555543899536133,0.13440847396850586
1780001753346740700,2.72874072265625,0.1132427453994751,0.2486867904663086,0.14995431900024414
1780001753363088000,2.745087890625,0.09964001178741455,0.3107738494873047,0.13108158111572266
1780001753379421200,2.761421142578125,0.13173139095306396,0.3244361877441406,0.1265559196472168
1780001753395744800,2.777744873046875,0.16178667545318604,0.26625728607177734,0.13192987442016602
1780001753412078300,2.794078369140625,0.1625368595123291,0.2136216163635254,0.09967279434204102
1780001753428405800,2.81040576171875,0.15001976490020752,0.19988298416137695,0.08169746398925781
1780001753444738800,2.82673876953125,0.118874192237854,0.20916271209716797,0.07228231430053711
1780001753461072000,2.84307177734375,0.10820639133453369,0.2039051055908203,0.1256389617919922
1780001753477405400,2.859405517578125,0.1592172384262085,0.17123985290527344,0.18019819259643555
1780001753493738000,2.875738037109375,0.18452918529510498,0.2352156639099121,0.11570310592651367
1780001753510058200,2.892058349609375,0.21900975704193115,0.26072263717651367,0.06599807739257812
1780001753526402800,2.90840283203125,0.2754858732223511,0.24827909469604492,0.06807756423950195
1780001753542739500,2.924739501953125,0.2850455045700073,0.23656368255615234,0.05136871337890625
1780001753559067400,2.9410673828125,0.2398231029510498,0.23044109344482422,0.04039192199707031
1780001753575403800,2.95740380859375,0.14976441860198975,0.19656991958618164,0.08681440353393555
1780001753591738000,2.973738037109375,0.13554811477661133,0.17146015167236328,0.1575636863708496
1780001753608073200,2.9900732421875,0.1017223596572876,0.19501972198486328,0.1955413818359375
1780001753624415200,3.006415283203125,0.10971260070800781,0.2854924201965332,0.10820198059082031
1780001753640733000,3.02273291015625,0.1954944133758545,0.26007986068725586,0.02094745635986328
1780001753657066500,3.03906640625,0.1837470531463623,0.17284679412841797,0.043653011322021484
1780001753673389600,3.0553896484375,0.18351054191589355,0.1102452278137207,0.04760599136352539
1780001753689735400,3.0717353515625,0.10151100158691406,0.11115360260009766,0.023937225341796875
1780001753706068700,3.08806884765625,0.07384133338928223,0.1131582260131836,0.03952836990356445
1780001753722402000,3.104402099609375,0.09040987491607666,0.1443476676940918,0.05993366241455078
1780001753738734000,3.120734130859375,0.11283910274505615,0.17069435119628906,0.09517478942871094
1780001753755068000,3.13706787109375,0.09559249877929688,0.2156205177307129,0.10562705993652344
1780001753771401500,3.1534013671875,0.10689735412597656,0.19800806045532227,0.14948368072509766
1780001753787734300,3.169734375,0.13132429122924805,0.21406984329223633,0.14103317260742188
1780001753804084700,3.186084716796875,0.11115241050720215,0.22882986068725586,0.13234710693359375
1780001753820414700,3.202414794921875,0.09709787368774414,0.23868274688720703,0.1468520164489746
1780001753836751400,3.21875146484375,0.11791753768920898,0.2572007179260254,0.12697982788085938
1780001753853060000,3.23506005859375,0.09906864166259766,0.2700948715209961,0.12110710144042969
1780001753869411600,3.25141162109375,0.10344505310058594,0.2584266662597656,0.0571599006652832
1780001753885742300,3.267742431640625,0.04082286357879639,0.17274808883666992,0.029751300811767578
1780001753902084000,3.284083984375,0.08874237537384033,0.05483818054199219,0.06108283996582031
1780001753918396700,3.300396728515625,0.10239803791046143,0.06225156784057617,0.040538787841796875
1780001753934742000,3.316741943359375,0.13901197910308838,0.07934761047363281,0.04466390609741211
1780001753951050500,3.333050537109375,0.1535661220550537,0.10111665725708008,0.0574641227722168
1780001753967385300,3.34938525390625,0.1361865997314453,0.0900120735168457,0.06565189361572266
1780001753983717400,3.36571728515625,0.13258767127990723,0.08978843688964844,0.06050682067871094
1780001754000063700,3.382063720703125,0.09965682029724121,0.11397075653076172,0.05520439147949219
1780001754016384300,3.39838427734375,0.11010622978210449,0.1233663558959961,0.078857421875
1780001754032731400,3.4147314453125,0.13119745254516602,0.1179037094116211,0.08821773529052734
1780001754049064400,3.431064453125,0.14326930046081543,0.12173128128051758,0.0775456428527832
1780001754065394700,3.447394775390625,0.14445006847381592,0.09182262420654297,0.05735921859741211
1780001754081733400,3.4637333984375,0.15439391136169434,0.0572509765625,0.0373992919921875
1780001754098063400,3.4800634765625,0.14126169681549072,0.022944927215576172,0.05995464324951172
1780001754114397000,3.49639697265625,0.10304903984069824,0.03248786926269531,0.05920982360839844
1780001754130728400,3.512728515625,0.12762057781219482,0.05188465118408203,0.07272577285766602
1780001754147062300,3.529062255859375,0.16164541244506836,0.052547454833984375,0.07289648056030273
1780001754163395800,3.545395751953125,0.21897518634796143,0.006230354309082031,0.05006599426269531
1780001754179725800,3.561725830078125,0.12449395656585693,-0.05777406692504883,0.07701301574707031
1780001754196065300,3.578065185546875,-0.07927799224853516,-0.07306194305419922,0.2584218978881836
1780001754212394500,3.59439453125,-0.11643314361572266,0.07882452011108398,0.20264625549316406
1780001754228729000,3.61072900390625,-0.12434554100036621,0.2218623161315918,0.10161066055297852
1780001754245061400,3.627061279296875,-0.14532113075256348,0.5310544967651367,0.006676673889160156
1780001754261381400,3.64338134765625,0.13953757286071777,0.598167896270752,0.23491811752319336
1780001754277727200,3.659727294921875,0.43185174465179443,0.5324821472167969,0.3718128204345703
1780001754294072300,3.676072265625,0.3467862606048584,0.500971794128418,0.16753053665161133
1780001754310394000,3.69239404296875,0.17245817184448242,0.36400318145751953,-0.022208690643310547
1780001754326714000,3.708714111328125,-0.04804074764251709,0.19048213958740234,-0.004172325134277344
1780001754343060000,3.72506005859375,-0.16978251934051514,0.09985637664794922,0.03925371170043945
1780001754359420000,3.741419921875,-0.2568014860153198,0.11008882522583008,0.09192180633544922
1780001754375739600,3.75773974609375,-0.20990490913391113,0.1201791763305664,0.17812442779541016
1780001754392074000,3.774073974609375,-0.06308221817016602,0.13953399658203125,0.24524211883544922
1780001754408406300,3.79040625,0.004665970802307129,0.10187482833862305,0.21046018600463867
1780001754424739800,3.80673974609375,0.0187225341796875,0.11655998229980469,0.09036588668823242
1780001754441073400,3.823073486328125,-0.06295359134674072,0.12675189971923828,0.06038808822631836
1780001754457404000,3.83940380859375,0.01655757427215576,0.1732463836669922,0.09249210357666016
1780001754473738500,3.855738525390625,0.09734368324279785,0.2057180404663086,0.09152841567993164
1780001754490068200,3.872068115234375,0.1442495584487915,0.1425790786743164,0.028934955596923828
1780001754506402600,3.888402587890625,0.19066143035888672,0.09870624542236328,-0.09081172943115234
1780001754522724900,3.904724853515625,0.10402309894561768,0.036586761474609375,-0.06296205520629883
1780001754539059700,3.921059814453125,0.07494211196899414,-0.01576089859008789,-0.0013113021850585938
1780001754555403300,3.9374033203125,0.10476076602935791,0.02296161651611328,0.03740644454956055
1780001754571724000,3.95372412109375,-0.018795371055603027,0.1250596046447754,0.047762393951416016
1780001754588057300,3.970057373046875,-0.006610870361328125,0.1158132553100586,0.11568593978881836
1780001754604375000,3.986375,-0.009296417236328125,0.06810331344604492,0.08681488037109375
1780001754620740400,4.002740234375,0.05736887454986572,0.05326223373413086,0.06236886978149414
1780001754637069300,4.0190693359375,0.08690392971038818,0.06662940979003906,0.05591535568237305
1780001754653386200,4.03538623046875,0.12893939018249512,0.08904552459716797,0.026090145111083984
1780001754669714400,4.05171435546875,0.10720980167388916,0.09245538711547852,-0.02370929718017578
1780001754686055700,4.0680556640625,0.13184380531311035,0.1392350196838379,-0.06227397918701172
1780001754702387200,4.08438720703125,0.07800948619842529,0.15281391143798828,-0.005786418914794922
1780001754718721800,4.1007216796875,0.058174729347229004,0.14887714385986328,-0.010275840759277344
1780001754735054600,4.1170546875,0.04999816417694092,0.08759403228759766,0.014064788818359375
1780001754751387400,4.133387451171875,0.12177073955535889,0.1032266616821289,0.03023529052734375
1780001754767719400,4.149719482421875,0.09718465805053711,0.13392877578735352,0.036531925201416016
1780001754784054500,4.166054443359375,0.05141019821166992,0.13104534149169922,0.09037971496582031
1780001754800386800,4.18238671875,0.018583059310913086,0.08972692489624023,0.09172248840332031
1780001754816737000,4.198737060546875,-0.02483522891998291,0.06305122375488281,0.030789852142333984
1780001754833070600,4.215070556640625,0.0760573148727417,0.0015034675598144531,0.00307464599609375
1780001754849378600,4.231378662109375,0.11841464042663574,-0.05025672912597656,-0.010539054870605469
1780001754865729300,4.247729248046875,0.10789704322814941,-0.0344700813293457,-0.028510570526123047
1780001754882053000,4.26405322265625,0.09723687171936035,0.0056362152099609375,-0.01746511459350586
1780001754898380500,4.280380615234375,0.07654178142547607,0.0886082649230957,0.032118797302246094
1780001754914709500,4.29670947265625,0.004701137542724609,0.20493316650390625,0.09048986434936523
1780001754931051300,4.31305126953125,0.0618894100189209,0.2627558708190918,0.14394521713256836
1780001754947384800,4.329384765625,0.08931803703308105,0.25274229049682617,0.15810918807983398
1780001754963718400,4.345718505859375,0.036394476890563965,0.1897425651550293,0.11403799057006836
1780001754980053500,4.362053466796875,0.021328449249267578,0.16974449157714844,0.10409116744995117
1780001754996398000,4.378398193359375,-0.02893531322479248,0.19237899780273438,0.16092300415039062
1780001755012714000,4.3947138671875,-0.044573307037353516,0.2621455192565918,0.20279455184936523
1780001755029050600,4.411050537109375,-0.026341915130615234,0.311492919921875,0.19616365432739258
1780001755045380000,4.427380126953125,-0.043950557708740234,0.29929542541503906,0.15544462203979492
1780001755061720600,4.443720458984375,-0.06609416007995605,0.25750160217285156,0.12814044952392578
1780001755078050000,4.460050048828125,-0.06692659854888916,0.19717979431152344,0.10159587860107422
1780001755094382600,4.476382568359375,-0.010074257850646973,0.1666116714477539,0.06666421890258789
1780001755110719700,4.4927197265625,0.06720662117004395,0.18946552276611328,0.031462669372558594
1780001755127090400,4.50909033203125,0.16486549377441406,0.20318984985351562,0.06445646286010742
1780001755143379000,4.52537890625,0.280326247215271,0.1643075942993164,0.08796072006225586
1780001755159727900,4.541727783203125,0.23989689350128174,0.08450174331665039,0.03035593032836914
1780001755176049000,4.558048828125,0.18070518970489502,0.00014209747314453125,-0.0020895004272460938
1780001755192381200,4.574381103515625,0.1369314193725586,0.002112865447998047,0.047492027282714844
1780001755208714800,4.59071484375,0.06033360958099365,0.14644718170166016,0.06789350509643555
1780001755225047800,4.6070478515625,0.030591130256652832,0.2790031433105469,0.09566879272460938
1780001755241380900,4.623380859375,0.05902087688446045,0.3140373229980469,0.15136051177978516
1780001755257692400,4.6396923828125,0.036540865898132324,0.1952366828918457,0.15824365615844727
1780001755274046500,4.65604638671875,-0.09899282455444336,-0.06537485122680664,0.11810970306396484
1780001755290365000,4.672364990234375,-0.20474374294281006,-0.18070030212402344,0.04071331024169922
1780001755306713600,4.688713623046875,-0.19110798835754395,-0.0951690673828125,0.01169729232788086
1780001755323046000,4.7050458984375,-0.07592999935150146,0.10413837432861328,0.0690617561340332
1780001755339412700,4.721412841796875,0.14727509021759033,0.25354433059692383,0.10569906234741211
1780001755355723000,4.737722900390625,0.34893202781677246,0.27370452880859375,0.05547189712524414
1780001755372063200,4.754063232421875,0.4577227830886841,0.16469717025756836,-0.05149364471435547
1780001755388392700,4.770392822265625,0.4793938398361206,0.01873159408569336,-0.11406469345092773
1780001755404725000,4.78672509765625,0.4172813892364502,-0.04355812072753906,-0.11339092254638672
1780001755421041700,4.803041748046875,0.35542404651641846,-0.04792308807373047,-0.11687564849853516
1780001755437378300,4.81937841796875,0.32180559635162354,-0.03279924392700195,-0.12494707107543945
1780001755453711000,4.835711181640625,0.2433462142944336,-0.05527544021606445,-0.09548759460449219
1780001755470043000,4.85204296875,0.22711431980133057,-0.05305814743041992,-0.06978368759155273
1780001755486378500,4.86837841796875,0.18646752834320068,-0.05088090896606445,-0.025372982025146484
1780001755502709200,4.884709228515625,0.08092927932739258,-0.025061607360839844,0.013680458068847656
1780001755519041000,4.901041015625,-0.0017663240432739258,0.03349924087524414,0.08973360061645508
1780001755535375600,4.917375732421875,-0.04720485210418701,0.1195831298828125,0.145751953125
1780001755551710000,4.9337099609375,-0.056711554527282715,0.2042088508605957,0.18667936325073242
1780001755568036900,4.950036865234375,-0.014924764633178711,0.24409723281860352,0.20248079299926758
1780001755584375300,4.966375244140625,0.011534929275512695,0.25067138671875,0.17998552322387695
1780001755600698000,4.982697998046875,0.08437466621398926,0.23299217224121094,0.10558509826660156
1780001755617059600,4.9990595703125,0.13008320331573486,0.18250370025634766,0.0598139762878418
1780001755633372000,5.015371826171875,0.12520039081573486,0.13704538345336914,0.0725240707397461
1780001755649708000,5.0317080078125,0.08120346069335938,0.11608076095581055,0.05177593231201172
1780001755666041000,5.048041015625,0.041712164878845215,0.14356708526611328,0.03198432922363281
1780001755682374700,5.064374755859375,0.08906972408294678,0.1518115997314453,0.007818222045898438
1780001755698708000,5.0807080078125,0.10318732261657715,0.0738215446472168,0.034986019134521484
1780001755715040300,5.097040283203125,0.13566982746124268,0.08812808990478516,0.02136707305908203
1780001755731372500,5.11337255859375,0.15333855152130127,0.098297119140625,0.01724863052368164
1780001755747707000,5.129706787109375,0.10058152675628662,0.09444808959960938,0.03706073760986328
1780001755764040200,5.146040283203125,0.04602253437042236,0.11411094665527344,0.0650491714477539
1780001755780396500,5.162396484375,0.05374288558959961,0.17187166213989258,0.06946372985839844
1780001755796716300,5.17871630859375,0.04992032051086426,0.21011734008789062,0.08363103866577148
1780001755813055000,5.195054931640625,0.06796920299530029,0.18160629272460938,0.09891128540039062
1780001755829372400,5.211372314453125,0.09436953067779541,0.1581745147705078,0.09008216857910156
1780001755845701600,5.22770166015625,0.08636331558227539,0.15844488143920898,0.0764622688293457
1780001755862037200,5.244037353515625,0.06873703002929688,0.17302465438842773,0.05803489685058594
1780001755878381300,5.26038134765625,0.03693807125091553,0.1683049201965332,0.07715320587158203
1780001755894705000,5.276704833984375,0.005109310150146484,0.17318296432495117,0.0873255729675293
1780001755911015000,5.293014892578125,-0.017664194107055664,0.18769311904907227,0.11198711395263672
1780001755927362300,5.3093623046875,0.0017446279525756836,0.18286800384521484,0.12709712982177734
1780001755943734300,5.325734375,0.01566755771636963,0.14439058303833008,0.10872840881347656
1780001755960033800,5.34203369140625,0.02969944477081299,0.13433074951171875,0.06631231307983398
1780001755976369400,5.358369384765625,0.03840911388397217,0.12391853332519531,0.033215999603271484
1780001755992703500,5.374703369140625,0.03827941417694092,0.09452056884765625,0.028817176818847656
1780001756009036500,5.39103662109375,0.0292435884475708,0.08480215072631836,0.06296253204345703
1780001756025368600,5.40736865234375,0.062980055809021,0.08520317077636719,0.07421636581420898
1780001756041703200,5.423703125,0.06238102912902832,0.0764470100402832,0.07095479965209961
1780001756058035700,5.44003564453125,0.03882646560668945,0.10114717483520508,0.06270790100097656
1780001756074369000,5.456369140625,0.07916080951690674,0.0922245979309082,0.058863162994384766
1780001756090702300,5.472702392578125,0.0952078104019165,0.1167593002319336,0.05026817321777344
1780001756107034400,5.489034423828125,0.12916505336761475,0.1125798225402832,0.028136253356933594
1780001756123381500,5.505381591796875,0.11905300617218018,0.06053352355957031,0.038483619689941406
1780001756139702000,5.521701904296875,0.07122385501861572,0.01808309555053711,0.049349308013916016
1780001756156033500,5.538033447265625,0.021052956581115723,0.042311668395996094,0.05895042419433594
1780001756172370000,5.554369873046875,0.0022505521774291992,0.08035898208618164,0.08265209197998047
1780001756188694800,5.57069482421875,0.04092097282409668,0.12714862823486328,0.0871133804321289
1780001756205036800,5.587036865234375,0.1039050817489624,0.12014627456665039,0.07208728790283203
1780001756221355800,5.603355712890625,0.1376509666442871,0.09532737731933594,0.03282928466796875
1780001756237698000,5.619697998046875,0.11333692073822021,0.060622215270996094,0.0027456283569335938
1780001756254050000,5.636050048828125,0.109474778175354,0.06001091003417969,0.0021514892578125
1780001756270362600,5.652362548828125,0.11948978900909424,0.08808135986328125,0.02136516571044922
1780001756286705400,5.668705322265625,0.11877012252807617,0.10188531875610352,0.02110910415649414
1780001756303032300,5.6850322265625,0.09821093082427979,0.08211517333984375,0.0448603630065918
1780001756319365400,5.701365478515625,0.07273340225219727,0.0815134048461914,0.039336204528808594
1780001756335698400,5.717698486328125,0.05701577663421631,0.07597875595092773,0.024706363677978516
1780001756352031700,5.73403173828125,0.04205977916717529,0.046538352966308594,0.014739036560058594
1780001756368383700,5.7503837890625,0.027777552604675293,0.0025968551635742188,0.023090839385986328
1780001756384712200,5.766712158203125,0.03832805156707764,0.0017490386962890625,0.008076667785644531
1780001756401029000,5.783029052734375,0.07676267623901367,0.024715900421142578,-0.00170135498046875
1780001756417361000,5.79936083984375,0.11654603481292725,0.028598308563232422,-0.021634578704833984
1780001756433696800,5.81569677734375,0.15489816665649414,0.042232513427734375,-0.05505180358886719
1780001756450030600,5.832030517578125,0.1687687635421753,0.042046546936035156,-0.07902050018310547
1780001756466363000,5.84836279296875,0.14897143840789795,0.04718637466430664,-0.0499420166015625
1780001756482692000,5.864692138671875,0.11479818820953369,0.07692527770996094,-0.02528858184814453
1780001756499032300,5.8810322265625,0.09461855888366699,0.1118931770324707,0.009421348571777344
1780001756515359500,5.897359375,0.0435330867767334,0.1375885009765625,0.07752847671508789
1780001756531685600,5.913685546875,-0.006247162818908691,0.16799068450927734,0.11734151840209961
1780001756548025600,5.930025634765625,-0.02674734592437744,0.15883970260620117,0.1899738311767578
1780001756564351500,5.9463515625,-0.03673911094665527,0.1684246063232422,0.20920085906982422
1780001756580694800,5.96269482421875,-0.03699004650115967,0.16268253326416016,0.16969966888427734
1780001756597024800,5.979024658203125,0.0024743080139160156,0.1329030990600586,0.1020345687866211
1780001756613364500,5.995364501953125,0.037584662437438965,0.09270763397216797,0.04309225082397461
1780001756629694000,6.01169384765625,0.07645285129547119,0.07158374786376953,0.022466659545898438
1780001756646027300,6.02802734375,0.08126342296600342,0.06504344940185547,-0.007472515106201172
1780001756662360300,6.0443603515625,0.09073054790496826,0.0634608268737793,-0.013339996337890625
1780001756678693600,6.060693603515625,0.06731009483337402,0.05230140686035156,0.009395599365234375
1780001756695026400,6.0770263671875,0.07247650623321533,0.04597759246826172,0.032187461853027344
1780001756711359700,6.09335986328125,0.05234038829803467,0.07789373397827148,0.0598750114440918
1780001756727697400,6.109697509765625,0.046961426734924316,0.09981346130371094,0.06815910339355469
1780001756744026000,6.126026123046875,0.031969308853149414,0.11655282974243164,0.07139730453491211
1780001756760373000,6.142373046875,0.05505728721618652,0.1186065673828125,0.055301666259765625
1780001756776705300,6.158705322265625,0.06856024265289307,0.08196163177490234,0.043817996978759766
1780001756793031200,6.17503125,0.09998512268066406,0.021350860595703125,0.018064498901367188
1780001756809363700,6.19136376953125,0.11299633979797363,-0.03888225555419922,-0.031374454498291016
1780001756825699300,6.20769921875,0.12601959705352783,-0.055548667907714844,-0.08536863327026367
1780001756842034000,6.224033935546875,0.15406692028045654,-0.05244874954223633,-0.0953822135925293
1780001756858371600,6.24037158203125,0.1538914442062378,-0.034691810607910156,-0.07716512680053711
1780001756874706000,6.256705810546875,0.17674148082733154,-0.011825084686279297,-0.0682368278503418
1780001756891024100,6.273024169921875,0.1614220142364502,0.0018367767333984375,-0.06375503540039062
1780001756907345700,6.289345703125,0.1419839859008789,0.006278038024902344,-0.0638284683227539
1780001756923690000,6.30568994140625,0.10271775722503662,-0.027039527893066406,-0.0020170211791992188
1780001756940021800,6.322021728515625,0.04519760608673096,-0.026100635528564453,0.022574901580810547
1780001756956355800,6.33835595703125,-0.031197190284729004,0.012883663177490234,0.01285552978515625
1780001756972689000,6.35468896484375,-0.03842496871948242,0.06088447570800781,0.046025753021240234
1780001756989035500,6.371035400390625,-0.011448979377746582,0.09868860244750977,0.0886983871459961
1780001757005353700,6.387353759765625,0.020496726036071777,0.1400127410888672,0.0921030044555664
1780001757021698000,6.403697998046875,0.03260612487792969,0.14768648147583008,0.1046905517578125
1780001757038021600,6.420021728515625,0.03941953182220459,0.14064645767211914,0.1026606559753418
1780001757054354200,6.436354248046875,0.008923053741455078,0.12369251251220703,0.08129692077636719
1780001757070686700,6.452686767578125,-0.016719698905944824,0.12140321731567383,0.07397079467773438
1780001757087017200,6.469017333984375,-0.03171050548553467,0.1228632926940918,0.07034063339233398
1780001757103357000,6.48535693359375,-0.021828651428222656,0.10945749282836914,0.07636356353759766
1780001757119687000,6.50168701171875,-0.01184093952178955,0.13949060440063477,0.07844257354736328
1780001757136007000,6.5180068359375,-0.01232898235321045,0.15509462356567383,0.0848245620727539
1780001757152337200,6.534337158203125,0.05780375003814697,0.1745462417602539,0.05279541015625
1780001757168689700,6.550689697265625,0.07588183879852295,0.13698577880859375,0.059531211853027344
1780001757185019100,6.56701904296875,0.09050273895263672,0.09972763061523438,0.03643798828125
1780001757201338400,6.58333837890625,0.09948492050170898,0.08695173263549805,0.038303375244140625
1780001757217686800,6.599686767578125,0.08348190784454346,0.15136289596557617,0.031803131103515625
1780001757234036000,6.616035888671875,0.09963536262512207,0.12031698226928711,0.03468513488769531
1780001757250365000,6.632364990234375,0.09966170787811279,0.08055686950683594,0.0039577484130859375
1780001757266696700,6.64869677734375,0.09476113319396973,0.031115055084228516,-0.02092456817626953
1780001757283031300,6.66503125,0.06546664237976074,0.011002540588378906,-0.007124900817871094
1780001757299364400,6.6813642578125,0.01746082305908203,0.020198822021484375,0.02076244354248047
1780001757315698000,6.697697998046875,-0.03051459789276123,0.07245349884033203,0.034770965576171875
1780001757332012300,6.71401220703125,-0.04383683204650879,0.1007528305053711,0.07259464263916016
1780001757348363500,6.730363525390625,-0.043021321296691895,0.12408781051635742,0.11501407623291016
1780001757364680000,6.746679931640625,-0.04185295104980469,0.14724445343017578,0.11907291412353516
1780001757381026600,6.763026611328125,-0.037534117698669434,0.16012811660766602,0.08465576171875
1780001757397353000,6.77935302734375,-0.033028602600097656,0.11005592346191406,0.07851886749267578
1780001757413704700,6.79570458984375,-0.01822340488433838,0.07923269271850586,0.08179473876953125
1780001757430028800,6.81202880859375,0.025276660919189453,0.08663415908813477,0.06170463562011719
1780001757446362000,6.828362060546875,0.044292569160461426,0.10843229293823242,0.021997451782226562
1780001757462667000,6.8446669921875,0.0916743278503418,0.09176349639892578,0.020516395568847656
1780001757479028500,6.861028564453125,0.10425472259521484,0.07981109619140625,0.03925514221191406
1780001757495361500,6.877361572265625,0.11337482929229736,0.08302783966064453,0.014449119567871094
1780001757511694300,6.8936943359375,0.098136305809021,0.09588193893432617,0.018373489379882812
1780001757528011500,6.910011474609375,0.08322882652282715,0.10916328430175781,0.002979278564453125
1780001757544353800,6.926353759765625,0.07310664653778076,0.08336305618286133,0.005997657775878906
1780001757560672800,6.9426728515625,0.03964996337890625,0.038997650146484375,0.03861522674560547
1780001757577024300,6.959024169921875,0.08720433712005615,0.04828834533691406,0.057517051696777344
1780001757593368000,6.9753681640625,0.10138106346130371,0.1145172119140625,0.038887977600097656
1780001757609676300,6.99167626953125,0.1011422872543335,0.10882806777954102,0.043105125427246094
1780001757626012400,7.008012451171875,0.08621537685394287,0.1023259162902832,0.06118965148925781
1780001757642345700,7.024345703125,0.07562577724456787,0.0762629508972168,0.04497337341308594
1780001757658667500,7.04066748046875,0.0227963924407959,0.017431259155273438,0.014448165893554688
1780001757675011800,7.05701171875,-0.023670673370361328,-0.031504154205322266,-0.0007734298706054688
1780001757691341800,7.073341796875,-0.016570329666137695,0.0065975189208984375,-0.025229454040527344
1780001757707679500,7.089679443359375,0.056977033615112305,0.07841968536376953,-0.010661125183105469
1780001757723996400,7.105996337890625,0.11551320552825928,0.09232425689697266,0.02323627471923828
1780001757740362800,7.12236279296875,0.10658609867095947,0.08803510665893555,0.0426025390625
1780001757756686800,7.138686767578125,0.09304451942443848,0.11770820617675781,0.02875041961669922
1780001757773024500,7.1550244140625,0.07020032405853271,0.11883020401000977,0.033504486083984375
1780001757789357600,7.171357666015625,0.03695416450500488,0.12529468536376953,0.06290340423583984
1780001757805694200,7.187694091796875,0.01663815975189209,0.1262378692626953,0.0828857421875
1780001757822006500,7.204006591796875,-0.004119277000427246,0.13166379928588867,0.09795570373535156
1780001757838355200,7.220355224609375,-0.02459728717803955,0.1317591667175293,0.10303974151611328
1780001757854696400,7.236696533203125,-0.03943932056427002,0.08377695083618164,0.09286785125732422
1780001757871016700,7.2530166015625,-0.033889174461364746,0.06425857543945312,0.05908679962158203
1780001757887356000,7.26935595703125,-0.0045185089111328125,0.02056741714477539,0.03941154479980469
1780001757903688200,7.285688232421875,0.011332869529724121,0.005724430084228516,0.03403759002685547
1780001757920027100,7.302027099609375,0.00861966609954834,0.024277687072753906,0.033280372619628906
1780001757936345000,7.318344970703125,0.025638461112976074,0.05707836151123047,0.0036344528198242188
1780001757952697600,7.334697509765625,0.061928391456604004,0.05629396438598633,0.017578125
1780001757969014800,7.351014892578125,0.09734582901000977,0.06503486633300781,0.0023279190063476562
1780001757985355500,7.36735546875,0.11236035823822021,0.04992055892944336,-0.012651443481445312
1780001758001712600,7.383712646484375,0.07922554016113281,0.030148029327392578,-0.0035686492919921875
1780001758018013200,7.40001318359375,0.05676376819610596,0.03926801681518555,0.010232925415039062
1780001758034359600,7.416359619140625,0.044278621673583984,0.058302879333496094,0.024193763732910156
1780001758050683000,7.432682861328125,0.05074262619018555,0.06304359436035156,0.0190887451171875
1780001758067023400,7.4490234375,0.06629300117492676,0.053211212158203125,0.009138107299804688
1780001758083353600,7.465353515625,0.08607804775238037,0.03866291046142578,0.00411224365234375
1780001758099680500,7.481680419921875,0.10576379299163818,0.038715362548828125,-0.00551605224609375
1780001758116006100,7.498006103515625,0.10605359077453613,0.02948474884033203,-0.005336761474609375
1780001758132338200,7.514338134765625,0.07311522960662842,0.029952049255371094,-0.024260520935058594
1780001758148671700,7.530671630859375,0.05507981777191162,0.011138916015625,0.004485130310058594
1780001758165004500,7.547004638671875,0.037050485610961914,0.02566671371459961,0.027739524841308594
1780001758181342700,7.5633427734375,0.05271327495574951,0.049872398376464844,0.0235137939453125
1780001758197671400,7.57967138671875,0.03974604606628418,0.05002880096435547,0.008426666259765625
1780001758214020900,7.596020751953125,0.04124283790588379,0.016513824462890625,0.0033769607543945312
1780001758230351600,7.6123515625,0.019171833992004395,0.00681304931640625,0.022115707397460938
1780001758246683600,7.62868359375,0.03150808811187744,0.03077077865600586,0.0312347412109375
1780001758263016200,7.64501611328125,0.058228373527526855,0.0831766128540039,0.03598594665527344
1780001758279349800,7.661349853515625,0.04603993892669678,0.09233951568603516,0.025771141052246094
1780001758295667000,7.6776669921875,0.05771493911743164,0.06796836853027344,0.034687042236328125
1780001758312016600,7.6940166015625,0.06894123554229736,0.05340290069580078,0.005553245544433594
1780001758328348700,7.7103486328125,0.055855631828308105,0.02965688705444336,-0.009492874145507812
1780001758344682500,7.7266826171875,0.05285286903381348,0.025547027587890625,-0.014123916625976562
1780001758361015600,7.743015625,0.02603304386138916,0.03620767593383789,-0.004139900207519531
1780001758377342500,7.759342529296875,0.018133163452148438,0.05182838439941406,0.025144577026367188
1780001758393666000,7.775666015625,0.005231142044067383,0.0770883560180664,0.044938087463378906
1780001758409998800,7.791998779296875,0.002172708511352539,0.08774471282958984,0.05973625183105469
1780001758426345700,7.808345703125,0.0034151077270507812,0.07424688339233398,0.08872127532958984
1780001758442681000,7.82468115234375,0.014767885208129883,0.06541967391967773,0.06978034973144531
1780001758459000000,7.841,-0.0014560222625732422,0.08510732650756836,0.05061817169189453
1780001758475346000,7.857345947265625,0.030393123626708984,0.08984136581420898,0.045273780822753906
1780001758491651000,7.873651123046875,0.0753706693649292,0.08478069305419922,0.04048442840576172
1780001758508013000,7.890012939453125,0.08221769332885742,0.050936222076416016,0.03043651580810547
1780001758524345600,7.906345703125,0.06874406337738037,0.02679300308227539,0.0008335113525390625
1780001758540676900,7.9226767578125,0.03768002986907959,0.026393413543701172,-0.01888275146484375
1780001758557023000,7.93902294921875,0.035546064376831055,0.030509471893310547,-0.010201454162597656
1780001758573332700,7.955332763671875,0.052016258239746094,0.02056884765625,0.01781749725341797
1780001758589664800,7.971664794921875,0.0684349536895752,0.020735740661621094,0.008017539978027344
1780001758605997600,7.98799755859375,0.05208277702331543,0.011648178100585938,-0.020732879638671875
1780001758622323000,8.004322998046876,0.04039323329925537,0.027192115783691406,-0.030345916748046875
1780001758638664200,8.020664306640626,0.05691087245941162,0.06549644470214844,-0.011240005493164062
1780001758654996500,8.03699658203125,0.09241044521331787,0.08550310134887695,-0.0008153915405273438
1780001758671329000,8.0533291015625,0.107513427734375,0.06758356094360352,-0.004900932312011719
1780001758687663000,8.0696630859375,0.08865678310394287,0.05021047592163086,-0.028181076049804688
1780001758703999000,8.0859990234375,0.06439042091369629,0.0380864143371582,-0.0218353271484375
1780001758720326100,8.102326171875,0.02101421356201172,0.0501103401184082,0.051558494567871094
1780001758736675600,8.118675537109375,-0.0026406049728393555,0.09070825576782227,0.10561847686767578
1780001758753003500,8.13500341796875,-0.010393738746643066,0.14017057418823242,0.12076377868652344
1780001758769348900,8.151348876953126,-0.04112684726715088,0.14124631881713867,0.10129833221435547
1780001758785675500,8.167675537109375,-0.01827418804168701,0.1083674430847168,0.08685493469238281
1780001758802001400,8.18400146484375,-0.0010939836502075195,0.0705556869506836,0.04842948913574219
1780001758818342100,8.200342041015626,0.021521329879760742,0.046741485595703125,0.019326210021972656
1780001758834679300,8.21667919921875,0.02903163433074951,0.05636882781982422,0.014041900634765625
1780001758851006000,8.233005859375,0.05610001087188721,0.05639076232910156,0.023717880249023438
1780001758867341600,8.249341552734375,0.059308409690856934,0.061197757720947266,0.03278923034667969
1780001758883673600,8.265673583984375,0.05800807476043701,0.08513069152832031,0.037018775939941406
1780001758900007400,8.28200732421875,0.08106672763824463,0.0897665023803711,0.031505584716796875
1780001758916340200,8.29834033203125,0.08465635776519775,0.06575489044189453,0.026088714599609375
1780001758932671500,8.31467138671875,0.07392597198486328,0.0377812385559082,0.0017757415771484375
1780001758949006800,8.3310068359375,0.05748629570007324,-0.004839420318603516,-0.008519172668457031
1780001758965340000,8.34733984375,0.022873640060424805,-0.018480777740478516,-0.03723716735839844
1780001758981655600,8.363655517578126,-0.006865382194519043,-0.03206205368041992,-0.033118247985839844
1780001758998006800,8.3800068359375,0.001998424530029297,-0.0024018287658691406,-0.028334617614746094
1780001759014332700,8.396332763671875,0.03421950340270996,0.008279800415039062,-0.022846221923828125
1780001759030677800,8.412677734375,0.04766857624053955,0.005093574523925781,-0.017584800720214844
1780001759047005000,8.4290048828125,0.051180124282836914,0.011888504028320312,-0.011987686157226562
1780001759063337500,8.44533740234375,0.04000818729400635,0.03309774398803711,0.0032720565795898438
1780001759079666700,8.461666748046875,0.03335464000701904,0.06369924545288086,0.023240089416503906
1780001759095990800,8.47799072265625,0.0065615177154541016,0.0745997428894043,0.04767799377441406
1780001759112323000,8.494322998046876,-0.015017032623291016,0.08033132553100586,0.0569305419921875
1780001759128656600,8.51065673828125,-0.04064643383026123,0.0902862548828125,0.061591148376464844
1780001759144989400,8.526989501953125,-0.02427351474761963,0.08055496215820312,0.08022117614746094
1780001759161312800,8.543312744140625,-0.0069446563720703125,0.056232452392578125,0.046090126037597656
1780001759177656300,8.55965625,-0.004596114158630371,0.02224874496459961,0.002330780029296875
1780001759193988900,8.57598876953125,-0.01564764976501465,-0.0020232200622558594,-0.017459869384765625
1780001759210321700,8.59232177734375,-0.0320734977722168,-0.011554718017578125,-0.013658523559570312
1780001759226655000,8.608655029296875,-0.029116034507751465,-0.011125564575195312,0.000537872314453125
1780001759242987500,8.624987548828125,-0.011505484580993652,0.008601188659667969,-0.02289295196533203
1780001759259320800,8.64132080078125,0.0013873577117919922,0.037873268127441406,-0.03258800506591797
1780001759275654000,8.65765380859375,0.01778542995452881,0.0339350700378418,-0.0036983489990234375
1780001759291990500,8.673990478515625,0.04315078258514404,0.06837987899780273,0.02125263214111328
1780001759308331800,8.690331787109375,0.05292344093322754,0.09313344955444336,0.026475906372070312
1780001759324668200,8.706668212890625,0.06762635707855225,0.10814905166625977,0.03165626525878906
1780001759340983300,8.7229833984375,0.05732107162475586,0.0704641342163086,0.03695869445800781
1780001759357319200,8.739319091796874,0.023055672645568848,0.047129154205322266,0.027396202087402344
1780001759373666800,8.755666748046876,-0.030567288398742676,0.01903676986694336,0.02736949920654297
1780001759389993200,8.7719931640625,-0.03988218307495117,0.01014089584350586,0.03735923767089844
1780001759406332700,8.788332763671875,-0.02888357639312744,0.03929424285888672,0.042827606201171875
1780001759422665500,8.80466552734375,0.0065975189208984375,0.06815910339355469,0.03784465789794922
1780001759438996000,8.820995849609375,0.041664958000183105,0.08230972290039062,0.023110389709472656
1780001759455327200,8.8373271484375,0.06668233871459961,0.07239723205566406,0.013741493225097656
1780001759471648300,8.853648193359374,0.08638334274291992,0.048120975494384766,-0.0009355545043945312
1780001759487983900,8.86998388671875,0.07232034206390381,0.04313993453979492,-0.001110076904296875
1780001759504329000,8.886328857421875,0.0577542781829834,0.03829669952392578,-0.001117706298828125
1780001759520646400,8.902646484375,0.028610706329345703,0.009421348571777344,0.007808685302734375
1780001759536996600,8.91899658203125,0.02390313148498535,-0.024342060089111328,-0.0018625259399414062
1780001759553313800,8.935313720703125,0.02334463596343994,-0.033547401428222656,-0.045006752014160156
1780001759569661000,8.951660888671874,0.019169926643371582,-0.06204938888549805,-0.06879281997680664
1780001759585980700,8.967980712890625,0.019213318824768066,-0.06574440002441406,-0.05379295349121094
1780001759602315500,8.9843154296875,0.03442680835723877,-0.04532289505004883,-0.0430755615234375
1780001759618648800,9.00064892578125,0.02182173728942871,0.004791259765625,-0.027449607849121094
1780001759634981400,9.0169814453125,0.033620476722717285,0.040354251861572266,-0.0024518966674804688
1780001759651321000,9.033321044921875,0.03442823886871338,0.0755319595336914,0.012833595275878906
1780001759667647200,9.049647216796876,0.03441596031188965,0.10078668594360352,0.03287982940673828
1780001759683980300,9.065980224609374,0.023970723152160645,0.1210479736328125,0.019415855407714844
1780001759700329200,9.0823291015625,0.018061399459838867,0.09349966049194336,0.02994823455810547
1780001759716647400,9.0986474609375,-0.007169604301452637,0.07575225830078125,0.04545116424560547
1780001759732994300,9.114994384765625,-0.004114508628845215,0.06782913208007812,0.04204845428466797
1780001759749323300,9.1313232421875,-0.011124730110168457,0.06958580017089844,0.043580055236816406
1780001759765662200,9.147662109375,-0.027481555938720703,0.042737483978271484,0.05951118469238281
1780001759781993200,9.1639931640625,-0.043410420417785645,0.05877399444580078,0.045937538146972656
1780001759798309400,9.180309326171875,-0.05820059776306152,0.09835004806518555,0.05645465850830078
1780001759814658800,9.196658935546875,-0.04465353488922119,0.1374349594116211,0.09113121032714844
1780001759830993200,9.2129931640625,-0.059836626052856445,0.14252614974975586,0.11539363861083984
1780001759847323100,9.2293232421875,-0.04161655902862549,0.10870552062988281,0.10095691680908203
1780001759863661600,9.24566162109375,-0.0757211446762085,0.08423471450805664,0.06667232513427734
1780001759879992300,9.261992431640625,-0.08545076847076416,0.05019855499267578,0.04727745056152344
1780001759896337200,9.278337158203126,-0.07603025436401367,0.04981040954589844,0.047034263610839844
1780001759912657700,9.29465771484375,-0.02399730682373047,0.05434560775756836,0.028321266174316406
1780001759928990700,9.31099072265625,0.018474936485290527,0.06371450424194336,0.013918876647949219
1780001759945324500,9.327324462890624,0.06481623649597168,0.04470968246459961,0.000484466552734375
1780001759961640400,9.343640380859375,0.058339834213256836,0.045189857482910156,-0.022769927978515625
1780001759977990700,9.35999072265625,0.0698784589767456,0.04570484161376953,-0.012506484985351562
1780001759994323200,9.3763232421875,0.07767462730407715,0.04147911071777344,0.007289886474609375
1780001760010648000,9.39264794921875,0.08953201770782471,0.027903079986572266,0.012990951538085938
1780001760026997500,9.40899755859375,0.08211016654968262,0.023966312408447266,-0.014647483825683594
1780001760043320800,9.42532080078125,0.07838773727416992,0.019998550415039062,-0.027871131896972656
1780001760059651800,9.44165185546875,0.0606762170791626,0.006367683410644531,-0.012500762939453125
1780001760075974700,9.457974609375,0.09585118293762207,-0.002490520477294922,-0.006747245788574219
1780001760092308000,9.474307861328125,0.1120450496673584,-0.02083730697631836,-0.015315055847167969
1780001760108641000,9.49064111328125,0.09004354476928711,-0.039038658142089844,-0.05251359939575195
1780001760124974000,9.50697412109375,0.06921875476837158,-0.03789043426513672,-0.08546972274780273
1780001760141291000,9.523291015625,0.01959693431854248,-0.017466068267822266,-0.0556035041809082
1780001760157640200,9.53964013671875,0.0027428865432739258,0.0030918121337890625,-0.006478309631347656
1780001760173976600,9.5559765625,0.01922786235809326,0.028282642364501953,0.004372596740722656
1780001760190306300,9.572306396484375,0.006700277328491211,0.04860115051269531,0.01042938232421875
1780001760206653200,9.588653076171875,-0.0017658472061157227,0.059178829193115234,0.025960922241210938
1780001760222970000,9.60497021484375,0.004153728485107422,0.0695185661315918,0.03723621368408203
1780001760239319600,9.621319580078126,0.015194416046142578,0.06087064743041992,0.03839397430419922
1780001760255651800,9.63765185546875,0.012517690658569336,0.03794384002685547,0.04907798767089844
1780001760271982800,9.65398291015625,0.00007450580596923828,0.0340118408203125,0.02080821990966797
1780001760288298200,9.67029833984375,0.0015681982040405273,0.04903745651245117,0.031963348388671875
1780001760304654600,9.686654541015624,0.017087340354919434,0.06863784790039062,0.03285694122314453
1780001760320964400,9.70296435546875,0.04222679138183594,0.0687103271484375,0.02869415283203125
1780001760337297700,9.719297607421876,0.038988709449768066,0.025948047637939453,0.015070915222167969
1780001760353637400,9.735637451171876,0.02718675136566162,0.012280464172363281,-0.012712478637695312
1780001760369966600,9.751966552734375,0.025096893310546875,0.04664754867553711,-0.006993293762207031
1780001760386294500,9.76829443359375,0.06508541107177734,0.08553266525268555,0.0039920806884765625
1780001760402638600,9.784638671875,0.07160496711730957,0.06699132919311523,0.02882671356201172
1780001760418968600,9.800968505859375,0.04900634288787842,0.04387617111206055,0.019781112670898438
1780001760435302000,9.817302001953125,0.011829853057861328,0.030358314514160156,0.02095794677734375
1780001760451614500,9.833614501953125,-0.0008956193923950195,0.036176204681396484,0.02218341827392578
1780001760467968300,9.84996826171875,0.0014133453369140625,0.0659933090209961,0.028135299682617188
1780001760484301300,9.86630126953125,0.017734646797180176,0.0764169692993164,0.033972740173339844
1780001760500652000,9.882652099609375,0.023807525634765625,0.0580134391784668,0.020700454711914062
1780001760516964400,9.89896435546875,0.006464719772338867,0.020615100860595703,0.017118453979492188
1780001760533311500,9.9153115234375,-0.0005747079849243164,0.012193679809570312,0.01828479766845703
1780001760549618000,9.931617919921875,-0.016666531562805176,0.03710746765136719,0.04308128356933594
1780001760565963300,9.94796337890625,-0.008287191390991211,0.07621335983276367,0.05820274353027344
1780001760582297300,9.96429736328125,-0.005307435989379883,0.08129739761352539,0.06349372863769531
1780001760598632000,9.9806318359375,0.0021740198135375977,0.06667327880859375,0.04451560974121094
1780001760614968600,9.996968505859375,0.009621977806091309,0.04234457015991211,0.03023529052734375
1780001760631299000,10.013299072265625,0.032416343688964844,0.018234729766845703,0.0016870498657226562
1780001760647632400,10.02963232421875,0.031046628952026367,0.008603572845458984,-0.02205514907836914
1780001760663961900,10.0459619140625,0.044402122497558594,0.008740425109863281,-0.01222085952758789
1780001760680314400,10.062314453125,0.061324238777160645,0.01844644546508789,0.01745462417602539
1780001760696648400,10.0786484375,0.06413590908050537,0.03742504119873047,0.017673492431640625
1780001760712977700,10.094977783203126,0.05741548538208008,0.03216075897216797,0.022455215454101562
1780001760729311000,10.11131103515625,0.055530667304992676,0.01726531982421875,-0.0015277862548828125
1780001760745640400,10.127640380859376,0.04963195323944092,0.002574920654296875,-0.0014700889587402344
1780001760761981200,10.143981201171876,0.04831361770629883,0.007038116455078125,-0.011040687561035156
1780001760778308400,10.160308349609375,0.04672956466674805,-0.012466907501220703,-0.011022567749023438
1780001760794644000,10.17664404296875,0.04482460021972656,-0.017579078674316406,-0.030667781829833984
1780001760810972200,10.19297216796875,0.062469482421875,-0.032193660736083984,-0.034778594970703125
1780001760827310300,10.209310302734375,0.08540022373199463,-0.01789569854736328,-0.03465127944946289
1780001760843648000,10.22564794921875,0.08467972278594971,-0.0035696029663085938,-0.03454875946044922
1780001760859973600,10.2419736328125,0.06434309482574463,-0.008048057556152344,-0.0055217742919921875
1780001760876308500,10.25830859375,0.030350685119628906,0.011470794677734375,0.013964176177978516
1780001760892641800,10.274641845703124,0.025526762008666992,0.054692745208740234,0.014074325561523438
1780001760908965400,10.29096533203125,0.0400235652923584,0.07370567321777344,0.023532390594482422
1780001760925315300,10.3073154296875,0.0775294303894043,0.058815956115722656,0.018512248992919922
1780001760941619500,10.323619384765625,0.06637263298034668,0.02001810073852539,0.004071235656738281
1780001760957977300,10.339977294921875,0.05097460746765137,0.0147552490234375,0.003920078277587891
1780001760974306800,10.356306884765624,0.007863044738769531,0.028562545776367188,0.026877403259277344
1780001760990636000,10.372635986328126,-0.024701356887817383,0.06605148315429688,0.05488395690917969
1780001761006974500,10.388974365234375,-0.0148240327835083,0.09370231628417969,0.0689535140991211
1780001761023308000,10.40530810546875,0.0011446475982666016,0.08745336532592773,0.05820178985595703
1780001761039637200,10.42163720703125,0.04036426544189453,0.05237913131713867,0.023459434509277344
1780001761055955500,10.43795556640625,0.06007516384124756,0.017323970794677734,-0.001636505126953125
1780001761072291300,10.454291259765625,0.0795220136642456,0.025421619415283203,0.0020856857299804688
1780001761088624000,10.4706240234375,0.07022440433502197,0.03837108612060547,0.015427589416503906
1780001761104957700,10.486957763671874,0.0606154203414917,0.04107522964477539,0.03355693817138672
1780001761121289000,10.5032890625,0.06025266647338867,0.020865440368652344,0.013331413269042969
1780001761137622300,10.519622314453125,0.04065060615539551,-0.01921224594116211,0.0026073455810546875
1780001761153956900,10.535956787109376,0.06071436405181885,-0.05912351608276367,-0.041635990142822266
1780001761170304300,10.55230419921875,0.07622551918029785,-0.05582857131958008,-0.06199455261230469
1780001761186637800,10.568637939453126,0.09216165542602539,-0.04737043380737305,-0.06302738189697266
1780001761202969900,10.584969970703124,0.09837043285369873,-0.009985923767089844,-0.05431318283081055
1780001761219302400,10.601302490234374,0.10393071174621582,0.0038213729858398438,-0.040563106536865234
1780001761235633700,10.617633544921874,0.08120369911193848,0.022722721099853516,-0.021789073944091797
1780001761251968300,10.63396826171875,0.06277751922607422,0.027272701263427734,-0.00771331787109375
1780001761268301000,10.650301025390625,0.039258360862731934,0.041588783264160156,-0.0030260086059570312
1780001761284639200,10.66663916015625,0.015699386596679688,0.04153251647949219,0.025588035583496094
1780001761300966100,10.682966064453124,-0.012895822525024414,0.04137897491455078,0.05347728729248047
1780001761317296600,10.699296630859376,-0.030145645141601562,0.04573392868041992,0.08157730102539062
1780001761333636900,10.715636962890626,-0.0513225793838501,0.07364749908447266,0.09013938903808594
1780001761349952300,10.7319521484375,-0.06255543231964111,0.09145832061767578,0.07913494110107422
1780001761366283500,10.748283447265624,-0.04434514045715332,0.0847010612487793,0.06756973266601562
1780001761382637600,10.764637451171875,-0.0070018768310546875,0.06331777572631836,0.051039695739746094
1780001761398966300,10.78096630859375,0.006665587425231934,0.04663372039794922,0.024941444396972656
1780001761415298000,10.797298095703125,0.04389488697052002,0.034772396087646484,0.013787269592285156
1780001761431632100,10.813632080078126,0.06204080581665039,0.032834529876708984,-0.012087821960449219
1780001761447949800,10.82994970703125,0.04660630226135254,0.03128385543823242,-0.01375579833984375
1780001761464297700,10.846297607421874,0.05004310607910156,0.030310630798339844,-0.00540924072265625
1780001761480636400,10.862636474609374,0.03835189342498779,0.04865598678588867,-0.0016040802001953125
1780001761496957700,10.878957763671876,0.031062602996826172,0.07186460494995117,-0.007851600646972656
1780001761513297400,10.89529736328125,0.04265105724334717,0.06665515899658203,0.0017023086547851562
1780001761529613600,10.911613525390624,0.04367995262145996,0.0519866943359375,0.020462989807128906
1780001761545931000,10.927930908203125,0.03521740436553955,0.028022289276123047,0.02444744110107422
1780001761562273000,10.94427294921875,-0.0014636516571044922,0.018335819244384766,0.00496673583984375
1780001761578617900,10.960617919921875,-0.03270232677459717,0.027567386627197266,0.03307914733886719
1780001761594948900,10.976948974609375,-0.035477638244628906,0.05091238021850586,0.05619049072265625
1780001761611281700,10.99328173828125,-0.03719794750213623,0.07880592346191406,0.05513572692871094
1780001761627615000,11.009614990234375,-0.019279122352600098,0.08257150650024414,0.06344127655029297
1780001761643948300,11.0259482421875,-0.0012265443801879883,0.062085628509521484,0.047576904296875
1780001761660283000,11.042282958984375,0.01233375072479248,0.03191328048706055,0.022113800048828125
1780001761676629000,11.05862890625,0.03440523147583008,0.016156673431396484,-0.008019447326660156
1780001761692958000,11.0749580078125,0.042134642601013184,0.005289554595947266,-0.02851104736328125
1780001761709281000,11.091281005859376,0.044598937034606934,0.008981704711914062,-0.02485942840576172
1780001761725621200,11.107621337890626,0.022879719734191895,-0.0014243125915527344,-0.020992279052734375
1780001761741935400,11.123935302734376,0.016032099723815918,-0.002147197723388672,-0.0027704238891601562
1780001761758295800,11.1402958984375,0.018711447715759277,0.006639003753662109,-0.008512496948242188
1780001761774624300,11.156624267578126,0.03538858890533447,0.005725383758544922,0.014430046081542969
1780001761790959000,11.172958984375,0.06125378608703613,0.00012445449829101562,0.008788108825683594
1780001761807291400,11.18929150390625,0.04820108413696289,-0.0055408477783203125,-0.020728111267089844
1780001761823623000,11.205622802734375,0.04515182971954346,-0.035141944885253906,-0.03586578369140625
1780001761839961600,11.221961669921875,0.012763738632202148,-0.04480886459350586,-0.04667854309082031
1780001761856291300,11.238291259765624,0.009798049926757812,-0.04067850112915039,-0.03783607482910156
1780001761872621800,11.254621826171874,0.001955389976501465,-0.032186031341552734,-0.014597892761230469
1780001761888958000,11.2709580078125,0.03786635398864746,-0.004080772399902344,0.013925552368164062
1780001761905291000,11.287291015625,0.05433821678161621,-0.009769439697265625,0.003414154052734375
1780001761921603800,11.303603759765625,0.07000410556793213,-0.04417991638183594,-0.011761665344238281
1780001761937957400,11.319957275390625,0.06514561176300049,-0.08340930938720703,-0.017175674438476562
1780001761954290200,11.336290283203125,0.03377079963684082,-0.10301399230957031,-0.04150867462158203
1780001761970623200,11.352623291015625,-0.02189040184020996,-0.08843612670898438,-0.026187896728515625
1780001761986955300,11.368955322265625,-0.015273571014404297,-0.056354522705078125,0.04213523864746094
1780001762003286000,11.3852861328125,0.05453956127166748,-0.07669591903686523,0.05323219299316406
1780001762019622000,11.401621826171874,0.10808408260345459,-0.14514541625976562,-0.032405853271484375
1780001762035938000,11.41793798828125,-0.03702700138092041,-0.08816337585449219,-0.04139137268066406
1780001762052273700,11.434273681640626,-0.044272661209106445,0.0961456298828125,-0.01617431640625
1780001762068606700,11.450606689453124,0.17330610752105713,0.3029298782348633,-0.014138221740722656
1780001762084940000,11.46693994140625,0.3668968677520752,0.31708669662475586,0.03297710418701172
1780001762101261600,11.483261474609375,0.3833944797515869,0.17448806762695312,-0.03605937957763672
1780001762117604400,11.499604248046875,0.182326078414917,0.019942760467529297,-0.1955275535583496
1780001762133939700,11.515939697265624,0.00961756706237793,-0.1567392349243164,-0.2907853126525879
1780001762150271500,11.532271484375,-0.06498324871063232,-0.3175625801086426,-0.198486328125
1780001762166606600,11.548606689453125,-0.009970307350158691,-0.20844125747680664,-0.15151071548461914
1780001762182951400,11.564951416015624,0.10903847217559814,-0.07921314239501953,-0.1070556640625
1780001762199268600,11.5812685546875,-0.03365123271942139,-0.02118682861328125,0.025175094604492188
1780001762215617800,11.59761767578125,-0.29730844497680664,0.06470775604248047,0.19931507110595703
1780001762231952000,11.613951904296876,-0.2967109680175781,0.20130062103271484,0.2627553939819336
1780001762248284400,11.630284423828124,-0.18543410301208496,0.2720341682434082,0.3240318298339844
1780001762264615200,11.646615234375,-0.17303216457366943,0.28818798065185547,0.2394552230834961
1780001762280946000,11.66294580078125,-0.1531926393508911,0.26854562759399414,0.20074176788330078
1780001762297278500,11.679278564453124,-0.03879690170288086,0.2424931526184082,0.13292694091796875
1780001762313624800,11.695624755859376,0.031473755836486816,0.12082147598266602,-0.012003898620605469
1780001762329949400,11.711949462890624,0.25358057022094727,-0.08143138885498047,-0.15468072891235352
1780001762346282000,11.728281982421874,0.19499444961547852,-0.21396112442016602,-0.23548269271850586
1780001762362598700,11.7445986328125,-0.007219076156616211,-0.13774490356445312,-0.16571855545043945
1780001762378946300,11.7609462890625,0.043332695960998535,-0.04134559631347656,-0.011155128479003906
1780001762395273500,11.7772734375,-0.18990182876586914,0.0501255989074707,0.11632251739501953
1780001762411623000,11.793622802734374,-0.0669783353805542,0.16443872451782227,0.1311807632446289
1780001762427931100,11.80993115234375,-0.036894798278808594,0.15423822402954102,0.0774078369140625
1780001762444277000,11.826277099609374,-0.03399324417114258,0.08024215698242188,0.05972576141357422
1780001762460602600,11.8426025390625,-0.05188727378845215,0.03490114212036133,0.047756195068359375
1780001762476947000,11.858947021484376,0.026990175247192383,0.061327457427978516,0.012949943542480469
1780001762493276000,11.87527587890625,0.02609264850616455,0.11173486709594727,-0.017885208129882812
1780001762509614600,11.891614501953125,0.10235393047332764,0.04268980026245117,-0.01996898651123047
1780001762525929000,11.907928955078125,-0.09423863887786865,-0.01142120361328125,0.0011739730834960938
1780001762542264800,11.924264892578124,-0.07832753658294678,0.01660776138305664,0.014070510864257812
1780001762558598400,11.940598388671875,-0.034383416175842285,0.05874490737915039,0.06569957733154297
1780001762574930700,11.9569306640625,0.004964709281921387,0.10064888000488281,0.06390953063964844
1780001762591264300,11.97326416015625,-0.06524324417114258,0.06060028076171875,0.075592041015625
1780001762607596000,11.989595947265625,-0.06611442565917969,0.12102365493774414,0.0832681655883789
1780001762623930000,12.00593017578125,0.017706751823425293,0.17642927169799805,0.03892326354980469
1780001762640261400,12.022261474609374,0.15783393383026123,0.1492018699645996,0.02233123779296875
1780001762656614000,12.03861376953125,0.08792591094970703,0.07551097869873047,-0.04704093933105469
1780001762672938800,12.054938720703126,0.12425637245178223,-0.03532886505126953,-0.08066272735595703
1780001762689280800,12.07128076171875,0.011817097663879395,-0.04866981506347656,-0.05250263214111328
1780001762705607400,12.087607421875,-0.02562105655670166,-0.06662130355834961,-0.018340110778808594
1780001762721942300,12.1039423828125,0.05953240394592285,-0.0369868278503418,0.04075813293457031
1780001762738278000,12.12027783203125,-0.031066179275512695,0.0695195198059082,0.027167320251464844
1780001762754605600,12.13660546875,-0.08973896503448486,0.036928653717041016,0.045777320861816406
1780001762770939100,12.152939208984375,-0.10060250759124756,-0.024118900299072266,0.03554344177246094
1780001762787271000,12.16927099609375,-0.01106107234954834,0.06138801574707031,0.031319618225097656
1780001762803611000,12.18561083984375,0.2304227352142334,0.11243009567260742,0.03192901611328125
1780001762819941000,12.201941162109375,0.12082815170288086,0.07317447662353516,-0.018060684204101562
1780001762836264200,12.21826416015625,0.054558515548706055,-0.051991939544677734,-0.04788494110107422
1780001762852614100,12.2346142578125,-0.05672883987426758,-0.06995964050292969,0.0041294097900390625
1780001762868939500,12.250939453125,-0.15419220924377441,0.016835689544677734,0.047812461853027344
1780001762885272300,12.267272216796876,-0.0021151304244995117,0.07851457595825195,0.0006284713745117188
1780001762901588000,12.283587890625,0.15239500999450684,0.015913963317871094,0.014306068420410156
1780001762917939000,12.29993896484375,0.08394145965576172,0.05447721481323242,0.014081001281738281
1780001762934271500,12.316271484375,-0.052145957946777344,0.08343696594238281,0.04207420349121094
1780001762950604800,12.332604736328125,-0.08104133605957031,0.08278608322143555,0.08943462371826172
1780001762966935800,12.348935791015625,-0.010875105857849121,0.06276941299438477,0.04111671447753906
1780001762983271000,12.36527099609375,0.05178225040435791,0.0003905296325683594,-0.046138763427734375
1780001762999603700,12.381603759765625,0.07914876937866211,-0.0046596527099609375,-0.061183929443359375
1780001763015919000,12.397919189453125,0.028099775314331055,0.05769920349121094,-0.022728919982910156
1780001763032243200,12.4142431640625,0.09957420825958252,0.03922128677368164,0.011257171630859375
1780001763048589000,12.430589111328125,0.04991281032562256,0.03975200653076172,0.011880874633789062
1780001763064921600,12.446921630859375,-0.029975414276123047,0.025858402252197266,-0.0124664306640625
1780001763081235200,12.463235107421875,0.004889369010925293,-0.03106403350830078,-0.0027599334716796875
1780001763097584600,12.479584716796875,0.0669090747833252,-0.030237674713134766,-0.006457328796386719
1780001763113923800,12.495923828125,0.08278930187225342,-0.0009212493896484375,-0.044478416442871094
1780001763130254000,12.512254150390625,0.07803153991699219,-0.0384678840637207,-0.015275001525878906
1780001763146603800,12.528603759765625,-0.042587995529174805,-0.008409976959228516,-0.005658149719238281
1780001763162934000,12.54493408203125,-0.06830906867980957,-0.0029497146606445312,0.037441253662109375
1780001763179266000,12.56126611328125,0.01993536949157715,0.04433870315551758,0.0000591278076171875
1780001763195599000,12.57759912109375,0.11629152297973633,0.029926300048828125,-0.03368568420410156
1780001763211916000,12.593916015625,0.018752098083496094,-0.056204795837402344,-0.016081809997558594
1780001763228266200,12.610266357421875,-0.0579524040222168,-0.030771732330322266,-0.011269569396972656
1780001763244598300,12.626598388671875,-0.014346718788146973,0.041165828704833984,0.04230499267578125
1780001763260952600,12.64295263671875,0.006697416305541992,0.09894895553588867,0.03807353973388672
1780001763277240300,12.659240234375,0.06607913970947266,0.08460378646850586,0.0090789794921875
1780001763293589500,12.675589599609374,0.07621884346008301,0.0368800163269043,-0.014842987060546875
1780001763309927700,12.691927734375,0.027547597885131836,-0.010498523712158203,-0.010128974914550781
1780001763326268000,12.708267822265626,-0.07527589797973633,0.029175281524658203,0.009285926818847656
1780001763342561800,12.724561767578125,-0.05045127868652344,0.03931140899658203,0.029184341430664062
1780001763358897200,12.740897216796874,0.08358168601989746,0.05333662033081055,0.020295143127441406
1780001763375246000,12.75724609375,0.04089152812957764,0.04461336135864258,-0.008219718933105469
1780001763391596000,12.773595947265624,-0.03636753559112549,-0.022150039672851562,-0.01385498046875
1780001763407926300,12.78992626953125,-0.032222867012023926,-0.00255584716796875,-0.041573524475097656
1780001763424247000,12.8062470703125,0.08898556232452393,-0.049958229064941406,-0.036118507385253906
1780001763440595700,12.822595703125,0.03281557559967041,-0.0016617774963378906,-0.012679100036621094
1780001763456952000,12.8389521484375,0.07363688945770264,0.012814521789550781,-0.011357307434082031
1780001763473255200,12.855255126953125,-0.00005829334259033203,0.014441490173339844,-0.0252532958984375
1780001763489596400,12.871596435546875,-0.062451839447021484,-0.037329673767089844,0.013042449951171875
1780001763505911600,12.88791162109375,-0.05739295482635498,-0.04598093032836914,0.03754425048828125
1780001763522229800,12.904229736328125,-0.05580782890319824,0.017385482788085938,-0.00020313262939453125
1780001763538581200,12.920581298828125,0.04171562194824219,0.04649829864501953,0.010876655578613281
1780001763554903300,12.9369033203125,0.047067999839782715,0.09496498107910156,0.04461383819580078
1780001763571245600,12.95324560546875,-0.018448829650878906,0.10968351364135742,0.044127464294433594
1780001763587584500,12.96958447265625,-0.017943382263183594,0.07146263122558594,0.044096946716308594
1780001763603912200,12.985912109375,-0.01365816593170166,0.03856229782104492,0.015455245971679688
1780001763620244200,13.002244140625,-0.024071335792541504,0.024119853973388672,-0.017889022827148438
1780001763636580900,13.018580810546876,-0.022182703018188477,0.00022649765014648438,-0.032502174377441406
1780001763652920000,13.034920166015626,-0.028789162635803223,-0.056418418884277344,-0.009082794189453125
1780001763669258200,13.05125830078125,0.05172157287597656,-0.03600597381591797,-0.01707935333251953
1780001763685592300,13.06759228515625,-0.059244751930236816,0.0659632682800293,0.01215362548828125
1780001763701924900,13.0839248046875,-0.05838882923126221,0.08150196075439453,0.04204273223876953
1780001763718256400,13.10025634765625,-0.029872417449951172,0.05356168746948242,0.033019065856933594
1780001763734588000,13.116587890625,0.008151054382324219,0.07329225540161133,0.004738807678222656
1780001763750927000,13.132927001953124,0.11215817928314209,0.034596920013427734,-0.018279075622558594
1780001763767249400,13.14924951171875,0.023936033248901367,0.01618337631225586,-0.008823394775390625
1780001763783587600,13.165587646484376,-0.025533318519592285,-0.011547088623046875,0.02557373046875
1780001763799922000,13.181921875,-0.014168500900268555,0.013930797576904297,0.04610919952392578
1780001763816254200,13.198254150390625,-0.07898509502410889,0.03872251510620117,0.02742290496826172
1780001763832580600,13.21458056640625,-0.03665733337402344,-0.003955841064453125,-0.010488510131835938
1780001763848921900,13.230921875,-0.05050253868103027,-0.04227876663208008,0.0037670135498046875
1780001763865256200,13.247256103515625,0.04518914222717285,-0.008870124816894531,0.004619598388671875
1780001763881569300,13.2635693359375,0.056993961334228516,0.006168842315673828,0.025197982788085938
1780001763897918700,13.279918701171875,-0.0709238052368164,0.0650944709777832,-0.013070106506347656
1780001763914251800,13.296251708984375,-0.014200687408447266,0.07072114944458008,-0.03094482421875
1780001763930585300,13.31258544921875,0.0572887659072876,-0.058197975158691406,-0.02591705322265625
1780001763946918000,13.32891796875,-0.039971113204956055,-0.009534835815429688,-0.016170501708984375
1780001763963244000,13.345244140625,0.02610146999359131,0.10589456558227539,0.02893543243408203
1780001763979582000,13.36158203125,-0.09872853755950928,0.03520822525024414,0.052062034606933594
1780001763995900200,13.377900146484375,-0.050750732421875,-0.050301551818847656,-0.00008296966552734375
1780001764012236300,13.394236328125,0.07394373416900635,0.007563114166259766,-0.03213214874267578
1780001764028564500,13.410564453125,0.1463252305984497,-0.0071773529052734375,-0.041138648986816406
1780001764044906800,13.42690673828125,0.05465388298034668,-0.030050277709960938,-0.04182720184326172
1780001764061234700,13.443234619140625,-0.07201898097991943,-0.07190608978271484,-0.04596710205078125
1780001764077570000,13.459570068359374,-0.07410991191864014,-0.07064056396484375,-0.0208740234375
1780001764093901000,13.475901123046874,0.09239530563354492,-0.007737159729003906,-0.018749237060546875
1780001764110221000,13.492220947265626,0.11990392208099365,0.01196908950805664,-0.032036781311035156
1780001764126557700,13.5085576171875,0.023010611534118652,0.01761007308959961,-0.004078865051269531
1780001764142914300,13.524914306640625,-0.021448850631713867,0.008273601531982422,0.0202178955078125
1780001764159247000,13.5412470703125,-0.0017980337142944336,-0.0012235641479492188,0.024976730346679688
1780001764175579100,13.5575791015625,0.03161191940307617,-0.034920692443847656,-0.013428688049316406
1780001764191897300,13.5738974609375,0.0030635595321655273,-0.02519845962524414,-0.05154705047607422
1780001764208262400,13.590262451171874,0.11696135997772217,-0.02561807632446289,-0.026846885681152344
1780001764224562200,13.606562255859375,0.024698734283447266,-0.0058269500732421875,-0.02720928192138672
1780001764240910300,13.622910400390625,-0.02415597438812256,-0.005931377410888672,-0.007985115051269531
1780001764257237200,13.6392373046875,-0.019001245498657227,-0.02514028549194336,-0.008086204528808594
1780001764273575200,13.6555751953125,0.07699871063232422,-0.04045581817626953,-0.02691650390625
1780001764289898500,13.6718984375,0.03837323188781738,-0.006193637847900391,-0.022566795349121094
1780001764306242800,13.688242919921874,0.03686392307281494,0.04204845428466797,-0.03583812713623047
1780001764322578400,13.704578369140625,0.05478477478027344,0.008855819702148438,-0.059372901916503906
1780001764338909000,13.720908935546875,0.06440603733062744,-0.04309272766113281,-0.04934215545654297
1780001764355226000,13.73722607421875,-0.023159265518188477,-0.03702831268310547,-0.020148277282714844
1780001764371559000,13.753558837890624,-0.06032705307006836,-0.031064510345458984,-0.00025081634521484375
1780001764387894500,13.76989453125,-0.11671602725982666,-0.015652179718017578,0.034531593322753906
1780001764404242200,13.7862421875,-0.14610731601715088,0.03327751159667969,0.07364368438720703
1780001764420571100,13.802571044921875,-0.04915046691894531,0.06189537048339844,0.0934438705444336
1780001764436910000,13.81891015625,-0.09930777549743652,0.08054924011230469,0.07299327850341797
1780001764453224700,13.835224609375,-0.026035428047180176,0.0892181396484375,0.043639183044433594
1780001764469574000,13.851573974609375,-0.01611769199371338,0.024782180786132812,0.032515525817871094
1780001764485890000,13.86789013671875,-0.03845632076263428,0.003528118133544922,0.016585350036621094
1780001764502225200,13.88422509765625,0.0013957023620605469,0.03502035140991211,-0.0041484832763671875
1780001764518559700,13.900559814453125,0.04488992691040039,0.03744935989379883,0.023825645446777344
1780001764534891500,13.9168916015625,0.07974827289581299,0.026279926300048828,-0.0061702728271484375
1780001764551225000,13.93322509765625,0.11334919929504395,0.024688243865966797,-0.035373687744140625
1780001764567545300,13.94954541015625,0.021445751190185547,0.004634857177734375,-0.013417243957519531
1780001764583891500,13.965891357421874,0.023210525512695312,0.03217744827270508,0.010689735412597656
1780001764600221000,13.982220947265626,0.017072558403015137,0.08762454986572266,0.024322509765625
1780001764616559900,13.998559814453126,0.05193531513214111,0.042891502380371094,0.03735542297363281
1780001764632907500,14.014907470703125,-0.019376516342163086,-0.0010323524475097656,0.040495872497558594
1780001764649237500,14.031237548828125,-0.052281737327575684,-0.006938934326171875,0.0110321044921875
1780001764665565400,14.0475654296875,-0.02830064296722412,-0.003619670867919922,0.010038375854492188
1780001764681907200,14.0639072265625,0.11374139785766602,0.07546520233154297,0.01973438262939453
1780001764698236700,14.080236572265624,0.1268150806427002,0.17890167236328125,0.024074554443359375
1780001764714568400,14.096568359375,0.08549070358276367,0.1575613021850586,0.060657501220703125
1780001764730901800,14.11290185546875,-0.03779101371765137,0.09299564361572266,0.07827281951904297
1780001764747234800,14.12923486328125,-0.06325209140777588,0.015087604522705078,0.009705543518066406
1780001764763564500,14.145564453125,-0.019566655158996582,-0.02494668960571289,-0.0011310577392578125
1780001764779905000,14.161905029296875,0.01581418514251709,0.006773471832275391,-0.044989585876464844
1780001764796234200,14.178234130859375,0.08335840702056885,0.05713033676147461,-0.026549339294433594
1780001764812569300,14.1945693359375,0.12142407894134521,0.10353755950927734,-0.0036478042602539062
1780001764828897800,14.210897705078125,0.18891370296478271,0.09282064437866211,-0.023032188415527344
1780001764845232400,14.227232421875,0.13790678977966309,0.025036334991455078,-0.06259632110595703
1780001764861548800,14.243548828125,0.08707022666931152,-0.08918190002441406,-0.058567047119140625
1780001764877896400,14.259896484375,0.010413765907287598,-0.09771299362182617,-0.06324386596679688
1780001764894232300,14.276232421875,0.004152774810791016,-0.01004648208618164,-0.02371501922607422
1780001764910564600,14.292564697265625,-0.007221817970275879,0.014737606048583984,0.0348663330078125
1780001764926897200,14.308897216796876,0.017143964767456055,0.01584482192993164,0.016996383666992188
1780001764943235000,14.325235107421875,0.09513998031616211,-0.01691579818725586,0.0029153823852539062
1780001764959564000,14.34156396484375,0.07708358764648438,0.012342453002929688,-0.05422019958496094
1780001764975879700,14.357879638671875,0.13094878196716309,0.042337894439697266,-0.08694267272949219
1780001764992215800,14.3742158203125,0.16022861003875732,0.01903676986694336,-0.07663822174072266
1780001765008547600,14.390547607421874,0.10667157173156738,-0.02609729766845703,-0.03679084777832031
1780001765024881700,14.406881591796875,-0.03234291076660156,-0.008549690246582031,-0.0022249221801757812
1780001765041215000,14.423215087890625,-0.07117903232574463,0.06189537048339844,0.047934532165527344
1780001765057547800,14.4395478515625,-0.08472716808319092,0.13127470016479492,0.0688629150390625
1780001765073880600,14.455880615234374,-0.04965019226074219,0.14762544631958008,0.09448814392089844
1780001765090214100,14.472214111328125,-0.04450047016143799,0.14383649826049805,0.10945987701416016
1780001765106547000,14.488546875,-0.05921447277069092,0.08673238754272461,0.1234893798828125
1780001765122899000,14.50489892578125,-0.14857518672943115,0.020549297332763672,0.06555366516113281
1780001765139198200,14.5211982421875,-0.19942188262939453,-0.05111885070800781,0.031352996826171875
1780001765155563800,14.537563720703124,-0.18488764762878418,-0.08482170104980469,0.012044906616210938
1780001765171877400,14.55387744140625,-0.12333989143371582,-0.08531570434570312,-0.026470184326171875
1780001765188224800,14.570224853515626,-0.1032707691192627,-0.04301309585571289,-0.012171745300292969
1780001765204542500,14.58654248046875,-0.11465191841125488,0.004143714904785156,-0.046591758728027344
1780001765220891600,14.6028916015625,-0.09278476238250732,0.0031409263610839844,-0.03331756591796875
1780001765237224400,14.619224365234375,-0.04835629463195801,-0.036040306091308594,0.004070281982421875
1780001765253556700,14.635556640625,0.06235504150390625,-0.00804901123046875,-0.052742958068847656
1780001765269896000,14.65189599609375,0.09841346740722656,0.02496337890625,-0.09580469131469727
1780001765286206700,14.668206787109375,0.05675792694091797,0.029826641082763672,-0.09524393081665039
1780001765302546000,14.6845458984375,0.01080465316772461,0.015780925750732422,-0.07605457305908203
1780001765318889200,14.70088916015625,-0.040161728858947754,0.007084369659423828,-0.041495323181152344
1780001765335216600,14.717216552734374,-0.05427670478820801,0.008418083190917969,0.0031614303588867188
1780001765351559000,14.733558837890625,-0.10920894145965576,0.010034561157226562,-0.00005435943603515625
1780001765367857700,14.749857666015625,-0.08635091781616211,0.02579641342163086,-0.011967658996582031
1780001765384221200,14.76622119140625,-0.0009087324142456055,-0.02566814422607422,-0.010328292846679688
1780001765400555300,14.78255517578125,-0.040131568908691406,-0.052968502044677734,-0.03241729736328125
1780001765416883000,14.798883056640625,-0.036449432373046875,-0.06550312042236328,-0.02548694610595703
1780001765433223400,14.815223388671875,-0.03404414653778076,-0.03495597839355469,0.010371208190917969
1780001765449554000,14.831553955078125,-0.05160391330718994,0.03341388702392578,0.026818275451660156
1780001765465857800,14.84785791015625,-0.09018027782440186,0.029647350311279297,0.014049530029296875
1780001765482205700,14.864205810546874,-0.0902109146118164,0.006228446960449219,0.0008029937744140625
1780001765498535400,14.880535400390626,-0.0561290979385376,-0.036417484283447266,0.03995037078857422
1780001765514874400,14.896874267578125,-0.07903313636779785,-0.031017303466796875,0.045754432678222656
1780001765531205000,14.913205078125,-0.06893789768218994,0.036708831787109375,0.008645057678222656
1780001765547537400,14.929537353515625,-0.0016499757766723633,0.06055307388305664,0.029458999633789062
1780001765563870500,14.945870361328126,0.012384772300720215,0.042054176330566406,0.006987571716308594
1780001765580198400,14.962198486328125,0.04061150550842285,0.003379344940185547,-0.02113056182861328
1780001765596540000,14.978539794921875,0.0018286705017089844,-0.04957246780395508,-0.049691200256347656
1780001765612862200,14.9948623046875,-0.01931476593017578,-0.04458284378051758,-0.058011531829833984
1780001765629216000,15.011216064453125,0.022829532623291016,-0.015252113342285156,-0.05605363845825195
1780001765645548800,15.027548828125,0.036669373512268066,-0.018733501434326172,-0.03515148162841797
1780001765661885000,15.043885009765624,0.0732874870300293,-0.03184652328491211,-0.013788223266601562
1780001765678208800,15.060208740234375,0.1966235637664795,0.13170194625854492,0.004920005798339844
1780001765694548500,15.076548583984374,-0.0713958740234375,0.042252540588378906,0.01808452606201172
1780001765710862000,15.092862060546874,0.2062605619430542,0.23699665069580078,0.04133796691894531
1780001765727200500,15.109200439453126,-0.10083448886871338,0.06320762634277344,0.07636642456054688
1780001765743533000,15.125532958984374,-0.07255995273590088,-0.07603263854980469,0.028791427612304688
1780001765759866600,15.14186669921875,-0.03786766529083252,-0.09015893936157227,-0.046079158782958984
1780001765776198400,15.158198486328125,-0.09871292114257812,-0.06080198287963867,-0.020295143127441406
1780001765792532500,15.174532470703125,-0.09352326393127441,-0.05949687957763672,0.029207229614257812
1780001765808882000,15.1908818359375,0.03396785259246826,-0.03914594650268555,-0.005627632141113281
1780001765825212200,15.207212158203125,0.018854975700378418,0.05295562744140625,-0.0038595199584960938
1780001765841527600,15.223527587890626,0.02232062816619873,0.039093971252441406,0.011064529418945312
1780001765857878800,15.239878662109374,0.07149100303649902,0.020217418670654297,0.006964683532714844
1780001765874210800,15.2562109375,0.024881839752197266,0.006488323211669922,-0.015807151794433594
1780001765890543900,15.2725439453125,0.05012404918670654,-0.03525876998901367,-0.0381169319152832
1780001765906874600,15.28887451171875,0.028279423713684082,-0.033623695373535156,-0.0365290641784668
1780001765923210000,15.3052099609375,0.0023058652877807617,0.0066986083984375,0.0033979415893554688
1780001765939530200,15.3215302734375,0.04127955436706543,0.09007596969604492,0.03949451446533203
1780001765955858700,15.337858642578125,0.03589129447937012,0.13467836380004883,0.051067352294921875
1780001765972193000,15.354193115234375,0.05010247230529785,0.12106466293334961,0.04767417907714844
1780001765988528000,15.370528076171874,0.0786294937133789,0.06364059448242188,0.010285377502441406
1780001766004860700,15.386860595703125,0.0744086503982544,0.0060939788818359375,-0.0032796859741210938
1780001766021193700,15.40319384765625,0.06405246257781982,0.0011310577392578125,-0.01674652099609375
1780001766037526300,15.4195263671875,0.03868663311004639,0.010671138763427734,-0.02580404281616211
1780001766053860000,15.435860107421876,0.018702149391174316,-0.03241300582885742,0.013502120971679688
1780001766070192600,15.452192626953124,-0.00029587745666503906,-0.03208160400390625,0.02893543243408203
1780001766086526000,15.46852587890625,0.04951584339141846,0.025545597076416016,-0.022450923919677734
1780001766102861600,15.484861572265626,0.0815281867980957,0.006154537200927734,-0.027133464813232422
1780001766119200800,15.50120068359375,0.09388446807861328,0.0008172988891601562,-0.027140140533447266
1780001766135521500,15.517521484375,0.09138083457946777,-0.028368473052978516,-0.0557098388671875
1780001766151871700,15.533871826171875,0.10305655002593994,-0.032904624938964844,-0.02154684066772461
1780001766168203000,15.550203125,0.07085728645324707,0.024867534637451172,0.017508506774902344
1780001766184536800,15.566536865234376,0.0016492605209350586,0.12055397033691406,0.041831016540527344
1780001766200870100,15.5828701171875,0.013864994049072266,0.11995363235473633,-0.010821342468261719
1780001766217203500,15.599203369140625,0.0351485013961792,0.019173622131347656,0.02776622772216797
1780001766233540600,15.61554052734375,0.03276050090789795,0.0007195472717285156,0.009648323059082031
1780001766249865000,15.631864990234375,-0.003296375274658203,-0.012326717376708984,-0.013506412506103516
1780001766266207500,15.64820751953125,-0.06268930435180664,0.003665447235107422,0.045403480529785156
1780001766282532600,15.66453271484375,-0.079498291015625,0.07690763473510742,0.06110382080078125
1780001766298866400,15.680866455078124,-0.09387195110321045,0.1107473373413086,0.05176830291748047
1780001766315201500,15.697201416015625,-0.05031692981719971,0.09595203399658203,0.06573486328125
1780001766331533800,15.713533935546875,-0.02785491943359375,0.07160043716430664,0.07588958740234375
1780001766347864800,15.72986474609375,-0.033965349197387695,0.04202604293823242,-0.006287574768066406
1780001766364183800,15.746183837890625,-0.002054929733276367,0.05025291442871094,0.003265380859375
1780001766380550100,15.762550048828125,0.08950245380401611,0.12487411499023438,-0.011646747589111328
1780001766396862200,15.7788623046875,-0.05951201915740967,-0.006100177764892578,0.012704849243164062
1780001766413203500,15.795203369140625,-0.1347196102142334,-0.13615036010742188,0.03910064697265625
1780001766429532400,15.811532470703124,-0.056495070457458496,0.011804580688476562,-0.006052970886230469
1780001766445839000,15.827839111328124,-0.02933812141418457,0.01236724853515625,0.018552780151367188
1780001766462171000,15.8441708984375,0.13848018646240234,0.04111766815185547,-0.03304147720336914
1780001766478515500,15.860515380859376,0.1396099328994751,0.05539417266845703,-0.008974075317382812
1780001766494847500,15.876847412109376,0.07093369960784912,0.023324966430664062,-0.024729251861572266
1780001766511186200,15.893186279296875,-0.03753924369812012,-0.0812673568725586,-0.02545022964477539
1780001766527516200,15.90951611328125,-0.16560328006744385,-0.16228675842285156,-0.019942760467529297
1780001766543849200,15.92584912109375,-0.13718008995056152,-0.17936992645263672,-0.03581953048706055
1780001766560179000,15.942178955078125,0.11555290222167969,-0.04349231719970703,-0.06826162338256836
1780001766576518400,15.958518310546875,0.0772632360458374,0.021312713623046875,0.0060939788818359375
1780001766592848000,15.974847900390625,0.11669182777404785,0.080657958984375,-0.025907039642333984
1780001766609196800,15.99119677734375,0.05387604236602783,0.07828092575073242,-0.024440288543701172
1780001766625528000,16.007528076171877,0.15171074867248535,0.0743398666381836,-0.02246236801147461
1780001766641844000,16.023843994140623,0.12538635730743408,0.04263925552368164,-0.021778583526611328
1780001766658189600,16.040189453125,-0.0008306503295898438,-0.008954048156738281,0.02187204360961914
1780001766674529500,16.056529541015625,-0.04802095890045166,0.054393768310546875,0.05203866958618164
1780001766690859000,16.07285888671875,-0.0703730583190918,0.1273174285888672,0.058222293853759766
1780001766707159600,16.08915966796875,-0.07213032245635986,0.13777971267700195,0.0591740608215332
1780001766723498500,16.10549853515625,-0.058627963066101074,0.05739021301269531,0.0743556022644043
1780001766739847000,16.121846923828127,-0.06406378746032715,0.020422935485839844,0.04140472412109375
1780001766756177700,16.138177734375,-0.060022711753845215,0.03145265579223633,0.04254770278930664
1780001766772511000,16.154510986328123,-0.006567955017089844,0.10904598236083984,0.048358917236328125
1780001766788843500,16.170843505859374,0.1525883674621582,0.27220869064331055,0.030453205108642578
1780001766805176600,16.187176513671876,0.04015505313873291,-0.06686687469482422,0.06188011169433594
1780001766821510000,16.203510009765626,-0.12070298194885254,-0.17612886428833008,-0.013906002044677734
1780001766837839600,16.219839599609376,-0.07068789005279541,-0.13242149353027344,-0.055100440979003906
1780001766854188800,16.236188720703126,0.01511383056640625,0.11554479598999023,-0.015384674072265625
1780001766870523000,16.25252294921875,0.493837833404541,0.8117051124572754,-0.10593509674072266
1780001766886855200,16.268855224609375,-0.3099273443222046,-0.005648612976074219,0.18018054962158203
1780001766903188000,16.28518798828125,0.012759566307067871,-0.373044490814209,0.01598072052001953
1780001766919520800,16.301520751953124,-0.029248476028442383,-0.6116676330566406,-0.04490470886230469
1780001766935837000,16.3178369140625,-0.12544620037078857,-0.23305988311767578,-0.16343975067138672
1780001766952173000,16.334173095703125,-0.015134453773498535,-0.02741384506225586,-0.042611122131347656
1780001766968506600,16.350506591796876,0.17196154594421387,0.020626544952392578,0.03911018371582031
1780001766984839200,16.366839111328126,0.2637319564819336,0.02305889129638672,-0.006650447845458984
1780001767001168600,16.383168701171876,0.17658710479736328,0.09658193588256836,-0.058393001556396484
1780001767017504800,16.3995048828125,0.007089138031005859,0.0018267631530761719,-0.016696453094482422
1780001767033820700,16.415820556640625,0.12414419651031494,0.09203338623046875,-0.006553173065185547
1780001767050171400,16.43217138671875,0.08995497226715088,0.04452657699584961,-0.026329994201660156
1780001767066500600,16.44850048828125,0.05645322799682617,-0.07861709594726562,-0.021150588989257812
1780001767082836700,16.464836669921876,-0.15055501461029053,-0.09435224533081055,0.012503623962402344
1780001767099171000,16.481171142578123,-0.1539853811264038,0.004969120025634766,0.004218101501464844
1780001767115516200,16.49751611328125,-0.03930866718292236,0.09819841384887695,0.0359196662902832
1780001767131847700,16.51384765625,0.08636915683746338,0.13349008560180664,0.014910221099853516
1780001767148185900,16.530185791015626,0.018928885459899902,0.06801033020019531,0.015143871307373047
1780001767164491300,16.5464912109375,0.0934145450592041,-0.0036363601684570312,-0.0277557373046875
1780001767180842800,16.5628427734375,0.08987414836883545,-0.022564411163330078,-0.056561946868896484
1780001767197166800,16.579166748046877,0.12201952934265137,-0.007442474365234375,-0.04141950607299805
1780001767213515000,16.595514892578127,-0.023972392082214355,-0.05927753448486328,-0.00890207290649414
1780001767229843700,16.61184375,-0.05288887023925781,-0.04886436462402344,-0.01399087905883789
1780001767246171600,16.628171630859374,-0.11363029479980469,0.01917409896850586,-0.005499362945556641
1780001767262497500,16.64449755859375,0.05248391628265381,0.05893754959106445,0.03471565246582031
1780001767278846500,16.660846435546876,-0.11901819705963135,-0.015151500701904297,-0.013561725616455078
1780001767295185400,16.677185302734376,-0.06368136405944824,-0.07102346420288086,-0.012094497680664062
1780001767311500300,16.693500244140626,-0.04203176498413086,-0.031459808349609375,0.013631820678710938
1780001767327847400,16.709847412109376,0.005196809768676758,-0.01157999038696289,-0.018231868743896484
1780001767344181500,16.726181396484375,-0.07308721542358398,-0.02031707763671875,0.03471517562866211
1780001767360511000,16.742510986328124,-0.0030548572540283203,0.0422825813293457,0.05881309509277344
1780001767376815000,16.758815185546876,0.05348920822143555,0.061168670654296875,0.019605636596679688
1780001767393177900,16.775177734375,-0.0056188106536865234,-0.02550649642944336,0.027736186981201172
1780001767409505800,16.791505859375,0.11230993270874023,-0.02993917465209961,-0.047978878021240234
1780001767425830400,16.807830322265627,-0.01133882999420166,-0.004486083984375,-0.09722089767456055
1780001767442161200,16.8241611328125,-0.004123330116271973,-0.14302587509155273,-0.09512519836425781
1780001767458495500,16.84049560546875,0.15251636505126953,-0.19472360610961914,-0.18564605712890625
1780001767474828300,16.856828369140626,-0.14892876148223877,-0.07804059982299805,-0.06139516830444336
1780001767491161900,16.873161865234376,-0.08302855491638184,0.027882099151611328,0.05489206314086914
1780001767507484700,16.889484619140624,-0.016165494918823242,0.13747882843017578,0.09347915649414062
1780001767523827700,16.90582763671875,0.09284842014312744,0.1369457244873047,0.030802249908447266
1780001767540160300,16.92216015625,-0.07578456401824951,0.10840606689453125,0.03004932403564453
1780001767556493000,16.9384931640625,0.08446395397186279,0.07473993301391602,-0.002509593963623047
1780001767572823300,16.9548232421875,0.06775438785552979,-0.02162027359008789,0.011841297149658203
1780001767589166000,16.971166015625,-0.0800480842590332,-0.006728649139404297,0.01539754867553711
1780001767605505800,16.987505859375,-0.01272118091583252,-0.021024227142333984,-0.022310733795166016
1780001767621839400,17.00383935546875,-0.0004487037658691406,0.0028977394104003906,-0.0458526611328125
1780001767638172400,17.02017236328125,-0.05477416515350342,0.0023865699768066406,0.0740513801574707
1780001767654500900,17.0365009765625,0.025258541107177734,0.06387662887573242,0.04946470260620117
1780001767670841900,17.052841796875,0.016974687576293945,0.02460765838623047,-0.020241260528564453
1780001767687171300,17.06917138671875,0.06537973880767822,-0.0206451416015625,-0.016936779022216797
1780001767703503600,17.085503662109375,-0.022710204124450684,-0.025970458984375,-0.013944149017333984
1780001767719836000,17.1018359375,-0.018215537071228027,0.020577430725097656,-0.00013256072998046875
1780001767736169000,17.1181689453125,0.07568168640136719,-0.0471196174621582,-0.018821239471435547
1780001767752502000,17.134501953125,-0.05837142467498779,-0.10393762588500977,-0.0341343879699707
1780001767768836400,17.15083642578125,-0.01601278781890869,-0.03647327423095703,-0.04755258560180664
1780001767785168400,17.16716845703125,0.03559458255767822,0.0015668869018554688,-0.023190021514892578
1780001767801484800,17.18348486328125,0.04542672634124756,-0.022037029266357422,-0.013554096221923828
1780001767817832400,17.19983251953125,0.03957629203796387,-0.03143501281738281,-0.018798351287841797
1780001767834167300,17.216167236328126,0.03293740749359131,-0.0025396347045898438,-0.038359642028808594
1780001767850508500,17.232508544921874,0.029893875122070312,0.01704263687133789,0.004581451416015625
1780001767866833400,17.24883349609375,0.05042910575866699,0.03670358657836914,0.010066509246826172
1780001767883166500,17.26516650390625,0.003381967544555664,0.018520355224609375,0.004782199859619141
1780001767899499800,17.281499755859375,-0.029579520225524902,0.0046749114990234375,0.0002474784851074219
1780001767915815200,17.297815185546874,-0.005268573760986328,-0.009343147277832031,-0.00904989242553711
1780001767932150800,17.31415087890625,-0.015172839164733887,-0.00006580352783203125,0.015038490295410156
1780001767948471600,17.330471435546876,0.00511014461517334,0.009577274322509766,0.019663333892822266
1780001767964817200,17.346817138671874,-0.022181034088134766,0.0192108154296875,-0.00010824203491210938
1780001767981138700,17.363138671875,-0.020570993423461914,0.013803958892822266,0.018311023712158203
1780001767997483000,17.37948291015625,-0.008419156074523926,0.012865066528320312,0.01281881332397461
1780001768013815600,17.395815673828125,0.00433349609375,-0.010996818542480469,-0.011947154998779297
1780001768030133500,17.412133544921875,-0.007241249084472656,-0.05431175231933594,-0.03714942932128906
1780001768046460400,17.42846044921875,0.019503235816955566,-0.05446577072143555,-0.07066726684570312
1780001768062814700,17.444814697265624,-0.049870848655700684,0.053388118743896484,-0.2409806251525879
1780001768079146800,17.461146728515626,0.7830381393432617,0.23513317108154297,-0.18636655807495117
1780001768095497500,17.47749755859375,0.12186205387115479,-0.06777763366699219,0.06985330581665039
1780001768111799600,17.493799560546876,-0.43053388595581055,-0.27381038665771484,0.2251424789428711
1780001768128160800,17.510160888671876,-0.4149179458618164,0.03559160232543945,0.058438777923583984
1780001768144492000,17.526491943359375,0.02892327308654785,0.09944343566894531,0.0917654037475586
1780001768160826600,17.54282666015625,0.043700218200683594,0.048468589782714844,0.07433795928955078
1780001768177134600,17.559134521484374,0.00962984561920166,0.017233848571777344,-0.023391246795654297
1780001768193489000,17.575489013671874,0.03434431552886963,-0.0024313926696777344,-0.10016489028930664
1780001768209808400,17.591808349609376,0.12323117256164551,-0.08395576477050781,-0.06218099594116211
1780001768226159000,17.6081591796875,-0.031511664390563965,-0.0918426513671875,0.018159866333007812
1780001768242488000,17.624488037109376,-0.029217123985290527,0.08534431457519531,0.0712738037109375
1780001768258827800,17.640827880859376,-0.046358585357666016,0.16564559936523438,0.12332820892333984
1780001768275141600,17.6571416015625,-0.06161689758300781,0.15402889251708984,0.06332111358642578
1780001768291490000,17.673489990234376,0.013688921928405762,0.04246330261230469,-0.009814739227294922
1780001768307819800,17.68981982421875,0.08244204521179199,-0.04515838623046875,-0.07324600219726562
1780001768324143600,17.7061435546875,0.08408129215240479,-0.07441186904907227,-0.09304571151733398
1780001768340487200,17.722487060546875,0.005968689918518066,-0.06950187683105469,-0.022342205047607422
1780001768356807200,17.73880712890625,0.01821887493133545,-0.007239818572998047,-0.008523941040039062
1780001768373136000,17.755135986328124,-0.05168271064758301,0.02062702178955078,-0.00992584228515625
1780001768389495800,17.771495849609376,-0.0580824613571167,-0.014641761779785156,0.017023086547851562
1780001768405806000,17.78780615234375,-0.015848636627197266,-0.05434989929199219,0.020750045776367188
1780001768422138400,17.804138427734376,0.06374573707580566,-0.03629255294799805,-0.06187295913696289
1780001768438473500,17.820473388671875,0.04655134677886963,-0.05604696273803711,-0.067413330078125
1780001768454805500,17.836805419921873,0.026084303855895996,-0.0463261604309082,-0.024837970733642578
1780001768471136500,17.853136474609375,0.0016423463821411133,-0.0023894309997558594,-0.06640243530273438
1780001768487475500,17.869475341796875,-0.3815474510192871,0.14546823501586914,0.15013504028320312
1780001768503805400,17.885805419921876,0.11885201930999756,0.1104736328125,0.08940696716308594
1780001768520138000,17.902137939453127,0.14930272102355957,0.056740760803222656,-0.03667497634887695
1780001768536470800,17.918470703125,0.255617618560791,-0.10204505920410156,-0.0963888168334961
1780001768552804000,17.93480419921875,0.46626758575439453,-0.18326377868652344,-0.03989267349243164
1780001768569133800,17.9511337890625,0.405816912651062,-0.08249282836914062,-0.08569717407226562
1780001768585472500,17.967472412109377,0.3930901288986206,0.005900382995605469,0.11516761779785156
1780001768601803300,17.98380322265625,-0.42318564653396606,0.5250096321105957,0.7094898223876953
1780001768618136000,18.000135986328125,-0.6801406741142273,0.7043046951293945,0.7837657928466797
1780001768634468600,18.016468505859375,-0.4082224369049072,0.3210749626159668,0.42679357528686523
1780001768650801700,18.0328017578125,-0.2770422697067261,-0.15633010864257812,0.308408260345459
1780001768667134700,18.049134765625,0.09496772289276123,-0.3529496192932129,-0.0827794075012207
1780001768683485400,18.0654853515625,0.13186609745025635,-0.3577737808227539,-0.16898059844970703
1780001768699830000,18.081830078125,-0.10460340976715088,0.017914295196533203,-0.5696611404418945
1780001768716147000,18.09814697265625,-0.2679722309112549,0.14855003356933594,-0.6771435737609863
1780001768732481300,18.114481201171873,-0.08875179290771484,0.1121206283569336,-0.4910569190979004
1780001768748798500,18.130798583984376,0.1260131597518921,-0.1424555778503418,0.058817386627197266
1780001768765146600,18.147146728515626,0.1694704294204712,0.21374845504760742,-0.026100635528564453
1780001768781458200,18.163458251953124,0.037125468254089355,0.29534053802490234,-0.03590583801269531
1780001768797816000,18.179816162109375,-0.05807292461395264,0.1332683563232422,-0.0066013336181640625
1780001768814144500,18.19614453125,-0.10844242572784424,0.06571674346923828,-0.035718441009521484
1780001768830477300,18.212477294921875,-0.09670484066009521,0.029473304748535156,-0.06546592712402344
1780001768846793200,18.228793212890626,-0.035123467445373535,0.08199024200439453,-0.09171199798583984
1780001768863144200,18.245144287109376,-0.0016852617263793945,-0.14038610458374023,0.042294979095458984
1780001768879477500,18.2614775390625,-0.025487899780273438,-0.11642742156982422,0.015483856201171875
1780001768895793000,18.27779296875,-0.09607589244842529,-0.05778980255126953,0.008504867553710938
1780001768912127200,18.294127197265624,-0.08459174633026123,-0.04518842697143555,-0.0407710075378418
1780001768928461800,18.3104619140625,-0.04217803478240967,-0.02379465103149414,0.0015168190002441406
1780001768944805400,18.326805419921875,0.008244752883911133,-0.02600860595703125,-0.01764392852783203
1780001768961115000,18.343114990234376,-0.01945936679840088,-0.09561634063720703,-0.004520416259765625
1780001768977460200,18.359460205078125,-0.056862473487854004,-0.14408397674560547,0.05850410461425781
1780001768993794000,18.3757939453125,-0.055371880531311035,-0.07546186447143555,0.0033779144287109375
1780001769010126300,18.392126220703126,-0.010684728622436523,-0.058705806732177734,0.002025127410888672
1780001769026460200,18.408460205078125,0.05723750591278076,-0.017774105072021484,-0.04210948944091797
1780001769042794200,18.424794189453124,0.08176100254058838,0.04268074035644531,-0.048236846923828125
1780001769059125500,18.44112548828125,0.00037789344787597656,0.04519462585449219,-0.04086446762084961
1780001769075476000,18.45747607421875,0.06647956371307373,0.0702962875366211,-0.07617425918579102
1780001769091805000,18.473804931640625,0.12766790390014648,0.036931514739990234,-0.01136922836303711
1780001769108126700,18.490126708984373,-0.07539737224578857,-0.037798404693603516,0.008695125579833984
1780001769124471600,18.506471435546874,-0.04455125331878662,-0.021767616271972656,-0.026567935943603516
1780001769140800300,18.52280029296875,-0.0006322860717773438,0.008659839630126953,-0.032280921936035156
1780001769157137400,18.539137451171875,0.031567931175231934,0.014736175537109375,-0.05708122253417969
1780001769173456400,18.555456298828126,0.025547146797180176,-0.01256561279296875,-0.024969100952148438
1780001769189803000,18.571802978515624,0.006007790565490723,0.0039234161376953125,0.003052234649658203
1780001769206138000,18.58813818359375,0.025679707527160645,0.11714506149291992,-0.035680294036865234
1780001769222467300,18.60446728515625,0.07170164585113525,0.038669586181640625,-0.04011201858520508
1780001769238787000,18.620787109375,0.02550637722015381,0.08355569839477539,-0.007982254028320312
1780001769255132200,18.637132080078125,-0.02033364772796631,0.04623079299926758,0.08142662048339844
1780001769271460900,18.6534609375,-0.007175803184509277,0.023624420166015625,0.11818742752075195
1780001769287800000,18.669800048828126,0.04994797706604004,0.07811641693115234,0.060158729553222656
1780001769304128000,18.6861279296875,-0.011774301528930664,0.06030607223510742,0.019684791564941406
1780001769320471000,18.702470947265624,-0.014960408210754395,-0.00972604751586914,0.03246450424194336
1780001769336799500,18.718799560546874,0.0012886524200439453,-0.011738777160644531,0.026761531829833984
1780001769353132300,18.73513232421875,-0.030621647834777832,0.024082660675048828,-0.022167205810546875
1780001769369465600,18.751465576171874,-0.023547768592834473,-0.0029439926147460938,-0.004761695861816406
1780001769385781500,18.767781494140625,0.01742410659790039,-0.0350184440612793,-0.0019593238830566406
1780001769402117600,18.78411767578125,0.004392266273498535,-0.07180213928222656,-0.008441448211669922
1780001769418449400,18.800449462890626,0.006386995315551758,-0.05982351303100586,-0.004833698272705078
1780001769434783200,18.816783203125,0.008825302124023438,-0.03834724426269531,-0.058777809143066406
1780001769451116800,18.83311669921875,-0.006989479064941406,-0.0404515266418457,-0.036061763763427734
1780001769467446500,18.849446533203125,0.02502572536468506,-0.028170108795166016,-0.022293567657470703
1780001769483785500,18.865785400390624,0.031921982765197754,-0.01999044418334961,-0.00376129150390625
1780001769500115700,18.88211572265625,0.0717095136642456,-0.006566524505615234,-0.046808719635009766
1780001769516448300,18.8984482421875,0.028335928916931152,-0.026805400848388672,-0.06583070755004883
1780001769532781300,18.91478125,0.02316117286682129,-0.051482200622558594,-0.07502222061157227
1780001769549109800,18.93110986328125,0.014754772186279297,-0.02713155746459961,-0.0649404525756836
1780001769565453300,18.947453369140625,0.011368155479431152,-0.023136138916015625,-0.0023736953735351562
1780001769581794300,18.963794189453125,-0.019944071769714355,0.024939537048339844,0.0413060188293457
1780001769598126800,18.980126953125,-0.05177795886993408,0.06351661682128906,0.06587886810302734
1780001769614459600,18.996459716796874,-0.05904948711395264,0.0872492790222168,0.06617975234985352
1780001769630792700,19.012792724609376,-0.06545603275299072,0.06747913360595703,0.0708155632019043
1780001769647125200,19.029125244140626,-0.04310441017150879,0.042606353759765625,0.08000850677490234
1780001769663458800,19.045458740234373,-0.011066436767578125,0.03185606002807617,0.031697750091552734
1780001769679789600,19.06178955078125,-0.021738171577453613,0.04524517059326172,0.01686382293701172
1780001769696125200,19.078125244140626,-0.007598876953125,0.03966999053955078,0.025926589965820312
1780001769712457500,19.09445751953125,-0.017777562141418457,0.048689842224121094,0.035117149353027344
1780001769728790000,19.1107900390625,-0.021433711051940918,0.04338216781616211,0.010732650756835938
1780001769745090000,19.127090087890625,0.0029488801956176758,0.009526252746582031,-0.013522624969482422
1780001769761435100,19.14343505859375,0.022265076637268066,-0.0048542022705078125,-0.02313995361328125
1780001769777799400,19.15979931640625,0.018146276473999023,-0.042893409729003906,-0.046912193298339844
1780001769794122200,19.176122314453124,0.01821446418762207,-0.04227161407470703,-0.041706085205078125
1780001769810453500,19.19245361328125,0.013356685638427734,-0.007960796356201172,-0.045917510986328125
1780001769826761700,19.20876171875,0.01692068576812744,0.007024288177490234,-0.02622842788696289
1780001769843089400,19.22508935546875,0.02539372444152832,-0.002009868621826172,0.007838249206542969
1780001769859439400,19.241439453125,0.01403188705444336,0.003220081329345703,0.0036759376525878906
1780001769875769900,19.257769775390624,-0.002047300338745117,0.022892475128173828,0.004350185394287109
1780001769892105700,19.274105712890623,-0.008033156394958496,-0.0007953643798828125,0.019087791442871094
1780001769908423700,19.290423583984374,0.005243778228759766,0.008984088897705078,0.0002799034118652344
1780001769924754200,19.306754150390624,-0.005283474922180176,0.028277873992919922,0.005341053009033203
1780001769941094400,19.323094482421876,-0.001149296760559082,0.02355337142944336,0.015071868896484375
1780001769957438200,19.339438232421877,0.0029398202896118164,0.023688793182373047,0.01050567626953125
1780001769973770200,19.355770263671875,0.002658367156982422,0.033566951751708984,0.010766983032226562
1780001769990103600,19.372103515625,0.0024847984313964844,0.03384208679199219,0.010989189147949219
1780001770006436600,19.3884365234375,0.007166028022766113,0.043898582458496094,-0.0030126571655273438
1780001770022756400,19.40475634765625,0.002158641815185547,0.044213294982910156,0.0020303726196289062
1780001770039102500,19.4211025390625,0.025420784950256348,0.03492403030395508,-0.011414051055908203
1780001770055433000,19.437432861328126,0.0002372264862060547,0.016156673431396484,0.007616519927978516
1780001770071792400,19.45379248046875,0.013553261756896973,0.016925334930419922,-0.010805130004882812
1780001770088130000,19.470130126953126,-0.02553415298461914,-0.011124610900878906,0.004155635833740234
1780001770104436200,19.486436279296875,-0.04451310634613037,-0.005433082580566406,0.0143280029296875
1780001770120777200,19.502777099609375,-0.02973175048828125,0.02385997772216797,0.005081653594970703
1780001770137112800,19.51911279296875,-0.01504504680633545,0.024314403533935547,0.0005526542663574219
1780001770153451000,19.535450927734374,0.009077668190002441,0.010141372680664062,0.010218143463134766
1780001770169780500,19.551780517578123,0.004350781440734863,-0.0037741661071777344,0.015299797058105469
1780001770186112000,19.568112060546873,0.005190849304199219,0.0016613006591796875,-0.003540515899658203
1780001770202424600,19.584424560546875,0.006279110908508301,0.011618614196777344,-0.01303720474243164
1780001770218774500,19.6007744140625,0.01227867603302002,0.01685333251953125,-0.008153915405273438
1780001770235116300,19.6171162109375,0.046115875244140625,0.002579212188720703,-0.002772808074951172
1780001770251444700,19.63344482421875,0.04117846488952637,0.012463569641113281,-0.0121002197265625
1780001770267779000,19.649779052734374,0.045567989349365234,0.012755393981933594,-0.02618265151977539
1780001770284111000,19.666111083984376,0.030646443367004395,-0.0012407302856445312,-0.031215190887451172
1780001770300438300,19.682438232421877,0.025215864181518555,-0.024777889251708984,-0.011684894561767578
1780001770316778500,19.698778564453125,0.0008620023727416992,-0.019408226013183594,-0.015988826751708984
1780001770333113000,19.715113037109376,-0.009072542190551758,-0.023665428161621094,-0.010770320892333984
1780001770349437700,19.731437744140624,-0.013900279998779297,0.010175228118896484,-0.0009546279907226562
1780001770365762600,19.747762451171877,0.00025343894958496094,0.01506948471069336,-0.0008420944213867188
1780001770382093300,19.76409326171875,0.03340113162994385,0.005401134490966797,0.0045375823974609375
1780001770398427600,19.780427734375,0.042319297790527344,-0.004351615905761719,-0.024187088012695312
1780001770414760200,19.79676025390625,0.046369194984436035,-0.013951301574707031,-0.024074077606201172
1780001770431093500,19.813093505859374,0.02650594711303711,-0.013834953308105469,-0.014892578125
1780001770447426300,19.82942626953125,-0.0028553009033203125,0.01021718978881836,-0.014690399169921875
1780001770463759600,19.845759521484375,-0.0221174955368042,0.019833087921142578,-0.005064964294433594
1780001770480091600,19.862091552734373,-0.007736325263977051,0.0007467269897460938,-0.009816169738769531
1780001770496425500,19.878425537109376,0.0018738508224487305,-0.013607025146484375,-0.014606952667236328
1780001770512755200,19.894755126953125,0.022182106971740723,-0.018041610717773438,-0.03360748291015625
1780001770529094700,19.9110947265625,0.021952152252197266,-0.012675285339355469,-0.009340763092041016
1780001770545424100,19.927424072265627,0.021632909774780273,0.01184988021850586,0.010274887084960938
