time,seconds_elapsed,z,y,x
1780001750745666600,0.12766650390625,0.46441030502319336,0.6849326491355896,-3.53446626663208
1780001750762002400,0.14400244140625,0.580016553401947,0.4537201523780823,-3.371976137161255
1780001750778356700,0.160356689453125,0.0656680166721344,0.19074267148971558,-2.5809056758880615
1780001750794673000,0.1766728515625,-0.22968533635139465,0.5858197808265686,-1.1359039545059204
1780001750811020500,0.1930205078125,-0.004123340360820293,-0.09972374886274338,-0.513737678527832
1780001750827350800,0.209350830078125,0.11927144229412079,-0.05742133408784866,-0.543059229850769
1780001750843686400,0.225686279296875,0.12736541032791138,0.4827362596988678,-1.0192286968231201
1780001750860018200,0.24201806640625,0.08827003091573715,0.7367035150527954,-1.4028520584106445
1780001750876352500,0.2583525390625,-0.0074830991216003895,0.6449210047721863,-1.514487624168396
1780001750892686000,0.27468603515625,-0.12476922571659088,0.4605923891067505,-1.361007809638977
1780001750909019100,0.29101904296875,-0.12629638612270355,0.3176499307155609,-1.1371256113052368
1780001750925348400,0.307348388671875,0.07208210229873657,0.20295998454093933,-0.9647089242935181
1780001750941689300,0.323689453125,0.30344730615615845,0.12751811742782593,-0.7272350788116455
1780001750958018300,0.340018310546875,0.38148534297943115,0.07162395119667053,-0.42470407485961914
1780001750974351600,0.3563515625,0.3500257730484009,-0.13927727937698364,-0.12232576310634613
1780001750990683600,0.37268359375,0.3523165285587311,-0.42012256383895874,0.0809396430850029
1780001751007018200,0.389018310546875,0.4648684561252594,-0.7846564054489136,0.24098633229732513
1780001751023349500,0.405349609375,0.7342600226402283,-1.4069753885269165,0.5299255847930908
1780001751039686100,0.42168603515625,1.0823005437850952,-2.0819814205169678,0.9088147878646851
1780001751056017200,0.43801708984375,1.5289957523345947,-2.967430591583252,1.2919800281524658
1780001751072351000,0.45435107421875,2.235614061355591,-4.043164253234863,1.5995506048202515
1780001751088683300,0.470683349609375,3.0833423137664795,-5.155091762542725,1.7024813890457153
1780001751105000700,0.487000732421875,3.7844629287719727,-6.168364524841309,1.5963436365127563
1780001751121362000,0.50336181640625,4.240779399871826,-6.650489807128906,1.4143058061599731
1780001751137673200,0.519673095703125,4.84721565246582,-6.998836040496826,1.1362093687057495
1780001751154016800,0.536016845703125,5.488777160644531,-7.317401885986328,1.1534663438796997
1780001751170340900,0.5523408203125,6.061157703399658,-6.944774150848389,1.3251193761825562
1780001751186683400,0.568683349609375,6.129574775695801,-5.915924549102783,1.3057245016098022
1780001751203016000,0.585015869140625,5.792224407196045,-4.225965976715088,1.0682506561279297
1780001751219349500,0.601349609375,5.395925521850586,-2.0425806045532227,0.45692721009254456
1780001751235682000,0.61768212890625,4.923879146575928,0.6149885654449463,-0.33276882767677307
1780001751252014600,0.6340146484375,4.197713375091553,2.852435350418091,-0.817337691783905
1780001751268348700,0.6503486328125,3.333644390106201,4.027129173278809,-0.8219192028045654
1780001751284681700,0.666681640625,2.272571325302124,4.620279312133789,-0.5740606188774109
1780001751301015000,0.68301513671875,1.0042624473571777,5.172195911407471,-0.7070765495300293
1780001751317348400,0.699348388671875,-0.024892758578062057,4.49856424331665,-0.7954992651939392
1780001751333681400,0.715681396484375,-0.8431467413902283,2.9581148624420166,-0.451123982667923
1780001751350032400,0.732032470703125,-1.1372783184051514,1.54640531539917,-0.49846604466438293
1780001751366358000,0.74835791015625,-1.1091785430908203,1.9381227493286133,-0.7710646390914917
1780001751382696400,0.764696533203125,-1.0134254693984985,1.860695481300354,-1.2217304706573486
1780001751399027200,0.781027099609375,-0.6950119137763977,1.5496124029159546,-0.8342891931533813
1780001751415339800,0.79733984375,-0.4784601926803589,1.0479393005371094,0.06872233748435974
1780001751431686100,0.81368603515625,-0.41141775250434875,0.39538252353668213,0.68325275182724
1780001751448000500,0.83000048828125,-0.24113905429840088,0.07590000331401825,0.7438811659812927
1780001751464346600,0.8463466796875,0.022449297830462456,0.09544769674539566,0.42699480056762695
1780001751480679700,0.8626796875,0.342695415019989,0.2756529450416565,-0.13087788224220276
1780001751497012700,0.8790126953125,0.4103487432003021,0.6185010671615601,-0.6966918110847473
1780001751513346600,0.8953466796875,0.23869559168815613,0.9418014883995056,-0.8530732989311218
1780001751529681200,0.91168115234375,-0.02779436856508255,0.9456194043159485,-0.3680463135242462
1780001751546012400,0.928012451171875,-0.12599095702171326,0.902247965335846,0.25014930963516235
1780001751562345700,0.944345703125,-0.12034045159816742,0.901637077331543,0.41263946890830994
1780001751578678800,0.9606787109375,-0.1586722433567047,0.9166033267974854,0.11667526513338089
1780001751595012400,0.977012451171875,-0.10735956579446793,0.9419541954994202,-0.10277807712554932
1780001751611358500,0.9933583984375,-0.10323622822761536,0.722348153591156,-0.00366519158706069
1780001751627693800,1.00969384765625,-0.16203200817108154,0.26572638750076294,0.09086620807647705
1780001751644021800,1.026021728515625,-0.16844609379768372,-0.21670444309711456,0.01572977937757969
1780001751660362800,1.04236279296875,-0.2591595947742462,-0.5946773290634155,-0.23365595936775208
1780001751676684000,1.05868408203125,-0.33567044138908386,-1.091616153717041,-0.4665483236312866
1780001751693015300,1.075015380859375,-0.2347249686717987,-1.1846203804016113,-0.5476406812667847
1780001751709344000,1.091343994140625,0.10797043144702911,-1.553583025932312,-0.5537493228912354
1780001751725677600,1.107677490234375,0.5239696502685547,-1.7831156253814697,-0.5238169431686401
1780001751742009300,1.12400927734375,0.7312057018280029,-2.2989914417266846,-0.12431107461452484
1780001751758323500,1.140323486328125,0.6188064813613892,-2.6481008529663086,0.6467535495758057
1780001751774677200,1.15667724609375,0.34926220774650574,-2.5279130935668945,0.9065240025520325
1780001751791023600,1.173023681640625,0.29046642780303955,-1.7116444110870361,0.38377609848976135
1780001751807343000,1.189343017578125,0.342695415019989,-1.3242031335830688,-0.052381694316864014
1780001751823672000,1.205672119140625,0.39584067463874817,-1.150259256362915,-0.010537425056099892
1780001751840027000,1.22202685546875,0.5134322643280029,-0.5345070958137512,0.09239336848258972
1780001751856349400,1.238349365234375,0.546571671962738,0.08338310569524765,0.0734565481543541
1780001751872696300,1.2546962890625,0.45814892649650574,0.17348572611808777,-0.05253441259264946
1780001751889020200,1.271020263671875,0.6131559610366821,0.04841107130050659,-0.38148534297943115
1780001751905356000,1.28735595703125,1.006095051765442,0.36224308609962463,-0.7843509912490845
1780001751921689000,1.303689208984375,0.8524624705314636,1.6507105827331543,-0.8912523984909058
1780001751938022400,1.3200224609375,0.9178250432014465,1.55892813205719,-0.41890084743499756
1780001751954353700,1.336353759765625,0.7428121566772461,0.9914342761039734,0.2174680233001709
1780001751970688800,1.352688720703125,0.8037459254264832,-0.5293147563934326,0.11301007121801376
1780001751987019800,1.369019775390625,1.4220943450927734,-1.6826282739639282,-0.6383541822433472
1780001752003356200,1.385356201171875,2.5870141983032227,-2.1908681392669678,-1.5134186744689941
1780001752019666200,1.401666259765625,3.160311460494995,-2.274709463119507,-1.8996381759643555
1780001752035997400,1.41799755859375,2.6285531520843506,-2.386955976486206,-1.2991576194763184
1780001752052340500,1.434340576171875,1.6307047605514526,-3.4997997283935547,0.10644327104091644
1780001752068675300,1.45067529296875,0.9039278626441956,-4.483598232269287,1.1882855892181396
1780001752085006600,1.467006591796875,0.7070765495300293,-4.7638325691223145,1.2713632583618164
1780001752101326800,1.483326904296875,1.215621829032898,-4.712367057800293,0.7512115240097046
1780001752117675000,1.499675048828125,1.6398677825927734,-4.695110321044922,0.27748554944992065
1780001752133994000,1.515993896484375,1.0865765810012817,-4.683961868286133,0.016951510682702065
1780001752150339800,1.53233984375,0.5100724697113037,-4.965723514556885,-0.11957687139511108
1780001752166672400,1.54867236328125,0.1598939746618271,-4.986034870147705,-0.016035212203860283
1780001752183005400,1.56500537109375,0.004734205547720194,-5.814826488494873,0.30802878737449646
1780001752199339500,1.581339599609375,0.09987647086381912,-5.661040782928467,0.3778201639652252
1780001752215658800,1.59765869140625,0.46181413531303406,-5.255884647369385,0.475253164768219
1780001752232004900,1.6140048828125,0.8886561989784241,-5.024366855621338,0.7159340381622314
1780001752248338200,1.630338134765625,0.9576839804649353,-5.042387008666992,0.6834055185317993
1780001752264671000,1.6466708984375,0.8497135639190674,-4.320802688598633,0.2819143235683441
1780001752281004800,1.6630048828125,0.7559457421302795,-3.3519704341888428,-0.20799961686134338
1780001752297337600,1.679337646484375,1.0183123350143433,-2.4576635360717773,0.11820242553949356
1780001752313671000,1.6956708984375,1.407128095626831,-0.7826710939407349,0.8313875794410706
1780001752330001700,1.712001708984375,1.6740761995315552,1.2643383741378784,1.1684324741363525
1780001752346339600,1.728339599609375,1.5968017578125,3.1752774715423584,1.1007791757583618
1780001752362669300,1.74466943359375,1.2580770254135132,3.9429824352264404,1.069166898727417
1780001752379004400,1.76100439453125,1.3367258310317993,3.489720344543457,1.4672982692718506
1780001752395341800,1.777341796875,1.9827158451080322,2.7400360107421875,1.8791742324829102
1780001752411672800,1.7936728515625,2.031737804412842,1.7815884351730347,1.625817894935608
1780001752428016400,1.810016357421875,1.2996158599853516,0.4740314185619354,1.0856602191925049
1780001752444326000,1.826325927734375,-0.6165157556533813,-1.0476338863372803,0.47082439064979553
1780001752460681000,1.842680908203125,-2.574338912963867,-1.6679675579071045,0.4841107130050659
1780001752477000200,1.859000244140625,-3.1050281524658203,-1.5777121782302856,1.0086911916732788
1780001752493348600,1.8753486328125,-3.115565538406372,-1.7104226350784302,1.5569428205490112
1780001752509662200,1.891662109375,-2.4544565677642822,-0.4430300295352936,1.3179417848587036
1780001752526001200,1.908001220703125,-0.19196440279483795,3.156646251678467,0.09605856239795685
1780001752542334700,1.924334716796875,1.4816536903381348,2.917492389678955,-0.28588494658470154
1780001752558668000,1.94066796875,-0.3220787048339844,-0.39706242084503174,0.2076941877603531
1780001752575000800,1.957000732421875,-4.046982288360596,-2.5747969150543213,1.0335839986801147
1780001752591333000,1.9733330078125,-6.3688812255859375,-2.1704041957855225,1.1282681226730347
1780001752607670000,1.989669921875,-5.599190711975098,0.9825767278671265,0.446389764547348
1780001752624014300,2.006014404296875,-3.4915530681610107,3.2319352626800537,-0.4161519408226013
1780001752640338200,2.022338134765625,-1.4170546531677246,1.3851369619369507,-1.182176947593689
1780001752656689000,2.03868896484375,-0.05726861581206322,-0.7386888265609741,-1.4288138151168823
1780001752672996900,2.054996826171875,0.03634648025035858,-0.8680394887924194,-1.2997685670852661
1780001752689332200,2.071332275390625,-0.2817615866661072,-0.2165517359972,-0.9877691268920898
1780001752705662500,2.087662353515625,-0.1976149082183838,-0.08109235763549805,-0.8428413271903992
1780001752722001700,2.104001708984375,-0.11133018881082535,0.13530665636062622,-0.6417139172554016
1780001752738332000,2.120331787109375,-0.2015855312347412,0.8469646573066711,-0.042760565876960754
1780001752754644700,2.136644775390625,-0.13484850525856018,1.0798569917678833,0.5664247870445251
1780001752770998800,2.152998779296875,0.08445212244987488,0.3897320330142975,0.5552765130996704
1780001752787331600,2.16933154296875,0.07223481684923172,-0.020616702735424042,0.1647808998823166
1780001752803664600,2.18566455078125,-0.0354301854968071,-0.09987647086381912,-0.2532036304473877
1780001752819998000,2.201998046875,-0.048258353024721146,-0.08155050873756409,-0.3646865487098694
1780001752836331000,2.2183310546875,-0.023365596309304237,0.0981965884566307,-0.247094988822937
1780001752852668000,2.23466796875,0.0006108652451075613,0.17333301901817322,-0.1319468915462494
1780001752869011000,2.251010986328125,-0.005650503560900688,0.08292495459318161,-0.10323622822761536
1780001752885337300,2.26733740234375,-0.016493361443281174,0.029626963660120964,-0.11591167747974396
1780001752901667000,2.2836669921875,-0.02535090781748295,0.062460970133543015,-0.10735956579446793
1780001752917996500,2.29999658203125,-0.028557950630784035,0.06918048858642578,-0.10384709388017654
1780001752934329900,2.316329833984375,-0.03985895588994026,0.046731192618608475,-0.11988230794668198
1780001752950663000,2.332662841796875,-0.04764748737215996,0.03527746722102165,-0.11270463466644287
1780001752966996200,2.348996337890625,-0.03680463135242462,0.03756821155548096,-0.07299839705228806
1780001752983325200,2.3653251953125,-0.02687807008624077,0.04214970022439957,-0.04459316283464432
1780001752999667000,2.3816669921875,-0.03191770985722542,0.029168816283345222,-0.04841107130050659
1780001753015989500,2.397989501953125,-0.03405573591589928,0.0022907445672899485,-0.05513058975338936
1780001753032331300,2.414331298828125,-0.026114489883184433,-0.0010690141934901476,-0.04046982154250145
1780001753048659000,2.430658935546875,-0.02015855349600315,0.012522737495601177,-0.02977968007326126
1780001753064980200,2.446980224609375,-0.025656340643763542,0.01924225501716137,-0.052381694316864014
1780001753081327900,2.463327880859375,-0.033597588539123535,0.010690141469240189,-0.08521570265293121
1780001753097662000,2.479661865234375,-0.031154127791523933,-0.013744467869400978,-0.0835358202457428
1780001753114011600,2.49601171875,-0.014813481830060482,-0.03130684420466423,-0.03985895588994026
1780001753130348000,2.51234814453125,-0.0013744467869400978,-0.035124752670526505,0.015577063895761967
1780001753146660600,2.52866064453125,0.009162978269159794,-0.04184427112340927,0.047800205647945404
1780001753162993700,2.54499365234375,0.009773843921720982,-0.048105638474226,0.06627888232469559
1780001753179331800,2.561331787109375,0.008399397134780884,-0.05390885844826698,0.08017606288194656
1780001753195659500,2.577659423828125,0.005497787147760391,-0.060322944074869156,0.08491026610136032
1780001753211992800,2.593992919921875,0.00015271631127689034,-0.06948592513799667,0.07467827945947647
1780001753228324600,2.61032470703125,-0.003359758760780096,-0.06414084881544113,0.058184914290905
1780001753244659500,2.626659423828125,-0.00427605677396059,-0.05360342562198639,0.04214970022439957
1780001753260992300,2.6429921875,-0.004734205547720194,-0.05451972410082817,0.027641652151942253
1780001753277325300,2.6593251953125,-0.005497787147760391,-0.04886921867728233,0.0065668015740811825
1780001753293655000,2.675655029296875,-0.01191187184303999,-0.0377209298312664,-0.018936822190880775
1780001753309995000,2.6919951171875,-0.021074850112199783,-0.027488935738801956,-0.04214970022439957
1780001753326324700,2.70832470703125,-0.028405234217643738,-0.02122756652534008,-0.056352317333221436
1780001753342658000,2.724657958984375,-0.031612277030944824,-0.021380282938480377,-0.050854530185461044
1780001753359005700,2.741005615234375,-0.033597588539123535,-0.020005837082862854,-0.03833179548382759
1780001753375335700,2.757335693359375,-0.03527746722102165,-0.011301007121801376,-0.02779436856508255
1780001753391671000,2.773671142578125,-0.03481931984424591,-0.006872233934700489,-0.015577063895761967
1780001753408000300,2.790000244140625,-0.02871066704392433,-0.008704829961061478,-0.00366519158706069
1780001753424323800,2.80632373046875,-0.02871066704392433,-0.017409659922122955,0.0032070425804704428
1780001753440643300,2.822643310546875,-0.031001411378383636,-0.027488935738801956,0.005192354787141085
1780001753456989700,2.83898974609375,-0.026572637259960175,-0.04459316283464432,0.009926560334861279
1780001753473323000,2.855322998046875,-0.018478672951459885,-0.05100724846124649,0.02321287989616394
1780001753489643500,2.8716435546875,-0.008399397134780884,-0.03573561832308769,0.032681290060281754
1780001753505985800,2.88798583984375,-0.013133603148162365,-0.02825251780450344,0.01817324012517929
1780001753522325500,2.904325439453125,-0.013591751456260681,-0.03695734590291977,-0.003817907767370343
1780001753538655200,2.9206552734375,-0.007788531947880983,-0.05100724846124649,0.003054326167330146
1780001753554988300,2.93698828125,0.0032070425804704428,-0.0555887371301651,0.033597588539123535
1780001753571321600,2.953321533203125,0.01237002108246088,-0.06322455406188965,0.07070764899253845
1780001753587656000,2.969656005859375,0.017562376335263252,-0.06704246252775192,0.08597928285598755
1780001753603987000,2.985987060546875,0.018478672951459885,-0.05497787147760391,0.06918048858642578
1780001753620336600,3.002336669921875,0.008704829961061478,-0.04963280260562897,0.03695734590291977
1780001753636664000,3.0186640625,-0.00015271631127689034,-0.04917465150356293,0.016798794269561768
1780001753653001500,3.03500146484375,0.0025961773935705423,-0.04657847434282303,0.026114489883184433
1780001753669304300,3.05130419921875,0.012217304669320583,-0.048258353024721146,0.059864792972803116
1780001753685659600,3.06765966796875,0.024434609338641167,-0.05146539583802223,0.07880161702632904
1780001753701986300,3.083986328125,0.032528575509786606,-0.0630718395113945,0.07483099400997162
1780001753718309000,3.10030908203125,0.0328340083360672,-0.06276640295982361,0.05421429127454758
1780001753734652200,3.116652099609375,0.030543262138962746,-0.05115996301174164,0.02932153269648552
1780001753750986000,3.132986083984375,0.024434609338641167,-0.03451388701796532,0.01572977937757969
1780001753767319000,3.149319091796875,0.023060163483023643,-0.03222314268350601,0.021074850112199783
1780001753783651800,3.16565185546875,0.02825251780450344,-0.035124752670526505,0.03680463135242462
1780001753800002600,3.18200244140625,0.025656340643763542,-0.033139441162347794,0.051312681287527084
1780001753816330000,3.198330078125,0.020005837082862854,-0.04306599870324135,0.05253441259264946
1780001753832665000,3.2146650390625,0.012980886735022068,-0.0529925599694252,0.04993823543190956
1780001753848993800,3.230993896484375,0.0064140851609408855,-0.04092797264456749,0.048716504126787186
1780001753865336000,3.247336181640625,-0.003512475173920393,-0.03298672288656235,0.0507018156349659
1780001753881663200,3.263663330078125,-0.017867809161543846,-0.034666601568460464,0.05650503560900688
1780001753897998800,3.279998779296875,-0.008246680721640587,-0.05314527451992035,0.07131851464509964
1780001753914326300,3.296326171875,0.0003054326225537807,-0.058795779943466187,0.08674286305904388
1780001753930667800,3.312667724609375,0.0010690141934901476,-0.05513058975338936,0.08384125679731369
1780001753946964200,3.328964111328125,-0.0009162978967651725,-0.05665775015950203,0.07040221989154816
1780001753963303000,3.345302978515625,0.003054326167330146,-0.06612616032361984,0.06750060617923737
1780001753979648300,3.361648193359375,0.014966198243200779,-0.06627888232469559,0.07330382615327835
1780001753995986400,3.377986328125,0.018020525574684143,-0.05742133408784866,0.06902777403593063
1780001754012312800,3.394312744140625,0.012064588256180286,-0.046731192618608475,0.05009094998240471
1780001754028653600,3.410653564453125,0.005192354787141085,-0.04092797264456749,0.030237829312682152
1780001754044981800,3.426981689453125,0.0009162978967651725,-0.0377209298312664,0.019547687843441963
1780001754061305000,3.44330517578125,-0.0022907445672899485,-0.027488935738801956,0.018325956538319588
1780001754077647600,3.459647705078125,-0.0032070425804704428,-0.017867809161543846,0.013439035043120384
1780001754093981200,3.475981201171875,-0.004734205547720194,-0.013744467869400978,-0.00045814894838258624
1780001754110314500,3.492314453125,-0.0022907445672899485,-0.01924225501716137,-0.024434609338641167
1780001754126647000,3.50864697265625,-0.0027488935738801956,-0.020311269909143448,-0.0429132841527462
1780001754142981000,3.524981201171875,-0.0012217304902151227,-0.008246680721640587,-0.05543602257966995
1780001754159302700,3.541302734375,0.005650503560900688,0.023060163483023643,-0.04505131021142006
1780001754175646700,3.557646728515625,0.019394971430301666,0.07712173461914062,-0.02275473065674305
1780001754191978800,3.573978759765625,0.02871066704392433,0.13469578325748444,-0.01160643994808197
1780001754208312800,3.590312744140625,0.031001411378383636,0.18997909128665924,-0.011301007121801376
1780001754224646000,3.60664599609375,-0.005345070734620094,0.21563543379306793,-0.046731192618608475
1780001754240979200,3.622979248046875,-0.026114489883184433,0.16523905098438263,-0.1033889427781105
1780001754257308700,3.63930859375,-0.03375030308961868,0.036193765699863434,-0.16539175808429718
1780001754273648600,3.655648681640625,-0.02733621932566166,0.016951510682702065,-0.17379115521907806
1780001754289981400,3.6719814453125,-0.03222314268350601,0.0659734457731247,-0.10949759185314178
1780001754306308600,3.68830859375,-0.027030786499381065,0.08155050873756409,-0.030085112899541855
1780001754322640000,3.704639892578125,-0.004886921960860491,0.06688974797725677,0.02519819140434265
1780001754338981000,3.720981201171875,0.013591751456260681,0.03237585723400116,0.04535674303770065
1780001754355330000,3.737330078125,0.01572977937757969,-0.010995574295520782,0.03985895588994026
1780001754371638500,3.753638427734375,0.014202617108821869,-0.04948008432984352,0.02932153269648552
1780001754387991000,3.769990966796875,0.015577063895761967,-0.07528914511203766,0.012675453908741474
1780001754404326700,3.78632666015625,0.01038470957428217,-0.0731511116027832,-0.00366519158706069
1780001754420657700,3.80265771484375,0.004734205547720194,-0.020922135561704636,-0.013897184282541275
1780001754436963800,3.8189638671875,-0.0007635815418325365,-0.00855211354792118,-0.027183502912521362
1780001754453321200,3.8353212890625,-0.005039638374000788,-0.0455094613134861,-0.025503624230623245
1780001754469640400,3.851640380859375,-0.0010690141934901476,-0.04138612002134323,-0.0003054326225537807
1780001754485989400,3.8679892578125,0.00045814894838258624,-0.0025961773935705423,0.012522737495601177
1780001754502322400,3.884322509765625,-0.004581489134579897,0.01664607785642147,-0.004428773187100887
1780001754518638300,3.900638427734375,-0.008246680721640587,0.019394971430301666,-0.028405234217643738
1780001754534975000,3.91697509765625,-0.0039706239476799965,-0.01863138936460018,-0.027183502912521362
1780001754551312000,3.933311767578125,0.006872233934700489,-0.010995574295520782,-0.009468411095440388
1780001754567637500,3.949637451171875,0.012064588256180286,0.02672535367310047,0.005803219974040985
1780001754583974700,3.965974609375,0.01237002108246088,0.012217304669320583,0.0009162978967651725
1780001754600303900,3.982303955078125,0.0024434609804302454,-0.003359758760780096,-0.009162978269159794
1780001754616661800,3.998661865234375,-0.005955935921519995,-0.013439035043120384,-0.02977968007326126
1780001754632987400,4.0149873046875,-0.014049900695681572,-0.008246680721640587,-0.05375614017248154
1780001754649292300,4.031292236328125,-0.018936822190880775,0.008399397134780884,-0.060475658625364304
1780001754665638000,4.047637939453125,-0.01710422709584236,0.013591751456260681,-0.051312681287527084
1780001754681959400,4.06395947265625,-0.01237002108246088,0.015577063895761967,-0.038637228310108185
1780001754698304300,4.08030419921875,-0.007177666760981083,0.02367102913558483,-0.026114489883184433
1780001754714622000,4.0966220703125,0.0022907445672899485,0.014049900695681572,-0.016340645030140877
1780001754730972200,4.11297216796875,0.006719517521560192,-0.00045814894838258624,-0.01771509274840355
1780001754747293200,4.129293212890625,0.013744467869400978,0.005650503560900688,-0.019394971430301666
1780001754763638300,4.14563818359375,0.016340645030140877,0.010995574295520782,-0.01466076634824276
1780001754779971800,4.161971923828125,0.019089538604021072,0.019547687843441963,-0.001679879380390048
1780001754796305000,4.178304931640625,0.017867809161543846,0.029626963660120964,0.003359758760780096
1780001754812641300,4.194641357421875,0.010690141469240189,0.024129176512360573,-0.015271631069481373
1780001754828982800,4.210982666015625,-0.0013744467869400978,0.02382374368607998,-0.03985895588994026
1780001754845313800,4.227313720703125,-0.005192354787141085,0.049785517156124115,-0.06658431142568588
1780001754861655300,4.2436552734375,-0.006108652334660292,0.06780604273080826,-0.09239336848258972
1780001754877966600,4.259966552734375,-0.004428773187100887,0.07788532227277756,-0.10461067408323288
1780001754894303000,4.276302978515625,-0.0010690141934901476,0.08491026610136032,-0.11468994617462158
1780001754910633700,4.2926337890625,-0.005192354787141085,0.08368854224681854,-0.1264491081237793
1780001754926973000,4.308972900390625,-0.012217304669320583,0.08994990587234497,-0.13454307615756989
1780001754943302700,4.325302734375,-0.019394971430301666,0.10018189996480942,-0.13897185027599335
1780001754959634700,4.341634765625,-0.02275473065674305,0.10033461451530457,-0.13607023656368256
1780001754975982000,4.357982177734375,-0.02275473065674305,0.0981965884566307,-0.1258382350206375
1780001754992344300,4.37434423828125,-0.024892758578062057,0.098502017557621,-0.11957687139511108
1780001755008644900,4.390644775390625,-0.02733621932566166,0.09315694868564606,-0.11453723162412643
1780001755024951000,4.406950927734375,-0.031001411378383636,0.08689557760953903,-0.1186605766415596
1780001755041301200,4.42330126953125,-0.03695734590291977,0.08109235763549805,-0.12461651116609573
1780001755057635600,4.439635498046875,-0.040164388716220856,0.07284568250179291,-0.12079860270023346
1780001755073967400,4.45596728515625,-0.03481931984424591,0.05451972410082817,-0.11026117950677872
1780001755090299100,4.472299072265625,-0.026114489883184433,0.036193765699863434,-0.09682214260101318
1780001755106634000,4.488634033203125,-0.018478672951459885,0.016035212203860283,-0.08384125679731369
1780001755122990600,4.504990478515625,-0.012217304669320583,-0.009162978269159794,-0.07360926270484924
1780001755139276500,4.521276611328125,-0.005192354787141085,-0.010995574295520782,-0.06352998316287994
1780001755155636000,4.537635986328125,0.001679879380390048,0.01618792861700058,-0.051770828664302826
1780001755171962600,4.553962646484375,0.0074830991216003895,0.03726277872920036,-0.039248090237379074
1780001755188299000,4.570299072265625,0.011301007121801376,0.05650503560900688,-0.02672535367310047
1780001755204632600,4.586632568359375,0.005345070734620094,0.04581489413976669,-0.021838432177901268
1780001755220963800,4.6029638671875,-0.007177666760981083,0.01572977937757969,-0.01970040425658226
1780001755237298400,4.61929833984375,-0.018020525574684143,0.0065668015740811825,-0.016340645030140877
1780001755253626400,4.63562646484375,-0.02428189292550087,0.03375030308961868,-0.009621127508580685
1780001755269970200,4.65197021484375,-0.020463986322283745,0.05971207842230797,0.0007635815418325365
1780001755286293800,4.668293701171875,-0.010231993161141872,0.0503963828086853,0.010079276748001575
1780001755302635000,4.684635009765625,-0.009010262787342072,0.01710422709584236,-0.005039638374000788
1780001755318963700,4.700963623046875,-0.013133603148162365,-0.01817324012517929,-0.03634648025035858
1780001755335287600,4.71728759765625,-0.023976460099220276,-0.032070424407720566,-0.06414084881544113
1780001755351640000,4.73364013671875,-0.03176499158143997,-0.00809396430850029,-0.06520986557006836
1780001755367987000,4.749987060546875,-0.03145955875515938,0.02825251780450344,-0.043218716979026794
1780001755384309800,4.766309814453125,-0.019394971430301666,0.049785517156124115,-0.010079276748001575
1780001755400643300,4.782643310546875,-0.0024434609804302454,0.04734205827116966,0.022143865004181862
1780001755416959200,4.798959228515625,0.0074830991216003895,0.035582900047302246,0.03588833287358284
1780001755433296000,4.8152958984375,0.005345070734620094,0.02626720629632473,0.008704829961061478
1780001755449615600,4.83161572265625,0.001832595793530345,0.034666601568460464,-0.040622539818286896
1780001755465961500,4.84796142578125,0.0032070425804704428,0.050854530185461044,-0.06979135423898697
1780001755482295300,4.86429541015625,0.00045814894838258624,0.07070764899253845,-0.08429940044879913
1780001755498628000,4.880628173828125,-0.0027488935738801956,0.06780604273080826,-0.0988074541091919
1780001755514961200,4.896961181640625,-0.010079276748001575,0.049785517156124115,-0.11652254313230515
1780001755531294200,4.913294189453125,-0.01970040425658226,0.03497203439474106,-0.1336267739534378
1780001755547626200,4.929626220703125,-0.031001411378383636,0.031001411378383636,-0.14767667651176453
1780001755563958000,4.9459580078125,-0.03833179548382759,0.04184427112340927,-0.15622878074645996
1780001755580296000,4.9622958984375,-0.040622539818286896,0.04566217586398125,-0.14813482761383057
1780001755596624000,4.978623779296875,-0.039095375686883926,0.04337143152952194,-0.12476922571659088
1780001755612963300,4.99496337890625,-0.03573561832308769,0.04260785132646561,-0.09697485715150833
1780001755629298200,5.011298095703125,-0.02519819140434265,0.04245513305068016,-0.06719517707824707
1780001755645620200,5.0276201171875,-0.01710422709584236,0.036193765699863434,-0.04001167416572571
1780001755661957600,5.04395751953125,-0.010690141469240189,0.029168816283345222,-0.02977968007326126
1780001755678279200,5.060279052734375,-0.011759156361222267,0.023976460099220276,-0.032681290060281754
1780001755694625000,5.076625,-0.015577063895761967,0.025503624230623245,-0.04046982154250145
1780001755710949000,5.09294921875,-0.004428773187100887,0.02886338345706463,-0.03634648025035858
1780001755727291100,5.109291015625,0.0009162978967651725,0.031001411378383636,-0.03588833287358284
1780001755743624700,5.125624755859375,0.0022907445672899485,0.029626963660120964,-0.04535674303770065
1780001755759944400,5.1419443359375,-0.001679879380390048,0.01572977937757969,-0.05665775015950203
1780001755776295700,5.158295654296875,-0.0024434609804302454,0.01237002108246088,-0.058184914290905
1780001755792633600,5.174633544921875,-0.0022907445672899485,0.02275473065674305,-0.046731192618608475
1780001755808971000,5.190970947265625,0.0024434609804302454,0.02428189292550087,-0.026114489883184433
1780001755825300200,5.20730029296875,0.007024950347840786,0.023365596309304237,-0.012522737495601177
1780001755841623000,5.223623046875,0.00427605677396059,0.02932153269648552,-0.011453723534941673
1780001755857954800,5.239954833984375,0.00366519158706069,0.03191770985722542,-0.013897184282541275
1780001755874292000,5.2562919921875,0.003817907767370343,0.027488935738801956,-0.007177666760981083
1780001755890620200,5.2726201171875,0.007635815534740686,0.01710422709584236,0.007635815534740686
1780001755906950000,5.288949951171875,0.01038470957428217,0.012675453908741474,0.021991148591041565
1780001755923291400,5.30529150390625,0.010690141469240189,0.013744467869400978,0.03176499158143997
1780001755939633400,5.32163330078125,0.009773843921720982,0.016951510682702065,0.0328340083360672
1780001755955944200,5.337944091796875,0.006719517521560192,0.01725694350898266,0.03695734590291977
1780001755972287700,5.354287841796875,0.004123340360820293,0.011301007121801376,0.04596760869026184
1780001755988608000,5.37060791015625,0.0065668015740811825,-0.001679879380390048,0.05513058975338936
1780001756004954000,5.3869541015625,0.013897184282541275,-0.015118914656341076,0.06841690838336945
1780001756021283800,5.403283935546875,0.019547687843441963,-0.019547687843441963,0.07590000331401825
1780001756037619700,5.41961962890625,0.022143865004181862,-0.009926560334861279,0.07116580009460449
1780001756053953500,5.43595361328125,0.01878410577774048,-0.00427605677396059,0.05345070734620094
1780001756070286600,5.45228662109375,0.014813481830060482,-0.0064140851609408855,0.036651913076639175
1780001756086619600,5.46861962890625,0.015118914656341076,-0.005039638374000788,0.03649919852614403
1780001756102953000,5.484952880859375,0.01572977937757969,-0.0009162978967651725,0.04337143152952194
1780001756119276000,5.501276123046875,0.01572977937757969,0.0022907445672899485,0.0503963828086853
1780001756135615500,5.517615478515625,0.014966198243200779,-0.001679879380390048,0.05192354694008827
1780001756151952000,5.533951904296875,0.012064588256180286,-0.014508049935102463,0.04581489413976669
1780001756168285200,5.55028515625,0.006719517521560192,-0.02474004216492176,0.03176499158143997
1780001756184618000,5.566617919921875,-0.0013744467869400978,-0.019394971430301666,0.01542434748262167
1780001756200951000,5.582950927734375,-0.007177666760981083,-0.011301007121801376,0.004581489134579897
1780001756217281500,5.599281494140625,-0.007177666760981083,-0.005650503560900688,0.007024950347840786
1780001756233620000,5.615619873046875,-0.00427605677396059,-0.010995574295520782,0.014966198243200779
1780001756249968400,5.631968505859375,0.00045814894838258624,-0.023976460099220276,0.019547687843441963
1780001756266278400,5.6482783203125,0.0012217304902151227,-0.022602014243602753,0.020922135561704636
1780001756282618000,5.6646181640625,0.0024434609804302454,-0.012675453908741474,0.02122756652534008
1780001756298953000,5.680952880859375,0.001527163083665073,-0.00733038317412138,0.02168571576476097
1780001756315283000,5.697282958984375,0.0025961773935705423,-0.008857546374201775,0.026114489883184433
1780001756331616000,5.713615966796875,0.001679879380390048,-0.012064588256180286,0.02886338345706463
1780001756347949000,5.729948974609375,0.00045814894838258624,-0.01542434748262167,0.026419922709465027
1780001756364268000,5.74626806640625,-0.0019853119738399982,-0.017409659922122955,0.021074850112199783
1780001756380628700,5.762628662109375,-0.0024434609804302454,-0.01878410577774048,0.02122756652534008
1780001756396958200,5.778958251953125,-0.0032070425804704428,-0.023518312722444534,0.021380282938480377
1780001756413295900,5.7952958984375,-0.0024434609804302454,-0.024129176512360573,0.021074850112199783
1780001756429601500,5.8116015625,-0.0012217304902151227,-0.021991148591041565,0.022907447069883347
1780001756445947600,5.82794775390625,0.0029016099870204926,-0.017409659922122955,0.021074850112199783
1780001756462281000,5.844281005859375,0.007024950347840786,-0.014202617108821869,0.021838432177901268
1780001756478613800,5.86061376953125,0.012522737495601177,-0.017562376335263252,0.019394971430301666
1780001756494946600,5.876946533203125,0.01771509274840355,-0.012522737495601177,0.025503624230623245
1780001756511280600,5.89328076171875,0.023518312722444534,-0.005955935921519995,0.03405573591589928
1780001756527608300,5.9096083984375,0.025503624230623245,-0.012675453908741474,0.04092797264456749
1780001756543949600,5.925949462890625,0.021380282938480377,-0.022449297830462456,0.04230241850018501
1780001756560274700,5.942274658203125,0.013744467869400978,-0.024587325751781464,0.041691552847623825
1780001756576615700,5.95861572265625,0.005039638374000788,-0.020463986322283745,0.03375030308961868
1780001756592945400,5.9749453125,-0.004581489134579897,-0.016951510682702065,0.02076941914856434
1780001756609265700,5.991265625,-0.009621127508580685,-0.01725694350898266,0.011759156361222267
1780001756625612000,6.007612060546875,-0.010995574295520782,-0.013897184282541275,0.01038470957428217
1780001756641944800,6.02394482421875,-0.00931569468230009,-0.011453723534941673,0.013286318629980087
1780001756658278000,6.04027783203125,-0.009010262787342072,-0.01038470957428217,0.01237002108246088
1780001756674598400,6.056598388671875,-0.009468411095440388,-0.012064588256180286,0.008857546374201775
1780001756690943000,6.07294287109375,-0.008399397134780884,-0.01160643994808197,0.010537425056099892
1780001756707277000,6.089277099609375,-0.00733038317412138,-0.009621127508580685,0.015271631069481373
1780001756723611600,6.105611572265625,-0.008399397134780884,-0.010995574295520782,0.021380282938480377
1780001756739955500,6.12195556640625,-0.009621127508580685,-0.016035212203860283,0.029168816283345222
1780001756756292900,6.13829296875,-0.010690141469240189,-0.020311269909143448,0.03588833287358284
1780001756772623000,6.154623046875,-0.013286318629980087,-0.019394971430301666,0.04138612002134323
1780001756788957000,6.17095703125,-0.014966198243200779,-0.017562376335263252,0.043676864355802536
1780001756805284900,6.187284912109375,-0.014813481830060482,-0.014966198243200779,0.03985895588994026
1780001756821624800,6.203624755859375,-0.013897184282541275,-0.01710422709584236,0.03420845419168472
1780001756837954000,6.2199541015625,-0.010079276748001575,-0.016493361443281174,0.024587325751781464
1780001756854291200,6.236291259765625,-0.009926560334861279,-0.012217304669320583,0.014049900695681572
1780001756870622500,6.25262255859375,-0.00855211354792118,-0.00427605677396059,0.003817907767370343
1780001756886954800,6.268954833984375,-0.005650503560900688,0.003512475173920393,-0.001527163083665073
1780001756903275800,6.28527587890625,-0.00366519158706069,0.005345070734620094,-0.005955935921519995
1780001756919588000,6.301588134765625,-0.00045814894838258624,0.003359758760780096,-0.005039638374000788
1780001756935940400,6.3179404296875,0.005039638374000788,0.006261368747800589,-0.01114829070866108
1780001756952263000,6.334262939453125,0.0013744467869400978,0.015882495790719986,-0.023060163483023643
1780001756968606700,6.350606689453125,-0.004734205547720194,0.01237002108246088,-0.04138612002134323
1780001756984943400,6.366943359375,-0.010690141469240189,0.010537425056099892,-0.052839845418930054
1780001757001283800,6.383283935546875,-0.014508049935102463,0.012217304669320583,-0.055283304303884506
1780001757017606400,6.3996064453125,-0.019853120669722557,0.016798794269561768,-0.05421429127454758
1780001757033937400,6.4159375,-0.021991148591041565,0.013439035043120384,-0.04932736977934837
1780001757050272000,6.43227197265625,-0.02428189292550087,0.011301007121801376,-0.04444044828414917
1780001757066604800,6.448604736328125,-0.02687807008624077,0.009162978269159794,-0.04703662544488907
1780001757082939000,6.46493896484375,-0.031612277030944824,0.006261368747800589,-0.05375614017248154
1780001757099271400,6.481271484375,-0.03680463135242462,0.0010690141934901476,-0.05757404863834381
1780001757115605000,6.49760498046875,-0.03237585723400116,-0.001679879380390048,-0.055283304303884506
1780001757131934500,6.5139345703125,-0.02977968007326126,-0.004123340360820293,-0.042760565876960754
1780001757148257800,6.5302578125,-0.030695978552103043,-0.009773843921720982,-0.02977968007326126
1780001757164607000,6.54660693359375,-0.031154127791523933,-0.014966198243200779,-0.02275473065674305
1780001757180923600,6.562923583984375,-0.027488935738801956,-0.028557950630784035,-0.012217304669320583
1780001757197266700,6.5792666015625,-0.02229658141732216,-0.03344487398862839,-0.0029016099870204926
1780001757213607000,6.59560693359375,-0.016035212203860283,-0.02932153269648552,0.001832595793530345
1780001757229952800,6.611952880859375,-0.012828170321881771,-0.021991148591041565,0.0074830991216003895
1780001757246282500,6.628282470703125,-0.012217304669320583,-0.006108652334660292,0.004428773187100887
1780001757262603500,6.644603515625,-0.010995574295520782,0.0009162978967651725,0.0025961773935705423
1780001757278949400,6.660949462890625,-0.006719517521560192,-0.0009162978967651725,0.005192354787141085
1780001757295282000,6.677281982421875,-0.0003054326225537807,-0.007177666760981083,0.01114829070866108
1780001757311598800,6.693598876953125,0.0006108652451075613,-0.013897184282541275,0.014355333521962166
1780001757327931400,6.709931396484375,0.0024434609804302454,-0.01710422709584236,0.015118914656341076
1780001757344286500,6.726286376953125,0.0019853119738399982,-0.020311269909143448,0.015118914656341076
1780001757360610300,6.7426103515625,0.0032070425804704428,-0.02428189292550087,0.02428189292550087
1780001757376951000,6.758950927734375,-0.0010690141934901476,-0.018325956538319588,0.03329215571284294
1780001757393279500,6.775279541015625,-0.006872233934700489,-0.016035212203860283,0.03588833287358284
1780001757409613800,6.79161376953125,-0.006719517521560192,-0.02474004216492176,0.03298672288656235
1780001757425940000,6.80793994140625,-0.0074830991216003895,-0.02977968007326126,0.038026362657547
1780001757442279700,6.82427978515625,-0.006261368747800589,-0.030237829312682152,0.04566217586398125
1780001757458604500,6.8406044921875,-0.0065668015740811825,-0.03344487398862839,0.0503963828086853
1780001757474942700,6.856942626953125,-0.0012217304902151227,-0.03222314268350601,0.05619960278272629
1780001757491278800,6.87327880859375,0.0006108652451075613,-0.034666601568460464,0.05971207842230797
1780001757507611600,6.889611572265625,0.001527163083665073,-0.0354301854968071,0.058795779943466187
1780001757523924500,6.905924560546875,0,-0.03756821155548096,0.05696318298578262
1780001757540280800,6.92228076171875,-0.001832595793530345,-0.035582900047302246,0.05543602257966995
1780001757556609000,6.938609130859375,0.0013744467869400978,-0.040622539818286896,0.05803219974040985
1780001757572971300,6.95497119140625,0.011301007121801376,-0.048258353024721146,0.0656680166721344
1780001757589278200,6.9712783203125,0.014508049935102463,-0.048716504126787186,0.07116580009460449
1780001757605607200,6.987607177734375,0.007941247895359993,-0.0455094613134861,0.0656680166721344
1780001757621941200,7.003941162109375,-0.0009162978967651725,-0.03497203439474106,0.05360342562198639
1780001757638263600,7.020263671875,-0.005497787147760391,-0.026114489883184433,0.048105638474226
1780001757654593500,7.036593505859375,-0.006261368747800589,-0.02580905705690384,0.04734205827116966
1780001757670932500,7.052932373046875,-0.00045814894838258624,-0.03680463135242462,0.047189339995384216
1780001757687262700,7.0692626953125,0.006261368747800589,-0.04657847434282303,0.04535674303770065
1780001757703595800,7.085595703125,0.008246680721640587,-0.046273041516542435,0.04001167416572571
1780001757719939300,7.101939208984375,0.009162978269159794,-0.038637228310108185,0.03298672288656235
1780001757736282400,7.118282470703125,0.01160643994808197,-0.02977968007326126,0.03222314268350601
1780001757752608800,7.13460888671875,0.01542434748262167,-0.03176499158143997,0.03298672288656235
1780001757768941800,7.15094189453125,0.01771509274840355,-0.03436116874217987,0.03436116874217987
1780001757785273300,7.1672734375,0.018478672951459885,-0.029932396486401558,0.04001167416572571
1780001757801591300,7.18359130859375,0.019089538604021072,-0.02229658141732216,0.04535674303770065
1780001757817936600,7.1999365234375,0.017409659922122955,-0.02076941914856434,0.048716504126787186
1780001757834278100,7.216278076171875,0.013439035043120384,-0.021991148591041565,0.048258353024721146
1780001757850608000,7.232608154296875,0.009926560334861279,-0.02428189292550087,0.04306599870324135
1780001757866940200,7.248940185546875,0.005650503560900688,-0.02321287989616394,0.0354301854968071
1780001757883274000,7.26527392578125,0.00045814894838258624,-0.019547687843441963,0.02367102913558483
1780001757899604200,7.281604248046875,0,-0.022602014243602753,0.01572977937757969
1780001757915939800,7.29793994140625,-0.0012217304902151227,-0.024129176512360573,0.012217304669320583
1780001757932272600,7.314272705078125,-0.0027488935738801956,-0.02687807008624077,0.008857546374201775
1780001757948605700,7.330605712890625,-0.003512475173920393,-0.025961773470044136,0.005039638374000788
1780001757964938200,7.346938232421875,-0.0039706239476799965,-0.021074850112199783,0.003512475173920393
1780001757981272300,7.363272216796875,-0.00427605677396059,-0.01160643994808197,0.00427605677396059
1780001757997611800,7.37961181640625,-0.003512475173920393,-0.007941247895359993,0.004734205547720194
1780001758013931800,7.395931884765625,-0.001527163083665073,-0.016951510682702065,0.006261368747800589
1780001758030269400,7.41226953125,0.0019853119738399982,-0.022143865004181862,0.009162978269159794
1780001758046604500,7.4286044921875,0.0025961773935705423,-0.018478672951459885,0.00809396430850029
1780001758062937000,7.44493701171875,0.00045814894838258624,-0.013744467869400978,0.003817907767370343
1780001758079270400,7.4612705078125,-0.0003054326225537807,-0.007788531947880983,-0.0003054326225537807
1780001758095586300,7.47758642578125,0.0012217304902151227,-0.00809396430850029,0.0003054326225537807
1780001758111920000,7.493920166015625,0.004428773187100887,-0.0074830991216003895,0.0025961773935705423
1780001758128256000,7.510256103515625,0.00427605677396059,-0.00931569468230009,0.0022907445672899485
1780001758144592600,7.526592529296875,0.0019853119738399982,-0.006872233934700489,-0.004581489134579897
1780001758160920800,7.5429208984375,0.00045814894838258624,-0.0039706239476799965,-0.00809396430850029
1780001758177256400,7.55925634765625,0.001527163083665073,-0.0032070425804704428,-0.012522737495601177
1780001758193574400,7.575574462890625,-0.0003054326225537807,-0.0024434609804302454,-0.013897184282541275
1780001758209938400,7.5919384765625,-0.001832595793530345,-0.0027488935738801956,-0.013133603148162365
1780001758226266400,7.608266357421875,-0.003512475173920393,-0.0029016099870204926,-0.016951510682702065
1780001758242602000,7.62460205078125,-0.0032070425804704428,-0.005650503560900688,-0.02367102913558483
1780001758258918000,7.64091796875,-0.0039706239476799965,-0.0032070425804704428,-0.029474247246980667
1780001758275267300,7.657267333984375,-0.005650503560900688,0.0013744467869400978,-0.02871066704392433
1780001758291595000,7.673594970703125,-0.0064140851609408855,0.001527163083665073,-0.027183502912521362
1780001758307937500,7.6899375,-0.005345070734620094,0.005192354787141085,-0.02871066704392433
1780001758324249600,7.70624951171875,-0.003512475173920393,0.01114829070866108,-0.032070424407720566
1780001758340599800,7.722599853515625,-0.0009162978967651725,0.009468411095440388,-0.03680463135242462
1780001758356916200,7.738916259765625,0.003054326167330146,0.00931569468230009,-0.03649919852614403
1780001758373266000,7.755265869140625,0.004886921960860491,0.009926560334861279,-0.03436116874217987
1780001758389593900,7.77159375,0.0065668015740811825,0.01160643994808197,-0.03390302136540413
1780001758405933000,7.78793310546875,0.004428773187100887,0.01114829070866108,-0.0354301854968071
1780001758422252300,7.804252197265625,0.003054326167330146,0.010995574295520782,-0.03787364438176155
1780001758438603500,7.820603515625,0.0012217304902151227,0.012217304669320583,-0.03741549700498581
1780001758454927600,7.836927734375,-0.00015271631127689034,0.008399397134780884,-0.04001167416572571
1780001758471267800,7.853267822265625,-0.004886921960860491,0.0029016099870204926,-0.04077525436878204
1780001758487590000,7.86958984375,-0.0064140851609408855,0.0065668015740811825,-0.0403171069920063
1780001758503937500,7.8859375,-0.006108652334660292,0.00855211354792118,-0.03344487398862839
1780001758520247300,7.902247314453125,-0.004734205547720194,0.007177666760981083,-0.024434609338641167
1780001758536596200,7.91859619140625,-0.005650503560900688,-0.0010690141934901476,-0.020922135561704636
1780001758552934100,7.93493408203125,-0.00733038317412138,-0.007635815534740686,-0.01970040425658226
1780001758569229600,7.9512294921875,-0.005192354787141085,-0.009162978269159794,-0.01878410577774048
1780001758585582300,7.967582275390625,-0.0006108652451075613,-0.006872233934700489,-0.015118914656341076
1780001758601915600,7.98391552734375,0.001527163083665073,-0.007788531947880983,-0.01466076634824276
1780001758618246400,8.000246337890625,0.001527163083665073,-0.010690141469240189,-0.01664607785642147
1780001758634583600,8.01658349609375,0.0027488935738801956,-0.010842857882380486,-0.01817324012517929
1780001758650914800,8.032914794921876,0.005039638374000788,-0.006261368747800589,-0.018020525574684143
1780001758667247600,8.04924755859375,0.008399397134780884,0,-0.01542434748262167
1780001758683581400,8.06558154296875,0.012675453908741474,0.0065668015740811825,-0.009468411095440388
1780001758699926500,8.081926513671876,0.015882495790719986,0.00366519158706069,-0.005803219974040985
1780001758716260400,8.09826025390625,0.019547687843441963,-0.0010690141934901476,-0.002138028386980295
1780001758732598000,8.114597900390624,0.02015855349600315,-0.006719517521560192,-0.0003054326225537807
1780001758748927200,8.13092724609375,0.01572977937757969,-0.010231993161141872,-0.004123340360820293
1780001758765260300,8.14726025390625,0.010842857882380486,-0.012980886735022068,-0.010842857882380486
1780001758781577000,8.163576904296875,0.005955935921519995,-0.013744467869400978,-0.012064588256180286
1780001758797922600,8.179922607421876,0.003512475173920393,-0.01114829070866108,-0.012522737495601177
1780001758814262000,8.196261962890626,-0.00045814894838258624,-0.01191187184303999,-0.015271631069481373
1780001758830575900,8.212575927734376,-0.001527163083665073,-0.014049900695681572,-0.01817324012517929
1780001758846925000,8.228925048828126,-0.0009162978967651725,-0.015271631069481373,-0.013133603148162365
1780001758863257000,8.245257080078124,0.0009162978967651725,-0.021380282938480377,-0.0064140851609408855
1780001758879591400,8.26159130859375,0.0024434609804302454,-0.02871066704392433,0.0010690141934901476
1780001758895924500,8.277924560546875,0.001527163083665073,-0.03420845419168472,0.004581489134579897
1780001758912257800,8.2942578125,0.0022907445672899485,-0.03436116874217987,0.007941247895359993
1780001758928588500,8.310588623046876,0.003512475173920393,-0.032070424407720566,0.009926560334861279
1780001758944924200,8.326924072265625,0.005650503560900688,-0.02871066704392433,0.010231993161141872
1780001758961240600,8.343240478515625,0.0064140851609408855,-0.03039054572582245,0.009621127508580685
1780001758977590300,8.35959033203125,0.005345070734620094,-0.03191770985722542,0.004123340360820293
1780001758993925600,8.375925537109374,0.005955935921519995,-0.02825251780450344,-0.0022907445672899485
1780001759010255600,8.392255615234374,0.006261368747800589,-0.02275473065674305,-0.013591751456260681
1780001759026589200,8.408589111328125,0.008704829961061478,-0.01725694350898266,-0.020005837082862854
1780001759042922200,8.424922119140625,0.01191187184303999,-0.012980886735022068,-0.020922135561704636
1780001759059253200,8.441253173828125,0.013744467869400978,-0.013897184282541275,-0.018020525574684143
1780001759075588900,8.4575888671875,0.013744467869400978,-0.012828170321881771,-0.014813481830060482
1780001759091904300,8.473904296875,0.010537425056099892,-0.012675453908741474,-0.009621127508580685
1780001759108241200,8.4902412109375,0.009010262787342072,-0.013591751456260681,-0.005497787147760391
1780001759124574000,8.506573974609376,0.005497787147760391,-0.01725694350898266,0.0003054326225537807
1780001759140907000,8.522906982421874,0.0009162978967651725,-0.01725694350898266,-0.003359758760780096
1780001759157237500,8.539237548828124,-0.003359758760780096,-0.00931569468230009,-0.012675453908741474
1780001759173576000,8.555575927734376,-0.005955935921519995,-0.0027488935738801956,-0.021532999351620674
1780001759189904100,8.571904052734375,-0.006261368747800589,-0.005803219974040985,-0.021532999351620674
1780001759206239200,8.5882392578125,-0.0027488935738801956,-0.007788531947880983,-0.016340645030140877
1780001759222572800,8.60457275390625,-0.00015271631127689034,-0.007177666760981083,-0.01970040425658226
1780001759238905300,8.6209052734375,0.00045814894838258624,-0.004581489134579897,-0.02886338345706463
1780001759255238400,8.63723828125,-0.0007635815418325365,-0.003817907767370343,-0.03191770985722542
1780001759271571700,8.65357177734375,0.0022907445672899485,-0.0003054326225537807,-0.02886338345706463
1780001759287905000,8.669905029296874,0.004886921960860491,0.00366519158706069,-0.021991148591041565
1780001759304254700,8.686254638671874,0.005955935921519995,0.005192354787141085,-0.019547687843441963
1780001759320585000,8.7025849609375,0.005192354787141085,0.004886921960860491,-0.014049900695681572
1780001759336898800,8.71889892578125,0.007024950347840786,0.004581489134579897,-0.001679879380390048
1780001759353255200,8.735255126953126,0.0074830991216003895,0.005497787147760391,0.007024950347840786
1780001759369587700,8.751587646484374,0.0065668015740811825,0.003359758760780096,0.0074830991216003895
1780001759385913600,8.76791357421875,0.005497787147760391,-0.0012217304902151227,-0.00015271631127689034
1780001759402251500,8.78425146484375,0.0032070425804704428,-0.00427605677396059,-0.00733038317412138
1780001759418566400,8.80056640625,0.0012217304902151227,-0.005650503560900688,-0.012675453908741474
1780001759434915600,8.81691552734375,-0.001527163083665073,-0.0032070425804704428,-0.014508049935102463
1780001759451274000,8.83327392578125,-0.0039706239476799965,0.00015271631127689034,-0.01466076634824276
1780001759467583000,8.8495830078125,-0.003359758760780096,0.0010690141934901476,-0.011301007121801376
1780001759483916000,8.865916015625,-0.0012217304902151227,-0.001832595793530345,-0.004886921960860491
1780001759500249600,8.88224951171875,0.00045814894838258624,0,0.0009162978967651725
1780001759516600800,8.898600830078125,-0.0006108652451075613,0.0009162978967651725,0.001832595793530345
1780001759532918800,8.914918701171874,-0.001832595793530345,0.001832595793530345,0.0025961773935705423
1780001759549244000,8.931243896484375,-0.003359758760780096,0.005497787147760391,-0.0013744467869400978
1780001759565584400,8.94758447265625,-0.002138028386980295,0.006261368747800589,-0.009773843921720982
1780001759581897700,8.963897705078125,0.003817907767370343,0.006108652334660292,-0.016493361443281174
1780001759598233000,8.980233154296876,0.00855211354792118,0.00733038317412138,-0.02275473065674305
1780001759614566100,8.996566162109374,0.011453723534941673,0.008857546374201775,-0.033597588539123535
1780001759630898200,9.012898193359375,0.009621127508580685,0.011453723534941673,-0.04337143152952194
1780001759647234000,9.029234130859376,0.00733038317412138,0.01924225501716137,-0.04688390716910362
1780001759663564000,9.04556396484375,0.005345070734620094,0.03130684420466423,-0.04749477282166481
1780001759679899000,9.06189892578125,0.004428773187100887,0.03588833287358284,-0.0455094613134861
1780001759696248000,9.078248046875,0.005039638374000788,0.036041051149368286,-0.04214970022439957
1780001759712576000,9.094575927734375,0.00733038317412138,0.033139441162347794,-0.036041051149368286
1780001759728915200,9.110915283203125,0.010079276748001575,0.03130684420466423,-0.027641652151942253
1780001759745244400,9.127244384765625,0.01038470957428217,0.03634648025035858,-0.028557950630784035
1780001759761561000,9.14356103515625,0.009621127508580685,0.04337143152952194,-0.03955352306365967
1780001759777911000,9.1599111328125,0.0074830991216003895,0.044287730008363724,-0.04596760869026184
1780001759794239200,9.1762392578125,0.006261368747800589,0.036041051149368286,-0.04612032696604729
1780001759810581200,9.192581298828125,0.004123340360820293,0.02977968007326126,-0.040164388716220856
1780001759826908200,9.208908203125,0.0010690141934901476,0.03176499158143997,-0.03451388701796532
1780001759843226400,9.225226318359375,-0.0029016099870204926,0.028405234217643738,-0.029932396486401558
1780001759859575800,9.241575927734376,-0.005345070734620094,0.027183502912521362,-0.023060163483023643
1780001759875893500,9.2578935546875,-0.005345070734620094,0.019853120669722557,-0.017409659922122955
1780001759892243500,9.274243408203125,-0.004581489134579897,0.01710422709584236,-0.020005837082862854
1780001759908572000,9.290572021484374,-0.00427605677396059,0.016493361443281174,-0.020922135561704636
1780001759924909000,9.306908935546875,-0.003359758760780096,0.019089538604021072,-0.02122756652534008
1780001759941255700,9.323255615234375,-0.00045814894838258624,0.02076941914856434,-0.01725694350898266
1780001759957570800,9.33957080078125,0.0029016099870204926,0.019394971430301666,-0.005803219974040985
1780001759973911600,9.35591162109375,0.005650503560900688,0.012217304669320583,0.005039638374000788
1780001759990224000,9.372223876953125,0.005497787147760391,0.008246680721640587,0.005192354787141085
1780001760006573800,9.38857373046875,0.0074830991216003895,0.013439035043120384,0.0039706239476799965
1780001760022904600,9.404904541015625,0.007635815534740686,0.016951510682702065,0.006872233934700489
1780001760039240200,9.421240234375,0.00855211354792118,0.015118914656341076,0.015882495790719986
1780001760055572700,9.43757275390625,0.008704829961061478,0.010995574295520782,0.01878410577774048
1780001760071888600,9.453888671875,0.007635815534740686,0.012980886735022068,0.01237002108246088
1780001760088225000,9.47022509765625,0.005345070734620094,0.01970040425658226,-0.00015271631127689034
1780001760104558300,9.486558349609375,0.005192354787141085,0.02580905705690384,-0.008704829961061478
1780001760120891600,9.5028916015625,0.004886921960860491,0.02474004216492176,-0.013744467869400978
1780001760137220400,9.519220458984375,0.006261368747800589,0.021532999351620674,-0.012522737495601177
1780001760153561900,9.535561767578125,0.008857546374201775,0.019394971430301666,-0.008704829961061478
1780001760169890600,9.551890625,0.00855211354792118,0.02580905705690384,-0.008857546374201775
1780001760186234600,9.568234619140625,0.007941247895359993,0.03130684420466423,-0.012522737495601177
1780001760202574000,9.584573974609375,0.006872233934700489,0.031154127791523933,-0.011301007121801376
1780001760218899700,9.600899658203126,0.006719517521560192,0.03084869496524334,-0.003817907767370343
1780001760235240700,9.61724072265625,0.008399397134780884,0.02733621932566166,-0.0022907445672899485
1780001760251554300,9.63355419921875,0.008704829961061478,0.020922135561704636,-0.0024434609804302454
1780001760267900700,9.649900634765626,0.007635815534740686,0.02229658141732216,-0.0003054326225537807
1780001760284232200,9.666232177734376,0.0074830991216003895,0.022143865004181862,0.005497787147760391
1780001760300573000,9.682572998046876,0.0064140851609408855,0.021074850112199783,0.00855211354792118
1780001760316881700,9.698881591796875,0.003359758760780096,0.021074850112199783,0.007788531947880983
1780001760333222400,9.715222412109375,0.003817907767370343,0.02015855349600315,0.0039706239476799965
1780001760349552600,9.731552734375,0.006261368747800589,0.01725694350898266,0.005650503560900688
1780001760365884700,9.747884765625,0.00855211354792118,0.011453723534941673,0.006872233934700489
1780001760382217000,9.764217041015625,0.008399397134780884,0.01038470957428217,0.009621127508580685
1780001760398553300,9.78055322265625,0.008399397134780884,0.013591751456260681,0.01160643994808197
1780001760414886700,9.79688671875,0.009773843921720982,0.014202617108821869,0.01466076634824276
1780001760431219700,9.8132197265625,0.011301007121801376,0.013744467869400978,0.020616702735424042
1780001760447547600,9.829547607421874,0.012064588256180286,0.01114829070866108,0.020005837082862854
1780001760463891000,9.845890869140625,0.012217304669320583,0.010079276748001575,0.01114829070866108
1780001760480219100,9.86221923828125,0.010231993161141872,0.014355333521962166,0.009621127508580685
1780001760496550100,9.878550048828124,0.009010262787342072,0.018478672951459885,0.010231993161141872
1780001760512896800,9.894896728515626,0.009773843921720982,0.01924225501716137,0.01237002108246088
1780001760529233700,9.911233642578125,0.01114829070866108,0.01038470957428217,0.010231993161141872
1780001760545558300,9.927558349609376,0.010231993161141872,0.0012217304902151227,0.01114829070866108
1780001760561875500,9.94387548828125,0.009926560334861279,0.0007635815418325365,0.01160643994808197
1780001760578217200,9.96021728515625,0.006108652334660292,0.008246680721640587,0.009162978269159794
1780001760594550500,9.976550537109375,0.0009162978967651725,0.01114829070866108,0.006719517521560192
1780001760610883300,9.99288330078125,-0.0007635815418325365,0.011759156361222267,0.005192354787141085
1780001760627216400,10.00921630859375,0.00015271631127689034,0.00809396430850029,0.005650503560900688
1780001760643550000,10.025550048828125,0.0009162978967651725,0.005345070734620094,0.0064140851609408855
1780001760659881200,10.041881103515625,0.0022907445672899485,0.0027488935738801956,0.005803219974040985
1780001760676233000,10.05823291015625,0.0029016099870204926,0.004581489134579897,0.00855211354792118
1780001760692562000,10.07456201171875,0.001527163083665073,0.008704829961061478,0.007788531947880983
1780001760708895500,10.0908955078125,-0.001679879380390048,0.00931569468230009,0.005650503560900688
1780001760725227300,10.107227294921875,-0.0022907445672899485,0.008704829961061478,0.005955935921519995
1780001760741545000,10.123544921875,-0.0003054326225537807,0.005497787147760391,0.009926560334861279
1780001760757894400,10.139894287109374,-0.0009162978967651725,0.0007635815418325365,0.01114829070866108
1780001760774227200,10.156227294921875,-0.0009162978967651725,0.002138028386980295,0.012064588256180286
1780001760790561000,10.17256103515625,-0.0013744467869400978,0.007788531947880983,0.007635815534740686
1780001760806893800,10.188893798828126,-0.0022907445672899485,0.00733038317412138,0.003359758760780096
1780001760823227400,10.205227294921874,-0.0009162978967651725,0.00427605677396059,0.0019853119738399982
1780001760839559400,10.221559326171874,-0.0010690141934901476,0.0032070425804704428,-0.0010690141934901476
1780001760855891000,10.237890869140625,0.001527163083665073,0.0019853119738399982,0.0012217304902151227
1780001760872226000,10.25422607421875,0.0039706239476799965,-0.0012217304902151227,0.005192354787141085
1780001760888558800,10.270558837890626,0.003817907767370343,-0.0065668015740811825,0.007941247895359993
1780001760904892000,10.286891845703124,0.0019853119738399982,-0.006872233934700489,0.005803219974040985
1780001760921209600,10.303209716796875,-0.001832595793530345,0.0009162978967651725,0.003359758760780096
1780001760937554700,10.3195546875,-0.0022907445672899485,0.007788531947880983,0.00366519158706069
1780001760953879300,10.33587939453125,-0.0027488935738801956,0.005345070734620094,0.0022907445672899485
1780001760970224600,10.352224609375,-0.0024434609804302454,-0.003054326167330146,0.005192354787141085
1780001760986555400,10.368555419921876,-0.0024434609804302454,-0.01160643994808197,0.008399397134780884
1780001761002890500,10.384890380859375,-0.003359758760780096,-0.013744467869400978,0.011301007121801376
1780001761019223300,10.401223388671875,-0.006872233934700489,-0.012828170321881771,0.007635815534740686
1780001761035556400,10.417556396484375,-0.010231993161141872,-0.01038470957428217,0.003359758760780096
1780001761051872800,10.433872802734374,-0.009926560334861279,-0.009468411095440388,0.004123340360820293
1780001761068209000,10.450208984375,-0.008857546374201775,-0.011453723534941673,0.009162978269159794
1780001761084530000,10.466530029296875,-0.00809396430850029,-0.012980886735022068,0.012980886735022068
1780001761100873700,10.482873779296876,-0.0065668015740811825,-0.014202617108821869,0.018020525574684143
1780001761117207600,10.49920751953125,-0.009010262787342072,-0.01160643994808197,0.01878410577774048
1780001761133541000,10.515541015625,-0.010537425056099892,-0.009926560334861279,0.017867809161543846
1780001761149874400,10.53187451171875,-0.011759156361222267,-0.012828170321881771,0.013439035043120384
1780001761166227000,10.54822705078125,-0.011453723534941673,-0.016493361443281174,0.008246680721640587
1780001761182555100,10.56455517578125,-0.009621127508580685,-0.01710422709584236,0.003512475173920393
1780001761198886700,10.58088671875,-0.007635815534740686,-0.014202617108821869,0.0007635815418325365
1780001761215217000,10.597216796875,-0.005039638374000788,-0.011759156361222267,-0.0019853119738399982
1780001761231550700,10.61355078125,-0.0022907445672899485,-0.00931569468230009,-0.0039706239476799965
1780001761247892000,10.62989208984375,-0.001527163083665073,-0.005955935921519995,-0.0025961773935705423
1780001761264220000,10.646219970703125,0.00015271631127689034,-0.003054326167330146,-0.0009162978967651725
1780001761280554000,10.662553955078126,0.00015271631127689034,-0.0013744467869400978,-0.001832595793530345
1780001761296883700,10.6788837890625,0.0003054326225537807,-0.005039638374000788,-0.0010690141934901476
1780001761313219000,10.695218994140625,-0.0019853119738399982,-0.012217304669320583,-0.002138028386980295
1780001761329561300,10.711561279296875,-0.004428773187100887,-0.01664607785642147,-0.00427605677396059
1780001761345876500,10.72787646484375,-0.008704829961061478,-0.016798794269561768,-0.007177666760981083
1780001761362216000,10.7442158203125,-0.014355333521962166,-0.020005837082862854,-0.011759156361222267
1780001761378555600,10.7605556640625,-0.016798794269561768,-0.01771509274840355,-0.01466076634824276
1780001761394882300,10.77688232421875,-0.019089538604021072,-0.01618792861700058,-0.01542434748262167
1780001761411199500,10.793199462890625,-0.019089538604021072,-0.020922135561704636,-0.013591751456260681
1780001761427550000,10.809550048828125,-0.015882495790719986,-0.02367102913558483,-0.009926560334861279
1780001761443879400,10.82587939453125,-0.012675453908741474,-0.02428189292550087,-0.009621127508580685
1780001761460219600,10.8422197265625,-0.007941247895359993,-0.02321287989616394,-0.005497787147760391
1780001761476548900,10.858548828125,-0.005955935921519995,-0.018936822190880775,-0.0027488935738801956
1780001761492879600,10.874879638671874,-0.004734205547720194,-0.018478672951459885,-0.00015271631127689034
1780001761509197300,10.891197265625,-0.001679879380390048,-0.017562376335263252,0.0009162978967651725
1780001761525544200,10.907544189453125,-0.0003054326225537807,-0.01191187184303999,0.005497787147760391
1780001761541865000,10.923864990234375,0.0013744467869400978,-0.01237002108246088,0.004123340360820293
1780001761558200800,10.940200927734375,0.0003054326225537807,-0.013133603148162365,0.001527163083665073
1780001761574536200,10.9565361328125,-0.001832595793530345,-0.015882495790719986,-0.0007635815418325365
1780001761590866400,10.972866455078124,-0.003054326167330146,-0.01924225501716137,0.0003054326225537807
1780001761607199500,10.989199462890625,-0.004428773187100887,-0.02321287989616394,0.0007635815418325365
1780001761623533000,11.005532958984375,-0.005650503560900688,-0.025961773470044136,-0.001527163083665073
1780001761639865600,11.021865478515625,-0.008246680721640587,-0.027030786499381065,-0.0022907445672899485
1780001761656198700,11.03819873046875,-0.010537425056099892,-0.024587325751781464,-0.003359758760780096
1780001761672549000,11.054549072265624,-0.010842857882380486,-0.020311269909143448,-0.0029016099870204926
1780001761688878300,11.07087841796875,-0.010079276748001575,-0.021380282938480377,-0.0024434609804302454
1780001761705207000,11.08720703125,-0.00809396430850029,-0.020922135561704636,0.0007635815418325365
1780001761721531600,11.10353173828125,-0.005955935921519995,-0.019853120669722557,0.0032070425804704428
1780001761737869800,11.119869873046875,-0.004734205547720194,-0.022143865004181862,0.0032070425804704428
1780001761754217200,11.13621728515625,-0.004886921960860491,-0.02382374368607998,0.003054326167330146
1780001761770543900,11.1525439453125,-0.006261368747800589,-0.02076941914856434,0.001832595793530345
1780001761786876700,11.168876708984374,-0.005803219974040985,-0.016798794269561768,0.001679879380390048
1780001761803209500,11.18520947265625,-0.006261368747800589,-0.01191187184303999,0.0007635815418325365
1780001761819543000,11.20154296875,-0.007941247895359993,-0.008857546374201775,-0.0009162978967651725
1780001761835876000,11.2178759765625,-0.007024950347840786,-0.0074830991216003895,-0.0010690141934901476
1780001761852209200,11.234209228515626,-0.0064140851609408855,-0.013133603148162365,-0.002138028386980295
1780001761868552200,11.25055224609375,-0.004886921960860491,-0.014813481830060482,-0.0029016099870204926
1780001761884876000,11.2668759765625,-0.005803219974040985,-0.015271631069481373,-0.005039638374000788
1780001761901199000,11.28319921875,-0.007941247895359993,-0.012675453908741474,-0.007941247895359993
1780001761917520000,11.299519775390625,-0.008399397134780884,-0.009773843921720982,-0.003512475173920393
1780001761933877500,11.31587744140625,-0.006872233934700489,-0.007635815534740686,0.008704829961061478
1780001761950207700,11.332207763671875,-0.0019853119738399982,0.006872233934700489,0.022602014243602753
1780001761966540000,11.3485400390625,-0.0007635815418325365,0.039706241339445114,0.027030786499381065
1780001761982873600,11.36487353515625,-0.0065668015740811825,0.09010262042284012,0.001679879380390048
1780001761999229200,11.381229248046875,-0.016035212203860283,0.11178833991289139,-0.0403171069920063
1780001762015539500,11.39753955078125,-0.023976460099220276,0.11301007121801376,-0.06673702597618103
1780001762031855400,11.41385546875,-0.01878410577774048,0.12171489745378494,-0.04917465150356293
1780001762048191700,11.430191650390626,-0.016340645030140877,0.10430523753166199,-0.023518312722444534
1780001762064524500,11.446524658203124,-0.02321287989616394,0.1010981947183609,-0.02886338345706463
1780001762080857600,11.462857666015625,-0.03649919852614403,0.08109235763549805,-0.06276640295982361
1780001762097174800,11.4791748046875,-0.03497203439474106,0.055283304303884506,-0.06643159687519073
1780001762113526300,11.4955263671875,-0.02367102913558483,0.09483683109283447,-0.01771509274840355
1780001762129855700,11.511855712890625,-0.011759156361222267,0.12079860270023346,0.006872233934700489
1780001762146189600,11.528189453125,0.00366519158706069,0.06658431142568588,-0.00855211354792118
1780001762162519300,11.544519287109376,0.02229658141732216,0.030085112899541855,-0.022602014243602753
1780001762178873600,11.56087353515625,0.03344487398862839,0.04688390716910362,-0.024129176512360573
1780001762195196700,11.57719677734375,0.034666601568460464,0.04734205827116966,-0.032681290060281754
1780001762211539500,11.59353955078125,0.031001411378383636,0.030237829312682152,-0.03329215571284294
1780001762227862000,11.609862060546876,0.020922135561704636,-0.01878410577774048,-0.033139441162347794
1780001762244185000,11.62618505859375,-0.0003054326225537807,-0.023518312722444534,-0.03695734590291977
1780001762260518000,11.642517822265624,-0.02076941914856434,-0.018936822190880775,-0.043218716979026794
1780001762276867800,11.658867919921875,-0.04184427112340927,-0.03039054572582245,-0.056352317333221436
1780001762293201000,11.675200927734375,-0.054367005825042725,-0.02886338345706463,-0.05711590126156807
1780001762309533700,11.69153369140625,-0.06169738993048668,-0.016951510682702065,-0.05253441259264946
1780001762325865200,11.707865234375,-0.05604688450694084,-0.019394971430301666,-0.050854530185461044
1780001762342200300,11.724200439453124,-0.04260785132646561,-0.003054326167330146,-0.03497203439474106
1780001762358528800,11.74052880859375,-0.009162978269159794,-0.025656340643763542,-0.00366519158706069
1780001762374869800,11.756869873046876,0.010842857882380486,-0.04352414980530739,0.01771509274840355
1780001762391199500,11.773199462890625,0.009468411095440388,-0.02535090781748295,0.02367102913558483
1780001762407516000,11.789515869140626,0.006108652334660292,-0.03497203439474106,0.006872233934700489
1780001762423860700,11.80586083984375,-0.008857546374201775,-0.026114489883184433,-0.022143865004181862
1780001762440202000,11.822201904296875,-0.01863138936460018,-0.03848451003432274,-0.029626963660120964
1780001762456526300,11.8385263671875,-0.017562376335263252,-0.031154127791523933,-0.014813481830060482
1780001762472868000,11.8548681640625,-0.016340645030140877,-0.017409659922122955,-0.0003054326225537807
1780001762489181200,11.87118115234375,-0.01572977937757969,-0.02672535367310047,-0.004428773187100887
1780001762505529600,11.887529541015626,-0.01466076634824276,-0.03481931984424591,-0.0024434609804302454
1780001762521846800,11.9038466796875,-0.01160643994808197,-0.027947084978222847,0.002138028386980295
1780001762538182700,11.9201826171875,-0.004428773187100887,-0.04749477282166481,0.003512475173920393
1780001762554515700,11.936515625,-0.004581489134579897,-0.04917465150356293,0.005803219974040985
1780001762570848500,11.9528486328125,-0.004428773187100887,-0.05604688450694084,0.009773843921720982
1780001762587181800,11.969181884765625,-0.009010262787342072,-0.05207626149058342,0.012675453908741474
1780001762603514600,11.9855146484375,-0.010079276748001575,-0.03405573591589928,0.004428773187100887
1780001762619848000,12.001847900390626,-0.014813481830060482,-0.03894266113638878,-0.022907447069883347
1780001762636180500,12.018180419921874,-0.019547687843441963,-0.04245513305068016,-0.020005837082862854
1780001762652531700,12.03453173828125,-0.014202617108821869,-0.023060163483023643,0.020922135561704636
1780001762668860200,12.050860107421874,0.0010690141934901476,-0.018936822190880775,0.052381694316864014
1780001762685194000,12.067194091796875,0.009010262787342072,-0.017562376335263252,0.051770828664302826
1780001762701510000,12.083510009765625,0.015882495790719986,-0.04092797264456749,0.05375614017248154
1780001762717859800,12.09985986328125,0.018020525574684143,-0.02886338345706463,0.04688390716910362
1780001762734193000,12.11619287109375,0.015118914656341076,-0.02275473065674305,0.03191770985722542
1780001762750525400,12.132525390625,0.012522737495601177,-0.043218716979026794,0.027183502912521362
1780001762766858200,12.148858154296875,0.008857546374201775,-0.038637228310108185,0.03039054572582245
1780001762783192600,12.165192626953125,0.0022907445672899485,-0.03741549700498581,0.012522737495601177
1780001762799524600,12.181524658203125,-0.006108652334660292,-0.02474004216492176,-0.00931569468230009
1780001762815857400,12.197857421875,-0.010537425056099892,0.005955935921519995,-0.006872233934700489
1780001762832188400,12.2141884765625,-0.005039638374000788,-0.012522737495601177,0.012675453908741474
1780001762848524000,12.23052392578125,0.006108652334660292,-0.005650503560900688,0.022907447069883347
1780001762864840200,12.246840087890625,0.008857546374201775,-0.0024434609804302454,0.024129176512360573
1780001762881173800,12.263173828125,0.0029016099870204926,-0.028557950630784035,0.00427605677396059
1780001762897518600,12.2795185546875,-0.006108652334660292,-0.039248090237379074,-0.023976460099220276
1780001762913856800,12.295856689453124,0.0032070425804704428,-0.025656340643763542,0.0009162978967651725
1780001762930189000,12.31218896484375,0.00855211354792118,-0.00427605677396059,0.03145955875515938
1780001762946521600,12.328521484375,0.001832595793530345,-0.019089538604021072,0.027947084978222847
1780001762962853400,12.344853271484375,-0.0029016099870204926,-0.02871066704392433,0.009162978269159794
1780001762979188200,12.361188232421876,-0.006108652334660292,-0.029016099870204926,-0.0032070425804704428
1780001762995520500,12.3775205078125,-0.003359758760780096,-0.02779436856508255,-0.0009162978967651725
1780001763011823900,12.393823974609376,0.007788531947880983,-0.026572637259960175,0.010842857882380486
1780001763028170500,12.41017041015625,0.009010262787342072,-0.014355333521962166,0.021380282938480377
1780001763044510000,12.426510009765625,0.00855211354792118,-0.002138028386980295,0.02168571576476097
1780001763060839200,12.442839111328125,0.007788531947880983,-0.022449297830462456,0.024434609338641167
1780001763077167400,12.45916748046875,0.007941247895359993,-0.029016099870204926,0.029016099870204926
1780001763093510700,12.4755107421875,0.008246680721640587,-0.017409659922122955,0.02076941914856434
1780001763109838300,12.49183837890625,0.005345070734620094,-0.013744467869400978,0.004734205547720194
1780001763126171600,12.508171630859374,0.0064140851609408855,-0.009621127508580685,0.009773843921720982
1780001763142507800,12.5245078125,0.00855211354792118,-0.0074830991216003895,0.02275473065674305
1780001763158850800,12.540850830078124,0.008246680721640587,0,0.016951510682702065
1780001763175168000,12.55716796875,-0.0003054326225537807,-0.010537425056099892,-0.004734205547720194
1780001763191517400,12.573517333984375,-0.003054326167330146,-0.029474247246980667,-0.021991148591041565
1780001763207846100,12.58984619140625,-0.0019853119738399982,-0.01664607785642147,-0.005345070734620094
1780001763224185900,12.606185791015625,0.00855211354792118,-0.008704829961061478,0.01710422709584236
1780001763240499200,12.622499267578124,0.00809396430850029,-0.017867809161543846,0.014813481830060482
1780001763256854800,12.638854736328126,0.004734205547720194,-0.013897184282541275,-0.0003054326225537807
1780001763273172200,12.655172119140625,0.00045814894838258624,-0.00733038317412138,-0.012064588256180286
1780001763289517800,12.671517822265624,0.0003054326225537807,-0.0012217304902151227,-0.008857546374201775
1780001763305851400,12.687851318359375,0.004886921960860491,0.0007635815418325365,0.012675453908741474
1780001763322168800,12.7041689453125,0.010231993161141872,0.0029016099870204926,0.024129176512360573
1780001763338473000,12.720472900390625,0.008246680721640587,-0.024129176512360573,0.02321287989616394
1780001763354847700,12.73684765625,0.005955935921519995,-0.01664607785642147,0.014813481830060482
1780001763371184600,12.7531845703125,0.00427605677396059,-0.007788531947880983,0.01114829070866108
1780001763387517400,12.769517333984375,0.004123340360820293,0.0003054326225537807,0.014813481830060482
1780001763403846000,12.785845947265624,0.005192354787141085,-0.005497787147760391,0.01924225501716137
1780001763420176100,12.802176025390626,0.003817907767370343,-0.020616702735424042,0.009468411095440388
1780001763436516600,12.8185166015625,0.00366519158706069,-0.015882495790719986,0.005192354787141085
1780001763452851500,12.8348515625,0.006719517521560192,0.004123340360820293,0.011301007121801376
1780001763469170400,12.85117041015625,0.009621127508580685,0.01191187184303999,0.010079276748001575
1780001763485512000,12.867511962890624,0.007635815534740686,-0.003817907767370343,0.008857546374201775
1780001763501827600,12.88382763671875,0.0065668015740811825,-0.0013744467869400978,0.003359758760780096
1780001763518150400,12.900150390625,0.008246680721640587,-0.005039638374000788,-0.0074830991216003895
1780001763534488000,12.916488037109374,0.007177666760981083,-0.012675453908741474,-0.00931569468230009
1780001763550828300,12.932828369140625,0.007177666760981083,-0.01038470957428217,-0.0009162978967651725
1780001763567165200,12.949165283203126,0.006719517521560192,-0.01237002108246088,0.007941247895359993
1780001763583497500,12.96549755859375,0.0039706239476799965,-0.009926560334861279,0.009162978269159794
1780001763599826000,12.981825927734375,0.0019853119738399982,-0.0025961773935705423,0.008246680721640587
1780001763616162000,12.998162109375,-0.00015271631127689034,0.01466076634824276,-0.004123340360820293
1780001763632494800,13.014494873046875,-0.0013744467869400978,-0.007788531947880983,-0.010537425056099892
1780001763648844800,13.0308447265625,0.00427605677396059,-0.022143865004181862,-0.00045814894838258624
1780001763665173500,13.047173583984375,0.00931569468230009,0.001832595793530345,0.005192354787141085
1780001763681491000,13.063490966796875,0.012064588256180286,0.008704829961061478,-0.001679879380390048
1780001763697840600,13.079840576171875,0.01114829070866108,-0.010079276748001575,0.0003054326225537807
1780001763714173700,13.096173583984376,0.008399397134780884,0.00015271631127689034,0.0027488935738801956
1780001763730504200,13.112504150390626,0.005345070734620094,0.00427605677396059,-0.00366519158706069
1780001763746840000,13.128840087890625,0.00045814894838258624,0.01191187184303999,-0.008857546374201775
1780001763763173400,13.14517333984375,-0.00015271631127689034,0.022602014243602753,-0.005345070734620094
1780001763779505700,13.161505615234375,0.009162978269159794,0.005039638374000788,0.011301007121801376
1780001763795836400,13.17783642578125,0.014966198243200779,0.005192354787141085,0.017409659922122955
1780001763812171500,13.194171630859374,0.010537425056099892,0.01572977937757969,0.01664607785642147
1780001763828508700,13.2105087890625,0.004123340360820293,0.0039706239476799965,0.004886921960860491
1780001763844838100,13.226838134765625,-0.0029016099870204926,0.0064140851609408855,-0.011453723534941673
1780001763861154000,13.243154052734376,0.001832595793530345,0.004428773187100887,-0.013897184282541275
1780001763877500000,13.2595,0.004581489134579897,0.022602014243602753,-0.00809396430850029
1780001763893831200,13.2758310546875,0.00809396430850029,0.032070424407720566,0.0027488935738801956
1780001763910169600,13.292169677734375,0.0074830991216003895,0.009621127508580685,-0.005803219974040985
1780001763926486300,13.308486328125,0,0.006872233934700489,-0.009773843921720982
1780001763942836500,13.32483642578125,0.004428773187100887,0.014202617108821869,-0.001527163083665073
1780001763959166500,13.34116650390625,0.01191187184303999,-0.0010690141934901476,0.00733038317412138
1780001763975502800,13.3575029296875,0.007024950347840786,-0.0012217304902151227,0.009468411095440388
1780001763991818000,13.37381787109375,0.006108652334660292,-0.004886921960860491,0.015882495790719986
1780001764008154000,13.390154052734376,0.003359758760780096,-0.00427605677396059,0.0027488935738801956
1780001764024486700,13.406486572265624,-0.0012217304902151227,-0.004428773187100887,-0.012675453908741474
1780001764040820200,13.4228203125,0.001527163083665073,0.013286318629980087,-0.008857546374201775
1780001764057152500,13.439152587890625,0.007177666760981083,0.022602014243602753,0.001527163083665073
1780001764073486600,13.455486572265626,0.007941247895359993,0.017409659922122955,0.0025961773935705423
1780001764089808600,13.47180859375,0.00733038317412138,0.01160643994808197,-0.014355333521962166
1780001764106148900,13.48814892578125,0.0009162978967651725,0.016798794269561768,-0.023060163483023643
1780001764122485200,13.5044853515625,0.0010690141934901476,0.016493361443281174,-0.0074830991216003895
1780001764138838300,13.52083837890625,0.0024434609804302454,0.01160643994808197,-0.0010690141934901476
1780001764155154000,13.53715380859375,-0.0009162978967651725,0.004428773187100887,-0.01114829070866108
1780001764171500300,13.553500244140626,-0.004886921960860491,0.012522737495601177,-0.018478672951459885
1780001764187826700,13.56982666015625,-0.0012217304902151227,0.00931569468230009,-0.009162978269159794
1780001764204172000,13.586172119140626,-0.0003054326225537807,0.003512475173920393,-0.0064140851609408855
1780001764220488200,13.60248828125,-0.001527163083665073,0.015577063895761967,-0.010690141469240189
1780001764236833000,13.6188330078125,-0.0039706239476799965,0.019394971430301666,-0.015577063895761967
1780001764253188600,13.635188720703125,-0.00366519158706069,0.011301007121801376,-0.019394971430301666
1780001764269493000,13.651492919921875,-0.006719517521560192,0.010231993161141872,-0.019853120669722557
1780001764285828000,13.667828125,-0.001679879380390048,0.010537425056099892,-0.01542434748262167
1780001764302163200,13.6841630859375,0.003359758760780096,0.012522737495601177,-0.003512475173920393
1780001764318495000,13.700494873046875,0.0009162978967651725,0.012828170321881771,-0.00733038317412138
1780001764334827500,13.71682763671875,0.0009162978967651725,0.010231993161141872,-0.01863138936460018
1780001764351156500,13.733156494140625,0.006719517521560192,0.019547687843441963,-0.014508049935102463
1780001764367493400,13.749493408203126,0.007941247895359993,0.030237829312682152,-0.001527163083665073
1780001764383827000,13.765826904296874,0.008246680721640587,0.028405234217643738,0.005345070734620094
1780001764400163300,13.782163330078125,0.008704829961061478,0.010690141469240189,-0.0012217304902151227
1780001764416492300,13.7984921875,0.003817907767370343,-0.0007635815418325365,-0.015271631069481373
1780001764432823000,13.814822998046875,-0.005345070734620094,0.0019853119738399982,-0.027641652151942253
1780001764449155000,13.831155029296875,-0.012828170321881771,0.007788531947880983,-0.027030786499381065
1780001764465496000,13.84749609375,-0.02015855349600315,0.01863138936460018,-0.02871066704392433
1780001764481807600,13.8638076171875,-0.02015855349600315,0.013897184282541275,-0.030237829312682152
1780001764498142200,13.88014208984375,-0.018478672951459885,0.004734205547720194,-0.02382374368607998
1780001764514477000,13.89647705078125,-0.01542434748262167,0.004581489134579897,-0.020616702735424042
1780001764530809600,13.9128095703125,-0.014508049935102463,0.003359758760780096,-0.023365596309304237
1780001764547143200,13.92914306640625,-0.01572977937757969,0.015271631069481373,-0.029016099870204926
1780001764563459600,13.94545947265625,-0.014966198243200779,0.024892758578062057,-0.021838432177901268
1780001764579812000,13.96181201171875,-0.008857546374201775,0.019853120669722557,-0.003512475173920393
1780001764596141800,13.978141845703124,-0.009162978269159794,0.010995574295520782,-0.001527163083665073
1780001764612475000,13.994474853515625,-0.012217304669320583,-0.007788531947880983,-0.006719517521560192
1780001764628824800,14.010824951171875,-0.011453723534941673,0.0027488935738801956,-0.00733038317412138
1780001764645154800,14.02715478515625,-0.009621127508580685,0.008399397134780884,-0.010995574295520782
1780001764661470700,14.043470703125,-0.012675453908741474,0.008704829961061478,-0.012064588256180286
1780001764677820400,14.0598203125,-0.013286318629980087,0.007941247895359993,-0.012217304669320583
1780001764694151700,14.076151611328125,-0.01160643994808197,0.007788531947880983,-0.0024434609804302454
1780001764710486000,14.092486083984374,-0.010842857882380486,0.005345070734620094,0.01466076634824276
1780001764726819300,14.1088193359375,-0.010690141469240189,0.014966198243200779,0.027030786499381065
1780001764743137300,14.12513720703125,-0.010079276748001575,0.003512475173920393,0.02382374368607998
1780001764759486000,14.14148583984375,-0.011301007121801376,-0.012064588256180286,0.012828170321881771
1780001764775818000,14.15781787109375,-0.012828170321881771,-0.016340645030140877,0.009010262787342072
1780001764792151800,14.17415185546875,-0.010231993161141872,-0.02076941914856434,0.01542434748262167
1780001764808484000,14.190484130859375,-0.005345070734620094,-0.02168571576476097,0.024892758578062057
1780001764824815400,14.2068154296875,-0.0025961773935705423,-0.02733621932566166,0.025961773470044136
1780001764841153800,14.22315380859375,-0.0025961773935705423,-0.02779436856508255,0.023518312722444534
1780001764857479000,14.23947900390625,0.001679879380390048,-0.029626963660120964,0.027030786499381065
1780001764873819600,14.255819580078125,0.011301007121801376,-0.027947084978222847,0.04077525436878204
1780001764890150100,14.272150146484375,0.016951510682702065,-0.019547687843441963,0.04581489413976669
1780001764906463700,14.288463623046875,0.01664607785642147,-0.014355333521962166,0.03375030308961868
1780001764922815700,14.304815673828125,0.010995574295520782,-0.011453723534941673,0.011453723534941673
1780001764939114000,14.321114013671876,0.004581489134579897,-0.005650503560900688,-0.010995574295520782
1780001764955480300,14.337480224609376,0.0006108652451075613,0.007941247895359993,-0.020922135561704636
1780001764971797200,14.35379736328125,0.0012217304902151227,-0.00366519158706069,-0.020922135561704636
1780001764988132400,14.37013232421875,0.005803219974040985,0.00366519158706069,-0.01817324012517929
1780001765004453000,14.386453125,0.013439035043120384,0.010995574295520782,-0.011301007121801376
1780001765020800300,14.40280029296875,0.02275473065674305,0.009010262787342072,-0.0025961773935705423
1780001765037132500,14.419132568359375,0.027488935738801956,0.0003054326225537807,0.003512475173920393
1780001765053465600,14.435465576171875,0.025656340643763542,-0.009468411095440388,0.001832595793530345
1780001765069797000,14.451797119140625,0.01878410577774048,-0.008704829961061478,-0.0025961773935705423
1780001765086131500,14.46813134765625,0.011301007121801376,0.0006108652451075613,-0.005039638374000788
1780001765102451200,14.484451171875,0.005497787147760391,0.006261368747800589,-0.003817907767370343
1780001765118838500,14.500838623046874,0.004886921960860491,-0.0029016099870204926,0.006108652334660292
1780001765135138800,14.517138916015625,0.0019853119738399982,-0.01038470957428217,0.009010262787342072
1780001765151482000,14.533482177734374,-0.0024434609804302454,0.0013744467869400978,0.0025961773935705423
1780001765167793700,14.549793701171875,-0.006719517521560192,0.014813481830060482,-0.00855211354792118
1780001765184147500,14.5661474609375,-0.01114829070866108,0.014813481830060482,-0.027947084978222847
1780001765200470800,14.582470703125,-0.011759156361222267,0.005497787147760391,-0.03680463135242462
1780001765216812800,14.598812744140625,-0.013439035043120384,0.003359758760780096,-0.030695978552103043
1780001765233142000,14.61514208984375,-0.01160643994808197,0.005039638374000788,-0.02672535367310047
1780001765249474800,14.631474853515625,-0.009468411095440388,0.007024950347840786,-0.019394971430301666
1780001765265798700,14.647798583984375,-0.005650503560900688,0.020922135561704636,-0.01038470957428217
1780001765282136000,14.664135986328125,-0.0003054326225537807,0.024892758578062057,-0.0032070425804704428
1780001765298475300,14.680475341796875,0.0013744467869400978,0.01970040425658226,0.0013744467869400978
1780001765314809900,14.696809814453125,0.007635815534740686,0.01664607785642147,0.01191187184303999
1780001765331138000,14.713137939453125,0.013744467869400978,0.02015855349600315,0.022602014243602753
1780001765347473200,14.72947314453125,0.01664607785642147,0.038026362657547,0.027641652151942253
1780001765363799000,14.745799072265624,0.01466076634824276,0.02871066704392433,0.02733621932566166
1780001765380146700,14.762146728515624,0.01160643994808197,0.027947084978222847,0.021532999351620674
1780001765396470000,14.778469970703124,0.012828170321881771,0.02977968007326126,0.023365596309304237
1780001765412804400,14.794804443359375,0.015882495790719986,0.028405234217643738,0.024129176512360573
1780001765429137700,14.8111376953125,0.01664607785642147,0.0403171069920063,0.02321287989616394
1780001765445470500,14.827470458984376,0.014508049935102463,0.043218716979026794,0.021532999351620674
1780001765461782800,14.84378271484375,0.010842857882380486,0.034666601568460464,0.016798794269561768
1780001765478137600,14.8601376953125,0.006108652334660292,0.02871066704392433,0.016035212203860283
1780001765494456300,14.876456298828124,0.004886921960860491,0.020005837082862854,0.013439035043120384
1780001765510789600,14.89278955078125,0.006108652334660292,0.02321287989616394,0.01160643994808197
1780001765527122000,14.909121826171875,0.007635815534740686,0.02580905705690384,0.012980886735022068
1780001765543455000,14.925455078125,0.0074830991216003895,0.02626720629632473,0.013286318629980087
1780001765559788000,14.9417880859375,0.003359758760780096,0.034666601568460464,0.007941247895359993
1780001765576120800,14.958120849609376,-0.0027488935738801956,0.040622539818286896,-0.0012217304902151227
1780001765592454400,14.974454345703125,-0.003817907767370343,0.0455094613134861,-0.003054326167330146
1780001765608784400,14.990784423828124,0.001679879380390048,0.044135015457868576,0.01191187184303999
1780001765625140200,15.00714013671875,0.007024950347840786,0.028557950630784035,0.02122756652534008
1780001765641450200,15.0234501953125,0.012675453908741474,0.023976460099220276,0.024434609338641167
1780001765657821000,15.039821044921876,0.01771509274840355,0.02367102913558483,0.02580905705690384
1780001765674133500,15.056133544921876,0.01618792861700058,0.058948494493961334,0.011453723534941673
1780001765690465500,15.072465576171876,0.001832595793530345,0.05009094998240471,-0.005497787147760391
1780001765706781000,15.088781005859374,0.00015271631127689034,0.06414084881544113,-0.01542434748262167
1780001765723118600,15.10511865234375,-0.02122756652534008,0.08338310569524765,-0.0455094613134861
1780001765739450600,15.12145068359375,-0.013897184282541275,0.06734789162874222,-0.03039054572582245
1780001765755783700,15.13778369140625,-0.0013744467869400978,0.07223481684923172,-0.003054326167330146
1780001765772098800,15.154098876953125,0.005345070734620094,0.05604688450694084,0.013591751456260681
1780001765788449800,15.17044970703125,0.01664607785642147,0.008399397134780884,0.04138612002134323
1780001765804786000,15.186785888671874,0.025045474991202354,-0.002138028386980295,0.0685696229338646
1780001765821134600,15.203134521484374,0.018325956538319588,0.01114829070866108,0.046273041516542435
1780001765837437200,15.219437255859376,0.008399397134780884,-0.005192354787141085,0.020616702735424042
1780001765853799400,15.23579931640625,0.006261368747800589,0.008399397134780884,0.016493361443281174
1780001765870128000,15.252128173828124,0.007941247895359993,0.01618792861700058,0.019547687843441963
1780001765886461000,15.2684609375,0.012980886735022068,0.015271631069481373,0.021838432177901268
1780001765902777300,15.28477734375,0.01542434748262167,0.004734205547720194,0.021074850112199783
1780001765919128000,15.301128173828126,0.020463986322283745,-0.00855211354792118,0.027947084978222847
1780001765935456800,15.317456787109375,0.024892758578062057,-0.0022907445672899485,0.040622539818286896
1780001765951779300,15.333779296875,0.02321287989616394,0.007941247895359993,0.048258353024721146
1780001765968110600,15.350110595703125,0.016035212203860283,0.008857546374201775,0.039095375686883926
1780001765984446000,15.366446044921876,0.0064140851609408855,0.018936822190880775,0.02535090781748295
1780001766000768300,15.382768310546876,0.002138028386980295,0.02321287989616394,0.016340645030140877
1780001766017111600,15.399111572265625,0.001527163083665073,0.028099801391363144,0.01771509274840355
1780001766033444600,15.415444580078125,0.004581489134579897,0.02886338345706463,0.025045474991202354
1780001766049777400,15.43177734375,0.005497787147760391,0.020922135561704636,0.031612277030944824
1780001766066110200,15.448110107421876,0.007788531947880983,0.014355333521962166,0.030695978552103043
1780001766082443500,15.464443603515624,0.004886921960860491,0.009010262787342072,0.018020525574684143
1780001766098775000,15.480775146484374,-0.002138028386980295,0.010079276748001575,-0.002138028386980295
1780001766115125500,15.49712548828125,-0.0064140851609408855,0.020463986322283745,-0.010995574295520782
1780001766131453000,15.513452880859376,-0.006261368747800589,0.022602014243602753,-0.00931569468230009
1780001766147798300,15.52979833984375,0.00045814894838258624,0.021074850112199783,-0.004428773187100887
1780001766164093400,15.546093505859375,0.00366519158706069,0.01725694350898266,0.00366519158706069
1780001766180455000,15.562454833984376,0.003054326167330146,0.014508049935102463,0.003359758760780096
1780001766196788200,15.578788330078124,-0.0013744467869400978,0.01191187184303999,0.005497787147760391
1780001766213121000,15.59512109375,0.0003054326225537807,0.012675453908741474,0.009010262787342072
1780001766229453600,15.61145361328125,0.007941247895359993,0.012980886735022068,0.012828170321881771
1780001766245786600,15.62778662109375,0.01191187184303999,0.009926560334861279,0.013591751456260681
1780001766262122000,15.6441220703125,0.015577063895761967,0.003054326167330146,0.019394971430301666
1780001766278450400,15.660450439453125,0.01817324012517929,0.00015271631127689034,0.02428189292550087
1780001766294784800,15.67678466796875,0.009926560334861279,-0.014508049935102463,0.02580905705690384
1780001766311119000,15.693119140625,0.005039638374000788,-0.022907447069883347,0.031001411378383636
1780001766327451100,15.709451171875,0.006261368747800589,-0.013591751456260681,0.038026362657547
1780001766343784200,15.7257841796875,0.0013744467869400978,-0.009010262787342072,0.03527746722102165
1780001766360114000,15.742114013671875,-0.004581489134579897,-0.005803219974040985,0.02580905705690384
1780001766376443000,15.75844287109375,-0.008704829961061478,-0.006872233934700489,-0.003512475173920393
1780001766392779300,15.774779296875,-0.025503624230623245,-0.03588833287358284,-0.04398229718208313
1780001766409116700,15.79111669921875,-0.009926560334861279,-0.01572977937757969,0.017409659922122955
1780001766425447700,15.80744775390625,0.014355333521962166,0.012522737495601177,0.0679587572813034
1780001766441763300,15.823763427734375,0.013591751456260681,-0.017409659922122955,0.04459316283464432
1780001766458100500,15.8401005859375,0.005650503560900688,-0.029016099870204926,0.027947084978222847
1780001766474438000,15.85643798828125,0.006719517521560192,-0.016035212203860283,0.008857546374201775
1780001766490768400,15.872768310546874,0.0029016099870204926,-0.04535674303770065,-0.019547687843441963
1780001766507100700,15.8891005859375,0.0009162978967651725,-0.014966198243200779,0.008399397134780884
1780001766523434000,15.90543408203125,0.012064588256180286,0.023518312722444534,0.07284568250179291
1780001766539765200,15.92176513671875,0.032528575509786606,0.0007635815418325365,0.11621711403131485
1780001766556099800,15.938099853515626,0.03940080851316452,-0.013286318629980087,0.12186761945486069
1780001766572432600,15.9544326171875,0.03573561832308769,-0.02321287989616394,0.07956519722938538
1780001766588765700,15.970765625,0.029168816283345222,-0.04153883829712868,0.04352414980530739
1780001766605115100,15.987115234375,0.021838432177901268,-0.014813481830060482,0.03130684420466423
1780001766621447700,16.00344775390625,0.018325956538319588,-0.006719517521560192,0.02871066704392433
1780001766637795300,16.01979541015625,0.014508049935102463,-0.0013744467869400978,0.02382374368607998
1780001766654115000,16.036114990234374,0.014049900695681572,-0.0029016099870204926,0.02932153269648552
1780001766670457600,16.05245751953125,0.018478672951459885,-0.0025961773935705423,0.04398229718208313
1780001766686777600,16.068777587890626,0.02122756652534008,-0.006872233934700489,0.048105638474226
1780001766703103200,16.085103271484375,0.019853120669722557,-0.01863138936460018,0.04993823543190956
1780001766719417000,16.1014169921875,0.019547687843441963,-0.027183502912521362,0.05360342562198639
1780001766735760600,16.1177607421875,0.02168571576476097,-0.02672535367310047,0.05513058975338936
1780001766752095700,16.134095703125,0.02321287989616394,-0.031001411378383636,0.05696318298578262
1780001766768428300,16.15042822265625,0.019853120669722557,-0.04566217586398125,0.05253441259264946
1780001766784761300,16.16676123046875,0.02076941914856434,-0.07925976812839508,0.03497203439474106
1780001766801094700,16.1830947265625,0.012217304669320583,-0.05543602257966995,0.05314527451992035
1780001766817440000,16.19943994140625,0.018936822190880775,0.004886921960860491,0.10415252298116684
1780001766833766000,16.215765869140625,0.020311269909143448,-0.006108652334660292,0.09773843735456467
1780001766850111000,16.232111083984375,0.008246680721640587,-0.039248090237379074,0.05054909735918045
1780001766866438000,16.24843798828125,-0.032070424407720566,-0.020005837082862854,-0.02672535367310047
1780001766882773200,16.264773193359375,-0.09056077152490616,0.03695734590291977,-0.07849618047475815
1780001766899124500,16.28112451171875,-0.034666601568460464,-0.0039706239476799965,-0.0007635815418325365
1780001766915438800,16.29743896484375,-0.00045814894838258624,0.04001167416572571,0.052381694316864014
1780001766931741700,16.31374169921875,-0.001527163083665073,0.01924225501716137,0.04642575979232788
1780001766948091100,16.330091064453125,0.006719517521560192,-0.05360342562198639,0.005497787147760391
1780001766964424000,16.346423828125,0.007177666760981083,-0.06322455406188965,0.008857546374201775
1780001766980756700,16.3627568359375,0.026114489883184433,-0.036651913076639175,0.03497203439474106
1780001766997090300,16.37909033203125,0.020005837082862854,-0.009621127508580685,0.024129176512360573
1780001767013424000,16.395424072265627,0.0013744467869400978,-0.012828170321881771,-0.0065668015740811825
1780001767029751600,16.41175146484375,0.00045814894838258624,-0.025503624230623245,0.0009162978967651725
1780001767046093300,16.42809326171875,0.0009162978967651725,-0.004123340360820293,0.008704829961061478
1780001767062410200,16.44441015625,0.009162978269159794,0.002138028386980295,0.002138028386980295
1780001767078755600,16.460755615234376,0.018020525574684143,-0.013897184282541275,-0.006872233934700489
1780001767095088000,16.477088134765626,0.03176499158143997,-0.059864792972803116,0.02428189292550087
1780001767111438600,16.4934384765625,0.03848451003432274,-0.058337632566690445,0.07483099400997162
1780001767127765800,16.509765869140626,0.03940080851316452,-0.03741549700498581,0.09269879758358002
1780001767144099800,16.526099853515625,0.022907447069883347,-0.039248090237379074,0.06841690838336945
1780001767160410600,16.54241064453125,0.010690141469240189,-0.05604688450694084,0.04795292019844055
1780001767176771600,16.558771484375,0.009162978269159794,-0.04382958263158798,0.04382958263158798
1780001767193095000,16.575094970703127,0.01237002108246088,-0.01725694350898266,0.03634648025035858
1780001767209437200,16.591437255859375,0.006719517521560192,-0.017409659922122955,0.007635815534740686
1780001767225764900,16.607764892578125,0.003054326167330146,-0.025961773470044136,-0.01191187184303999
1780001767242095400,16.624095458984375,0.006108652334660292,-0.04077525436878204,-0.005039638374000788
1780001767258430200,16.64043017578125,0.015118914656341076,-0.04535674303770065,0.013133603148162365
1780001767274768100,16.65676806640625,0.01725694350898266,-0.006261368747800589,0.016493361443281174
1780001767291097000,16.67309716796875,0.014508049935102463,0.0019853119738399982,0.024434609338641167
1780001767307429600,16.6894296875,0.01237002108246088,0.0022907445672899485,0.017409659922122955
1780001767323763500,16.705763427734375,0.014813481830060482,-0.01466076634824276,0.027488935738801956
1780001767340096000,16.722095947265625,0.01160643994808197,-0.004428773187100887,0.029932396486401558
1780001767356428800,16.7384287109375,0.007024950347840786,-0.03588833287358284,0.013591751456260681
1780001767372755000,16.7547548828125,-0.0007635815418325365,-0.02977968007326126,-0.003512475173920393
1780001767389102600,16.7711025390625,-0.005803219974040985,-0.013286318629980087,-0.009621127508580685
1780001767405428000,16.787427978515623,-0.0009162978967651725,-0.013897184282541275,-0.015577063895761967
1780001767421744000,16.803744140625,0.002138028386980295,-0.01710422709584236,-0.02428189292550087
1780001767438078200,16.820078125,-0.00015271631127689034,-0.09896016865968704,0.010690141469240189
1780001767454413300,16.836413330078123,0.014813481830060482,-0.11362093687057495,0.06963863968849182
1780001767470746000,16.85274609375,0.02275473065674305,-0.027183502912521362,0.08857546001672745
1780001767487079200,16.8690791015625,0.01863138936460018,-0.02825251780450344,0.045204028487205505
1780001767503409700,16.88540966796875,0.0022907445672899485,-0.032528575509786606,-0.009773843921720982
1780001767519747300,16.901747314453125,-0.00733038317412138,-0.0074830991216003895,-0.036193765699863434
1780001767536077800,16.918077880859375,-0.0007635815418325365,0.031001411378383636,-0.02535090781748295
1780001767552410600,16.93441064453125,0.0012217304902151227,0.01466076634824276,0.0032070425804704428
1780001767568742700,16.95074267578125,-0.003054326167330146,0.008857546374201775,0.009621127508580685
1780001767585076700,16.96707666015625,0.0019853119738399982,-0.005497787147760391,0.01160643994808197
1780001767601428700,16.9834287109375,0.005650503560900688,-0.023518312722444534,0.031154127791523933
1780001767617756700,16.999756591796874,0.00733038317412138,-0.013286318629980087,0.043218716979026794
1780001767634087400,17.01608740234375,0.009621127508580685,-0.01618792861700058,0.04199698567390442
1780001767650440200,17.032440185546875,0.0022907445672899485,-0.050854530185461044,0.029626963660120964
1780001767666755000,17.048755126953125,-0.008246680721640587,-0.05406157299876213,0.017867809161543846
1780001767683089200,17.065089111328124,-0.010842857882380486,-0.048716504126787186,0.007177666760981083
1780001767699419400,17.08141943359375,-0.009010262787342072,-0.020311269909143448,0.003512475173920393
1780001767715754500,17.09775439453125,-0.005039638374000788,-0.003359758760780096,0.0029016099870204926
1780001767732086800,17.114086669921875,-0.005955935921519995,0.013591751456260681,-0.003054326167330146
1780001767748388400,17.130388427734374,-0.0039706239476799965,0.017409659922122955,-0.010842857882380486
1780001767764751600,17.146751708984375,0.001832595793530345,0.002138028386980295,-0.0010690141934901476
1780001767781079000,17.1630791015625,0.0025961773935705423,0.005345070734620094,0.003054326167330146
1780001767797414700,17.17941455078125,0.001832595793530345,-0.005192354787141085,-0.0039706239476799965
1780001767813739000,17.195739013671876,-0.0009162978967651725,-0.01878410577774048,-0.009468411095440388
1780001767830086000,17.2120859375,-0.0010690141934901476,-0.01924225501716137,-0.0065668015740811825
1780001767846420000,17.228419921875,0.003512475173920393,-0.018936822190880775,0
1780001767862749400,17.24474951171875,0.005803219974040985,-0.01466076634824276,0.003359758760780096
1780001767879083800,17.261083740234376,0.004581489134579897,-0.010231993161141872,0.004428773187100887
1780001767895415000,17.2774150390625,0.005955935921519995,-0.01114829070866108,0.01191187184303999
1780001767911735000,17.293735107421874,0.005192354787141085,-0.00855211354792118,0.014049900695681572
1780001767928069000,17.310069091796876,0.003817907767370343,-0.005650503560900688,0.006261368747800589
1780001767944398800,17.32639892578125,0.0007635815418325365,-0.008246680721640587,-0.0006108652451075613
1780001767960738000,17.342738037109374,-0.003817907767370343,-0.009926560334861279,-0.0012217304902151227
1780001767977065000,17.35906494140625,-0.0039706239476799965,-0.012828170321881771,0.001832595793530345
1780001767993404000,17.37540380859375,-0.001679879380390048,-0.018936822190880775,-0.0003054326225537807
1780001768009734000,17.39173388671875,-0.005192354787141085,-0.016798794269561768,-0.005039638374000788
1780001768026062800,17.408062744140626,-0.005803219974040985,-0.01038470957428217,-0.013744467869400978
1780001768042398200,17.424398193359377,-0.006108652334660292,-0.008857546374201775,-0.018936822190880775
1780001768058738200,17.44073828125,0.008857546374201775,-0.14248432219028473,-0.00366519158706069
1780001768075061200,17.457061279296877,0.07284568250179291,-0.25076019763946533,0.07712173461914062
1780001768091416000,17.473416015625,0.044287730008363724,-0.06536258012056351,0.14416420459747314
1780001768107738600,17.489738525390624,0.009773843921720982,0.05375614017248154,0.13439035415649414
1780001768124086000,17.5060859375,-0.010690141469240189,0.03680463135242462,0.017409659922122955
1780001768140409000,17.5224091796875,-0.028405234217643738,-0.012522737495601177,-0.0910189226269722
1780001768156744700,17.53874462890625,-0.0403171069920063,0.02779436856508255,-0.10186178237199783
1780001768173070300,17.5550703125,-0.031154127791523933,0.05955936014652252,-0.06734789162874222
1780001768189416700,17.571416748046875,-0.01725694350898266,0.028405234217643738,-0.04352414980530739
1780001768205739500,17.587739501953124,-0.003512475173920393,-0.01160643994808197,-0.024129176512360573
1780001768222080800,17.604080810546876,0.005039638374000788,-0.01878410577774048,-0.006719517521560192
1780001768238409000,17.620408935546877,0.005497787147760391,-0.017562376335263252,-0.012675453908741474
1780001768254742000,17.636741943359375,-0.01038470957428217,0.009468411095440388,-0.040622539818286896
1780001768271069400,17.6530693359375,-0.02321287989616394,0.022907447069883347,-0.0679587572813034
1780001768287411700,17.66941162109375,-0.025503624230623245,0.020005837082862854,-0.06261368840932846
1780001768303741700,17.68574169921875,-0.01878410577774048,0.013744467869400978,-0.0354301854968071
1780001768320070000,17.70206982421875,-0.009621127508580685,-0.002138028386980295,-0.019547687843441963
1780001768336436200,17.718436279296874,-0.003512475173920393,-0.01664607785642147,-0.01160643994808197
1780001768352736000,17.734736083984377,-0.001679879380390048,-0.019394971430301666,-0.00809396430850029
1780001768369074000,17.751073974609376,-0.00855211354792118,0.0019853119738399982,-0.01618792861700058
1780001768385408800,17.76740869140625,-0.01863138936460018,-0.004581489134579897,-0.024434609338641167
1780001768401720600,17.783720458984376,-0.01710422709584236,-0.00809396430850029,-0.030543262138962746
1780001768418058000,17.80005810546875,-0.016493361443281174,0.0013744467869400978,-0.038179077208042145
1780001768434390800,17.816390869140626,-0.016493361443281174,0.021991148591041565,-0.05772676691412926
1780001768450723600,17.8327236328125,-0.010537425056099892,0.014508049935102463,-0.06108652427792549
1780001768467057000,17.849056884765623,-0.0012217304902151227,0.06979135423898697,-0.042760565876960754
1780001768483389700,17.8653896484375,-0.0029016099870204926,-0.018478672951459885,-0.012828170321881771
1780001768499723000,17.881722900390624,-0.004428773187100887,-0.06062837690114975,-0.00733038317412138
1780001768516055800,17.898055908203126,-0.014508049935102463,-0.013286318629980087,-0.0429132841527462
1780001768532387300,17.91438720703125,-0.026572637259960175,-0.00809396430850029,-0.10766500234603882
1780001768548721700,17.9307216796875,-0.024892758578062057,-0.024892758578062057,-0.15302173793315887
1780001768565054700,17.9470546875,-0.009010262787342072,0.10980302840471268,-0.24526239931583405
1780001768581374500,17.96337451171875,0.0064140851609408855,0.16844609379768372,-0.30482175946235657
1780001768597720300,17.97972021484375,0.06383541971445084,0.21899518370628357,-0.2548835277557373
1780001768614053400,17.996053466796877,0.12431107461452484,0.015118914656341076,-0.12278391420841217
1780001768630386200,18.01238623046875,0.15836681425571442,-0.09208793938159943,0.04199698567390442
1780001768646706200,18.0287060546875,0.20830504596233368,-0.11591167747974396,0.12202033400535583
1780001768663052500,18.045052490234376,0.26481008529663086,-0.06551529467105865,0.1310305893421173
1780001768679388700,18.061388671875,0.30115658044815063,0.014966198243200779,0.10613783448934555
1780001768695735300,18.0777353515625,0.27809640765190125,0.015271631069481373,0.08643743395805359
1780001768712047000,18.094047119140626,0.2028072625398636,-0.04260785132646561,0.08979719132184982
1780001768728381200,18.110381103515625,0.10537425428628922,-0.12751811742782593,0.08704829961061478
1780001768744726800,18.126726806640626,0.058337632566690445,-0.12446379661560059,0.0757472887635231
1780001768761067500,18.143067626953126,0.06536258012056351,-0.05054909735918045,0.04948008432984352
1780001768777392000,18.15939208984375,0.006872233934700489,0.00931569468230009,0.02367102913558483
1780001768793733400,18.1757333984375,-0.0328340083360672,0.019394971430301666,-0.025961773470044136
1780001768810046000,18.1920458984375,-0.0529925599694252,0.024587325751781464,-0.048105638474226
1780001768826395100,18.20839501953125,-0.06490442901849747,0.012980886735022068,-0.036651913076639175
1780001768842724900,18.224724853515625,-0.07895433157682419,-0.009162978269159794,-0.031154127791523933
1780001768859065900,18.24106591796875,-0.09636399149894714,-0.010690141469240189,-0.03894266113638878
1780001768875402000,18.257402099609376,-0.08414668589830399,-0.003512475173920393,-0.04703662544488907
1780001768891710000,18.2737099609375,-0.07284568250179291,-0.01725694350898266,-0.038179077208042145
1780001768908045000,18.290045166015624,-0.06062837690114975,-0.03573561832308769,-0.02015855349600315
1780001768924380000,18.3063798828125,-0.05497787147760391,-0.02687807008624077,-0.012217304669320583
1780001768940715300,18.32271533203125,-0.058184914290905,-0.004581489134579897,-0.022143865004181862
1780001768957039400,18.339039306640625,-0.06475171446800232,0.01710422709584236,-0.03436116874217987
1780001768973368600,18.35536865234375,-0.04886921867728233,0.016951510682702065,-0.029168816283345222
1780001768989711400,18.37171142578125,-0.02871066704392433,-0.0024434609804302454,-0.01038470957428217
1780001769006044400,18.38804443359375,-0.01924225501716137,-0.013133603148162365,0.001527163083665073
1780001769022377500,18.40437744140625,-0.016340645030140877,-0.009773843921720982,0.003512475173920393
1780001769038709200,18.420709228515626,-0.013744467869400978,-0.0064140851609408855,-0.001679879380390048
1780001769055029800,18.43702978515625,-0.01664607785642147,0.00045814894838258624,0
1780001769071396600,18.453396728515624,-0.026572637259960175,0.0022907445672899485,0.003054326167330146
1780001769087721200,18.46972119140625,-0.02932153269648552,-0.005345070734620094,0.003817907767370343
1780001769104052000,18.486052001953126,-0.02672535367310047,0.018020525574684143,0.005039638374000788
1780001769120392000,18.502391845703126,-0.024129176512360573,0.01878410577774048,0.005955935921519995
1780001769136721700,18.5187216796875,-0.022907447069883347,0.02535090781748295,0.006108652334660292
1780001769153054200,18.53505419921875,-0.02580905705690384,0.03878994286060333,0.008246680721640587
1780001769169382100,18.551382080078124,-0.02535090781748295,0.039706241339445114,0.007788531947880983
1780001769185724400,18.567724365234376,-0.013286318629980087,0.02428189292550087,0.014813481830060482
1780001769202054100,18.58405419921875,-0.005497787147760391,0.008399397134780884,0.03344487398862839
1780001769218387000,18.600386962890624,-0.005803219974040985,0.014813481830060482,0.048105638474226
1780001769234723000,18.61672314453125,-0.012828170321881771,0.02428189292550087,0.050243668258190155
1780001769251056400,18.633056396484374,-0.020463986322283745,0.02367102913558483,0.04489859566092491
1780001769267383800,18.6493837890625,-0.017867809161543846,0.014966198243200779,0.04001167416572571
1780001769283720200,18.66572021484375,-0.014355333521962166,0.015577063895761967,0.03191770985722542
1780001769300049200,18.682049072265624,-0.02122756652534008,0.025045474991202354,0.018478672951459885
1780001769316384500,18.698384521484375,-0.020616702735424042,0.01466076634824276,0.015271631069481373
1780001769332716800,18.714716796875,-0.012064588256180286,0.007635815534740686,0.021991148591041565
1780001769349049600,18.731049560546875,-0.014508049935102463,0.013744467869400978,0.02168571576476097
1780001769365381600,18.747381591796874,-0.021838432177901268,0.011453723534941673,0.013133603148162365
1780001769381699000,18.763698974609376,-0.024892758578062057,0.009162978269159794,0.009773843921720982
1780001769398035500,18.780035400390624,-0.02519819140434265,0.019853120669722557,0.009621127508580685
1780001769414367700,18.79636767578125,-0.01771509274840355,0.015271631069481373,0.008246680721640587
1780001769430701600,18.81270166015625,-0.01878410577774048,0.012217304669320583,0.0074830991216003895
1780001769447034000,18.8290341796875,-0.016493361443281174,0.006872233934700489,0.00733038317412138
1780001769463367200,18.8453671875,-0.01542434748262167,0.00366519158706069,0.00855211354792118
1780001769479700000,18.861699951171875,-0.009010262787342072,0.007788531947880983,0.010995574295520782
1780001769496033300,18.878033203125,-0.005039638374000788,0.01863138936460018,0.01191187184303999
1780001769512365800,18.89436572265625,-0.00733038317412138,0.028557950630784035,0.012675453908741474
1780001769528699000,18.910698974609375,-0.005192354787141085,0.030543262138962746,0.013286318629980087
1780001769545031200,18.92703125,-0.0006108652451075613,0.02122756652534008,0.00809396430850029
1780001769561362200,18.943362060546875,-0.0029016099870204926,0.018936822190880775,0.0029016099870204926
1780001769577713200,18.959713134765625,0.0029016099870204926,0.018020525574684143,0.001832595793530345
1780001769594044400,18.97604443359375,0.004886921960860491,0.016951510682702065,0.004886921960860491
1780001769610377200,18.992377197265625,0.001679879380390048,0.018478672951459885,0.003359758760780096
1780001769626708500,19.00870849609375,-0.003054326167330146,0.016493361443281174,-0.003054326167330146
1780001769643033300,19.025033447265624,-0.006108652334660292,0.01572977937757969,-0.004581489134579897
1780001769659382500,19.041382568359374,-0.008246680721640587,0.018478672951459885,-0.0029016099870204926
1780001769675708400,19.05770849609375,-0.007177666760981083,0.011301007121801376,-0.0027488935738801956
1780001769692042500,19.07404248046875,-0.005192354787141085,0.001832595793530345,0.00045814894838258624
1780001769708361200,19.090361328125,-0.0022907445672899485,-0.0006108652451075613,0.0024434609804302454
1780001769724708400,19.106708251953126,-0.0027488935738801956,-0.0025961773935705423,0.00015271631127689034
1780001769741030700,19.12303076171875,-0.003512475173920393,-0.001679879380390048,-0.00366519158706069
1780001769757377800,19.139377685546876,-0.0007635815418325365,0.0010690141934901476,-0.0024434609804302454
1780001769773712600,19.155712646484375,0,0.0012217304902151227,-0.002138028386980295
1780001769790038300,19.172038330078124,0.0025961773935705423,0.0007635815418325365,-0.0032070425804704428
1780001769806372000,19.1883720703125,0.004886921960860491,0.0007635815418325365,-0.0010690141934901476
1780001769822687200,19.204687255859376,0.004886921960860491,0.003817907767370343,0.0012217304902151227
1780001769839037200,19.221037109375,0.005039638374000788,0.004428773187100887,0.004886921960860491
1780001769855375600,19.237375732421874,0.004428773187100887,0.008857546374201775,0.006108652334660292
1780001769871689700,19.253689697265624,0.005803219974040985,0.01038470957428217,0.003512475173920393
1780001769888023600,19.2700234375,0.001679879380390048,0.010842857882380486,-0.001832595793530345
1780001769904345600,19.286345703125,0.001527163083665073,0.009773843921720982,-0.00366519158706069
1780001769920674600,19.302674560546876,0.001527163083665073,0.009010262787342072,-0.001679879380390048
1780001769937025000,19.31902490234375,0.00045814894838258624,0.00733038317412138,-0.003054326167330146
1780001769953358300,19.3353583984375,0.0006108652451075613,0.00733038317412138,-0.0027488935738801956
1780001769969688300,19.351688232421875,0.0024434609804302454,0.005192354787141085,-0.00427605677396059
1780001769986021400,19.368021484375,0.0025961773935705423,0.0025961773935705423,-0.0027488935738801956
1780001770002353400,19.384353515625,0.004123340360820293,0.0007635815418325365,0.00045814894838258624
1780001770018684200,19.40068408203125,0.003817907767370343,0,0.002138028386980295
1780001770035023600,19.417023681640625,0.003817907767370343,0.001832595793530345,0.00366519158706069
1780001770051353300,19.433353271484375,0.004428773187100887,0.005192354787141085,0.006261368747800589
1780001770067701200,19.449701171875,0.00733038317412138,0.003512475173920393,0.0065668015740811825
1780001770084038400,19.466038330078124,0.007024950347840786,0.0012217304902151227,0.00809396430850029
1780001770100358000,19.48235791015625,0.008399397134780884,-0.005650503560900688,0.007788531947880983
1780001770116701400,19.498701416015624,0.0064140851609408855,-0.005955935921519995,0.005803219974040985
1780001770133029600,19.515029541015625,0.00427605677396059,-0.004428773187100887,0.0039706239476799965
1780001770149364700,19.53136474609375,0.0024434609804302454,-0.003512475173920393,0.0027488935738801956
1780001770165697500,19.547697509765626,0.004581489134579897,-0.003512475173920393,0.004886921960860491
1780001770182030800,19.56403076171875,0.005803219974040985,-0.009162978269159794,0.005192354787141085
