time,seconds_elapsed,z,y,x
1779909745125639400,0.112639404296875,0.27980899810791016,0.24533390998840332,1.6053876876831055
1779909745150142500,0.137142578125,0.23824119567871094,0.24564456939697266,1.5611449480056763
1779909745166465800,0.1534658203125,0.3008747100830078,0.22325658798217773,1.522995114326477
1779909745182796000,0.169796142578125,0.42490100860595703,0.19074630737304688,1.6210473775863647
1779909745199128800,0.18612890625,0.4807882308959961,0.29918432235717773,1.6141250133514404
1779909745215472600,0.20247265625,0.41684913635253906,0.24114418029785156,1.5765122175216675
1779909745231807500,0.218807373046875,0.42096996307373047,0.1184835433959961,1.5235520601272583
1779909745248145200,0.235145263671875,0.18675994873046875,0.08082842826843262,1.5065507888793945
1779909745264474400,0.251474365234375,0.17027759552001953,0.25070858001708984,1.3475407361984253
1779909745280810200,0.267810302734375,0.3014249801635742,0.12042999267578125,1.450390100479126
1779909745297139500,0.284139404296875,0.3929443359375,0.09537911415100098,1.5390090942382812
1779909745313472800,0.30047265625,0.2779207229614258,0.2443552017211914,1.4752286672592163
1779909745329807600,0.3168076171875,0.042542457580566406,0.1489570140838623,1.3830775022506714
1779909745346141400,0.333141357421875,0.014774322509765625,0.03694033622741699,1.357959508895874
1779909745362474800,0.349474853515625,0.27640247344970703,0.12276029586791992,1.4891870021820068
1779909745378802700,0.365802734375,0.34058570861816406,0.11503219604492188,1.5436806678771973
1779909745395154200,0.382154296875,0.33511924743652344,0.09267807006835938,1.45640230178833
1779909745411453700,0.39845361328125,0.29726696014404297,0.06542158126831055,1.3859407901763916
1779909745427811800,0.414811767578125,0.3143796920776367,0.03087782859802246,1.5410619974136353
1779909745444136700,0.43113671875,0.21505069732666016,0.20225858688354492,1.5745643377304077
1779909745460470300,0.44747021484375,0.2824716567993164,0.273134708404541,1.4875915050506592
1779909745476793300,0.46379345703125,0.21690750122070312,0.15175437927246094,1.4638080596923828
1779909745493135000,0.480135009765625,0.14830589294433594,0.10788249969482422,1.4219943284988403
1779909745509469200,0.49646923828125,0.07355022430419922,0.0630648136138916,1.4637149572372437
1779909745525792000,0.5127919921875,0.10150718688964844,0.07638025283813477,1.4534697532653809
1779909745542132500,0.529132568359375,0.06251716613769531,0.13560128211975098,1.512753963470459
1779909745558467800,0.5454677734375,0.15360164642333984,0.2711904048919678,1.5190244913101196
1779909745574802000,0.561802001953125,-0.016147613525390625,0.26088762283325195,1.4704126119613647
1779909745591149600,0.578149658203125,-0.2091054916381836,0.2265157699584961,1.3335824012756348
1779909745607480000,0.59447998046875,0.039882659912109375,0.17702126502990723,1.2797510623931885
1779909745623817000,0.61081689453125,0.39503002166748047,0.12659573554992676,1.4559500217437744
1779909745640130800,0.627130859375,0.4415903091430664,0.03091740608215332,1.5447818040847778
1779909745656450600,0.643450439453125,0.08433151245117188,0.07224535942077637,1.5258026123046875
1779909745672786700,0.65978662109375,-0.13413619995117188,0.26581549644470215,1.3849730491638184
1779909745689120500,0.67612060546875,-0.036116600036621094,0.34306931495666504,1.3570500612258911
1779909745705452800,0.692452880859375,-0.2008829116821289,0.31291747093200684,1.3637040853500366
1779909745721786000,0.7087861328125,-0.1968841552734375,0.2177281379699707,1.3000779151916504
1779909745738119000,0.725118896484375,-0.16101741790771484,0.06578516960144043,1.3013345003128052
1779909745754451000,0.741450927734375,-0.17648029327392578,0.06250214576721191,1.3937519788742065
1779909745770785800,0.757785888671875,-0.20473670959472656,0.06964945793151855,1.5621893405914307
1779909745787117800,0.774117919921875,0.12330055236816406,0.20300841331481934,1.655491828918457
1779909745803467000,0.790467041015625,0.37225818634033203,0.35697102546691895,1.4797072410583496
1779909745819797200,0.80679736328125,0.11879444122314453,0.43111515045166016,1.38828444480896
1779909745836129800,0.8231298828125,0.17267799377441406,0.5511898994445801,1.3413591384887695
1779909745852463600,0.839463623046875,0.5740985870361328,0.5028166770935059,1.3970787525177002
1779909745868797400,0.85579736328125,0.9201946258544922,0.254152774810791,1.433872103691101
1779909745885129000,0.87212890625,0.9909858703613281,-0.1035149097442627,1.5004022121429443
1779909745901460500,0.88846044921875,0.9337368011474609,-0.17205262184143066,1.6631627082824707
1779909745917799700,0.904799560546875,0.7024335861206055,0.23971056938171387,1.259303331375122
1779909745934128400,0.92112841796875,0.2899637222290039,0.14524340629577637,1.1706833839416504
1779909745950462200,0.937462158203125,-0.14673233032226562,0.21493768692016602,1.0595028400421143
1779909745966796300,0.95379638671875,0.0700979232788086,0.2940714359283447,0.9985668659210205
1779909745983141600,0.9701416015625,0.2259206771850586,0.28110289573669434,1.24308443069458
1779909745999476700,0.986476806640625,0.5553464889526367,0.2119123935699463,1.2715222835540771
1779909746015788500,1.00278857421875,0.4582080841064453,0.09287166595458984,1.387833595275879
1779909746032129500,1.019129638671875,0.2664451599121094,0.0857090950012207,1.3784303665161133
1779909746048474400,1.035474365234375,0.13245010375976562,0.1877758502960205,1.3066236972808838
1779909746064791800,1.051791748046875,-0.09124946594238281,0.27780771255493164,1.1935107707977295
1779909746081129200,1.068129150390625,-0.19985389709472656,0.23988842964172363,1.1712614297866821
1779909746097459500,1.08445947265625,-0.06297779083251953,0.13878393173217773,1.1966726779937744
1779909746113795000,1.100795166015625,0.12874698638916016,0.0905756950378418,1.2400522232055664
1779909746130132500,1.117132568359375,0.2411785125732422,-0.023870468139648438,1.2710356712341309
1779909746146460000,1.1334599609375,0.2805643081665039,-0.12766504287719727,1.257758378982544
1779909746162793700,1.149793701171875,0.12680912017822266,-0.11330437660217285,1.2029175758361816
1779909746179126800,1.166126708984375,0.11795520782470703,0.029140233993530273,1.229961633682251
1779909746195471600,1.1824716796875,0.10482597351074219,0.08378767967224121,1.2026517391204834
1779909746211793000,1.19879296875,0.052422523498535156,0.01660323143005371,1.1667399406433105
1779909746228125200,1.215125244140625,0.019426345825195312,0.021802186965942383,1.1817286014556885
1779909746244459000,1.231458984375,-0.06867313385009766,0.09233570098876953,1.1591609716415405
1779909746260790300,1.247790283203125,-0.13772106170654297,0.19140315055847168,1.152097225189209
1779909746277124400,1.264124267578125,-0.2188730239868164,0.145005464553833,1.0756760835647583
1779909746293453000,1.280453125,-0.06485557556152344,0.1358797550201416,1.2367558479309082
1779909746309798400,1.29679833984375,0.2607421875,0.11327600479125977,1.2905182838439941
1779909746326122800,1.313122802734375,0.17989158630371094,0.09257888793945312,1.243544101715088
1779909746342458600,1.329458740234375,0.21094989776611328,0.0692596435546875,1.1877529621124268
1779909746358791700,1.345791748046875,0.14654159545898438,0.03605389595031738,1.1571857929229736
1779909746375113000,1.362113037109375,-0.08711624145507812,0.04902172088623047,1.132421612739563
1779909746391457500,1.37845751953125,-0.4954833984375,0.1993551254272461,1.1531312465667725
1779909746407778600,1.394778564453125,-1.0567045211791992,0.17806267738342285,1.2759504318237305
1779909746424122000,1.4111220703125,-1.2789711952209473,-0.9038522243499756,1.6467477083206177
1779909746440479500,1.4274794921875,-1.514181137084961,-2.004551649093628,1.8432859182357788
1779909746456803800,1.443803955078125,-2.423372268676758,-2.2321135997772217,0.999903678894043
1779909746473120000,1.4601201171875,-2.534132480621338,-2.325228691101074,0.28374481201171875
1779909746489456600,1.47645654296875,-3.114401340484619,-2.0691938400268555,0.9028357863426208
1779909746505777400,1.49277734375,-7.200699806213379,-3.2443747520446777,2.6390457153320312
1779909746522122500,1.50912255859375,-12.002819061279297,-3.900559663772583,6.518235683441162
1779909746538456000,1.5254560546875,-13.199650764465332,-2.0487115383148193,3.1972410678863525
1779909746554790100,1.5417900390625,-6.629208564758301,1.086174488067627,-8.357612609863281
1779909746571125000,1.558125,0.9509038925170898,-4.745424747467041,-4.988948345184326
1779909746587455200,1.574455322265625,-2.354109287261963,-12.948722839355469,-1.717517375946045
1779909746603786200,1.5907861328125,-5.255319118499756,-9.522831916809082,-5.057438850402832
1779909746620125400,1.60712548828125,-9.449317932128906,-9.061626434326172,-4.354939937591553
1779909746636454000,1.623453857421875,-11.713937759399414,-10.59588623046875,-4.218428611755371
1779909746652790800,1.639790771484375,-9.471183776855469,-12.263175964355469,-5.21990442276001
1779909746669120800,1.656120849609375,-6.416883945465088,-14.403118133544922,-3.6363415718078613
1779909746685445000,1.672445068359375,-3.250958204269409,-14.775279998779297,0.035971641540527344
1779909746701790000,1.6887900390625,-2.219048500061035,-12.35351276397705,2.533041000366211
1779909746718114800,1.70511474609375,0.2439335584640503,-12.111661911010742,6.63181209564209
1779909746734454800,1.721454833984375,3.9661786556243896,-11.77885627746582,11.433643341064453
1779909746750804200,1.73780419921875,6.82608699798584,-10.659991264343262,16.954620361328125
1779909746767137500,1.754137451171875,5.511904716491699,-6.392430305480957,21.67017936706543
1779909746783469000,1.770468994140625,-0.9649346470832825,-1.7600553035736084,23.50702476501465
1779909746799801000,1.786801025390625,-5.441474914550781,-1.9687871932983398,23.242740631103516
1779909746816135400,1.803135498046875,-4.399143218994141,1.0221285820007324,23.57346534729004
1779909746832468500,1.819468505859375,-13.057518005371094,4.924508571624756,24.255695343017578
1779909746848801000,1.835801025390625,-10.202046394348145,9.69093132019043,18.884632110595703
1779909746865117700,1.85211767578125,-8.90638542175293,8.944650650024414,15.560983657836914
1779909746881458400,1.86845849609375,-7.530111312866211,1.1021599769592285,9.21415901184082
1779909746897789200,1.8847890625,-2.3442511558532715,-7.4911041259765625,6.802986145019531
1779909746914119700,1.90111962890625,-4.044149398803711,-4.979482173919678,3.957186698913574
1779909746930453800,1.917453857421875,-2.4841742515563965,-1.5236396789550781,3.584566116333008
1779909746946787000,1.933787109375,1.382368564605713,-0.35119152069091797,1.6922569274902344
1779909746963138300,1.95013818359375,0.21148034930229187,-3.4345197677612305,1.0742149353027344
1779909746979466200,1.96646630859375,3.570143222808838,-2.7806925773620605,0.06297779083251953
1779909746995772000,1.98277197265625,3.9567151069641113,-3.515730857849121,0.7242231369018555
1779909747012136700,1.99913671875,-1.7583179473876953,-0.7677054405212402,-2.5874295234680176
1779909747028456400,2.01545654296875,-6.564451217651367,-0.9029207229614258,-4.010035514831543
1779909747044800500,2.031800537109375,2.9068381786346436,0.7370073795318604,-6.15285587310791
1779909747061122800,2.048122802734375,-7.073321342468262,-1.4439983367919922,-8.04211711883545
1779909747077453000,2.064453125,-2.5432376861572266,2.2651407718658447,-11.1905517578125
1779909747093774000,2.080774169921875,-7.8069000244140625,-1.3049092292785645,-9.232440948486328
1779909747110115800,2.09711572265625,-1.9952242374420166,2.918020009994507,-6.531426906585693
1779909747126456600,2.11345654296875,0.22203397750854492,1.7225327491760254,-5.604801654815674
1779909747142786300,2.129786376953125,-0.4696216583251953,2.764963388442993,-3.5619406700134277
1779909747159119400,2.146119384765625,-0.37279438972473145,3.9276413917541504,-1.8780937194824219
1779909747175442000,2.16244189453125,0.023179054260253906,4.41466760635376,3.7940316200256348
1779909747191788000,2.1787880859375,-0.5677478313446045,4.202117919921875,5.4934210777282715
1779909747208118800,2.195118896484375,-2.3632097244262695,1.1798505783081055,3.4189486503601074
1779909747224453400,2.211453369140625,-1.791178822517395,0.5999679565429688,1.0828132629394531
1779909747240787000,2.227786865234375,-0.5008180141448975,4.657883644104004,-0.5178442001342773
1779909747257118500,2.244118408203125,-0.9842753410339355,5.3917155265808105,1.2673540115356445
1779909747273453300,2.260453369140625,1.6717376708984375,1.1217732429504395,3.521772861480713
1779909747289787600,2.27678759765625,1.1990575790405273,-0.48125219345092773,5.475291728973389
1779909747306117600,2.29311767578125,-1.3142668008804321,-0.9603562355041504,3.1019630432128906
1779909747322449700,2.30944970703125,-1.5657718181610107,0.412783145904541,0.8242883682250977
1779909747338777000,2.325777099609375,-4.042666912078857,-0.007808685302734375,1.7818684577941895
1779909747355136000,2.342135986328125,-3.3302934169769287,-0.2402944564819336,2.2949562072753906
1779909747371444500,2.358444580078125,-1.538413166999817,-3.3169803619384766,1.2825913429260254
1779909747387790800,2.374790771484375,-0.8302161693572998,-4.531618118286133,0.3261098861694336
1779909747404113200,2.391113037109375,-9.541574478149414,5.888494491577148,-3.377227783203125
1779909747420470500,2.407470458984375,5.070021629333496,-9.395909309387207,4.754035472869873
1779909747436800800,2.42380078125,7.062708377838135,-3.1446094512939453,1.9158210754394531
1779909747453116700,2.44011669921875,0.12068629264831543,-0.6674671173095703,-4.829268455505371
1779909747469453000,2.456453125,2.547421455383301,-1.5548858642578125,-7.8835859298706055
1779909747485773600,2.472773681640625,1.7447720766067505,-0.05131721496582031,-5.402759075164795
1779909747502119200,2.489119140625,1.7517991065979004,-1.9133377075195312,-5.288573741912842
1779909747518452700,2.50545263671875,0.665298581123352,-3.735409736633301,-4.556416034698486
1779909747534787000,2.521787109375,-1.240032434463501,-4.641437530517578,-3.6704845428466797
1779909747551135000,2.538135009765625,-3.5718770027160645,2.058788299560547,-3.9111580848693848
1779909747567463200,2.554463134765625,0.10212063789367676,1.377833366394043,-2.391033887863159
1779909747583788000,2.5707880859375,2.2366576194763184,6.227667331695557,4.533661365509033
1779909747600114700,2.58711474609375,-0.09836935997009277,3.637115478515625,9.009847640991211
1779909747616458000,2.6034580078125,2.461137294769287,2.2801170349121094,9.452339172363281
1779909747632783000,2.619783203125,-3.7259249687194824,0.23375320434570312,5.881145477294922
1779909747649123300,2.636123291015625,-5.638345718383789,6.338091850280762,5.605490684509277
1779909747665443000,2.652443115234375,5.953848838806152,12.227628707885742,3.8553972244262695
1779909747681771800,2.668771728515625,-0.38164544105529785,-0.3031454086303711,4.267064094543457
1779909747698119200,2.685119140625,-6.7698869705200195,1.5955162048339844,0.1677696704864502
1779909747714453000,2.701452880859375,-3.2502758502960205,-2.4318599700927734,0.008062362670898438
1779909747730787600,2.71778759765625,4.577969074249268,-3.0367250442504883,2.6134936809539795
1779909747747107800,2.73410791015625,2.6955792903900146,-5.135612487792969,-0.3533947467803955
1779909747763457000,2.75045703125,2.7850255966186523,-5.654270172119141,-3.1206588745117188
1779909747779801300,2.76680126953125,1.5290567874908447,-0.7887363433837891,-5.501343727111816
1779909747796135000,2.783135009765625,3.5508618354797363,1.6335687637329102,-7.34901762008667
1779909747812467500,2.799467529296875,-1.3113255500793457,1.5152087211608887,-6.924349784851074
1779909747828798000,2.8157978515625,-5.200094699859619,0.1227560043334961,-3.9623167514801025
1779909747845120800,2.832120849609375,-3.1714835166931152,0.3854818344116211,-1.3042328357696533
1779909747861453600,2.84845361328125,-0.6010231971740723,1.499253749847412,-0.17942285537719727
1779909747877789000,2.864788818359375,1.7976000308990479,1.8884243965148926,0.37406039237976074
1779909747894107100,2.881107177734375,2.888411045074463,0.8321475982666016,0.9396274089813232
1779909747910450700,2.89745068359375,1.5384161472320557,0.2382211685180664,0.24791550636291504
1779909747926792200,2.913792236328125,0.9103677272796631,-0.3161430358886719,-1.8186358213424683
1779909747943138000,2.930137939453125,-1.263427972793579,-0.796900749206543,-2.93334698677063
1779909747959445500,2.946445556640625,-3.0336475372314453,0.16652297973632812,-2.6974925994873047
1779909747975780400,2.9627802734375,-0.16936269402503967,0.991206169128418,-2.2209548950195312
1779909747992136000,2.979135986328125,0.6954413652420044,2.822690963745117,-1.591788411140442
1779909748008468700,2.99546875,-0.2999597489833832,3.6901583671569824,-2.042841672897339
1779909748024802000,3.011802001953125,-1.0657984018325806,3.860269069671631,-1.1059141159057617
1779909748041122300,3.028122314453125,0.6913172006607056,3.5887370109558105,-1.0419461727142334
1779909748057454600,3.04445458984375,-1.6291780471801758,-4.089679718017578,-0.56840980052948
1779909748073789700,3.060789794921875,-0.18306571245193481,-32.37629699707031,-3.4764902591705322
1779909748090121200,3.077121337890625,1.5905200242996216,-6.084010124206543,-1.5524407625198364
1779909748106455600,3.09345556640625,-0.16388371586799622,3.57033634185791,-0.5691816806793213
1779909748122789600,3.10978955078125,-2.359281539916992,3.9266200065612793,0.28462642431259155
1779909748139122000,3.126121826171875,-1.5740748643875122,-0.1010732650756836,0.4813246726989746
1779909748155442000,3.14244189453125,-0.46933144330978394,-1.2392244338989258,0.17784500122070312
1779909748171789800,3.158789794921875,-0.3427000939846039,-0.8080329895019531,-0.05227494239807129
1779909748188120600,3.17512060546875,-0.9095649719238281,-0.10822868347167969,-0.5695925951004028
1779909748204456000,3.1914560546875,-1.1926974058151245,-0.12883949279785156,-0.6769734621047974
1779909748220790000,3.2077900390625,-0.9585465788841248,-0.3360881805419922,-0.646381676197052
1779909748237121800,3.224121826171875,-1.1205447912216187,-0.3399181365966797,-0.5821274518966675
1779909748253456000,3.240455810546875,-1.1851592063903809,-0.0018634796142578125,-0.48701679706573486
1779909748269791500,3.25679150390625,-1.427332878112793,0.42968082427978516,-0.39950379729270935
1779909748286122200,3.273122314453125,-1.4262102842330933,0.5861577987670898,-0.17023369669914246
1779909748302453500,3.28945361328125,-0.89151930809021,0.40712547302246094,0.13905611634254456
1779909748318794500,3.30579443359375,-0.2524322271347046,0.4345588684082031,0.1819835901260376
1779909748335140400,3.322140380859375,0.262701153755188,0.5057716369628906,0.05432519316673279
1779909748351456300,3.338456298828125,0.18457531929016113,0.6469411849975586,-0.20175182819366455
1779909748367770000,3.35477001953125,0.06700658798217773,0.9683494567871094,-0.5990829467773438
1779909748384110300,3.3711103515625,0.14609766006469727,1.4218416213989258,-0.9535648822784424
1779909748400460800,3.387460693359375,-0.18306434154510498,1.6513519287109375,-0.6844186782836914
1779909748416791300,3.403791259765625,-0.34018421173095703,1.9866843223571777,-0.1964566707611084
1779909748433124000,3.4201240234375,-0.14473700523376465,2.074462890625,-0.27080851793289185
1779909748449458000,3.4364580078125,-0.07403159141540527,1.9530773162841797,-0.4598288834095001
1779909748465772800,3.452772705078125,0.057562828063964844,1.990839958190918,-0.55780029296875
1779909748482129700,3.469129638671875,-0.08648300170898438,2.2358899116516113,-0.6067897081375122
1779909748498458000,3.4854580078125,-0.2366321086883545,2.6727943420410156,-0.7787715792655945
1779909748514791000,3.501791015625,-0.42462921142578125,2.7676143646240234,-0.8557217717170715
1779909748531139600,3.5181396484375,-0.7036013603210449,2.7168688774108887,-0.7632405161857605
1779909748547472100,3.53447216796875,-0.7514138221740723,2.8962936401367188,-0.4167017936706543
1779909748563806700,3.550806640625,-0.37408900260925293,3.3220009803771973,0.020193476229906082
1779909748580119600,3.56711962890625,0.10960328578948975,3.6031150817871094,0.23874355852603912
1779909748596462000,3.583462158203125,0.48308801651000977,3.6667985916137695,0.1908881664276123
1779909748612793900,3.5997939453125,0.5513135194778442,3.786348819732666,0.013238117098808289
1779909748629124400,3.616124267578125,0.4044837951660156,3.777134418487549,0.0005890466272830963
1779909748645471200,3.63247119140625,-0.21179163455963135,3.4422311782836914,0.1441279649734497
1779909748661771500,3.648771484375,-1.0558685064315796,2.779595375061035,0.2700154185295105
1779909748678116900,3.665116943359375,-1.935253381729126,1.9409308433532715,0.5420926809310913
1779909748694446600,3.681446533203125,-2.445347309112549,1.1805610656738281,0.7566490769386292
1779909748710778000,3.697778076171875,-1.5684483051300049,1.1932945251464844,0.5582156777381897
1779909748727117800,3.714117919921875,-0.5345698595046997,1.7045869827270508,-0.023939311504364014
1779909748743461000,3.730461181640625,-1.486761212348938,0.824432373046875,-1.6032259464263916
1779909748759795200,3.746795166015625,-0.7403862476348877,-1.4536495208740234,-2.500612497329712
1779909748776127200,3.763127197265625,1.1272484064102173,-3.0700454711914062,-2.241236448287964
1779909748792460300,3.779460205078125,2.5494437217712402,-4.906916618347168,-1.456142544746399
1779909748808795400,3.79579541015625,3.503080129623413,-4.8703508377075195,-1.9826984405517578
1779909748825128200,3.812128173828125,0.6527056097984314,-3.058476448059082,-3.794783115386963
1779909748841460500,3.82846044921875,-2.066288709640503,1.1601371765136719,-4.269378185272217
1779909748857798100,3.844798095703125,-7.973997592926025,-2.4531898498535156,-3.2074501514434814
1779909748874129000,3.86112890625,-10.882879257202148,-19.729597091674805,1.3284794092178345
1779909748890460700,3.877460693359375,7.761791706085205,-6.287833213806152,3.688180923461914
1779909748906808600,3.89380859375,4.292558670043945,-1.0506305694580078,1.7584409713745117
1779909748923144400,3.91014453125,1.7171868085861206,0.980708122253418,1.137476921081543
1779909748939462400,3.92646240234375,-0.14099490642547607,2.296769142150879,1.2860703468322754
1779909748955789800,3.942789794921875,-1.868404507637024,-0.8891506195068359,1.7281057834625244
1779909748972122600,3.95912255859375,-1.8224689960479736,-3.6424245834350586,1.5160629749298096
1779909748988477700,3.975477783203125,-0.7561118602752686,-1.3889083862304688,-0.1371673345565796
1779909749004794600,3.991794677734375,0.2986423373222351,1.3297843933105469,-1.5989668369293213
1779909749021131000,4.008131103515625,-1.6129889488220215,2.849062442779541,-1.1712342500686646
1779909749037465600,4.024465576171875,-3.5953288078308105,4.037814140319824,-0.9021119475364685
1779909749053799000,4.040798828125,-1.696976661682129,4.322815418243408,-0.8258315324783325
1779909749070132500,4.057132568359375,0.09687435626983643,4.093449115753174,-0.25073862075805664
1779909749086465000,4.073465087890625,-0.8588975667953491,3.709517478942871,0.3121758699417114
1779909749102801000,4.08980078125,-2.6079020500183105,3.8681116104125977,-0.6525769233703613
1779909749119131600,4.106131591796875,-2.7103350162506104,4.005645751953125,-2.210338592529297
1779909749135470000,4.122469970703125,-0.3748323917388916,3.634727954864502,-2.003267526626587
1779909749151801900,4.1388017578125,1.3802781105041504,2.8372812271118164,0.2189783751964569
1779909749168116000,4.155115966796875,2.778031587600708,2.4593968391418457,1.180666446685791
1779909749184453600,4.17145361328125,2.412433624267578,1.9543871879577637,1.566911220550537
1779909749200789200,4.187789306640625,0.10312867164611816,1.0990257263183594,1.3978304862976074
1779909749217120000,4.2041201171875,-3.2836050987243652,-2.815349578857422,1.132035255432129
1779909749233452500,4.22045263671875,-4.525883197784424,-8.560873031616211,2.0787291526794434
1779909749249790700,4.236790771484375,-1.4174304008483887,-11.620116233825684,2.8299882411956787
1779909749266119400,4.253119384765625,2.331742286682129,-7.872250556945801,1.8985273838043213
1779909749282456600,4.26945654296875,3.357285499572754,-4.964352607727051,-0.9037407636642456
1779909749298790000,4.285789794921875,0.008213996887207031,-2.1150498390197754,-2.538839340209961
1779909749315123000,4.302123046875,-0.9390439987182617,0.771265983581543,-3.596802234649658
1779909749331468800,4.31846875,-0.5968074798583984,1.7052946090698242,-4.63346004486084
1779909749347789800,4.334789794921875,0.8352184295654297,2.08433198928833,-3.424025058746338
1779909749364136000,4.351135986328125,2.5238449573516846,2.354142189025879,-2.4764389991760254
1779909749380469500,4.367469482421875,3.6295695304870605,2.6803927421569824,-2.471935510635376
1779909749396807000,4.383806884765625,3.940056800842285,3.074639320373535,-2.0978732109069824
1779909749413135600,4.400135498046875,3.974964141845703,3.5472288131713867,-1.4466586112976074
1779909749429470200,4.41647021484375,3.775197744369507,3.9656033515930176,-1.074438214302063
1779909749445822200,4.432822265625,3.0334978103637695,4.61701774597168,-0.5709058046340942
1779909749462135600,4.449135498046875,1.3958005905151367,5.5139899253845215,-0.05451852083206177
1779909749478459100,4.465459228515625,-1.315934181213379,5.557745456695557,0.5166077017784119
1779909749494793000,4.48179296875,-3.0340042114257812,3.277998447418213,1.4853086471557617
1779909749511126300,4.498126220703125,-1.9201629161834717,-0.601323127746582,2.232882499694824
1779909749527462400,4.51446240234375,0.6255168914794922,-0.6443519592285156,3.5981595516204834
1779909749543815000,4.53081494140625,1.0579676628112793,-1.7448883056640625,4.754554271697998
1779909749560134000,4.5471337890625,-1.4358717203140259,-0.6035614013671875,2.5518267154693604
1779909749576475400,4.563475341796875,-3.933505058288574,2.118535041809082,-1.9016507863998413
1779909749592809200,4.579809326171875,-6.348013877868652,3.306540012359619,-2.6085243225097656
1779909749609140500,4.596140380859375,-4.59975004196167,3.1352291107177734,-2.2507779598236084
1779909749625450800,4.61245068359375,9.788994789123535,0.9575958251953125,-2.023332357406616
1779909749641813500,4.6288134765625,13.84249496459961,-3.9307174682617188,-2.8286447525024414
1779909749658137900,4.645137939453125,1.2508673667907715,-12.388190269470215,-5.448482513427734
1779909749674486800,4.66148681640625,-18.119365692138672,-9.641286849975586,-9.925178527832031
1779909749690826000,4.677825927734375,1.1006269454956055,-4.806131362915039,-3.3010385036468506
1779909749707155200,4.6941552734375,1.0944628715515137,-8.08803653717041,6.1736040115356445
1779909749723489500,4.710489501953125,-0.9132835865020752,-8.030410766601562,6.370776653289795
1779909749739827700,4.72682763671875,1.7037618160247803,-2.8892393112182617,4.361705303192139
1779909749756155400,4.7431552734375,1.7351949214935303,-2.1064977645874023,3.472568988800049
1779909749772491300,4.7594912109375,0.926063060760498,-1.0573749542236328,2.8195199966430664
1779909749788828200,4.775828125,0.6130416393280029,0.24324989318847656,1.9040179252624512
1779909749805157000,4.7921572265625,0.6221339702606201,0.8053598403930664,1.3295400142669678
1779909749821484500,4.808484619140625,1.3058128356933594,1.2634735107421875,0.299541175365448
1779909749837825500,4.824825439453125,0.46891748905181885,0.2382335662841797,-0.6688030362129211
1779909749854155800,4.84115576171875,-1.4910681247711182,1.1876554489135742,-0.867867112159729
1779909749870494500,4.857494384765625,-1.7803257703781128,2.6475391387939453,-0.7131173014640808
1779909749886825200,4.8738251953125,-1.376902461051941,3.5842151641845703,-0.9367703795433044
1779909749903167200,4.890167236328125,-1.1044543981552124,3.9083738327026367,-1.1864386796951294
1779909749919492000,4.9064921875,-0.20481252670288086,3.62479305267334,-1.596602439880371
1779909749935793700,4.922793701171875,0.6370368003845215,3.5624866485595703,-1.6079542636871338
1779909749952158700,4.93915869140625,-0.5463920831680298,3.7983345985412598,-1.6878817081451416
1779909749968466200,4.955466064453125,-2.8157572746276855,3.5292954444885254,-1.6880991458892822
1779909749984815400,4.9718154296875,-1.4896122217178345,2.1488380432128906,-0.540208101272583
1779909750001135400,4.98813525390625,0.7330135107040405,0.780552864074707,1.5782442092895508
1779909750017480700,5.004480712890625,1.5590009689331055,-0.08665752410888672,3.136333465576172
1779909750033816000,5.020816162109375,0.8038671016693115,0.3680992126464844,3.2806005477905273
1779909750050148000,5.037148193359375,0.7341554164886475,0.9366312026977539,2.233520746231079
1779909750066482200,5.053482177734375,-1.2908477783203125,0.07152938842773438,1.3990799188613892
1779909750082817300,5.0698173828125,-4.132635116577148,-3.484776496887207,1.021350383758545
1779909750099163400,5.086163330078125,-2.54262113571167,-7.609494209289551,1.0665165185928345
1779909750115484000,5.10248388671875,-0.7164936065673828,-8.378945350646973,1.1059942245483398
1779909750131827500,5.118827392578125,0.6438899040222168,-7.664189338684082,-0.6275904178619385
1779909750148150800,5.13515087890625,1.7023191452026367,-4.972787857055664,-2.3889694213867188
1779909750164484600,5.151484619140625,2.2148797512054443,-1.9737558364868164,-3.1506400108337402
1779909750180818200,5.167818115234375,1.8821420669555664,-0.12706422805786133,-3.913013458251953
1779909750197134800,5.184134765625,0.18738555908203125,1.1163420677185059,-2.9444007873535156
1779909750213473300,5.200473388671875,0.817446231842041,2.1549386978149414,-1.1681236028671265
1779909750229819400,5.2168193359375,1.6328449249267578,3.2217016220092773,-0.4781608581542969
1779909750246152200,5.233152099609375,1.4942727088928223,3.6977157592773438,-1.2752594947814941
1779909750262485200,5.2494853515625,1.7734642028808594,3.339888572692871,-1.9040460586547852
1779909750278798300,5.26579833984375,2.7232115268707275,3.096458911895752,-1.5355134010314941
1779909750295153400,5.2821533203125,1.6305146217346191,2.4347267150878906,-1.425842046737671
1779909750311483400,5.2984833984375,-0.08111906051635742,1.9542384147644043,-1.7378041744232178
1779909750327835100,5.314835205078125,-0.022237300872802734,3.235743522644043,-1.1703200340270996
1779909750344150800,5.33115087890625,1.7546401023864746,5.648707389831543,0.5143994688987732
1779909750360485600,5.347485595703125,3.6831328868865967,6.927962303161621,1.846839189529419
1779909750376822800,5.36382275390625,3.895915985107422,6.76971435546875,2.158719301223755
1779909750393153800,5.38015380859375,3.7540090084075928,4.315464973449707,1.6383960247039795
1779909750409489400,5.396489501953125,2.8436789512634277,-3.771115303039551,0.2161383330821991
1779909750425810400,5.412810546875,2.4471263885498047,-2.6772146224975586,1.3919408321380615
1779909750442156500,5.429156494140625,-3.0022170543670654,-2.859686851501465,1.2034019231796265
1779909750458490400,5.445490478515625,-6.241653919219971,-1.550969123840332,-1.8274469375610352
1779909750474808000,5.46180810546875,-6.092662811279297,1.6120662689208984,-4.518520832061768
1779909750491145500,5.4781455078125,-5.737624168395996,2.702864646911621,-4.491521835327148
1779909750507476500,5.4944765625,-5.482245922088623,-0.34982776641845703,-4.209332466125488
1779909750523814100,5.510814208984375,2.5529990196228027,-3.2919416427612305,-3.2439231872558594
1779909750540160500,5.527160400390625,8.257960319519043,-2.481395721435547,-0.12542247772216797
1779909750556493300,5.543493408203125,5.441224575042725,-2.029219627380371,1.0098388195037842
1779909750572824800,5.559824951171875,-4.824779987335205,-2.61574649810791,-1.3743822574615479
1779909750589138000,5.576137939453125,-9.400747299194336,-8.757583618164062,-2.3249566555023193
1779909750605493800,5.59249365234375,-7.035344123840332,-16.44961166381836,2.7536184787750244
1779909750621822500,5.608822509765625,4.963857650756836,-7.173432350158691,3.311549663543701
1779909750638161000,5.625160888671875,3.7504467964172363,0.030101776123046875,1.0631465911865234
1779909750654509600,5.641509521484375,-0.6855617761611938,1.0773000717163086,-0.24284321069717407
1779909750670842400,5.65784228515625,1.957675814628601,2.2727136611938477,-0.3293237090110779
1779909750687177000,5.674177001953125,2.860592842102051,-1.3548049926757812,0.21371805667877197
1779909750703490800,5.69049072265625,0.5798945426940918,-2.360261917114258,0.39219629764556885
1779909750719846100,5.70684619140625,-1.6245501041412354,-0.19831085205078125,-1.2801402807235718
1779909750736177700,5.723177734375,-1.1132761240005493,2.2734556198120117,-1.8446381092071533
1779909750752511700,5.73951171875,-2.158775806427002,2.6026253700256348,-0.995568573474884
1779909750768826000,5.755826171875,-1.360827922821045,3.1476378440856934,-0.407077431678772
1779909750785165300,5.772165283203125,-0.3085845708847046,3.2062153816223145,0.21771085262298584
1779909750801500000,5.7885,-0.047582268714904785,3.009336471557617,0.3014985918998718
1779909750817829400,5.804829345703125,-0.7731504440307617,3.7214150428771973,-0.5748791694641113
1779909750834164500,5.82116455078125,-2.3108413219451904,3.4677371978759766,-1.535544514656067
1779909750850500400,5.837500244140625,-1.4638785123825073,2.600376605987549,0.042505692690610886
1779909750866835500,5.85383544921875,0.12819349765777588,1.9204754829406738,1.6436325311660767
1779909750883177000,5.870177001953125,-0.5542404651641846,1.158151626586914,1.7315672636032104
1779909750899517000,5.886516845703125,-0.6271789073944092,0.7090482711791992,1.9034700393676758
1779909750915846700,5.9028466796875,2.01900053024292,1.1381521224975586,1.1114412546157837
1779909750932156700,5.91915673828125,0.6974713802337646,1.4524588584899902,0.12460155785083771
1779909750948516000,5.93551611328125,-1.364253044128418,0.12081432342529297,-0.5113809704780579
1779909750964841500,5.951841552734375,-1.566746711730957,-2.885335922241211,-0.6251929402351379
1779909750981169200,5.968169189453125,-1.869835376739502,-6.852592468261719,-0.7288281321525574
1779909750997502200,5.984502197265625,-0.6111602783203125,-7.764010429382324,-1.1736667156219482
1779909751013836000,6.0008359375,0.555152416229248,-5.078739166259766,-2.197838544845581
1779909751030171000,6.0171708984375,0.22000360488891602,-2.336967945098877,-0.9676018953323364
1779909751046505000,6.0335048828125,-0.29805803298950195,0.08910894393920898,-3.4989068508148193
1779909751062837000,6.0498369140625,-0.5991978645324707,0.5706310272216797,-5.804691314697266
1779909751079172900,6.0661728515625,-0.5881490707397461,0.8425679206848145,-4.317920684814453
1779909751095509200,6.08250927734375,0.49028635025024414,2.580324172973633,-1.633103609085083
1779909751111851300,6.098851318359375,1.446218490600586,4.435257911682129,-0.1001397967338562
1779909751128187600,6.115187744140625,1.5848288536071777,4.868528366088867,0.10982972383499146
1779909751144521500,6.131521484375,2.056727886199951,4.571937561035156,0.16127455234527588
1779909751160852200,6.147852294921875,3.0593373775482178,4.439044952392578,0.05022788047790527
1779909751177189600,6.164189697265625,2.833843946456909,4.787003517150879,-0.3842555284500122
1779909751193518000,6.18051806640625,1.5413093566894531,5.591753959655762,-0.36179786920547485
1779909751209851400,6.196851318359375,0.9122507572174072,6.1864495277404785,-0.019001007080078125
1779909751226193400,6.213193359375,0.0976102352142334,6.212676048278809,0.5547595024108887
1779909751242527500,6.229527587890625,-0.6142194271087646,5.010639667510986,0.988958477973938
1779909751258839600,6.245839599609375,0.6385833024978638,-3.327312469482422,0.1306067556142807
1779909751275161300,6.262161376953125,1.659428596496582,-6.260685920715332,1.4111125469207764
1779909751291514600,6.2785146484375,-0.42240262031555176,-3.621805191040039,2.1049513816833496
1779909751307821600,6.294821533203125,-3.599353790283203,-2.2418813705444336,-0.5525370836257935
1779909751324183000,6.31118310546875,-8.845800399780273,0.5062179565429688,-3.7758045196533203
1779909751340512800,6.3275126953125,-13.206514358520508,0.28788185119628906,-4.117189407348633
1779909751356845300,6.34384521484375,-8.149083137512207,-2.1737022399902344,-5.051060199737549
1779909751373180200,6.36018017578125,1.2712643146514893,-5.548463821411133,-3.4728338718414307
1779909751389513700,6.376513671875,10.614514350891113,-4.894758224487305,1.134983777999878
1779909751405847000,6.392846923828125,12.628820419311523,-6.273569107055664,1.1024657487869263
1779909751422181400,6.409181396484375,8.50422477722168,-5.878068923950195,-2.107534646987915
1779909751438514000,6.425513916015625,3.538363218307495,-5.377556800842285,-4.789809226989746
1779909751454848300,6.44184814453125,-1.4788576364517212,-8.297168731689453,-3.5587449073791504
1779909751471167200,6.458167236328125,1.9478278160095215,-9.967977523803711,-1.2523845434188843
1779909751487503600,6.474503662109375,-0.7554203867912292,-7.489349365234375,-0.5713859796524048
1779909751503836700,6.490836669921875,-2.476433038711548,-4.327430725097656,-0.6288576126098633
1779909751520171800,6.507171875,0.8310177326202393,-2.502598762512207,-2.090536117553711
1779909751536508700,6.5235087890625,5.586142539978027,-0.7728681564331055,-3.699136972427368
1779909751552850700,6.5398505859375,7.8162078857421875,0.9284152984619141,-5.1954169273376465
1779909751569182500,6.556182373046875,6.120858669281006,2.516786575317383,-5.3909196853637695
1779909751585523700,6.572523681640625,-1.3460203409194946,2.55940580368042,-3.3813059329986572
1779909751601852400,6.588852294921875,-1.7859395742416382,0.8055458068847656,-0.4680190682411194
1779909751618195700,6.60519580078125,1.2005481719970703,1.2039203643798828,2.6139936447143555
1779909751634520600,6.6215205078125,1.7804040908813477,1.7234115600585938,4.261711120605469
1779909751650855000,6.63785498046875,-1.908035397529602,2.6082911491394043,4.741041660308838
1779909751667203300,6.654203369140625,-3.6201133728027344,2.134225368499756,4.714651584625244
1779909751683536400,6.670536376953125,-2.1085710525512695,2.351405620574951,3.4560184478759766
1779909751699871500,6.68687158203125,-1.4125497341156006,1.8431100845336914,2.691929340362549
1779909751716200700,6.70320068359375,-0.8798619508743286,1.059976577758789,1.9779980182647705
1779909751732537900,6.719537841796875,-1.9186762571334839,0.4169597625732422,1.1042406558990479
1779909751748872400,6.73587255859375,-3.489466667175293,-0.26080989837646484,0.030672430992126465
1779909751765201000,6.752200927734375,-4.070404052734375,-0.8845911026000977,-0.054415225982666016
1779909751781534200,6.7685341796875,-2.0596871376037598,-0.8360662460327148,0.8647559881210327
1779909751797877800,6.784877685546875,-0.6083920001983643,-1.4722518920898438,2.0770139694213867
1779909751814203000,6.801202880859375,-1.3141614198684692,-2.1546316146850586,2.8058853149414062
1779909751830540300,6.817540283203125,-3.347198486328125,-1.4354372024536133,2.205472946166992
1779909751846870300,6.833870361328125,-4.2536725997924805,-0.8921375274658203,0.8319048285484314
1779909751863210800,6.850210693359375,-3.1713175773620605,-0.3358793258666992,0.11340564489364624
1779909751879535600,6.86653564453125,-2.577854633331299,-0.5757827758789062,-0.565578818321228
1779909751895873300,6.882873291015625,-2.372711658477783,-1.3983993530273438,-1.3922085762023926
1779909751912197400,6.899197265625,-2.122281312942505,-2.5619754791259766,-1.4372965097427368
1779909751928526800,6.91552685546875,-0.8694320917129517,-3.368135452270508,-1.6734380722045898
1779909751944874200,6.931874267578125,0.8266879916191101,-4.729962348937988,-2.1332345008850098
1779909751961181200,6.94818115234375,1.9419605731964111,-5.984825134277344,-4.006878852844238
1779909751977531000,6.96453076171875,1.5375986099243164,-5.371576309204102,-5.832575798034668
1779909751993868000,6.980867919921875,1.4994032382965088,-2.7913103103637695,-6.446391582489014
1779909752010198500,6.997198486328125,1.053591012954712,-0.5208244323730469,-6.0253424644470215
1779909752026532600,7.01353271484375,0.8229691982269287,0.0861368179321289,-3.559025526046753
1779909752042865000,7.029864990234375,-0.024506330490112305,-0.5824966430664062,-0.5079764723777771
1779909752059200500,7.046200439453125,0.7132267951965332,-0.08589744567871094,0.4188401401042938
1779909752075533800,7.062533935546875,1.0021839141845703,0.6134204864501953,0.5487734079360962
1779909752091884800,7.078884765625,1.2939748764038086,1.108633041381836,0.5973113179206848
1779909752108213500,7.095213623046875,-0.15375375747680664,1.8641228675842285,0.6708482503890991
1779909752124546000,7.111546142578125,-0.7482695579528809,2.1792502403259277,0.4732929766178131
1779909752140871000,7.127870849609375,0.3372080326080322,2.4130048751831055,0.4007833003997803
1779909752157199000,7.14419921875,1.616333246231079,2.882215976715088,0.20854857563972473
1779909752173541000,7.160541015625,2.164250135421753,3.3641433715820312,0.053897202014923096
1779909752189876700,7.176876708984375,2.114748477935791,3.742236614227295,-0.4375125765800476
1779909752206201000,7.193201171875,2.1006646156311035,4.525228977203369,-0.9806387424468994
1779909752222540000,7.2095400390625,2.09848952293396,5.2780375480651855,-1.0372376441955566
1779909752238914300,7.225914306640625,2.0772788524627686,5.119592666625977,-0.9225786924362183
1779909752255221000,7.242220947265625,1.6596596240997314,4.554298400878906,-0.7624180316925049
1779909752271541800,7.258541748046875,0.5625834465026855,4.002326488494873,-0.5342181921005249
1779909752287887400,7.274887451171875,-1.3388845920562744,2.9491348266601562,0.30611705780029297
1779909752304233000,7.29123291015625,-3.480433464050293,1.641026496887207,1.2915364503860474
1779909752320554200,7.30755419921875,-6.0212836265563965,0.4323415756225586,1.537358045578003
1779909752336888000,7.32388818359375,-9.875348091125488,-1.142791748046875,2.336561679840088
1779909752353223400,7.340223388671875,-9.63193416595459,-2.319981575012207,4.819708347320557
1779909752369539600,7.35653955078125,-3.556246042251587,-0.850407600402832,4.4016008377075195
1779909752385878500,7.37287841796875,-0.8462440967559814,0.13257312774658203,0.2790603041648865
1779909752402210800,7.3892109375,1.2258819341659546,-4.819231033325195,-3.465182065963745
1779909752418544600,7.405544677734375,4.334873199462891,-14.996479034423828,-6.133256435394287
1779909752434880500,7.421880615234375,-2.8522684574127197,-14.638036727905273,-12.714025497436523
1779909752451211300,7.438211181640625,2.131096363067627,0.33797168731689453,-7.982785701751709
1779909752467536600,7.45453662109375,2.42134428024292,4.910749435424805,-4.424830436706543
1779909752483867600,7.47086767578125,1.887423038482666,8.204469680786133,-4.588735103607178
1779909752500201500,7.487201416015625,6.883515357971191,6.50504732131958,-2.4293575286865234
1779909752516535300,7.503535400390625,12.506118774414062,1.3327560424804688,1.7227572202682495
1779909752532886800,7.51988671875,11.053352355957031,-1.9760932922363281,2.8895370960235596
1779909752549215000,7.536215087890625,6.175310134887695,-5.15770149230957,2.778090476989746
1779909752565536000,7.552535888671875,-3.829683780670166,-7.493415832519531,5.183667182922363
1779909752581885200,7.56888525390625,-6.677079677581787,-3.8550682067871094,4.167233943939209
1779909752598217000,7.585217041015625,-3.619513988494873,-0.02416229248046875,1.6754038333892822
1779909752614551000,7.601551025390625,-0.2388836145401001,0.4950885772705078,0.15613295137882233
1779909752630890500,7.617890380859375,0.8016432523727417,1.7902350425720215,-0.524280309677124
1779909752647223000,7.63422314453125,0.498909592628479,2.626720905303955,-0.6905745267868042
1779909752663565800,7.65056591796875,-1.2769896984100342,3.3007283210754395,-0.5497827529907227
1779909752679890700,7.666890625,-2.869306802749634,2.7207837104797363,-0.1312595158815384
1779909752696242200,7.6832421875,-2.2647228240966797,0.7537517547607422,-0.2408425509929657
1779909752712567600,7.699567626953125,-1.4749895334243774,0.4778633117675781,-0.0865422934293747
1779909752728891400,7.715891357421875,-2.05609130859375,0.94854736328125,-0.4823839068412781
1779909752745220900,7.732220947265625,-1.7569725513458252,1.7467374801635742,-0.3462269902229309
1779909752761557000,7.748556884765625,-2.356187105178833,2.6513261795043945,0.30502766370773315
1779909752777894700,7.764894775390625,-2.847810983657837,3.168846607208252,0.9905852675437927
1779909752794223400,7.781223388671875,-2.647414207458496,3.300739288330078,1.7053471803665161
1779909752810563300,7.797563232421875,-1.2618440389633179,3.0472450256347656,2.120535135269165
1779909752826898700,7.813898681640625,0.04481399059295654,3.215057849884033,1.346435546875
1779909752843241000,7.830240966796875,-0.0028262734413146973,3.0472731590270996,0.03046683967113495
1779909752859569000,7.84656884765625,-0.30146992206573486,2.372443675994873,-0.6293432712554932
1779909752875930400,7.862930419921875,-0.39972031116485596,1.6882877349853516,-0.7278285026550293
1779909752892241200,7.8792412109375,-0.39137375354766846,1.8666820526123047,-0.30717137455940247
1779909752908563200,7.895563232421875,-1.053231120109558,2.6198129653930664,-1.3476908206939697
1779909752924893400,7.9118935546875,-1.7532202005386353,3.0580501556396484,-1.003520131111145
1779909752941224400,7.928224365234375,-0.2827455997467041,2.749527931213379,0.949005126953125
1779909752957566000,7.94456591796875,0.8801063299179077,1.201507568359375,1.7117218971252441
1779909752973897000,7.96089697265625,0.6807690858840942,-0.3215465545654297,1.9995861053466797
1779909752990230000,7.97722998046875,1.32646906375885,-0.35906505584716797,2.653046131134033
1779909753006564900,7.99356494140625,0.4727897644042969,-0.17774391174316406,2.4419384002685547
1779909753022891800,8.009891845703125,-4.674999713897705,-2.1721134185791016,0.6145195960998535
1779909753039235600,8.026235595703126,-6.852783203125,-4.346044540405273,-0.8588247895240784
1779909753055554600,8.042554443359375,5.584596157073975,-6.517775535583496,-1.296608805656433
1779909753071900000,8.05889990234375,6.043880462646484,-6.223270893096924,-1.5356571674346924
1779909753088235000,8.075235107421875,3.4216887950897217,-3.882230281829834,-2.840254783630371
1779909753104565500,8.0915654296875,2.3913938999176025,-2.7807860374450684,-3.164154052734375
1779909753120905700,8.10790576171875,1.1868033409118652,-1.97505521774292,-1.5390788316726685
1779909753137235500,8.1242353515625,0.7612886428833008,0.030456066131591797,-1.129698395729065
1779909753153586200,8.140586181640625,0.828977108001709,3.1328516006469727,-1.1346486806869507
1779909753169918500,8.15691845703125,0.4794883728027344,4.590780258178711,-0.8356252908706665
1779909753186248700,8.173248779296875,-0.33373308181762695,5.257833003997803,-0.37294304370880127
1779909753202588000,8.189587890625,-1.1594767570495605,5.715797424316406,0.04785001277923584
1779909753218920000,8.205919921875,-2.3735227584838867,6.059687614440918,-0.30579233169555664
1779909753235253500,8.22225341796875,-2.5010814666748047,4.679170608520508,-0.5902100801467896
1779909753251583200,8.238583251953125,-1.5516419410705566,-0.20207691192626953,-1.3215835094451904
1779909753267922200,8.254922119140625,1.963188648223877,-0.6511077880859375,-0.04951071739196777
1779909753284254500,8.27125439453125,5.386927604675293,-0.8398017883300781,1.2447375059127808
1779909753300589600,8.287589599609374,4.221362590789795,-1.836256980895996,1.8096563816070557
1779909753316924700,8.303924560546875,1.159656286239624,-1.008601188659668,1.9707694053649902
1779909753333256000,8.320255859375,-1.0953131914138794,3.0906214714050293,-0.16143886744976044
1779909753349572600,8.336572509765626,-3.2114388942718506,4.94394588470459,0.0755692794919014
1779909753365909200,8.3529091796875,-1.899306297302246,6.568111419677734,0.19587767124176025
1779909753382243800,8.369243896484376,0.5171042680740356,5.136261463165283,-0.918048620223999
1779909753398578000,8.385577880859374,1.8538951873779297,0.8143672943115234,-1.8147231340408325
1779909753414912500,8.40191259765625,1.8536120653152466,-5.820418357849121,-3.4539833068847656
1779909753431244500,8.41824462890625,-0.20920848846435547,-10.496265411376953,-4.545644760131836
1779909753447580000,8.434579833984374,-4.637397289276123,-12.407371520996094,-3.4239933490753174
1779909753463913500,8.45091357421875,-3.1175408363342285,-12.660340309143066,-1.1957389116287231
1779909753480235300,8.4672353515625,-7.162247180938721,-16.455801010131836,-2.008185386657715
1779909753496569300,8.4835693359375,4.204316139221191,-2.3575048446655273,-1.438198208808899
1779909753512902700,8.499902587890626,4.937984466552734,2.025082588195801,1.4515256881713867
1779909753529258200,8.51625830078125,2.959548234939575,2.358729362487793,2.834678888320923
1779909753545589000,8.532589111328125,1.4086506366729736,1.9708871841430664,4.010635852813721
1779909753561908700,8.54890869140625,-1.5106077194213867,1.3412370681762695,4.644540309906006
1779909753578237700,8.56523779296875,-0.5999199151992798,-0.6527462005615234,4.192562103271484
1779909753594584600,8.58158447265625,0.6891762018203735,-0.8203220367431641,3.2218070030212402
1779909753610923800,8.597923828125,1.854668378829956,0.8718042373657227,1.6305240392684937
1779909753627257600,8.614257568359376,-1.6862080097198486,2.5741195678710938,-0.7299659252166748
1779909753643603000,8.63060302734375,-3.9429070949554443,3.6110143661499023,-2.42146635055542
1779909753659935700,8.646935791015625,0.522936224937439,3.9767279624938965,-2.7138473987579346
1779909753676265000,8.663264892578125,0.4253348112106323,4.196170330047607,-1.6857863664627075
1779909753692604700,8.679604736328125,-0.7084687948226929,4.3809967041015625,-1.4390251636505127
1779909753708937000,8.69593701171875,-1.2136132717132568,3.8984322547912598,-1.5325210094451904
1779909753725257000,8.712257080078125,-0.8009512424468994,2.58066463470459,-0.14468705654144287
1779909753741616400,8.728616455078125,0.5922480821609497,1.949509620666504,1.5926389694213867
1779909753757944800,8.74494482421875,0.6792937517166138,1.1123380661010742,2.4370975494384766
1779909753774268700,8.7612685546875,0.1658940315246582,0.7509098052978516,2.523167610168457
1779909753790610000,8.77760986328125,1.4417635202407837,0.46240901947021484,2.1478006839752197
1779909753806913800,8.793913818359375,1.9941829442977905,0.7222003936767578,1.099813461303711
1779909753823273000,8.81027294921875,-0.13130664825439453,-0.6191205978393555,0.5105798840522766
1779909753839612200,8.826612060546875,-3.0214691162109375,-4.752737998962402,0.36135655641555786
1779909753855936000,8.84293603515625,-4.294600963592529,-9.495194435119629,1.7037591934204102
1779909753872275700,8.859275634765625,-0.1188054084777832,-9.309869766235352,0.41491448879241943
1779909753888592600,8.875592529296876,1.4504828453063965,-6.373416423797607,-1.613635778427124
1779909753904934100,8.89193408203125,1.6365165710449219,-2.7593207359313965,-1.1727265119552612
1779909753921276000,8.90827587890625,1.1335539817810059,0.8939685821533203,-2.0981616973876953
1779909753937613600,8.924613525390624,-0.45423173904418945,2.3441405296325684,-2.318049430847168
1779909753953946400,8.9409462890625,0.005879878997802734,2.4693851470947266,-1.9871143102645874
1779909753970263300,8.95726318359375,1.18574857711792,3.024815559387207,-1.7564235925674438
1779909753986600200,8.97360009765625,2.0071420669555664,2.6590499877929688,-2.163018226623535
1779909754002930700,8.9899306640625,2.1726508140563965,2.4935526847839355,-1.6779078245162964
1779909754019271700,9.006271728515625,1.9523100852966309,2.668358325958252,-1.2164582014083862
1779909754035589000,9.022589111328125,2.1082003116607666,3.257106304168701,-0.9919905662536621
1779909754051936000,9.03893603515625,1.8676416873931885,4.180412292480469,-0.6917340755462646
1779909754068266500,9.0552666015625,1.257777214050293,5.032673358917236,0.15532124042510986
1779909754084623400,9.071623291015625,0.6979019641876221,5.573020935058594,1.1614421606063843
1779909754100950000,9.087949951171876,0.534217119216919,3.413935661315918,2.094959259033203
1779909754117269000,9.10426904296875,1.4922245740890503,-2.691103935241699,2.434399127960205
1779909754133606100,9.120606201171874,2.30468487739563,-0.33704090118408203,4.257946968078613
1779909754149939700,9.136939697265625,1.599359154701233,-1.717778205871582,5.928795337677002
1779909754166275800,9.15327587890625,-0.23063671588897705,-1.0967779159545898,4.629818439483643
1779909754182607600,9.169607666015626,-0.8582082986831665,1.885636806488037,-1.2357529401779175
1779909754198941200,9.185941162109375,-2.7567951679229736,1.8525981903076172,-3.7139806747436523
1779909754215291000,9.202290771484375,-10.675633430480957,1.829373836517334,-5.127256870269775
1779909754231614000,9.218614013671875,-12.036230087280273,-2.5878820419311523,-4.604841709136963
1779909754247962000,9.234962158203125,15.243195533752441,-1.8733758926391602,-2.06801700592041
1779909754264274400,9.2512744140625,19.121492385864258,-3.788773536682129,0.4127061069011688
1779909754280637000,9.267636962890625,-0.6370422840118408,-7.322887420654297,-1.620114803314209
1779909754296957400,9.28395751953125,-10.842669486999512,-5.577688217163086,-6.113809108734131
1779909754313292000,9.3002919921875,-0.1723623275756836,-4.563107490539551,0.7587991952896118
1779909754329626600,9.316626708984375,-3.8423147201538086,-9.114990234375,3.429231882095337
1779909754345944600,9.332944580078125,0.24015557765960693,-10.424306869506836,4.48157262802124
1779909754362290000,9.3492900390625,4.0780839920043945,-3.270172119140625,3.7273054122924805
1779909754378632700,9.3656328125,3.124897003173828,-1.0716428756713867,3.059025764465332
1779909754394970600,9.381970703125,1.534071683883667,1.5530166625976562,2.1030781269073486
1779909754411298800,9.398298828125,-0.20375394821166992,2.32344913482666,1.7125520706176758
1779909754427630000,9.414630126953124,-0.5217419862747192,2.2856292724609375,1.1150869131088257
1779909754443975000,9.430974853515625,0.5447554588317871,0.5797595977783203,-0.18522077798843384
1779909754460284400,9.447284423828124,-0.9088428020477295,-1.163365364074707,-1.0118663311004639
1779909754476606000,9.46360595703125,-1.4632514715194702,0.3803386688232422,-0.28633445501327515
1779909754492952800,9.479952880859376,-1.4743434190750122,2.5773000717163086,0.3231661319732666
1779909754509287200,9.496287109375,-0.5618705749511719,3.6133389472961426,0.06721174716949463
1779909754525607400,9.512607421875,1.0548319816589355,3.8319268226623535,-0.06055554747581482
1779909754541955600,9.52895556640625,0.817507803440094,4.149591445922852,-0.13398361206054688
1779909754558288100,9.5452880859375,-0.9253122806549072,4.922501564025879,-0.9562374949455261
1779909754574623200,9.561623291015625,-1.8398265838623047,3.667025566101074,-0.43731456995010376
1779909754590974500,9.577974365234375,-0.5266733169555664,2.823354721069336,0.8226104974746704
1779909754607288300,9.594288330078125,0.37191998958587646,1.4420385360717773,2.230180263519287
1779909754623638300,9.61063818359375,-0.03829693794250488,0.16477584838867188,3.15669584274292
1779909754639965700,9.626965576171875,-0.7608633041381836,-0.014100074768066406,2.9115352630615234
1779909754656307000,9.643306884765625,0.8650126457214355,-0.005530357360839844,2.1002416610717773
1779909754672636700,9.65963671875,1.9096899032592773,-0.4403553009033203,0.9399242997169495
1779909754688976100,9.67597607421875,-1.030139446258545,-1.2919492721557617,0.20765286684036255
1779909754705305900,9.692305908203124,-1.9209580421447754,-5.146474838256836,-0.2899620532989502
1779909754721635600,9.708635498046876,-0.6430325508117676,-7.588954925537109,0.7089310884475708
1779909754737998000,9.724998046875,1.260136604309082,-8.076435089111328,0.11507833003997803
1779909754754299000,9.741298828125,1.3415899276733398,-5.00468635559082,-0.8578087091445923
1779909754770648000,9.75764794921875,1.1451358795166016,-2.3769006729125977,-1.490670084953308
1779909754786978000,9.77397802734375,0.9422173500061035,-1.1928467750549316,-3.4827263355255127
1779909754803274500,9.7902744140625,-0.4998435974121094,-0.5809540748596191,-3.4319393634796143
1779909754819655200,9.8066552734375,-0.13090848922729492,-0.035831451416015625,-1.6582615375518799
1779909754835976400,9.8229765625,1.2311835289001465,1.1054158210754395,-0.796689510345459
1779909754852313300,9.839313232421874,2.2060294151306152,2.297220230102539,-0.577275276184082
1779909754868652000,9.855652099609374,2.7288384437561035,2.803893566131592,-1.4222910404205322
1779909754884981200,9.871981201171875,2.976991891860962,2.4872632026672363,-1.6050927639007568
1779909754901313300,9.888313232421876,3.0246164798736572,2.3856287002563477,-1.7549446821212769
1779909754917653800,9.90465380859375,2.5724852085113525,2.2398738861083984,-1.3616615533828735
1779909754933982200,9.920982177734375,1.8752336502075195,2.2283291816711426,-0.5878825187683105
1779909754950304800,9.9373046875,0.782616138458252,2.261321544647217,0.3767038583755493
1779909754966638600,9.953638671875,-0.42438840866088867,0.8807263374328613,1.2083852291107178
1779909754982972200,9.96997216796875,-0.7606334686279297,-0.5623006820678711,2.1524994373321533
1779909754999309000,9.98630908203125,-0.505692720413208,1.615196704864502,3.674253225326538
1779909755015639800,10.002639892578125,0.6628391742706299,2.4766454696655273,4.873940944671631
1779909755031974700,10.018974609375,1.0923407077789307,2.0826187133789062,4.723685264587402
1779909755048308500,10.03530859375,-0.7619082927703857,-0.10944938659667969,2.893112897872925
1779909755064647000,10.05164697265625,-2.3422858715057373,-0.013292312622070312,-1.3738545179367065
1779909755080971800,10.0679716796875,-3.083494186401367,-0.8570117950439453,-3.087094783782959
1779909755097324300,10.08432421875,-4.3821611404418945,0.37819957733154297,-4.063497066497803
1779909755113665000,10.1006650390625,-5.0050458908081055,2.6372756958007812,-3.7777373790740967
1779909755129990400,10.116990478515625,-3.19002628326416,4.100608825683594,-3.0180697441101074
1779909755146326300,10.133326171875,0.8473519682884216,4.404362678527832,-2.0928866863250732
1779909755162660400,10.149660400390625,6.251877307891846,2.8214993476867676,0.23583489656448364
1779909755178991900,10.165991943359375,7.432208061218262,-1.4027528762817383,3.0688459873199463
1779909755195328300,10.182328369140626,6.199038982391357,-1.5073890686035156,1.322824239730835
1779909755211651600,10.198651611328126,-4.911984443664551,-4.192920684814453,-0.3277629017829895
1779909755228005000,10.215005126953125,-8.210225105285645,-4.440548896789551,1.3043808937072754
1779909755244329700,10.231329833984375,0.25068676471710205,-5.0883636474609375,2.862668991088867
1779909755260664000,10.2476640625,-5.316716194152832,-14.26558780670166,1.4607932567596436
1779909755277019100,10.26401904296875,-3.1226344108581543,-12.271580696105957,0.39419880509376526
1779909755293333800,10.280333740234376,5.304482460021973,-1.4369220733642578,-3.2057688236236572
1779909755309666300,10.296666259765624,1.7586259841918945,0.883540153503418,-2.6585164070129395
1779909755326001000,10.3130009765625,0.6553429365158081,5.012196063995361,-0.7576671242713928
1779909755342316800,10.32931689453125,2.715066909790039,5.492617130279541,-0.004204154014587402
1779909755358653700,10.34565380859375,3.620981216430664,0.4376974105834961,-0.28882086277008057
1779909755374988500,10.361988525390625,1.2937039136886597,-2.9628829956054688,-0.5027687549591064
1779909755391300000,10.378300048828125,-6.2139458656311035,-4.189155578613281,-0.8414594531059265
1779909755407629300,10.39462939453125,-2.9908719062805176,-0.17910099029541016,1.286777377128601
1779909755423994000,10.410994140625,-0.45699548721313477,2.650318145751953,3.181474208831787
1779909755440324600,10.42732470703125,0.033440232276916504,3.0400586128234863,3.182910919189453
1779909755456658700,10.44365869140625,0.6172630786895752,4.256488800048828,-0.2701113820075989
1779909755472989000,10.459989013671875,-1.3006609678268433,4.425830364227295,-3.018566131591797
1779909755489330000,10.476329833984375,-2.001887559890747,2.80790376663208,-2.3989624977111816
1779909755505642000,10.49264208984375,0.11202621459960938,2.3477859497070312,-1.0555927753448486
1779909755521994200,10.508994140625,0.5501375198364258,1.960442066192627,0.5603485703468323
1779909755538330000,10.525330078125,0.8888669013977051,1.3136491775512695,1.3580613136291504
1779909755554661600,10.54166162109375,-0.4677250385284424,0.9807090759277344,1.2895500659942627
1779909755570995500,10.557995361328125,-0.22651386260986328,-1.3268327713012695,0.4762071371078491
1779909755587342300,10.57434228515625,0.9472842216491699,-5.117704391479492,1.1034547090530396
1779909755603677400,10.590677490234375,0.6716036796569824,-7.326600074768066,2.2908530235290527
1779909755620010500,10.607010498046876,0.4715757369995117,-6.1797332763671875,0.707306981086731
1779909755636325600,10.62332568359375,0.2953939437866211,-4.649659156799316,-1.2818249464035034
1779909755652667600,10.639667724609374,-1.776390552520752,-2.9219813346862793,-0.7824385166168213
1779909755668997000,10.6559970703125,0.4272031784057617,-0.28432512283325195,-2.1360955238342285
1779909755685337900,10.672337890625,-1.1350765228271484,2.5497307777404785,-3.2525768280029297
1779909755701659600,10.68865966796875,-1.4954071044921875,3.2051846981048584,-3.7058448791503906
1779909755718006300,10.70500634765625,0.7079868316650391,3.1203722953796387,-3.5565669536590576
1779909755734335500,10.72133544921875,1.488513469696045,2.972409248352051,-2.1623358726501465
1779909755750688000,10.73768798828125,2.666963577270508,2.6097278594970703,-1.5019183158874512
1779909755767019000,10.75401904296875,3.5165610313415527,3.0464558601379395,-1.263841152191162
1779909755783351300,10.770351318359374,3.7180352210998535,3.9386799335479736,-0.8844592571258545
1779909755799669000,10.7866689453125,3.338139057159424,4.545742511749268,-0.38503873348236084
1779909755816021800,10.803021728515626,2.4077320098876953,4.814261436462402,0.016793131828308105
1779909755832354800,10.819354736328124,1.7602686882019043,4.948050498962402,0.28186535835266113
1779909755848689200,10.835689208984375,1.5721759796142578,4.254550933837891,0.8291985392570496
1779909755865020000,10.85202001953125,1.6679970026016235,1.7097454071044922,1.5743645429611206
1779909755881362200,10.868362060546875,1.7791309356689453,-2.3131237030029297,1.75319242477417
1779909755897686000,10.88468603515625,1.0573713779449463,-0.5201072692871094,2.4545555114746094
1779909755914035700,10.90103564453125,-0.9162657260894775,-0.3002490997314453,2.017693519592285
1779909755930353000,10.917352783203125,-3.887817621231079,-1.5832500457763672,-0.3703124523162842
1779909755946676000,10.933676025390625,-7.83091926574707,-1.5794076919555664,-4.773177146911621
1779909755963013400,10.950013427734374,-12.59552001953125,-3.9033145904541016,-7.520457744598389
1779909755979348000,10.966347900390625,-8.199353218078613,-2.919985771179199,-5.340643405914307
1779909755995666200,10.982666259765624,-2.22529935836792,-5.305126190185547,-4.772296905517578
1779909756012017200,10.99901708984375,6.112755298614502,-4.223793983459473,-2.353337526321411
1779909756028349400,11.015349365234375,13.683548927307129,-4.346823692321777,1.777064561843872
1779909756044683300,11.031683349609375,13.114046096801758,-1.8956785202026367,1.5652679204940796
1779909756061016300,11.048016357421876,9.539888381958008,-4.934693336486816,-1.6524907350540161
1779909756077351200,11.06435107421875,4.815082550048828,-7.145586967468262,-5.011265277862549
1779909756093704000,11.080703857421875,-2.2805404663085938,-11.504135131835938,-1.6783736944198608
1779909756110029800,11.09702978515625,-1.4522703886032104,-10.578404426574707,0.8340184092521667
1779909756126371300,11.113371337890625,-3.847536087036133,-5.275413513183594,2.18342924118042
1779909756142702300,11.129702392578125,0.6903130412101746,-3.191298484802246,1.2225435972213745
1779909756159036000,11.146035888671875,2.858860969543457,-0.17974567413330078,-0.6332827806472778
1779909756175353300,11.162353271484376,7.131856918334961,1.1153221130371094,-2.779737949371338
1779909756191698000,11.178697998046875,7.194031715393066,1.3182973861694336,-4.605694770812988
1779909756208042000,11.1950419921875,3.8484585285186768,1.5201358795166016,-4.717352867126465
1779909756224377000,11.211377197265625,-2.7845003604888916,1.2627086639404297,-4.344851493835449
1779909756240709400,11.22770947265625,-0.40717124938964844,0.58148193359375,-1.0058196783065796
1779909756257023500,11.2440234375,3.615508556365967,0.7218923568725586,2.434046983718872
1779909756273358800,11.26035888671875,2.2377586364746094,1.3382692337036133,3.7499616146087646
1779909756289694500,11.276694580078125,-1.711104154586792,1.9267969131469727,4.51770544052124
1779909756306028800,11.29302880859375,-4.2157979011535645,1.4791631698608398,4.515370845794678
1779909756322362000,11.309362060546874,-3.6957309246063232,2.431269645690918,3.069047689437866
1779909756338695000,11.32569482421875,-2.981483221054077,2.7691216468811035,2.20619797706604
1779909756355047400,11.34204736328125,-1.3256982564926147,2.6593127250671387,1.9745290279388428
1779909756371377000,11.358376953125,-1.1035383939743042,1.7068405151367188,1.521611213684082
1779909756387716400,11.37471630859375,-1.9532649517059326,0.4621467590332031,2.0699777603149414
1779909756404046300,11.39104638671875,-1.9461467266082764,-0.260284423828125,2.7122232913970947
1779909756420380400,11.40738037109375,-1.8464953899383545,-0.6640396118164062,3.079192638397217
1779909756436693800,11.42369384765625,-2.3012962341308594,-1.7959156036376953,2.8608436584472656
1779909756453034200,11.4400341796875,-3.070601463317871,-2.2198400497436523,1.9883677959442139
1779909756469368600,11.45636865234375,-3.676201581954956,-1.1956605911254883,0.28119564056396484
1779909756485689900,11.47268994140625,-3.7538094520568848,-1.7364215850830078,-1.6448063850402832
1779909756502035700,11.48903564453125,-2.2236576080322266,-2.9752426147460938,-2.507396936416626
1779909756518370300,11.505370361328126,-1.7627896070480347,-3.36710262298584,-2.02278995513916
1779909756534705400,11.521705322265625,-1.0366921424865723,-3.588916778564453,-1.6246311664581299
1779909756551038000,11.538037841796875,-0.5317166447639465,-4.352110862731934,-1.5743975639343262
1779909756567373000,11.554373046875,-0.23827189207077026,-5.016757965087891,-2.768371105194092
1779909756583710700,11.570710693359375,-0.48933207988739014,-7.520205497741699,-4.785726547241211
1779909756600078300,11.587078369140626,2.2341156005859375,-8.169515609741211,-5.973055839538574
1779909756616380200,11.603380126953125,6.1092376708984375,-4.374912261962891,-7.336509704589844
1779909756632730400,11.61973046875,5.732830047607422,1.5019874572753906,-9.650641441345215
1779909756649060900,11.636060791015625,3.721181631088257,2.359829902648926,-5.897775650024414
1779909756665376800,11.652376708984375,-0.8906323909759521,0.3600015640258789,-0.3633689880371094
1779909756681695500,11.668695556640625,-0.9350388050079346,-0.38097667694091797,1.7749165296554565
1779909756698041600,11.68504150390625,-0.8643226623535156,-0.7206478118896484,2.873420238494873
1779909756714382800,11.7013828125,0.1708378791809082,-0.5841264724731445,3.3724982738494873
1779909756730710500,11.71771044921875,0.4861321449279785,0.7504005432128906,3.288703441619873
1779909756747052500,11.734052490234374,1.8038966655731201,1.4860801696777344,1.7655102014541626
1779909756763381200,11.75038134765625,3.0252842903137207,2.1792564392089844,0.6631096601486206
1779909756779703600,11.76670361328125,4.0499372482299805,3.0903401374816895,-0.038134217262268066
1779909756796049700,11.783049560546875,4.457979679107666,3.796814441680908,-0.629859447479248
1779909756812414200,11.799414306640625,4.0764899253845215,4.298450469970703,-1.0432833433151245
1779909756828732400,11.815732421875,3.245488166809082,5.07343864440918,-1.1598279476165771
1779909756845070000,11.832070068359375,3.051027774810791,5.914340019226074,-1.3032844066619873
1779909756861394400,11.84839453125,2.4862048625946045,6.468405723571777,-1.596062421798706
1779909756877737500,11.864737548828124,1.0374336242675781,5.964286804199219,-1.4965864419937134
1779909756894069800,11.88106982421875,-0.23910999298095703,5.002766132354736,-0.9675103425979614
1779909756910402000,11.897402099609375,-1.6038079261779785,4.067086219787598,-0.36769163608551025
1779909756926721000,11.913720947265626,-3.7419497966766357,2.457258701324463,0.4614261984825134
1779909756943054600,11.9300546875,-7.011516571044922,-0.7486343383789062,1.110297441482544
1779909756959391000,11.946390869140625,-11.525540351867676,-4.796076774597168,2.3167037963867188
1779909756975708400,11.96270849609375,-9.378988265991211,-7.1113433837890625,5.195897102355957
1779909756992045800,11.9790458984375,-4.239103317260742,-3.329050064086914,3.1283984184265137
1779909757008380400,11.99538037109375,-2.5772037506103516,-0.16776466369628906,-0.34833043813705444
1779909757024714800,12.01171484375,-0.3383371829986572,-1.602797508239746,-2.6386983394622803
1779909757041049000,12.028049072265626,1.1216959953308105,-5.702293395996094,-4.848381996154785
1779909757057382100,12.044382080078124,3.198564052581787,-11.42086124420166,-6.933986186981201
1779909757073717200,12.06071728515625,2.9641082286834717,-8.2517671585083,-11.21081256866455
1779909757090051600,12.077051513671876,2.5669844150543213,1.0017881393432617,-6.576944828033447
1779909757106384000,12.0933837890625,3.978807210922241,5.358275413513184,-3.058875799179077
1779909757122719200,12.10971923828125,3.015599250793457,7.047182083129883,-3.0160439014434814
1779909757139052800,12.126052734375,6.289763450622559,5.518161773681641,-1.60537588596344
1779909757155387000,12.142386962890624,10.889265060424805,2.7167091369628906,1.8148958683013916
1779909757171720000,12.158719970703125,11.001936912536621,0.1041250228881836,3.934110641479492
1779909757188056300,12.175056396484376,7.345142364501953,-6.281475067138672,4.278600692749023
1779909757204390100,12.19139013671875,-5.625167369842529,-9.156791687011719,5.383184909820557
1779909757220726000,12.20772607421875,-9.054825782775879,-3.691542625427246,3.9464032649993896
1779909757237056800,12.224056884765625,-1.5541701316833496,0.6505527496337891,0.9634178876876831
1779909757253390600,12.240390625,1.8928924798965454,1.235184669494629,-0.7738275527954102
1779909757269725000,12.256724853515625,0.9109929800033569,1.4661197662353516,-1.2399410009384155
1779909757286059800,12.273059814453125,1.0423893928527832,2.1707305908203125,-1.5235950946807861
1779909757302393300,12.289393310546876,-0.38035011291503906,2.552598476409912,-1.2949117422103882
1779909757318728200,12.305728271484375,-2.5797536373138428,2.162595748901367,-0.6148093938827515
1779909757335062300,12.322062255859375,-1.7994376420974731,1.29779052734375,-0.8718289136886597
1779909757351396600,12.338396728515624,-0.6583065986633301,1.4268341064453125,-1.9057221412658691
1779909757367736600,12.354736572265624,-0.7300535440444946,1.6056337356567383,-2.207172155380249
1779909757384063700,12.371063720703125,-1.081428050994873,2.0069994926452637,-1.4662201404571533
1779909757400398600,12.387398681640626,-0.8711689710617065,2.8552656173706055,-0.571562647819519
1779909757416747800,12.403747802734374,-1.0408629179000854,3.5043039321899414,0.37964245676994324
1779909757433078800,12.420078857421874,-1.8696961402893066,3.6642203330993652,1.0936521291732788
1779909757449413400,12.436413330078125,-1.7771114110946655,3.1396241188049316,1.6935116052627563
1779909757465734000,12.45273388671875,-0.051221609115600586,2.6576318740844727,2.0879428386688232
1779909757482081800,12.469081787109374,1.246456265449524,3.23874568939209,2.934901475906372
1779909757498415000,12.4854150390625,0.6229536533355713,3.675579071044922,2.5436768531799316
1779909757514750000,12.50175,-2.203184127807617,3.6203088760375977,-0.97642582654953
1779909757531074000,12.518073974609376,-3.2785847187042236,3.120974063873291,-2.2436294555664062
1779909757547417300,12.534417236328125,-0.9548420906066895,2.325467109680176,-0.492836058139801
1779909757563751400,12.55075146484375,0.7208350896835327,1.2748126983642578,1.1932765245437622
1779909757580086000,12.5670859375,1.1807142496109009,-0.05681610107421875,2.040987968444824
1779909757596426500,12.583426513671874,1.4965283870697021,0.4920845031738281,2.2293179035186768
1779909757612767200,12.599767333984374,1.8538916110992432,1.7386541366577148,1.3414654731750488
1779909757629098000,12.616097900390624,2.9623608589172363,2.0356550216674805,0.23719221353530884
1779909757645444000,12.632444091796875,0.41216039657592773,2.3371500968933105,-1.0903443098068237
1779909757661763300,12.648763427734375,-7.747430324554443,-0.3817319869995117,-3.37851881980896
1779909757678108000,12.66510791015625,1.6154954433441162,-7.8217573165893555,-4.4036078453063965
1779909757694423800,12.681423828125,3.539468765258789,-9.276449203491211,-2.5658020973205566
1779909757710792700,12.697792724609375,1.8152976036071777,-5.431414604187012,-0.3066931962966919
1779909757727103200,12.714103271484374,1.6266307830810547,-4.9117431640625,-0.8935553431510925
1779909757743444500,12.730444580078125,-0.7663106918334961,-2.8420910835266113,-1.5678249597549438
1779909757759774000,12.74677392578125,-1.8356428146362305,-1.3110899925231934,-1.3767623901367188
1779909757776092000,12.763091796875,-1.1173796653747559,0.4231290817260742,-1.3810393810272217
1779909757792428500,12.779428466796874,-0.25741100311279297,2.1156458854675293,-1.5733739137649536
1779909757808763000,12.795762939453125,0.49552249908447266,3.683886766433716,-2.536048412322998
1779909757825096700,12.8120966796875,1.1307992935180664,3.0973587036132812,-2.6418423652648926
1779909757841428700,12.8284287109375,1.360872745513916,2.9241275787353516,-2.2363152503967285
1779909757857765000,12.84476513671875,0.2661323547363281,2.3024039268493652,-2.53281307220459
1779909757874115300,12.861115234375,-1.9568943977355957,-0.38710880279541016,-3.0267086029052734
1779909757890444500,12.877444580078125,-5.348574638366699,-0.3984956741333008,-2.126772880554199
1779909757906761000,12.893760986328125,-4.17421817779541,1.5915093421936035,-0.10247832536697388
1779909757923107000,12.910107177734375,1.0192320346832275,3.1862192153930664,2.2154297828674316
1779909757939436300,12.926436279296874,4.2599897384643555,4.235157012939453,4.495521545410156
1779909757955769900,12.942769775390625,4.2804131507873535,3.891531467437744,5.815052509307861
1779909757972103000,12.95910302734375,0.9165703058242798,4.837675094604492,4.864469051361084
1779909757988435200,12.975435302734375,-0.31973159313201904,8.083196640014648,1.5639196634292603
1779909758004775700,12.991775634765625,-0.42527449131011963,7.891140937805176,0.022066161036491394
1779909758021110800,13.00811083984375,-0.4381747245788574,5.779224395751953,-1.111221194267273
1779909758037439700,13.024439697265626,-0.3584165573120117,-0.8241157531738281,-2.9126107692718506
1779909758053771500,13.040771484375,-0.33487772941589355,-10.802806854248047,-5.70548677444458
1779909758070112000,13.057112060546874,-4.491707801818848,-18.85894012451172,-9.428906440734863
1779909758086442000,13.07344189453125,-3.124741792678833,-11.484904289245605,-8.788570404052734
1779909758102792200,13.089792236328124,8.134001731872559,-6.78536319732666,-1.9359548091888428
1779909758119125200,13.106125244140625,-6.102004528045654,-11.934758186340332,3.6573171615600586
1779909758135442400,13.1224423828125,-1.6430758237838745,-2.3917617797851562,2.577145576477051
1779909758151771400,13.138771484375,3.6372323036193848,1.1177034378051758,1.8573215007781982
1779909758168153000,13.155153076171874,2.9258458614349365,0.9114522933959961,2.607323169708252
1779909758184483000,13.171483154296874,-0.5466580390930176,0.583317756652832,4.699966907501221
1779909758200796000,13.1877958984375,-0.9915263652801514,0.3926706314086914,4.4918107986450195
1779909758217128400,13.20412841796875,1.0877299308776855,-1.2802848815917969,3.4588100910186768
1779909758233459200,13.220459228515624,1.2098021507263184,-2.4285049438476562,2.886441946029663
1779909758249780500,13.236780517578126,0.13446789979934692,-0.6034326553344727,1.3918607234954834
1779909758266115800,13.25311572265625,-2.8869707584381104,2.2365307807922363,-1.3086144924163818
1779909758282438700,13.269438720703125,-3.801450729370117,2.845700263977051,-2.957932949066162
1779909758298783200,13.285783203125,-0.3913980722427368,4.010325908660889,-2.8658430576324463
1779909758315121700,13.30212158203125,0.26518094539642334,4.901650428771973,-2.511544942855835
1779909758331451400,13.318451416015625,-0.5178917646408081,4.802137851715088,-2.5378990173339844
1779909758347792000,13.3347919921875,-1.6977825164794922,4.349775791168213,-1.98032546043396
1779909758364119300,13.351119384765624,-0.8776568174362183,3.466733932495117,-0.8574990034103394
1779909758380469800,13.3674697265625,0.3678358793258667,1.8976030349731445,1.1448864936828613
1779909758396788200,13.383788330078126,0.346362829208374,0.6638040542602539,2.4101505279541016
1779909758413123600,13.40012353515625,-1.0986170768737793,0.3001546859741211,2.0907227993011475
1779909758429458400,13.41645849609375,0.2575831413269043,-0.2673158645629883,1.4162917137145996
1779909758445780500,13.432780517578125,2.6564388275146484,0.2930469512939453,1.1831161975860596
1779909758462126800,13.449126953125,1.711899757385254,0.44525623321533203,1.0330473184585571
1779909758478460700,13.465460693359375,-0.320864200592041,-2.49365234375,0.019248485565185547
1779909758494795800,13.481795654296874,-0.1471247673034668,-6.3921661376953125,0.22962462902069092
1779909758511134000,13.498134033203126,0.7647027969360352,-6.308492660522461,1.5408324003219604
1779909758527463000,13.514462890625,1.7074337005615234,-3.864974021911621,1.6276764869689941
1779909758543797200,13.53079736328125,0.5394759178161621,-1.9809784889221191,1.372003197669983
1779909758560130800,13.547130859375,-0.8654689788818359,-0.9184346199035645,-1.6021769046783447
1779909758576461800,13.5634619140625,-3.2812294960021973,-0.8808159828186035,-4.364770889282227
1779909758592793900,13.5797939453125,-2.8788704872131348,-0.8499135971069336,-4.47078800201416
1779909758609130800,13.596130859375,-0.6168017387390137,0.5263161659240723,-2.493932008743286
1779909758625465300,13.61246533203125,1.7281889915466309,1.9844069480895996,-1.238084077835083
1779909758641811200,13.628811279296874,2.124783515930176,2.8767666816711426,-0.26454687118530273
1779909758658136800,13.64513671875,2.1648788452148438,3.883974313735962,0.015434861183166504
1779909758674484200,13.661484130859375,2.793825387954712,4.48381233215332,-0.3340803384780884
1779909758690810000,13.67781005859375,2.917102336883545,5.085807800292969,-0.6719393730163574
1779909758707135000,13.694135009765626,2.284339666366577,4.97321891784668,-0.8102126121520996
1779909758723487500,13.710487548828125,1.5494229793548584,2.601044178009033,-0.49952006340026855
1779909758739819300,13.7268193359375,1.0971155166625977,0.20102977752685547,0.3365745544433594
1779909758756142600,13.743142578125,2.4170234203338623,1.832207202911377,2.0818686485290527
1779909758772474600,13.759474609375,3.849285125732422,3.073655605316162,3.3213090896606445
1779909758788816600,13.775816650390626,2.5311734676361084,1.3391637802124023,3.6419153213500977
1779909758805142300,13.792142333984375,-0.9196709394454956,-1.8968172073364258,2.59452486038208
1779909758821473500,13.8084736328125,-2.7788608074188232,-0.5219869613647461,-1.5981812477111816
1779909758837815000,13.82481494140625,-2.080376386642456,0.7104225158691406,-2.954030990600586
1779909758854163000,13.841162841796875,-6.156058311462402,2.276844024658203,-3.1617588996887207
1779909758870491100,13.8574912109375,-10.162095069885254,2.552694797515869,-4.044979095458984
1779909758886813000,13.87381298828125,-9.72465991973877,1.1347026824951172,-4.780431747436523
1779909758903146000,13.89014599609375,5.944202899932861,-0.5757598876953125,-2.713498830795288
1779909758919471400,13.906471435546875,16.720937728881836,-1.438131332397461,1.7632416486740112
1779909758935817200,13.922817138671874,14.200648307800293,-6.033024787902832,2.290236711502075
1779909758952150500,13.939150634765625,0.9770647287368774,-11.396707534790039,-2.0058188438415527
1779909758968483800,13.95548388671875,-22.447845458984375,-11.06794548034668,-4.48964262008667
1779909758984819000,13.97181884765625,-1.2136507034301758,-7.977083206176758,1.4380385875701904
1779909759001167600,13.988167724609376,8.952644348144531,-6.733280181884766,2.0595383644104004
1779909759017485800,14.00448583984375,2.8801345825195312,-2.0022335052490234,0.738658607006073
1779909759033821400,14.020821533203126,-0.9893981218338013,0.7654142379760742,1.4256083965301514
1779909759050154500,14.037154541015624,0.11716043949127197,1.720832347869873,2.378709554672241
1779909759066488800,14.05348876953125,2.93538761138916,0.9935770034790039,2.2460532188415527
1779909759082822400,14.069822509765626,0.5490366816520691,-1.2482023239135742,1.9596121311187744
1779909759099173600,14.086173583984374,-1.8465690612792969,-1.504714012145996,-0.32721227407455444
1779909759115489300,14.1024892578125,-0.5684597492218018,0.2087259292602539,-1.1211379766464233
1779909759131834000,14.118834228515626,-1.6953604221343994,0.7041740417480469,-0.41477686166763306
1779909759148152000,14.135152099609375,-2.194788694381714,0.8183078765869141,0.19428671896457672
1779909759164453000,14.151453125,-1.161144495010376,1.1484308242797852,0.22289006412029266
1779909759180812800,14.167812744140624,0.8826545476913452,1.9746623039245605,-0.15592435002326965
1779909759197164500,14.18416455078125,0.3883183002471924,3.272556781768799,-0.09316594898700714
1779909759213483500,14.2004833984375,-1.1259560585021973,4.332488536834717,-0.7694456577301025
1779909759229831400,14.21683154296875,-2.5746777057647705,4.5375542640686035,-1.7405177354812622
1779909759246163700,14.233163818359374,-1.4023066759109497,2.2697134017944336,-0.40652576088905334
1779909759262494500,14.249494384765624,0.22000110149383545,1.4955368041992188,1.0943691730499268
1779909759278833700,14.265833740234376,0.035135626792907715,1.2599916458129883,1.822334885597229
1779909759295166000,14.282166015625,-0.34131312370300293,1.4154682159423828,1.9094003438949585
1779909759311512600,14.2985126953125,0.7233889102935791,1.5176043510437012,1.635737657546997
1779909759327833600,14.31483349609375,2.7635538578033447,1.39699125289917,0.7691847085952759
1779909759344182300,14.331182373046875,-1.131582260131836,0.9208354949951172,0.7177718877792358
1779909759360515600,14.347515625,-1.6907262802124023,-3.0746116638183594,0.6684091687202454
1779909759376844500,14.363844482421875,-0.4179658889770508,-7.086665153503418,2.4393980503082275
1779909759393167400,14.38016748046875,1.7932429313659668,-6.552101135253906,2.7416439056396484
1779909759409504800,14.3965048828125,2.8500638008117676,-4.11542272567749,0.9188493490219116
1779909759425837800,14.412837890625,1.0574665069580078,-1.944227695465088,-0.8387982845306396
1779909759442168800,14.4291689453125,-0.08387088775634766,-0.0765523910522461,-1.6358383893966675
1779909759458511000,14.445510986328125,-0.745175838470459,2.200493812561035,-1.2913110256195068
1779909759474835700,14.461835693359374,-0.9506974220275879,4.814981460571289,-1.4367718696594238
1779909759491171600,14.478171630859375,-0.21916818618774414,4.8285675048828125,-1.7990660667419434
1779909759507509800,14.494509765625,1.3249950408935547,4.306363105773926,-1.8451218605041504
1779909759523845000,14.51084521484375,1.5324349403381348,4.425408363342285,-1.379638433456421
1779909759540177400,14.527177490234376,2.2331316471099854,4.9041748046875,-1.393442153930664
1779909759556519400,14.54351953125,2.3695032596588135,5.179234027862549,-1.3081711530685425
1779909759572845600,14.559845458984375,2.3182313442230225,5.502688884735107,-1.41227126121521
1779909759589175300,14.57617529296875,0.47757744789123535,4.475042343139648,-1.3740625381469727
1779909759605534500,14.592534423828125,-1.1980924606323242,1.7709150314331055,-0.8238025903701782
1779909759621860400,14.6088603515625,-1.450333595275879,-6.271363258361816,-0.8368607759475708
1779909759638179000,14.625178955078125,-0.3126966953277588,-2.9140701293945312,2.34059476852417
1779909759654530300,14.6415302734375,2.5682196617126465,0.6756067276000977,4.4250407218933105
1779909759670859000,14.65785888671875,2.3955366611480713,0.9621810913085938,4.631619453430176
1779909759687198200,14.6741982421875,0.4041253924369812,3.2616467475891113,1.6601872444152832
1779909759703537400,14.690537353515625,-1.6289172172546387,4.965901851654053,-2.5554137229919434
1779909759719869000,14.706868896484375,-7.158780574798584,2.8350844383239746,-3.727424144744873
1779909759736193300,14.723193359375,-9.058096885681152,-3.12874698638916,-3.560692310333252
1779909759752531200,14.73953125,3.772275924682617,-6.226339340209961,-3.436450958251953
1779909759768868600,14.75586865234375,12.478500366210938,-5.775740623474121,-2.903371810913086
1779909759785205500,14.77220556640625,1.7757563591003418,-6.954958915710449,-3.7087087631225586
1779909759801535500,14.788535400390625,-3.8205931186676025,-3.598602294921875,-4.95576810836792
1779909759817869600,14.80486962890625,1.518473744392395,-3.4635629653930664,0.5861814022064209
1779909759834204400,14.821204345703125,-6.916594505310059,-10.545065879821777,2.048013687133789
1779909759850524200,14.837524169921876,-0.35516566038131714,-7.778900146484375,1.6118472814559937
1779909759866860500,14.853860595703125,3.7657501697540283,-2.728226661682129,0.3153650760650635
1779909759883182600,14.8701826171875,2.019909381866455,0.9243869781494141,-0.0011168718338012695
1779909759899515400,14.886515380859375,2.753314256668091,2.8752217292785645,-0.07864254713058472
1779909759915866600,14.90286669921875,1.9598405361175537,2.4888243675231934,-0.15554112195968628
1779909759932202000,14.919201904296875,-0.6598003506660461,1.1594762802124023,-0.8704240322113037
1779909759948531700,14.93553173828125,-0.05340081453323364,-0.6849279403686523,-1.7266020774841309
1779909759964865800,14.95186572265625,-0.14434590935707092,-1.1581430435180664,-1.0011239051818848
1779909759981197300,14.968197265625,-2.0247185230255127,0.1044759750366211,0.5524469614028931
1779909759997532200,14.9845322265625,-3.233877420425415,1.391585350036621,1.779848337173462
1779909760013868800,15.000868896484375,-2.7016053199768066,1.882418155670166,1.0392652750015259
1779909760030200000,15.017199951171875,-1.6753970384597778,2.6615171432495117,-0.10746371746063232
1779909760046519000,15.03351904296875,-1.2398202419281006,4.229556560516357,0.2930023670196533
1779909760062871000,15.04987109375,-1.2460424900054932,5.0922675132751465,0.1440456658601761
1779909760079203600,15.06620361328125,-1.4431321620941162,5.152640342712402,-0.2812972962856293
1779909760095537200,15.082537109375,-1.1016521453857422,2.8818230628967285,0.5755012035369873
1779909760111881000,15.098880859375,1.3124107122421265,1.8362030982971191,0.9456498622894287
1779909760128205600,15.11520556640625,1.2595858573913574,1.0381240844726562,1.090378999710083
1779909760144539600,15.13153955078125,0.8461527824401855,1.4302301406860352,0.5357664823532104
1779909760160876500,15.14787646484375,-1.661409854888916,1.4515142440795898,-1.3278146982192993
1779909760177207800,15.164207763671875,-4.780656814575195,-5.036129951477051,-2.8060474395751953
1779909760193540900,15.180540771484376,-2.457608461380005,-9.762425422668457,-1.4395538568496704
1779909760209863400,15.196863525390626,-1.0456640720367432,-9.971632957458496,-1.3522160053253174
1779909760226210600,15.21321044921875,-3.016221761703491,-7.327292442321777,-3.4988622665405273
1779909760242540500,15.22954052734375,-5.221560001373291,-7.347087860107422,-3.7814414501190186
1779909760258882800,15.2458828125,-4.299088001251221,-8.863357543945312,-1.9635169506072998
1779909760275212500,15.262212646484375,-0.9479036331176758,-6.807172775268555,-1.7308893203735352
1779909760291533300,15.278533203125,-1.406954288482666,-3.7585325241088867,-1.4086594581604004
1779909760307867000,15.294866943359375,-0.8924145698547363,-2.4937353134155273,-0.8638688921928406
1779909760324215600,15.311215576171875,0.825631856918335,-1.8877992630004883,-1.739412546157837
1779909760340549400,15.32754931640625,1.94620680809021,-0.4582796096801758,-2.282642364501953
1779909760356883700,15.3438837890625,2.1437370777130127,1.964226245880127,-1.6805524826049805
1779909760373203700,15.36020361328125,2.968888282775879,3.972759246826172,-1.0274335145950317
1779909760389551000,15.376551025390626,3.4652304649353027,5.348599910736084,-0.6669852137565613
1779909760405886700,15.39288671875,3.431713819503784,5.9289164543151855,-0.2635873556137085
1779909760422216400,15.409216552734375,3.4575746059417725,5.914792060852051,0.3414321541786194
1779909760438543600,15.425543701171875,2.9935131072998047,6.3376617431640625,0.8128790855407715
1779909760454874400,15.441874267578125,2.69122314453125,7.330906867980957,0.8177075386047363
1779909760471208700,15.458208740234374,1.8293137550354004,8.164999008178711,0.2828630208969116
1779909760487540000,15.4745400390625,0.6981539726257324,8.34500789642334,-0.4710969924926758
1779909760503877400,15.49087744140625,-0.8260912895202637,6.878757476806641,-0.221635639667511
1779909760520211500,15.50721142578125,-1.3773529529571533,2.775149345397949,0.1196998655796051
1779909760536551700,15.5235517578125,-5.690242767333984,-6.69888973236084,-0.8098569512367249
1779909760552877000,15.539876953125,-12.907811164855957,-11.42077350616455,2.8078832626342773
1779909760569217300,15.55621728515625,-8.831884384155273,-4.262883186340332,1.6580650806427002
1779909760585547000,15.572547119140625,-4.645745754241943,1.7090954780578613,-2.422133684158325
1779909760601883100,15.588883056640626,0.7303681373596191,1.42236328125,-5.988019943237305
1779909760618216000,15.6052158203125,5.512216567993164,-8.426226615905762,-7.32890510559082
1779909760634551800,15.6215517578125,5.51657247543335,-24.535167694091797,-9.430517196655273
1779909760650887400,15.637887451171874,-1.1559839248657227,-12.013086318969727,-10.736490249633789
1779909760667218000,15.654218017578126,0.6126329898834229,0.8203144073486328,-1.7350740432739258
1779909760683553000,15.670552978515625,7.275081634521484,7.236509323120117,-0.09598781168460846
1779909760699886800,15.686886962890625,5.715249061584473,10.13260555267334,-1.080058217048645
1779909760716224000,15.70322412109375,5.351751327514648,7.182167053222656,-2.71714186668396
1779909760732555000,15.719554931640625,8.954483032226562,4.375299453735352,-3.613476514816284
1779909760748890000,15.73589013671875,8.026034355163574,1.2164068222045898,-3.7850723266601562
1779909760765222400,15.752222412109376,5.860492706298828,-6.017767906188965,-3.4741196632385254
1779909760781557500,15.7685576171875,0.9731946587562561,-6.938223838806152,0.9966179132461548
1779909760797891800,15.784891845703125,-2.381704807281494,-4.546913146972656,3.747013568878174
1779909760814228000,15.80122802734375,1.4787074327468872,0.21465492248535156,1.686745047569275
1779909760830560300,15.817560302734375,5.607086181640625,0.5697088241577148,-0.2161111831665039
1779909760846893600,15.8338935546875,5.453549385070801,0.4288597106933594,-1.3112046718597412
1779909760863228000,15.850227783203126,4.227962970733643,1.046295166015625,-2.893620491027832
1779909760879563300,15.866563232421875,0.8268808126449585,0.8853311538696289,-3.179352283477783
1779909760895897000,15.88289697265625,-0.2904583215713501,0.6703567504882812,-2.459808826446533
1779909760912230700,15.899230712890626,0.5597494840621948,-0.2694368362426758,-1.062990665435791
1779909760928579600,15.91557958984375,2.118053436279297,-0.7599058151245117,0.04933428764343262
1779909760944911400,15.931911376953124,3.2446744441986084,-1.1721038818359375,0.7229433059692383
1779909760961243400,15.948243408203124,2.8412580490112305,-0.7214069366455078,1.3219460248947144
1779909760977578800,15.964578857421875,0.8341856002807617,0.07277393341064453,1.7348353862762451
1779909760993913900,15.980913818359374,-0.9347687363624573,0.7861003875732422,1.9299086332321167
1779909761010247700,15.99724755859375,-1.3370567560195923,0.5501718521118164,2.140953540802002
1779909761026568000,16.01356787109375,-1.3884656429290771,0.11810970306396484,2.3356618881225586
1779909761042915300,16.029915283203124,-1.3357114791870117,0.15481948852539062,2.664302110671997
1779909761059249700,16.046249755859375,-2.5674943923950195,0.34153270721435547,2.7507119178771973
1779909761075584300,16.062584228515625,-2.674435615539551,0.9926586151123047,2.141371250152588
1779909761091915800,16.078915771484375,-2.7528302669525146,0.9317855834960938,1.7462801933288574
1779909761108261000,16.09526123046875,-2.942404270172119,0.9395313262939453,1.5615116357803345
1779909761124595700,16.111595703125,-2.7259788513183594,0.6537332534790039,1.6059366464614868
1779909761140937700,16.127937744140624,-2.056755304336548,0.9420547485351562,1.7056939601898193
1779909761157269500,16.14426953125,-1.8335163593292236,1.2851448059082031,1.9457659721374512
1779909761173596700,16.1605966796875,-2.0538017749786377,1.3740463256835938,2.051135540008545
1779909761189940500,16.1769404296875,-2.1116340160369873,1.0874595642089844,1.8753865957260132
1779909761206280700,16.19328076171875,-2.267676830291748,0.2353506088256836,1.7844088077545166
1779909761222600400,16.209600341796875,-2.5566887855529785,-0.4433107376098633,1.5745196342468262
1779909761238925000,16.225925048828124,-2.964071273803711,-0.8049306869506836,1.1900594234466553
1779909761255258600,16.242258544921874,-3.1446571350097656,-1.0308990478515625,0.795365571975708
1779909761271591700,16.258591796875,-2.419034004211426,-2.599806785583496,-0.07037808746099472
1779909761287917800,16.274917724609374,-0.27891087532043457,-3.385798454284668,-0.740920901298523
1779909761304261400,16.291261474609374,-0.25078362226486206,-3.0286378860473633,-0.4638643264770508
1779909761320578600,16.30757861328125,-0.4991098642349243,-3.1639366149902344,-0.43629610538482666
1779909761336929500,16.323929443359376,-0.3708950877189636,-3.281466484069824,-1.1815681457519531
1779909761353262000,16.340261962890626,-0.4922575354576111,-2.7773990631103516,-3.311084508895874
1779909761369584000,16.356584228515626,0.034572601318359375,-3.570855140686035,-4.686897277832031
1779909761385931800,16.372931884765624,1.3742082118988037,-3.43332576751709,-4.2756171226501465
1779909761402262500,16.389262451171874,2.244318723678589,-2.99668025970459,-3.825249195098877
1779909761418602800,16.405602783203125,3.3311800956726074,-3.847161293029785,-3.980377435684204
1779909761434933800,16.421933837890624,3.1906511783599854,-4.0645904541015625,-3.689725160598755
1779909761451266600,16.4382666015625,1.9476227760314941,-1.3937311172485352,-3.5586910247802734
1779909761467602000,16.454601806640625,-0.4313623905181885,1.826786994934082,-2.250622034072876
1779909761483936000,16.47093603515625,0.308488130569458,1.4733519554138184,-0.2159690260887146
1779909761500285400,16.487285400390626,0.8963279724121094,0.24952220916748047,0.9827563166618347
1779909761524768800,16.511768798828125,0.7295515537261963,0.19334125518798828,1.0178190469741821
1779909761541107200,16.528107177734373,0.3689079284667969,0.3554391860961914,0.7122001647949219
1779909761557428000,16.544427978515625,1.1186094284057617,0.9132633209228516,0.43280717730522156
1779909761573766100,16.56076611328125,3.211801528930664,1.7866840362548828,0.2829606235027313
1779909761590108200,16.577108154296877,3.320358991622925,2.7650537490844727,0.19451740384101868
1779909761606442000,16.59344189453125,3.325643301010132,3.799830436706543,-0.11901485919952393
1779909761622776800,16.60977685546875,3.324650764465332,4.857017517089844,-0.4290107488632202
1779909761639109600,16.626109619140625,2.9964540004730225,5.6872663497924805,-0.5852097272872925
1779909761655435500,16.642435546875,2.444687843322754,5.481373310089111,-0.2749382257461548
1779909761671777000,16.658777099609374,1.7264137268066406,4.389936923980713,0.1431746482849121
1779909761688113400,16.675113525390625,0.952439546585083,2.8094797134399414,0.3056612014770508
1779909761704446500,16.691446533203123,0.14066410064697266,1.3203039169311523,0.2144002914428711
1779909761720786700,16.70778662109375,-0.45729732513427734,0.08203315734863281,0.3781219720840454
1779909761737128000,16.7241279296875,-0.5582914352416992,-1.723790168762207,0.9724060297012329
1779909761753446400,16.7404462890625,-0.16393613815307617,-1.0194931030273438,0.7650133967399597
1779909761769793800,16.756793701171876,0.7269878387451172,1.1713933944702148,0.19904285669326782
1779909761786135600,16.773135498046877,0.8510727882385254,2.026280403137207,-0.5392425656318665
1779909761802465000,16.789465087890626,0.4112818241119385,1.6205291748046875,-0.9044698476791382
1779909761818786600,16.80578662109375,-0.11891865730285645,1.0969018936157227,-0.7973092198371887
1779909761835115000,16.822114990234375,-1.160789966583252,0.8190717697143555,-0.3355272710323334
1779909761851452700,16.83845263671875,-2.2115323543548584,0.5502309799194336,0.23905223608016968
1779909761867788300,16.854788330078126,-2.7083044052124023,0.4266672134399414,0.40560030937194824
1779909761884110000,16.871110107421874,-2.467635154724121,1.0975322723388672,-0.1669718474149704
1779909761900451800,16.887451904296874,-1.7961827516555786,1.9090299606323242,-0.25214970111846924
1779909761916788200,16.903788330078125,-1.7817929983139038,2.3463807106018066,0.1003764271736145
1779909761933127000,16.920126953125,-2.4084460735321045,2.3097543716430664,0.3838164806365967
1779909761949456100,16.9364560546875,-2.39058780670166,2.024068832397461,0.34317246079444885
1779909761965795600,16.952795654296875,-1.4397622346878052,1.7424798011779785,-0.18882215023040771
1779909761982135800,16.9691357421875,-0.3572591543197632,2.363788604736328,-1.3107978105545044
1779909761998474000,16.985473876953126,0.19366025924682617,3.5149435997009277,-1.4358357191085815
1779909762014792400,17.00179248046875,0.20668160915374756,4.517763137817383,-0.548973560333252
1779909762031131000,17.018130859375,2.8999438285827637,4.214168548583984,0.6999496817588806
1779909762047463000,17.034462890625,5.754626274108887,2.3020882606506348,3.064281940460205
1779909762063781400,17.050781494140626,6.460114479064941,0.057845115661621094,0.4515850841999054
1779909762080116700,17.06711669921875,-1.4752230644226074,-7.154244422912598,-3.6794590950012207
1779909762096466200,17.083466064453123,-11.58847713470459,-11.024395942687988,-4.1447038650512695
1779909762112799500,17.099799560546874,1.2503383159637451,-4.738726615905762,-1.42996346950531
1779909762129152800,17.11615283203125,5.906920909881592,0.6161880493164062,-0.525929868221283
1779909762145480200,17.132480224609374,-3.004493236541748,-1.8370285034179688,-2.3626275062561035
1779909762161813500,17.1488134765625,-5.807594299316406,-6.466204643249512,-3.9875130653381348
1779909762178146800,17.165146728515627,-0.8196636438369751,-3.815267562866211,-1.0837178230285645
1779909762194461200,17.181461181640625,1.2079554796218872,0.8276071548461914,1.5185298919677734
1779909762210822000,17.19782177734375,-0.8138532638549805,1.856752872467041,3.0493199825286865
1779909762227151000,17.214151123046875,-1.4726896286010742,3.0807251930236816,3.637316942214966
1779909762243484000,17.23048388671875,-0.9372991323471069,0.8300085067749023,3.675255298614502
1779909762259814400,17.246814453125,-2.890589952468872,0.9410724639892578,2.8137900829315186
1779909762276154600,17.263154541015624,-2.581533432006836,0.061341285705566406,1.817763328552246
1779909762292487400,17.2794873046875,-1.145674705505371,-0.020671844482421875,0.8202853798866272
1779909762308831500,17.29583154296875,-2.623751401901245,0.7223348617553711,0.02614954113960266
1779909762325139000,17.312138916015623,-1.4860961437225342,0.9760951995849609,-0.16578009724617004
1779909762341475300,17.328475341796874,0.5960855484008789,0.7420883178710938,-0.3094424605369568
1779909762357813800,17.344813720703126,0.6826949119567871,1.0368905067443848,-0.8824756145477295
1779909762374145500,17.3611455078125,-0.18430709838867188,0.7821993827819824,-0.7553832530975342
1779909762390477800,17.377477783203126,2.615039348602295,-2.3891401290893555,1.3547611236572266
1779909762406815500,17.3938154296875,6.008804798126221,-3.858186721801758,2.338813304901123
1779909762423144200,17.410144287109375,4.6912736892700195,-4.724169731140137,2.2057902812957764
1779909762439483100,17.426483154296875,2.6544442176818848,-4.19062614440918,0.3614792823791504
1779909762455814400,17.442814453125,2.3005621433258057,-1.9662461280822754,-1.474827766418457
1779909762472153600,17.459153564453125,2.1584949493408203,-0.43004465103149414,-3.707876205444336
1779909762488496000,17.47549609375,1.9684858322143555,-0.27122974395751953,-5.414511203765869
1779909762504830500,17.49183056640625,1.2659964561462402,1.109504222869873,-3.8308684825897217
1779909762521155800,17.50815576171875,-0.3643007278442383,2.7915163040161133,-0.7827802896499634
1779909762537487600,17.524487548828127,-1.1270942687988281,4.118006229400635,0.6061379313468933
1779909762553806600,17.540806640625,-0.8086085319519043,5.653524875640869,0.7297228574752808
1779909762570153700,17.55715380859375,-1.2079029083251953,6.698575019836426,0.6531010270118713
1779909762586486800,17.57348681640625,-1.6159977912902832,6.381312847137451,0.7560471296310425
1779909762602822000,17.58982177734375,-0.8647596836090088,3.407423496246338,0.6779965162277222
1779909762619153000,17.60615283203125,0.9735323190689087,0.3717517852783203,1.2846314907073975
1779909762635493000,17.6224931640625,3.657578945159912,0.38819122314453125,3.0804226398468018
1779909762651834600,17.638834716796875,5.2246856689453125,0.4970865249633789,3.8593671321868896
1779909762668167000,17.6551669921875,1.765151023864746,-2.589519500732422,3.777682065963745
1779909762684506000,17.671506103515625,-2.6907806396484375,-0.24010276794433594,0.13834550976753235
1779909762700838100,17.687838134765624,-5.359060287475586,2.363786220550537,-2.7603209018707275
1779909762717172700,17.7041728515625,-7.012528419494629,-0.5527753829956055,-4.25650691986084
1779909762733528600,17.720528564453126,-7.735421180725098,-8.1454496383667,-5.003136157989502
1779909762749838000,17.736838134765627,7.20478630065918,-4.549042701721191,-2.9319262504577637
1779909762766179800,17.753179931640624,14.27883529663086,-4.005441665649414,-0.9066349267959595
1779909762782510600,17.769510498046873,1.5134358406066895,-4.773202896118164,-1.9930611848831177
1779909762798842400,17.78584228515625,-8.62847900390625,-6.723655700683594,-5.568574905395508
1779909762815160000,17.80216015625,-1.9175629615783691,-7.388846397399902,2.354189395904541
1779909762831492900,17.818492919921876,3.567164421081543,-4.5681915283203125,5.576910018920898
1779909762847831600,17.83483154296875,2.5425548553466797,-3.408102035522461,4.742440223693848
1779909762864163600,17.85116357421875,0.9248429536819458,-1.6401395797729492,3.051980495452881
1779909762880503600,17.867503662109375,0.653939962387085,-1.3705005645751953,2.2634921073913574
1779909762896834800,17.883834716796876,0.4888061285018921,-0.4054584503173828,1.6597226858139038
1779909762913167600,17.900167724609375,0.43480849266052246,0.6826019287109375,1.0012085437774658
1779909762929503500,17.91650341796875,1.0488576889038086,1.147787094116211,0.5095109939575195
1779909762945832000,17.93283203125,0.055904269218444824,1.5143003463745117,0.03460799157619476
1779909762962183700,17.94918359375,-1.4557559490203857,1.9710469245910645,-0.45435136556625366
1779909762978516200,17.96551611328125,-2.2013769149780273,2.1862335205078125,-0.40041977167129517
1779909762994830800,17.981830810546874,-1.8006553649902344,2.4726181030273438,-0.07252296805381775
1779909763011185000,17.998184814453126,-0.19532287120819092,2.9517292976379395,-0.03466135263442993
1779909763027502300,18.01450244140625,0.4467734098434448,3.053630828857422,0.14242199063301086
1779909763043830500,18.03083056640625,0.1922001838684082,2.8935017585754395,0.20811033248901367
1779909763060176600,18.0471767578125,-0.9820265769958496,3.0094199180603027,-0.06099146604537964
1779909763076509000,18.063509033203125,-1.310068964958191,3.1009230613708496,-0.889590859413147
1779909763092827600,18.07982763671875,-0.9320614337921143,2.001521110534668,-0.6925456523895264
1779909763109164500,18.09616455078125,-0.15612363815307617,0.5877666473388672,0.5162467956542969
1779909763125515000,18.112514892578126,0.3580143451690674,0.11184406280517578,1.8850233554840088
1779909763141846300,18.12884619140625,1.990450382232666,1.041102409362793,1.9230564832687378
1779909763158180600,18.1451806640625,1.9602338075637817,1.705674171447754,1.240023136138916
1779909763174513400,18.161513427734373,-2.626587152481079,0.44210243225097656,0.8148722052574158
1779909763190846700,18.1778466796875,-5.976085186004639,-5.205357551574707,0.20310747623443604
1779909763207200500,18.194200439453127,-3.249985694885254,-10.680499076843262,0.6621996164321899
1779909763223541800,18.210541748046875,2.0763137340545654,-9.81563949584961,0.786742091178894
1779909763239857700,18.226857666015626,3.095258951187134,-5.462613582611084,0.40636146068573
1779909763256203300,18.243203369140623,3.3816986083984375,-1.308995246887207,0.353951096534729
1779909763272533000,18.259532958984376,3.0269339084625244,1.0156855583190918,-0.8782398700714111
1779909763288862200,18.2758623046875,1.3567490577697754,1.5745658874511719,-3.454986810684204
1779909763305175000,18.292175048828124,0.034276485443115234,0.9741082191467285,-3.107966899871826
1779909763321525200,18.308525146484374,0.3263578414916992,1.4627933502197266,-1.6809273958206177
1779909763337853000,18.32485302734375,1.2279844284057617,2.302588939666748,-1.1684939861297607
1779909763354189600,18.341189453125,0.8714923858642578,2.2924585342407227,-1.1168084144592285
1779909763370522000,18.357522216796873,0.6276073455810547,2.378542900085449,-1.1763073205947876
1779909763386858200,18.373858154296876,0.9971590042114258,2.7676377296447754,-1.5628193616867065
1779909763403190300,18.390190185546874,1.929577350616455,3.4126086235046387,-2.0202624797821045
1779909763419525600,18.406525634765625,2.387845516204834,3.9579806327819824,-1.9810662269592285
1779909763435857700,18.422857666015624,2.054091215133667,3.82772159576416,-1.100171685218811
1779909763452192500,18.439192626953126,1.5636179447174072,2.155129909515381,-0.1129908561706543
1779909763468569000,18.455569091796875,1.8871568441390991,1.6279339790344238,1.8211603164672852
1779909763484871000,18.471870849609374,1.994274616241455,2.2182650566101074,4.320398807525635
1779909763501206800,18.488206787109377,2.627859115600586,0.8274602890014648,5.39111328125
1779909763517543400,18.50454345703125,0.03963935375213623,-0.9520177841186523,5.117209434509277
1779909763533857000,18.52085693359375,-1.9951634407043457,0.37797069549560547,1.3503938913345337
1779909763550197800,18.53719775390625,-2.2630786895751953,1.5161199569702148,-2.001709222793579
1779909763566530600,18.553530517578125,-5.149877548217773,0.7624492645263672,-3.6653664112091064
1779909763582852900,18.569852783203125,-12.33098316192627,1.1014671325683594,-4.780627727508545
1779909763599198700,18.58619873046875,-8.04499626159668,-0.21449947357177734,-5.479462623596191
1779909763615534000,18.6025341796875,10.227910041809082,-2.204313278198242,-4.506257057189941
1779909763631869400,18.618869384765624,17.802005767822266,-0.8259487152099609,0.07844780385494232
1779909763648217600,18.635217529296874,6.388529300689697,-3.5691137313842773,1.7090520858764648
1779909763664538600,18.65153857421875,-15.298306465148926,-7.561164855957031,-4.502313613891602
1779909763680905200,18.6679052734375,-3.694187879562378,-6.033909797668457,-1.4049139022827148
1779909763697222000,18.684221923828126,5.69852876663208,-2.7705554962158203,3.080620288848877
1779909763713540600,18.70054052734375,-0.31736040115356445,-5.764274597167969,4.241432189941406
1779909763729879800,18.7168798828125,-3.1531405448913574,-7.420960426330566,2.4323935508728027
1779909763746206700,18.733206787109374,1.582510232925415,-2.9135122299194336,0.23128318786621094
1779909763762555000,18.749554931640624,2.706632375717163,0.36421871185302734,0.5655516386032104
1779909763778893600,18.7658935546875,1.7473738193511963,2.4203615188598633,1.6737555265426636
1779909763795198500,18.782198486328124,1.5242172479629517,3.103046417236328,2.0651774406433105
1779909763811540700,18.798540771484376,0.570543646812439,1.3486433029174805,1.9840326309204102
1779909763827877600,18.814877685546875,-1.86650550365448,-1.1617612838745117,-0.5303321480751038
1779909763844211000,18.8312109375,0.0651775598526001,-1.1549320220947266,-1.7420612573623657
1779909763860544500,18.84754443359375,-0.19297289848327637,0.24721813201904297,-0.9322889447212219
1779909763876878600,18.863878662109375,-1.840688705444336,1.262619972229004,1.1669602394104004
1779909763893213200,18.880213134765626,-1.8308026790618896,1.6898765563964844,1.643381953239441
1779909763909536500,18.89653662109375,-1.0839288234710693,2.6112008094787598,0.8154719471931458
1779909763925881600,18.912881591796875,-0.8982267379760742,3.665782928466797,-0.40329819917678833
1779909763942215400,18.92921533203125,-1.6409761905670166,3.250560760498047,-1.4937450885772705
1779909763958551800,18.9455517578125,-1.1062637567520142,1.3821592330932617,-1.3673218488693237
1779909763974893000,18.96189306640625,-0.06825196743011475,0.6953630447387695,0.30197739601135254
1779909763991232500,18.978232421875,-0.3526461124420166,1.0565528869628906,1.6324434280395508
1779909764007531800,18.99453173828125,-0.956838846206665,1.4640979766845703,2.531393527984619
1779909764023871000,19.01087109375,-0.6864087581634521,0.7561273574829102,2.0663795471191406
1779909764040219600,19.0272197265625,-0.9910373687744141,-1.2531013488769531,0.6376841068267822
1779909764056555800,19.0435556640625,-0.9396724700927734,-2.7141590118408203,-0.7290326952934265
1779909764072889300,19.059889404296875,1.5680551528930664,-4.8358964920043945,-1.0383410453796387
1779909764089205500,19.07620556640625,1.6644740104675293,-5.2219953536987305,0.1975812315940857
1779909764105545200,19.092545166015626,1.3183765411376953,-3.8063340187072754,-0.48554062843322754
1779909764121876700,19.108876708984376,0.7949562072753906,-2.542506217956543,-0.4102206230163574
1779909764138211800,19.1252119140625,1.0207033157348633,-1.3086295127868652,-0.17082810401916504
1779909764154544600,19.141544677734377,1.111445426940918,-0.8632187843322754,-0.9028253555297852
1779909764170881800,19.1578818359375,-0.14333009719848633,-0.5397400856018066,-1.1815012693405151
1779909764187214600,19.174214599609375,-0.06309175491333008,0.22994232177734375,-0.6671880483627319
1779909764203545600,19.190545654296876,0.5037784576416016,1.79319429397583,-0.5811699628829956
1779909764219881700,19.2068818359375,0.9422469139099121,2.561039447784424,-2.24576997756958
1779909764236216300,19.22321630859375,2.0497381687164307,2.437955379486084,-2.370854616165161
1779909764252548000,19.239548095703125,2.7589406967163086,2.755892753601074,-1.3832544088363647
1779909764268884500,19.255884521484376,2.86372971534729,3.2338547706604004,-1.1385458707809448
1779909764285217300,19.27221728515625,2.414372205734253,3.4490785598754883,-1.2181851863861084
1779909764301551900,19.2885517578125,2.0032718181610107,3.8002676963806152,-1.1329951286315918
1779909764317885700,19.3048857421875,1.528183937072754,3.564668655395508,-0.5597846508026123
1779909764334226000,19.321225830078124,0.011862993240356445,1.1126823425292969,-0.08443331718444824
1779909764350553600,19.3375537109375,-1.503654956817627,1.1432161331176758,0.7411454916000366
1779909764366889000,19.353888916015624,-1.3253018856048584,1.3594188690185547,2.1165835857391357
1779909764383221000,19.370220947265626,-0.40390563011169434,0.6072826385498047,3.6286730766296387
1779909764399555800,19.386555908203125,-0.6396583318710327,-0.4236927032470703,3.8797526359558105
1779909764415890400,19.402890380859375,-1.8482204675674438,1.8355154991149902,-0.5870600342750549
1779909764432222700,19.41922265625,-4.235817909240723,2.6298675537109375,-3.001993179321289
1779909764448558000,19.43555810546875,-6.354412078857422,3.1716818809509277,-3.6730880737304688
1779909764464893700,19.451893798828124,-5.872040271759033,3.106051445007324,-3.1932947635650635
1779909764481223700,19.4682236328125,-3.7860264778137207,-0.4783973693847656,-3.1621744632720947
1779909764497560800,19.484560791015625,7.5340895652771,-3.1543588638305664,-2.417572498321533
1779909764513892600,19.500892578125,11.199831008911133,-2.3982839584350586,1.0736825466156006
1779909764530227700,19.517227783203126,3.9974172115325928,-4.254291534423828,0.7737520337104797
1779909764546561800,19.533561767578124,-1.7719060182571411,-8.193732261657715,-2.300081729888916
1779909764562911000,19.549910888671874,-3.525542736053467,-9.654817581176758,-1.1607153415679932
1779909764579230500,19.56623046875,-4.473428726196289,-10.49580192565918,1.1212462186813354
1779909764595576600,19.58257666015625,-2.930434226989746,-6.960079193115234,1.2126063108444214
1779909764611907800,19.598907958984373,3.5549678802490234,-2.746697425842285,-0.370394229888916
1779909764628246000,19.61524609375,2.84165620803833,0.9243106842041016,-0.9598990678787231
1779909764644568600,19.631568603515625,3.1888084411621094,3.919254779815674,-0.9221678972244263
1779909764660913200,19.6479130859375,3.0837879180908203,3.681427478790283,-0.23658275604248047
1779909764677271600,19.664271484375,1.8055007457733154,1.0333728790283203,-1.0136061906814575
1779909764693573400,19.680573486328125,-0.09599465131759644,-1.4510574340820312,-2.5976057052612305
1779909764709923600,19.696923583984375,-1.2365789413452148,-2.2296810150146484,-1.7931818962097168
1779909764726265900,19.713265869140624,-0.5339807271957397,0.24427318572998047,1.0907907485961914
1779909764742579700,19.729579833984374,-2.085251808166504,0.9916324615478516,2.838202476501465
1779909764758931500,19.745931396484377,-2.9333033561706543,2.364443778991699,1.7347174882888794
1779909764775243500,19.762243408203126,-0.003042668104171753,3.343412399291992,-0.38435882329940796
1779909764791585800,19.778585693359375,0.32580411434173584,4.324594974517822,-0.8659714460372925
1779909764807917000,19.7949169921875,-0.5018936991691589,4.74431037902832,-0.4184158742427826
1779909764824253000,19.8112529296875,-0.6128392815589905,3.4491968154907227,-0.028360292315483093
1779909764840582700,19.827582763671874,0.25317269563674927,1.5232276916503906,0.5270898938179016
1779909764856921000,19.843921142578125,0.5410274863243103,-0.28380680084228516,0.6902961730957031
1779909764873251000,19.8602509765625,0.7321451902389526,-0.8801651000976562,0.7449344396591187
1779909764889588700,19.876588623046874,0.2898530960083008,0.33515453338623047,0.24128109216690063
1779909764905913600,19.89291357421875,0.6705414056777954,1.640427589416504,-0.29374831914901733
1779909764922256600,19.909256591796876,1.3049179315567017,2.3245468139648438,-0.9873358607292175
1779909764938604300,19.925604248046874,-5.690793037414551,1.098855972290039,-2.9027504920959473
1779909764954940200,19.941940185546876,-6.117426872253418,-3.896760940551758,-5.159981727600098
1779909764971273700,19.958273681640627,-0.761258602142334,-6.800026893615723,-3.8527112007141113
1779909764987604200,19.974604248046877,-1.2345819473266602,-4.868167877197266,-1.0483810901641846
1779909765003920600,19.990920654296875,-3.9128355979919434,-4.933080673217773,1.7777440547943115
1779909765020277200,20.00727734375,-4.110459327697754,-6.621620178222656,2.724313259124756
1779909765036604700,20.023604736328124,-4.4864821434021,-7.9770965576171875,2.1215603351593018
1779909765052929500,20.039929443359377,-2.403243064880371,-5.172136306762695,-0.5258400440216064
1779909765069265200,20.05626513671875,-0.0821237564086914,-2.650297164916992,-3.7988150119781494
1779909765085596700,20.0725966796875,1.4963879585266113,-1.1252555847167969,-5.5926923751831055
1779909765101928200,20.08892822265625,0.2226710319519043,-0.5365781784057617,-3.450979232788086
1779909765118265300,20.105265380859375,1.586773157119751,0.058020591735839844,-2.7987170219421387
1779909765134597600,20.12159765625,1.8282036781311035,1.6418757438659668,-1.9128249883651733
1779909765150950700,20.13795068359375,2.1053500175476074,2.8663125038146973,-0.6189278364181519
1779909765167281400,20.154281494140626,2.1959292888641357,3.634225368499756,0.06437981128692627
1779909765183597600,20.17059765625,2.570822238922119,3.6817703247070312,0.1422266960144043
1779909765199953400,20.186953369140625,2.5541372299194336,3.251126289367676,-0.2980654239654541
1779909765216282400,20.203282470703126,3.015972137451172,3.500552177429199,-0.7299909591674805
1779909765232611600,20.219611572265624,3.3028082847595215,4.354771614074707,-1.0097637176513672
1779909765248951000,20.235950927734375,2.317443370819092,5.579850196838379,-1.0025055408477783
1779909765265266400,20.252266357421874,0.7760231494903564,6.241894721984863,-1.064239501953125
1779909765281603600,20.268603515625,-0.6128871440887451,5.805246353149414,-0.9074586629867554
1779909765297937400,20.2849375,-2.9312918186187744,2.4813475608825684,-0.6231772899627686
1779909765314273300,20.301273193359375,-8.227960586547852,-6.359888076782227,-0.46087026596069336
1779909765330605600,20.31760546875,-12.686429977416992,-7.312939643859863,4.453075408935547
1779909765346939600,20.333939697265624,-9.987983703613281,-0.36300086975097656,5.362189292907715
1779909765363262500,20.350262451171876,-2.1667749881744385,4.703610420227051,1.854640007019043
1779909765379608000,20.366608154296873,2.531226873397827,2.6523656845092773,-1.2688581943511963
1779909765395943000,20.38294287109375,5.531326770782471,-7.319729804992676,-2.873377799987793
1779909765412279300,20.399279296875,9.526070594787598,-22.86341094970703,-5.777287483215332
1779909765428610000,20.415610107421877,-1.2988965511322021,-14.75693416595459,-7.2387847900390625
1779909765444976000,20.43197607421875,-5.022130966186523,1.8862028121948242,-4.7323713302612305
1779909765461293300,20.448293212890626,2.4808080196380615,7.082319259643555,-5.021487236022949
1779909765477609000,20.46460888671875,2.225198745727539,8.326950073242188,-3.6595723628997803
1779909765493945300,20.4809453125,6.528096675872803,5.996272563934326,-4.144016265869141
1779909765510292700,20.497292724609373,9.039559364318848,2.4423112869262695,-3.35060453414917
1779909765526627800,20.5136279296875,9.251959800720215,-1.7245521545410156,-2.641779899597168
1779909765542973400,20.529973388671873,8.075722694396973,-4.708988189697266,-2.175049066543579
1779909765559285200,20.54628515625,-5.097631931304932,-6.43282413482666,0.5054749250411987
1779909765575601000,20.562600830078125,-1.8170539140701294,-0.7021417617797852,2.1250157356262207
1779909765591950600,20.57895068359375,5.1801981925964355,2.238778591156006,1.1702985763549805
1779909765608285000,20.595284912109374,5.106405735015869,0.6192808151245117,0.5176655054092407
1779909765624618000,20.611617919921876,4.676114559173584,1.0323333740234375,-1.726156234741211
1779909765640953600,20.62795361328125,1.5275754928588867,2.1567468643188477,-2.860833168029785
1779909765657323000,20.644322998046874,-0.31417328119277954,1.5543537139892578,-1.670833945274353
1779909765673614600,20.660614501953123,0.2593590319156647,0.0035314559936523438,-0.5498136281967163
1779909765689968400,20.676968505859374,0.49194037914276123,-1.38037109375,0.4122891426086426
1779909765706291500,20.69329150390625,0.751845121383667,-1.7197942733764648,1.2569756507873535
